nodeID,seqNumber,status,gyroTick,gyroX,gyroY,gyroZ,accelTick,accelX,accelY,accelZ,magTick,magX,magY,magZ,currentTime
3,81,0,46192,-70,-37,56,46142,112,-208,-8304,44245,-25,-145,-446,1401890015.221129
3,82,0,47192,-65,-37,62,48020,112,-192,-8288,46825,-24,-144,-444,1401890015.221143
3,83,0,49192,-50,-32,61,49898,128,-224,-8320,49406,-23,-142,-444,1401890015.221145
3,84,0,51191,-32,-25,70,51776,96,-288,-8304,49406,-23,-142,-444,1401890015.221146
3,85,0,53191,-33,-15,74,53655,160,-304,-8288,51986,-22,-143,-447,1401890015.221148
3,86,0,55191,-40,-24,87,55533,240,-272,-8320,54567,-25,-147,-446,1401890015.221150
3,87,0,57190,-43,-16,97,57411,288,-272,-8240,57146,-22,-147,-449,1401890015.221151
3,88,0,59190,-29,-19,78,59289,272,-256,-8224,57146,-22,-147,-449,1401890015.221153
3,89,0,61190,-15,-20,48,61167,288,-256,-8224,59727,-24,-145,-448,1401890015.221155
3,90,0,62190,-6,-26,39,63045,336,-256,-8176,62308,-22,-146,-446,1401890015.221156
3,91,0,64189,5,-39,26,64923,336,-256,-8128,64889,-21,-146,-443,1401890015.221158
3,92,0,653,1,-25,20,1265,320,-224,-8192,64889,-21,-146,-443,1401890015.221160
3,93,0,2652,-3,-26,22,3143,368,-272,-8192,1932,-21,-144,-448,1401890015.221162
3,94,0,4652,-15,-21,13,5021,336,-208,-8240,4513,-24,-145,-447,1401890015.221163
3,95,0,6652,-19,-22,6,6899,336,-176,-8240,4513,-24,-145,-447,1401890015.221165
3,96,0,8651,-26,-8,7,8778,368,-208,-8288,7094,-18,-147,-446,1401890015.221167
3,97,0,10651,-15,-3,1,10656,304,-176,-8272,9674,-21,-145,-446,1401890015.221168
3,98,0,11651,-8,-14,8,12535,336,-320,-8240,12255,-22,-143,-446,1401890015.221170
3,99,0,13651,-16,-16,3,14414,384,-272,-8192,12255,-22,-143,-446,1401890015.221172
3,100,0,15650,-13,1,18,16292,352,-256,-8192,14835,-20,-148,-445,1401890015.221173
3,101,0,17650,-14,-4,11,18171,336,-240,-8192,17416,-20,-145,-447,1401890015.221175
3,102,0,19650,-16,-3,17,20049,336,-176,-8160,19996,-20,-146,-445,1401890015.221177
3,103,0,21649,-13,-3,10,21927,384,-240,-8176,19996,-20,-146,-445,1401890015.221179
3,104,0,23649,-14,9,8,23805,432,-176,-8192,22577,-17,-148,-445,1401890015.221180
3,105,0,25648,-27,8,-11,25684,368,-224,-8176,25158,-20,-145,-450,1401890015.221190
3,106,0,26648,-29,5,-13,27563,384,-272,-8192,25158,-20,-145,-450,1401890015.221192
3,107,0,28648,-54,7,-29,29442,400,-208,-8176,27739,-19,-147,-448,1401890015.221193
3,108,0,30648,-77,10,-28,31320,480,-272,-8176,30320,-20,-150,-445,1401890015.221195
3,109,0,32647,-91,14,-38,33197,416,-256,-8208,32899,-23,-146,-447,1401890015.221197
3,110,0,34647,-105,15,-46,35075,432,-240,-8240,32899,-23,-146,-447,1401890015.221198
3,111,0,36647,-94,16,-50,36952,368,-288,-8208,35479,-21,-147,-446,1401890015.221200
3,112,0,38646,-85,20,-59,38831,368,-352,-8256,38059,-21,-150,-447,1401890015.221202
3,113,0,40646,-74,19,-64,40709,368,-288,-8224,40640,-22,-148,-446,1401890015.221203
3,114,0,41646,-59,15,-59,42587,368,-272,-8240,40640,-22,-148,-446,1401890015.221205
3,115,0,43645,-56,17,-65,44464,352,-352,-8208,43221,-20,-147,-447,1401890015.221207
3,116,0,45645,-65,22,-66,46342,368,-304,-8224,45800,-19,-150,-448,1401890015.221208
3,117,0,47645,-61,21,-64,48219,336,-224,-8256,45800,-19,-150,-448,1401890015.221210
3,118,0,49644,-64,17,-60,50097,336,-288,-8240,48380,-18,-149,-446,1401890015.221211
3,119,0,51644,-64,25,-58,51975,336,-320,-8256,50960,-20,-150,-450,1401890015.221213
3,120,0,53644,-54,19,-66,53853,384,-304,-8256,53541,-20,-150,-448,1401890015.221215
3,121,0,55643,-51,17,-73,55730,384,-272,-8208,53541,-20,-150,-448,1401890015.221216
3,122,0,56643,-47,17,-75,57608,400,-304,-8192,56120,-22,-149,-446,1401890015.221218
3,123,0,58643,-39,19,-93,59486,400,-304,-8208,58701,-18,-152,-447,1401890015.221220
3,124,0,60642,-32,14,-98,61364,368,-320,-8208,61281,-22,-150,-446,1401890015.221221
3,125,0,62642,-25,7,-98,63242,384,-352,-8224,61281,-22,-150,-446,1401890015.221223
3,126,0,64642,-24,4,-109,64651,368,-384,-8208,63862,-18,-152,-446,1401890015.221225
3,127,0,1105,-25,3,-109,993,368,-352,-8240,906,-20,-153,-443,1401890015.221226
3,128,0,3105,-32,-3,-128,2871,368,-352,-8208,906,-20,-153,-443,1401890015.221228
3,129,0,5105,-43,10,-130,4749,288,-384,-8256,3488,-23,-153,-446,1401890015.221230
3,130,0,6105,-46,7,-139,6627,288,-384,-8240,6069,-21,-155,-449,1401890015.221268
3,131,0,8104,-43,21,-136,8505,288,-352,-8224,8649,-18,-152,-442,1401890015.221270
3,132,0,10104,-29,18,-134,10382,304,-288,-8208,8649,-18,-152,-442,1401890015.221271
3,133,0,12103,-35,12,-129,12260,336,-208,-8224,11229,-19,-151,-447,1401890015.221273
3,134,0,14103,-45,10,-129,14138,304,-272,-8208,13808,-20,-157,-448,1401890015.221275
3,135,0,16103,-71,12,-124,16015,384,-208,-8240,16389,-19,-155,-445,1401890015.221276
3,136,0,18102,-100,11,-104,17892,320,-240,-8240,16389,-19,-155,-445,1401890015.221278
3,137,0,20102,-122,2,-96,19771,304,-224,-8256,18969,-20,-161,-449,1401890015.221280
3,138,0,21102,-135,1,-76,21649,176,-240,-8272,21551,-19,-158,-447,1401890015.221281
3,139,0,23102,-135,8,-53,23526,192,-336,-8224,21551,-19,-158,-447,1401890015.221283
3,140,0,25101,-136,13,-26,25404,176,-368,-8224,24131,-18,-157,-446,1401890015.221285
3,141,0,27101,-109,15,-12,27282,192,-320,-8128,26713,-20,-157,-449,1401890015.221286
3,142,0,29101,-115,32,-3,29160,304,-240,-8096,29292,-19,-158,-452,1401890015.221288
3,143,0,31100,-115,46,-18,31039,368,-256,-7984,29292,-19,-158,-452,1401890015.221290
3,144,0,33100,-131,51,-56,32917,384,-176,-7936,31873,-20,-160,-448,1401890015.221291
3,145,0,35100,-154,49,-108,34795,496,-80,-7920,34454,-20,-160,-447,1401890015.221293
3,146,0,36099,-161,41,-136,36672,592,32,-7984,37035,-20,-161,-446,1401890015.221295
3,147,0,38099,-175,46,-147,38550,688,256,-8000,37035,-20,-161,-446,1401890015.221296
3,148,0,40099,-189,50,-131,40428,784,208,-7904,39616,-21,-168,-446,1401890015.221298
3,149,0,42098,-182,61,-96,42305,752,128,-7776,42197,-23,-167,-443,1401890015.221300
3,150,0,44098,-174,80,-42,44183,784,16,-7488,42197,-23,-167,-443,1401890015.221301
3,151,0,46098,-152,89,20,46061,832,-160,-7216,44779,-22,-167,-445,1401890015.221303
3,152,0,48097,-137,72,67,47938,768,-208,-7152,47360,-22,-168,-443,1401890015.221305
3,153,0,50097,-128,54,81,49817,816,-256,-7072,49940,-26,-166,-443,1401890015.221306
3,154,0,51097,-131,37,76,51694,720,-256,-7040,49940,-26,-166,-443,1401890015.221308
3,155,0,53096,-116,-11,41,53571,528,-384,-7184,52521,-27,-167,-442,1401890015.221310
3,156,0,55096,-103,-44,-2,55449,352,-496,-7408,55102,-30,-170,-442,1401890015.221316
3,157,0,57096,-96,-82,-52,57327,144,-608,-7632,57683,-28,-171,-439,1401890015.221318
3,158,0,59095,-116,-108,-99,59205,16,-768,-8016,57683,-28,-171,-439,1401890015.221320
3,159,0,61095,-166,-88,-141,61083,-64,-800,-8560,60264,-33,-173,-435,1401890015.221322
3,160,0,63095,-194,-48,-167,62960,-288,-928,-9216,62844,-32,-174,-438,1401890015.221323
3,161,0,65094,-184,21,-151,64838,-592,-1088,-9712,62844,-32,-174,-438,1401890015.221325
3,162,0,558,-162,62,-139,1180,-800,-1552,-10112,65425,-30,-178,-437,1401890015.221327
3,163,0,2558,-105,115,-117,3058,-976,-1936,-10160,2469,-29,-178,-439,1401890015.221329
3,164,0,4557,-42,165,-109,4936,-1056,-2288,-10000,5051,-35,-176,-437,1401890015.221330
3,165,0,6557,12,178,-97,6814,-976,-2560,-9792,5051,-35,-176,-437,1401890015.221332
3,166,0,8557,71,190,-76,8692,-816,-2688,-9520,7632,-36,-184,-436,1401890015.221334
3,167,0,10556,74,176,-47,10570,-592,-2592,-9136,10213,-37,-178,-440,1401890015.221336
3,168,0,12556,7,162,-15,12447,-384,-2368,-8816,10213,-37,-178,-440,1401890015.221337
3,169,0,14556,-74,168,0,14325,-144,-2048,-8384,12794,-35,-179,-441,1401890015.221339
3,170,0,15556,-119,158,7,16204,32,-1600,-8160,15375,-42,-177,-443,1401890015.221341
3,171,0,17555,-157,161,11,18082,208,-1152,-7888,17956,-38,-179,-442,1401890015.221342
3,172,0,19555,-138,156,-8,19960,256,-784,-7664,17956,-38,-179,-442,1401890015.221344
3,173,0,21554,-90,140,-56,21838,240,-512,-7616,20537,-42,-175,-446,1401890015.221346
3,174,0,23554,-17,131,-101,23717,192,-480,-7504,23117,-43,-176,-443,1401890015.221348
3,175,0,25554,83,114,-136,25595,64,-528,-7600,25698,-42,-173,-442,1401890015.221349
3,176,0,27553,190,104,-145,27473,-64,-624,-7648,25698,-42,-173,-442,1401890015.221351
3,177,0,29553,278,89,-133,29351,-96,-736,-7760,28278,-45,-173,-442,1401890015.221353
3,178,0,30553,315,81,-116,31230,-272,-816,-7968,30859,-48,-167,-440,1401890015.221365
3,179,0,32553,357,66,-61,33108,-256,-992,-8096,30859,-48,-167,-440,1401890015.221367
3,180,0,34552,360,55,-13,34987,-320,-1072,-8016,33441,-48,-165,-439,1401890015.221369
3,181,0,36552,334,34,28,36866,-304,-1104,-8032,36023,-52,-163,-441,1401890015.221384
3,182,0,38552,297,7,59,38745,-240,-1056,-8000,38604,-52,-162,-441,1401890015.221386
3,183,0,40551,265,0,67,40623,-240,-992,-7984,38604,-52,-162,-441,1401890015.221388
3,184,0,42551,231,8,80,42501,-272,-944,-7952,41185,-50,-160,-439,1401890015.221390
3,185,0,44551,211,24,69,44378,-304,-800,-7952,43765,-50,-157,-439,1401890015.221391
3,186,0,45550,197,21,71,46257,-256,-592,-7968,46345,-49,-154,-439,1401890015.221393
3,187,0,47550,177,58,94,48134,-224,-432,-8016,46345,-49,-154,-439,1401890015.221395
3,188,0,49550,174,91,129,50012,-144,-288,-8080,48926,-49,-153,-433,1401890015.221396
3,189,0,51549,170,138,150,51890,-32,-224,-8192,51506,-51,-155,-440,1401890015.221398
3,190,0,53549,164,168,179,53768,192,-128,-8160,51506,-51,-155,-440,1401890015.221400
3,191,0,55549,130,171,211,55646,336,-176,-8192,54086,-50,-151,-438,1401890015.221401
3,192,0,57548,54,176,224,57524,464,-192,-8240,56668,-48,-151,-445,1401890015.221403
3,193,0,59548,-5,161,203,59403,480,-224,-8224,59248,-49,-152,-442,1401890015.221405
3,194,0,60548,-24,161,189,61281,448,-240,-8208,59248,-49,-152,-442,1401890015.221406
3,195,0,62547,-59,151,155,63160,448,-256,-8176,61829,-54,-152,-444,1401890015.221408
3,196,0,64547,-76,129,136,65038,336,-272,-8112,64411,-52,-153,-446,1401890015.221410
3,197,0,1011,-105,114,134,1380,272,-336,-8048,1455,-50,-156,-443,1401890015.221411
3,198,0,3010,-127,106,121,3258,304,-336,-8000,1455,-50,-156,-443,1401890015.221413
3,199,0,5010,-155,107,113,5136,240,-368,-8064,4035,-51,-156,-442,1401890015.221415
3,200,0,7010,-166,103,112,7016,272,-320,-8096,6615,-50,-158,-444,1401890015.221416
3,201,0,9009,-167,115,88,8894,112,-256,-8000,6615,-50,-158,-444,1401890015.221418
3,202,0,10009,-181,113,85,10772,48,-240,-8032,9196,-49,-158,-442,1401890015.221420
3,203,0,12009,-191,126,63,12651,-32,-224,-8160,11777,-50,-159,-445,1401890015.221421
3,204,0,14008,-206,137,34,14525,-144,-256,-8224,14357,-51,-160,-443,1401890015.221423
3,205,0,16008,-219,137,-4,16403,-224,-288,-8240,14357,-51,-160,-443,1401890015.221425
3,206,0,18008,-224,114,-45,18281,-256,-352,-8320,16938,-51,-162,-442,1401890015.221426
3,207,0,20007,-206,83,-74,20159,-304,-560,-8256,19519,-53,-166,-442,1401890015.221428
3,208,0,22007,-174,53,-66,22036,-336,-768,-8208,22101,-55,-166,-443,1401890015.221430
3,79,0,61320,137,100,47,61382,896,-1200,-7712,60735,-25,-155,-442,1401890015.221718
3,80,0,63320,139,109,65,63259,992,-1296,-7632,63315,-21,-154,-443,1401890015.233371
3,81,0,65319,113,124,67,65138,1008,-1344,-7616,63315,-21,-154,-443,1401890015.245390
3,82,0,1783,54,125,55,1479,1056,-1360,-7600,358,-23,-155,-446,1401890015.251471
3,83,0,3783,-12,116,39,3357,1056,-1408,-7632,2939,-25,-154,-447,1401890015.263393
3,84,0,4782,-46,123,31,5235,1040,-1312,-7568,5519,-25,-155,-446,1401890015.274976
3,85,0,6782,-87,134,13,7112,944,-1168,-7584,5519,-25,-155,-446,1401890015.286594
3,86,0,8782,-90,126,-4,8991,912,-1040,-7616,8100,-25,-156,-447,1401890015.286849
3,87,0,10781,-44,133,-32,10869,928,-784,-7792,10681,-25,-155,-449,1401890015.304704
3,88,0,12781,18,126,-42,12746,864,-640,-7872,10681,-25,-155,-449,1401890015.316728
3,89,0,14781,86,139,-75,14625,848,-624,-8000,13261,-27,-154,-445,1401890015.316975
3,90,0,16780,137,134,-98,16503,960,-576,-8096,15843,-27,-155,-447,1401890015.334854
3,91,0,18780,142,135,-123,18381,1024,-640,-8224,18424,-30,-154,-447,1401890015.346854
3,92,0,19780,136,133,-122,20259,992,-672,-8320,18424,-30,-154,-447,1401890015.347097
3,93,0,21780,87,122,-118,22136,976,-640,-8384,21005,-30,-157,-445,1401890015.363974
3,94,0,23779,31,101,-103,24013,864,-656,-8320,23586,-33,-154,-445,1401890015.375362
3,95,0,25779,-39,94,-88,25890,736,-576,-8256,26166,-33,-158,-441,1401890015.381146
3,96,0,27779,-107,92,-75,27767,608,-576,-8208,26166,-33,-158,-441,1401890015.393088
3,97,0,29778,-154,87,-70,29644,464,-496,-8080,28747,-34,-158,-446,1401890015.404724
3,98,0,31778,-195,95,-73,31520,304,-400,-7952,31328,-34,-157,-440,1401890015.416688
3,99,0,33778,-199,88,-73,33397,128,-384,-7856,31328,-34,-157,-440,1401890015.417023
3,100,0,34777,-190,88,-68,35274,-16,-192,-7728,33908,-36,-162,-445,1401890015.435486
3,101,0,36777,-162,93,-74,37151,-192,-32,-7664,36489,-36,-162,-446,1401890015.441144
3,102,0,38777,-113,82,-75,39029,-288,192,-7600,39069,-40,-162,-441,1401890015.452969
3,103,0,40776,-52,95,-65,40906,-480,304,-7648,39069,-40,-162,-441,1401890015.464842
3,104,0,42776,13,86,-68,42784,-624,352,-7824,41649,-40,-164,-442,1401890015.477013
3,105,0,44776,71,103,-60,44661,-848,384,-8064,44230,-41,-165,-442,1401890015.477417
3,106,0,46775,122,105,-35,46539,-1072,400,-8256,46811,-41,-162,-444,1401890015.495093
3,107,0,48775,148,110,-9,48415,-1152,384,-8384,46811,-41,-162,-444,1401890015.507097
3,108,0,49775,145,121,12,50293,-1296,320,-8496,49391,-43,-162,-443,1401890015.507343
3,109,0,51774,80,136,37,52171,-1264,272,-8688,51972,-43,-161,-440,1401890015.524468
3,110,0,53774,-34,145,70,54049,-1280,304,-8832,51972,-43,-161,-440,1401890015.536347
3,111,0,55774,-140,149,76,55927,-1312,240,-8944,54553,-42,-163,-440,1401890015.536588
3,112,0,57773,-206,134,87,57805,-1248,256,-8992,57132,-42,-167,-441,1401890015.554229
3,113,0,59773,-221,113,98,59683,-1136,144,-8976,59712,-45,-167,-441,1401890015.566103
3,114,0,61773,-189,72,113,61560,-992,112,-8896,59712,-45,-167,-441,1401890015.566344
3,115,0,63772,-129,41,138,63437,-800,112,-8704,62293,-45,-170,-442,1401890015.584090
3,116,0,64772,-99,31,149,65314,-624,144,-8656,64874,-46,-170,-444,1401890015.595587
3,117,0,1236,-34,10,164,1655,-384,48,-8544,1918,-46,-172,-440,1401890015.601674
3,118,0,3236,23,-14,173,3532,-192,-32,-8432,1918,-46,-172,-440,1401890015.613207
3,119,0,5235,66,-14,172,5408,-48,-192,-8304,4498,-43,-172,-441,1401890015.624601
3,120,0,7235,86,-10,170,7285,144,-448,-8240,7079,-43,-172,-440,1401890015.636599
3,121,0,9235,85,0,158,9162,240,-624,-8176,7079,-43,-172,-440,1401890015.636830
3,122,0,11234,73,4,150,11040,304,-672,-8176,9658,-39,-174,-443,1401890015.655103
3,123,0,13234,47,13,142,12917,192,-656,-8160,12238,-39,-171,-441,1401890015.667627
3,124,0,14234,36,17,138,14794,128,-576,-8144,14818,-41,-171,-443,1401890015.667867
3,125,0,16233,10,-6,111,16670,-32,-432,-8176,14818,-41,-171,-443,1401890015.686450
3,126,0,18233,-13,13,102,18548,-240,-208,-8176,17398,-41,-169,-442,1401890015.686755
3,127,0,20233,-32,19,93,20425,-416,-32,-8224,19978,-43,-168,-440,1401890015.704447
3,128,0,22232,-32,22,82,22302,-560,112,-8256,22558,-43,-171,-444,1401890015.715181
3,129,0,24232,-29,36,84,24180,-736,144,-8256,22558,-43,-171,-444,1401890015.725904
3,130,0,26232,-16,21,72,26056,-848,288,-8224,25138,-45,-172,-443,1401890015.726034
3,131,0,28231,-1,23,85,27934,-912,304,-8288,27718,-45,-170,-443,1401890015.743929
3,132,0,29231,15,22,92,29810,-896,272,-8256,27718,-45,-170,-443,1401890015.756176
3,133,0,31231,51,30,108,31687,-912,272,-8208,30298,-45,-168,-443,1401890015.756568
3,134,0,33231,72,48,116,33564,-784,288,-8208,32877,-45,-168,-442,1401890015.774167
3,135,0,35230,67,55,126,35442,-640,272,-8208,35458,-44,-167,-442,1401890015.785212
3,136,0,37230,26,66,97,37319,-544,272,-8224,35458,-44,-167,-442,1401890015.797267
3,137,0,39229,-8,63,66,39196,-432,336,-8240,38038,-44,-169,-442,1401890015.797697
3,138,0,41229,-30,65,26,41073,-336,240,-8208,40618,-46,-166,-441,1401890015.815132
3,139,0,43229,-47,34,-5,42951,-336,320,-8288,43199,-46,-166,-442,1401890015.827105
3,140,0,44229,-51,26,-15,44828,-288,160,-8336,43199,-46,-166,-442,1401890015.827339
3,141,0,46228,-42,12,-18,46706,-240,192,-8320,45778,-42,-169,-444,1401890015.844847
3,142,0,48228,-23,-11,-12,48583,-288,144,-8304,48359,-42,-164,-442,1401890015.857320
3,143,0,50228,-31,-30,1,50461,-336,64,-8352,48359,-42,-164,-442,1401890015.857861
3,144,0,52227,-55,-48,7,52337,-336,16,-8288,50938,-41,-168,-443,1401890015.876521
3,145,0,54227,-69,-61,25,54215,-416,16,-8320,53518,-41,-167,-442,1401890015.876971
3,146,0,56227,-97,-71,60,56092,-272,0,-8304,56099,-41,-167,-442,1401890015.894204
3,147,0,58226,-113,-74,72,57970,-192,-16,-8224,56099,-41,-167,-442,1401890015.906570
3,148,0,59226,-114,-68,67,59849,-112,-32,-8224,58680,-41,-166,-444,1401890015.906853
3,149,0,61226,-122,-76,45,61726,-80,-128,-8208,61260,-42,-167,-441,1401890015.925005
3,150,0,63225,-107,-80,21,63605,-16,-208,-8160,63840,-42,-169,-440,1401890015.937598
3,151,0,65225,-75,-96,2,65483,0,-336,-8128,63840,-42,-169,-440,1401890015.937810
3,152,0,1689,-36,-107,3,1825,48,-416,-8144,884,-39,-167,-442,1401890015.955478
3,153,0,3688,1,-125,17,3703,112,-464,-8080,3463,-42,-164,-443,1401890015.961585
3,154,0,5688,38,-128,32,5582,224,-544,-8032,3463,-42,-164,-443,1401890015.973202
3,155,0,7688,58,-129,56,7460,288,-544,-7984,6043,-36,-165,-439,1401890015.984713
3,156,0,8688,63,-121,69,9339,320,-416,-7984,8624,-39,-165,-442,1401890015.996207
3,157,0,10687,56,-128,73,11218,320,-336,-8016,11204,-35,-163,-440,1401890015.996454
3,158,0,12687,27,-140,57,13095,384,-304,-8048,11204,-35,-163,-440,1401890016.13207
3,159,0,14687,6,-165,15,14974,432,-256,-8144,13784,-36,-161,-441,1401890016.25519
3,160,0,16686,-2,-178,-29,16852,416,-368,-8160,16364,-34,-162,-441,1401890016.31464
3,161,0,18686,36,-194,-71,18730,496,-480,-8176,18943,-33,-160,-437,1401890016.44020
3,162,0,20686,75,-197,-101,20608,496,-544,-8208,18943,-33,-160,-437,1401890016.56142
3,163,0,22685,99,-212,-109,22487,512,-704,-8176,21523,-33,-159,-434,1401890016.56608
3,164,0,23685,105,-215,-113,24364,512,-704,-8192,24103,-30,-158,-438,1401890016.75091
3,165,0,25685,85,-219,-117,26242,560,-720,-8224,24103,-30,-158,-438,1401890016.87232
3,166,0,27684,58,-211,-117,28120,656,-768,-8192,26683,-31,-156,-437,1401890016.87471
3,167,0,29684,47,-215,-124,29997,640,-800,-8128,29262,-28,-158,-440,1401890016.105068
3,168,0,31684,36,-215,-123,31875,656,-800,-8096,31842,-27,-158,-440,1401890016.116884
3,169,0,33683,38,-209,-133,33753,720,-864,-8064,31842,-27,-158,-440,1401890016.117222
3,170,0,35683,46,-212,-144,35630,720,-800,-8080,34422,-25,-160,-442,1401890016.135233
3,171,0,37683,54,-208,-160,37506,848,-912,-8144,37001,-24,-154,-441,1401890016.147363
3,172,0,38683,68,-213,-158,39384,896,-992,-8128,39582,-23,-155,-438,1401890016.147771
3,173,0,40682,80,-216,-168,41262,928,-1024,-8160,39582,-23,-155,-438,1401890016.166224
3,174,0,42682,78,-217,-165,43140,992,-1120,-8096,42162,-22,-155,-435,1401890016.166427
3,175,0,44681,61,-202,-164,45017,912,-1104,-8048,44742,-18,-155,-437,1401890016.184846
3,176,0,46681,31,-194,-150,46894,976,-1136,-8016,44742,-18,-155,-437,1401890016.197400
3,177,0,48681,14,-182,-155,48771,960,-1088,-7984,47321,-20,-155,-438,1401890016.197816
3,178,0,50680,2,-161,-152,50649,928,-1136,-8064,49901,-18,-151,-440,1401890016.215719
3,179,0,52680,2,-146,-176,52527,864,-1072,-8064,52480,-17,-153,-440,1401890016.215944
3,180,0,53680,8,-127,-181,54405,832,-1168,-8176,52480,-17,-153,-440,1401890016.234664
3,181,0,55680,18,-96,-208,56283,848,-1152,-8224,55060,-14,-159,-439,1401890016.246830
3,182,0,57679,33,-69,-229,58160,928,-1264,-8256,57640,-17,-154,-438,1401890016.247109
3,183,0,59679,41,-57,-229,60038,800,-1408,-8320,57640,-17,-154,-438,1401890016.265106
3,184,0,61679,19,-40,-221,61916,928,-1408,-8368,60220,-15,-155,-439,1401890016.277469
3,185,0,63678,-15,-28,-201,63794,880,-1408,-8400,62800,-14,-153,-437,1401890016.277733
3,186,0,142,-59,6,-166,135,880,-1456,-8320,65380,-17,-152,-439,1401890016.294738
3,187,0,2142,-101,26,-163,2013,816,-1392,-8272,65380,-17,-152,-439,1401890016.306318
3,188,0,3141,-117,34,-156,3890,768,-1392,-8192,2424,-14,-154,-439,1401890016.306666
3,189,0,5141,-131,53,-154,5767,784,-1312,-8176,5002,-16,-155,-439,1401890016.325106
3,190,0,7141,-152,56,-162,7645,592,-1232,-8080,7582,-16,-155,-439,1401890016.337480
3,191,0,9140,-161,58,-175,9522,496,-1200,-8016,7582,-16,-155,-439,1401890016.337900
3,192,0,11140,-168,66,-186,11400,480,-1104,-8016,10162,-15,-157,-440,1401890016.356319
3,193,0,13140,-153,68,-188,13278,416,-1104,-8096,12743,-16,-156,-439,1401890016.356796
3,194,0,15139,-116,82,-187,15156,400,-1104,-8064,12743,-16,-156,-439,1401890016.374276
3,195,0,17139,-73,95,-162,17033,432,-1104,-8000,15322,-15,-158,-439,1401890016.386020
3,196,0,18139,-49,102,-140,18912,464,-1184,-7968,17902,-15,-160,-438,1401890016.386492
3,197,0,20139,-13,105,-109,20789,560,-1168,-7968,20481,-20,-158,-441,1401890016.404539
3,198,0,22138,16,124,-84,22667,592,-1216,-7824,20481,-20,-158,-441,1401890016.416961
3,199,0,24138,45,138,-55,24545,640,-1248,-7744,23061,-17,-158,-440,1401890016.417379
3,200,0,26138,57,150,-41,26423,608,-1280,-7712,25640,-19,-159,-440,1401890016.434858
3,201,0,28137,61,161,-28,28301,672,-1296,-7696,28221,-19,-160,-438,1401890016.447384
3,202,0,30137,51,169,-28,30176,608,-1280,-7728,28221,-19,-160,-438,1401890016.447837
3,203,0,32137,43,173,-33,32054,624,-1296,-7792,30803,-18,-159,-434,1401890016.466144
3,204,0,33136,37,180,-25,33932,624,-1248,-7904,33383,-17,-160,-441,1401890016.466623
3,205,0,35136,32,189,-31,35811,656,-1216,-7968,33383,-17,-160,-441,1401890016.484384
3,206,0,37136,42,187,-33,37690,720,-1216,-8080,35962,-18,-159,-441,1401890016.496774
3,207,0,39135,52,195,-43,39567,688,-1152,-8160,38542,-25,-160,-441,1401890016.497223
3,208,0,41135,68,188,-37,41445,656,-1184,-8160,41121,-27,-157,-441,1401890016.515088
3,209,0,43135,58,192,-34,43323,672,-1136,-8112,41121,-27,-157,-441,1401890016.527568
3,210,0,45134,19,190,-27,45200,672,-1072,-8048,43701,-24,-160,-441,1401890016.527840
3,211,0,47134,-23,190,-24,47078,560,-896,-7968,46281,-27,-159,-442,1401890016.546259
3,212,0,48134,-38,190,-19,48955,464,-816,-7904,48863,-28,-160,-442,1401890016.546633
3,213,0,50134,-73,200,-17,50833,400,-608,-7952,48863,-28,-160,-442,1401890016.565211
3,214,0,52133,-55,203,-6,52710,288,-496,-8048,51443,-32,-161,-439,1401890016.577057
3,215,0,54133,-10,200,8,54588,192,-384,-8000,54023,-30,-161,-441,1401890016.577354
3,216,0,56132,29,206,4,56465,128,-400,-8064,54023,-30,-161,-441,1401890016.595049
3,217,0,58132,49,211,9,58343,48,-352,-8128,56604,-32,-162,-443,1401890016.606892
3,218,0,60132,41,199,11,60222,16,-368,-8192,59184,-36,-162,-445,1401890016.607183
3,219,0,62131,24,187,21,62099,-16,-400,-8224,61764,-35,-164,-440,1401890016.625817
3,220,0,63131,12,182,35,63978,-48,-368,-8256,61764,-35,-164,-440,1401890016.626115
3,221,0,65131,-18,178,57,320,-160,-480,-8224,64345,-38,-161,-442,1401890016.644066
3,222,0,1595,-26,172,71,2198,-160,-464,-8192,1390,-39,-164,-439,1401890016.656622
3,223,0,3594,-45,180,92,4076,-208,-448,-8096,3970,-40,-163,-441,1401890016.657021
3,224,0,5594,-44,181,103,5954,-240,-352,-7984,3970,-40,-163,-441,1401890016.674765
3,225,0,7594,-25,185,103,7832,-320,-288,-8000,6550,-42,-165,-441,1401890016.687044
3,226,0,9593,11,176,97,9710,-400,-160,-7920,9130,-44,-165,-441,1401890016.687391
3,227,0,11593,62,174,77,11587,-448,-96,-7968,9130,-44,-165,-441,1401890016.705756
3,228,0,12593,87,180,68,13466,-496,-32,-8000,11710,-44,-165,-439,1401890016.706034
3,229,0,14592,116,178,52,15344,-560,32,-8096,14290,-42,-165,-439,1401890016.723838
3,230,0,16592,108,176,35,17221,-624,80,-8224,16870,-46,-165,-441,1401890016.735744
3,231,0,18592,73,176,26,19099,-688,80,-8384,16870,-46,-165,-441,1401890016.742072
3,232,0,20591,39,173,27,20977,-624,128,-8480,19450,-47,-166,-444,1401890016.753433
3,233,0,22591,14,150,36,22855,-608,112,-8576,22031,-47,-164,-440,1401890016.764844
3,234,0,24591,2,116,60,24732,-608,112,-8544,24611,-48,-166,-440,1401890016.777152
3,235,0,26590,4,92,97,26611,-560,0,-8512,24611,-48,-166,-440,1401890016.777630
3,236,0,27590,11,82,117,28488,-544,-48,-8464,27191,-51,-166,-438,1401890016.795324
3,237,0,29590,26,70,145,30366,-512,-16,-8368,29771,-50,-165,-442,1401890016.801619
3,238,0,31590,41,62,169,32244,-432,-48,-8320,29771,-50,-165,-442,1401890016.813857
3,239,0,33589,58,59,172,34121,-352,32,-8320,32351,-51,-165,-441,1401890016.825206
3,240,0,35589,69,62,161,35998,-320,128,-8272,34931,-48,-164,-438,1401890016.837455
3,241,0,37589,69,72,142,37875,-320,176,-8352,37511,-49,-167,-440,1401890016.837682
3,242,0,39588,48,71,114,39753,-320,256,-8352,37511,-49,-167,-440,1401890016.856092
3,243,0,41588,29,62,89,41161,-288,192,-8480,40091,-52,-166,-440,1401890016.856472
3,244,0,42588,17,49,74,43039,-256,144,-8448,42672,-52,-166,-441,1401890016.874298
3,245,0,44587,0,36,51,44916,-256,80,-8416,45253,-50,-167,-440,1401890016.886968
3,246,0,46587,-11,25,35,46795,-224,32,-8304,45253,-50,-167,-440,1401890016.887199
3,247,0,48587,-33,22,23,48672,-240,-16,-8288,47833,-50,-166,-441,1401890016.905577
3,248,0,50586,-34,6,9,50549,-224,-32,-8256,50414,-50,-166,-443,1401890016.911057
3,249,0,52586,-20,9,-8,52427,-256,-112,-8208,50414,-50,-166,-443,1401890016.922318
3,250,0,54586,-7,-11,-21,54304,-240,-48,-8192,52995,-50,-165,-440,1401890016.934840
3,251,0,56585,0,-31,-42,56182,-272,-64,-8208,55574,-50,-166,-441,1401890016.947306
3,252,0,57585,-2,-25,-56,58060,-304,-160,-8192,58153,-49,-167,-443,1401890016.947571
3,253,0,59585,-16,-21,-63,59937,-288,-112,-8192,58153,-49,-167,-443,1401890016.965584
3,254,0,61585,-62,-16,-70,61815,-400,-160,-8240,60733,-49,-168,-440,1401890016.971276
3,255,0,63584,-85,-19,-70,63692,-496,-80,-8272,63314,-51,-169,-439,1401890016.983340
3,0,0,48,-113,-13,-68,34,-464,-16,-8352,357,-49,-167,-441,1401890016.996048
3,1,0,2048,-124,-17,-82,1912,-640,16,-8384,357,-49,-167,-441,1401890016.996370
3,2,0,4047,-130,-26,-86,3789,-752,80,-8384,2937,-51,-167,-441,1401890017.14065
3,3,0,6047,-135,-33,-94,5667,-768,32,-8352,5517,-48,-172,-439,1401890017.25445
3,4,0,7047,-124,-33,-89,7544,-800,128,-8352,5517,-48,-172,-439,1401890017.31749
3,5,0,9046,-108,-34,-92,9422,-800,208,-8272,8097,-48,-170,-441,1401890017.43764
3,6,0,11046,-105,-45,-93,11300,-800,96,-8272,10678,-50,-173,-440,1401890017.55768
3,7,0,13046,-95,-42,-86,13177,-736,128,-8320,13258,-50,-172,-443,1401890017.56129
3,8,0,15045,-93,-52,-73,15054,-672,80,-8288,13258,-50,-172,-443,1401890017.74252
3,9,0,17045,-94,-56,-69,16933,-640,0,-8240,15837,-46,-174,-442,1401890017.86247
3,10,0,19045,-86,-73,-53,18810,-528,-96,-8256,18417,-50,-171,-442,1401890017.86635
3,11,0,21044,-67,-90,-46,20687,-512,-176,-8224,20997,-45,-172,-441,1401890017.104878
3,12,0,22044,-57,-89,-45,22565,-464,-256,-8208,20997,-45,-172,-441,1401890017.116600
3,13,0,24044,-48,-102,-38,24443,-464,-224,-8192,23577,-48,-170,-442,1401890017.116834
3,14,0,26043,-26,-106,-31,26320,-336,-288,-8160,26157,-47,-172,-441,1401890017.134999
3,15,0,28043,-38,-105,-30,28197,-240,-368,-8160,26157,-47,-172,-441,1401890017.147443
3,16,0,30043,-58,-103,-34,30075,-160,-384,-8112,28737,-46,-174,-441,1401890017.147743
3,17,0,32042,-75,-112,-38,31953,-48,-304,-8032,31318,-44,-171,-442,1401890017.166314
3,18,0,34042,-86,-114,-37,33832,-48,-320,-8016,33898,-45,-173,-440,1401890017.166619
3,19,0,36042,-104,-124,-36,35710,-32,-416,-7936,33898,-45,-173,-440,1401890017.184468
3,20,0,37042,-91,-127,-33,37588,-96,-336,-7920,36477,-42,-171,-440,1401890017.196845
3,21,0,39041,-60,-137,-23,39465,-128,-336,-8048,39058,-45,-170,-440,1401890017.197074
3,22,0,41041,-57,-136,-17,41343,-160,-400,-7904,41638,-43,-171,-442,1401890017.214532
3,23,0,43041,-53,-140,-14,43221,-128,-336,-7936,41638,-43,-171,-442,1401890017.226470
3,24,0,45040,-61,-150,-11,45100,-112,-352,-8016,44218,-41,-173,-437,1401890017.226694
3,25,0,47040,-46,-163,-24,46978,-96,-384,-8128,46798,-38,-172,-441,1401890017.244445
3,26,0,49040,-38,-167,-37,48856,-64,-448,-8192,46798,-38,-172,-441,1401890017.256087
3,27,0,51039,-5,-173,-42,50735,-96,-528,-8240,49377,-41,-171,-438,1401890017.256337
3,28,0,52039,20,-173,-38,52614,32,-608,-8208,51957,-41,-171,-439,1401890017.274901
3,29,0,54039,18,-182,-23,54491,0,-688,-8208,54537,-36,-171,-440,1401890017.286882
3,30,0,56038,-24,-174,-12,56370,64,-736,-8192,54537,-36,-171,-440,1401890017.287183
3,31,0,58038,-71,-177,4,58249,112,-752,-8096,57117,-36,-172,-441,1401890017.305823
3,32,0,60038,-110,-188,-2,60126,176,-720,-8064,59697,-32,-170,-441,1401890017.306126
3,33,0,62037,-103,-187,-8,62004,256,-704,-7968,62278,-32,-173,-439,1401890017.323275
3,34,0,64037,-80,-193,-26,63882,256,-704,-7952,62278,-32,-173,-439,1401890017.335851
3,35,0,501,-29,-202,-31,224,304,-736,-7968,64858,-30,-175,-440,1401890017.336229
3,36,0,1501,-14,-200,-36,2102,416,-752,-7904,1902,-30,-171,-439,1401890017.354186
3,37,0,3500,32,-209,-38,3980,464,-880,-7904,1902,-30,-171,-439,1401890017.366476
3,38,0,5500,55,-209,-35,5857,592,-976,-7888,4482,-28,-170,-438,1401890017.366696
3,39,0,7500,61,-215,-32,7735,656,-1072,-7840,7062,-28,-168,-437,1401890017.384342
3,40,0,9499,67,-218,-24,9613,672,-1120,-7888,9642,-26,-167,-437,1401890017.396773
3,41,0,11499,69,-219,-11,11491,704,-1184,-7936,9642,-26,-167,-437,1401890017.397218
3,42,0,13499,59,-218,-8,13369,704,-1216,-7920,12223,-26,-169,-438,1401890017.414770
3,43,0,15498,47,-213,-16,15248,672,-1248,-7920,14802,-23,-166,-439,1401890017.426845
3,44,0,16498,32,-203,-22,17125,688,-1248,-8000,17381,-23,-167,-439,1401890017.427121
3,45,0,18498,20,-195,-48,19004,656,-1216,-8032,17381,-23,-167,-439,1401890017.445208
3,46,0,20497,19,-182,-80,20883,688,-1136,-8096,19961,-22,-170,-438,1401890017.456529
3,47,0,22497,30,-153,-103,22761,656,-1200,-8096,22541,-22,-166,-440,1401890017.456758
3,48,0,24497,44,-137,-127,24639,656,-1184,-8160,22541,-22,-166,-440,1401890017.474917
3,49,0,26496,61,-123,-134,26517,640,-1248,-8192,25121,-20,-166,-441,1401890017.487114
3,50,0,28496,76,-108,-129,28395,672,-1392,-8160,27701,-20,-163,-438,1401890017.487503
3,51,0,30496,74,-90,-113,30272,656,-1408,-8128,30280,-19,-163,-438,1401890017.506086
3,52,0,31495,78,-79,-108,32151,672,-1408,-8128,30280,-19,-163,-438,1401890017.506351
3,53,0,33495,79,-66,-88,34029,656,-1472,-8176,32860,-19,-162,-436,1401890017.522953
3,54,0,35495,66,-51,-64,35906,640,-1600,-8176,35441,-18,-162,-435,1401890017.534227
3,55,0,37494,35,-27,-41,37784,720,-1632,-8192,38020,-18,-163,-436,1401890017.545839
3,56,0,39494,9,-9,-22,39661,688,-1712,-8240,38020,-18,-163,-436,1401890017.546100
3,57,0,41494,-28,36,2,41539,656,-1792,-8272,40601,-19,-159,-436,1401890017.564600
3,58,0,43493,-53,53,2,43417,560,-1840,-8384,43181,-19,-163,-437,1401890017.576512
3,59,0,45493,-88,77,14,45294,496,-1840,-8416,43181,-19,-163,-437,1401890017.576965
3,60,0,46493,-99,90,21,47172,480,-1920,-8384,45761,-20,-162,-435,1401890017.595233
3,61,0,48493,-127,113,27,49050,416,-1904,-8288,48340,-18,-164,-436,1401890017.607535
3,62,0,50492,-139,128,29,50927,384,-1760,-8176,50920,-21,-166,-436,1401890017.607869
3,63,0,52492,-129,141,35,52805,384,-1616,-8048,50920,-21,-166,-436,1401890017.624886
3,64,0,54492,-110,150,45,54682,368,-1408,-7872,53501,-20,-170,-436,1401890017.637121
3,65,0,56491,-93,158,49,56561,352,-1312,-7824,56082,-20,-165,-441,1401890017.637438
3,66,0,58491,-74,171,46,58438,496,-1184,-7712,58661,-21,-167,-438,1401890017.655336
3,67,0,60491,-57,183,38,60316,512,-1072,-7600,58661,-21,-167,-438,1401890017.661776
3,68,0,61490,-48,187,35,62193,560,-944,-7648,61240,-21,-164,-435,1401890017.674138
3,69,0,63490,-17,196,18,64070,640,-928,-7616,63820,-19,-167,-435,1401890017.686144
3,70,0,65490,19,197,6,412,640,-864,-7648,63820,-19,-167,-435,1401890017.686440
3,71,0,1953,54,221,-5,2289,640,-880,-7744,864,-24,-166,-439,1401890017.704371
3,72,0,3953,86,230,-4,4168,576,-928,-7808,3444,-23,-168,-437,1401890017.716039
3,73,0,5953,105,223,-6,6046,576,-832,-7888,6023,-26,-165,-440,1401890017.716262
3,74,0,7952,105,210,-7,7924,592,-896,-8128,6023,-26,-165,-440,1401890017.734054
3,75,0,9952,100,192,-9,9801,560,-768,-8176,8603,-29,-172,-439,1401890017.746633
3,76,0,10952,99,191,-5,11678,512,-816,-8256,11182,-29,-166,-438,1401890017.747054
3,77,0,12952,79,168,-4,13556,448,-816,-8336,11182,-29,-166,-438,1401890017.765374
3,78,0,14951,42,154,-1,15434,416,-752,-8352,13763,-30,-164,-438,1401890017.771747
3,79,0,16951,9,128,24,17311,416,-784,-8288,16343,-31,-165,-435,1401890017.784101
3,80,0,18951,-24,143,61,19188,416,-832,-8176,18924,-34,-166,-438,1401890017.796374
3,81,0,20950,-43,143,90,21065,336,-800,-7984,18924,-34,-166,-438,1401890017.796832
3,82,0,22950,-34,138,125,22942,368,-688,-7856,21503,-31,-164,-437,1401890017.814302
3,83,0,24950,-27,141,128,24820,336,-656,-7760,24082,-34,-166,-438,1401890017.825938
3,84,0,25949,-14,141,123,26697,240,-592,-7728,26663,-34,-168,-440,1401890017.826247
3,85,0,27949,18,126,104,28574,192,-624,-7712,26663,-34,-168,-440,1401890017.844499
3,86,0,29949,42,130,83,30451,176,-640,-7776,29242,-35,-172,-437,1401890017.857089
3,87,0,31948,69,128,63,32328,96,-528,-7888,31821,-34,-170,-440,1401890017.857331
3,88,0,33948,101,124,33,34205,48,-576,-8032,31821,-34,-170,-440,1401890017.875139
3,89,0,35948,109,109,14,36083,128,-624,-8064,34400,-35,-170,-438,1401890017.887511
3,90,0,37947,106,101,10,37960,32,-624,-8160,36980,-34,-168,-439,1401890017.888042
3,91,0,39947,88,98,26,39836,0,-656,-8128,39559,-38,-168,-437,1401890017.905367
3,92,0,40947,77,102,30,41713,-96,-656,-8112,39559,-38,-168,-437,1401890017.911756
3,93,0,42947,64,105,51,43591,-32,-544,-8176,42139,-38,-168,-437,1401890017.923719
3,94,0,44946,36,99,72,45468,-96,-560,-8176,44719,-40,-170,-436,1401890017.936092
3,95,0,46946,-10,106,89,47346,-160,-432,-8160,47299,-40,-170,-439,1401890017.936333
3,96,0,48946,-54,112,95,49224,-192,-336,-8176,47299,-40,-170,-439,1401890017.953828
3,97,0,50945,-80,111,102,51102,-224,-336,-8192,49879,-40,-170,-436,1401890017.965574
3,98,0,52945,-80,123,88,52980,-192,-256,-8304,52458,-42,-170,-437,1401890017.965770
3,99,0,54945,-44,110,66,54857,-192,-224,-8320,52458,-42,-170,-437,1401890017.983468
3,100,0,55944,-11,106,57,56735,-240,-256,-8384,55036,-36,-171,-439,1401890017.995697
3,101,0,57944,51,93,49,58612,-288,-240,-8384,57616,-43,-173,-439,1401890017.995927
3,102,0,59944,78,73,51,60489,-288,-304,-8336,60196,-41,-169,-439,1401890018.14121
3,103,0,61943,83,49,74,62368,-224,-240,-8384,60196,-41,-169,-439,1401890018.26354
3,104,0,63943,48,24,81,64246,-192,-208,-8416,62775,-41,-171,-438,1401890018.26850
3,105,0,407,7,-1,65,588,-224,-112,-8416,65355,-41,-167,-440,1401890018.44884
3,106,0,2406,-28,-6,55,2465,-240,-48,-8384,2399,-40,-166,-440,1401890018.56638
3,107,0,4406,-49,-20,51,4343,-160,0,-8352,2399,-40,-166,-440,1401890018.56929
3,108,0,5406,-50,-24,34,6222,-128,64,-8384,4979,-42,-169,-434,1401890018.75029
3,109,0,7405,-60,-32,29,8101,-144,-16,-8432,7559,-40,-171,-440,1401890018.87752
3,110,0,9405,-31,-39,8,9979,-64,-32,-8464,7559,-40,-171,-440,1401890018.88208
3,111,0,11405,5,-54,-9,11857,-16,-144,-8448,10140,-43,-166,-440,1401890018.106239
3,112,0,13404,41,-53,-46,13735,0,-224,-8480,12719,-39,-169,-436,1401890018.106626
3,113,0,15404,70,-47,-77,15612,-48,-352,-8496,15298,-41,-170,-440,1401890018.124231
3,114,0,17404,65,-45,-93,17490,-112,-432,-8480,15298,-41,-170,-440,1401890018.136188
3,115,0,19403,53,-40,-90,19367,-208,-480,-8528,17878,-44,-171,-440,1401890018.136496
3,116,0,20403,43,-35,-87,21244,-272,-448,-8480,20457,-39,-171,-440,1401890018.155101
3,117,0,22403,24,-34,-85,23121,-320,-416,-8400,23036,-38,-172,-439,1401890018.167094
3,118,0,24403,10,-47,-84,24999,-480,-400,-8320,23036,-38,-172,-439,1401890018.167323
3,119,0,26402,1,-48,-87,26876,-448,-272,-8272,25615,-40,-172,-439,1401890018.185740
3,120,0,28402,9,-55,-90,28753,-448,-240,-8272,28195,-42,-171,-440,1401890018.186124
3,121,0,30402,25,-40,-106,30631,-544,-256,-8240,28195,-42,-171,-440,1401890018.204496
3,122,0,32401,46,-36,-116,32508,-512,-208,-8192,30774,-39,-171,-436,1401890018.216737
3,123,0,34401,47,-45,-114,34385,-464,-144,-8144,33354,-37,-171,-440,1401890018.217048
3,124,0,35401,51,-44,-113,36262,-368,-208,-8112,35934,-39,-169,-439,1401890018.234934
3,125,0,37400,41,-50,-113,38139,-368,-144,-8128,35934,-39,-169,-439,1401890018.247336
3,126,0,39400,13,-61,-106,40016,-336,-64,-8064,38514,-40,-168,-439,1401890018.247608
3,127,0,41400,2,-66,-102,41893,-288,-64,-8144,41093,-37,-168,-442,1401890018.265989
3,128,0,43399,-8,-49,-102,43771,-256,-16,-8160,43673,-38,-170,-444,1401890018.266389
3,129,0,45399,-10,-42,-101,45649,-160,-48,-8224,43673,-38,-170,-444,1401890018.284227
3,130,0,47399,10,-46,-103,47526,-128,-80,-8240,46253,-38,-170,-440,1401890018.296088
3,131,0,49398,34,-47,-94,49403,-80,-272,-8208,48832,-38,-168,-442,1401890018.296361
3,132,0,50398,42,-49,-83,51281,-96,-320,-8208,48832,-38,-168,-442,1401890018.314907
3,133,0,52398,80,-54,-56,53158,0,-416,-8176,51412,-42,-168,-443,1401890018.325935
3,134,0,54398,94,-68,-28,55035,-16,-416,-8128,53992,-40,-166,-441,1401890018.326145
3,135,0,56397,102,-70,-11,56913,0,-448,-8112,56571,-35,-165,-441,1401890018.344602
3,136,0,58397,91,-82,-10,58791,-48,-464,-8080,56571,-35,-165,-441,1401890018.356924
3,137,0,60397,82,-80,-31,60668,0,-528,-8096,59151,-37,-166,-442,1401890018.357162
3,138,0,62396,80,-90,-59,62546,16,-496,-8096,61731,-36,-166,-440,1401890018.375072
3,139,0,64396,92,-96,-82,64424,32,-480,-8128,64310,-37,-163,-442,1401890018.386982
3,140,0,65396,98,-104,-96,766,-16,-512,-8112,64310,-37,-163,-442,1401890018.387348
3,141,0,1859,93,-98,-97,2644,-48,-592,-8128,1352,-34,-161,-443,1401890018.405878
3,142,0,3859,76,-110,-97,4522,-32,-496,-8160,3931,-35,-163,-444,1401890018.406218
3,143,0,5859,57,-112,-80,6400,32,-448,-8160,3931,-35,-163,-444,1401890018.423775
3,144,0,7858,47,-109,-81,8278,48,-464,-8208,6511,-34,-165,-441,1401890018.434507
3,145,0,9858,44,-103,-69,10155,64,-496,-8192,9091,-33,-161,-445,1401890018.445111
3,146,0,11858,43,-99,-67,12033,0,-464,-8192,11670,-32,-159,-444,1401890018.457215
3,147,0,13857,51,-90,-63,13911,144,-480,-8192,11670,-32,-159,-444,1401890018.457406
3,148,0,14857,55,-83,-57,15787,112,-464,-8176,14251,-32,-161,-440,1401890018.475204
3,149,0,16857,63,-71,-54,17665,128,-464,-8128,16830,-30,-161,-443,1401890018.487702
3,150,0,18857,60,-78,-55,19543,112,-400,-8176,19410,-30,-161,-443,1401890018.487930
3,151,0,20856,59,-73,-51,21422,160,-400,-8192,19410,-30,-161,-443,1401890018.505757
3,152,0,22856,55,-69,-58,22830,176,-512,-8160,21989,-30,-159,-443,1401890018.506092
3,153,0,24856,51,-64,-64,24708,240,-464,-8176,24568,-32,-159,-444,1401890018.524702
3,154,0,26855,37,-62,-72,26587,240,-448,-8160,24568,-32,-159,-444,1401890018.536504
3,155,0,28855,36,-72,-68,28464,336,-528,-8080,27149,-31,-159,-443,1401890018.536864
3,156,0,29855,30,-69,-64,30341,336,-528,-8160,29729,-32,-159,-442,1401890018.555131
3,157,0,31854,37,-62,-69,32218,256,-544,-8144,32309,-30,-159,-441,1401890018.567423
3,158,0,33854,34,-52,-65,34095,368,-672,-8080,32309,-30,-159,-441,1401890018.567756
3,159,0,35854,29,-50,-70,35972,368,-688,-8032,34888,-30,-156,-442,1401890018.586102
3,160,0,37853,25,-45,-71,37850,400,-544,-8048,37468,-28,-159,-442,1401890018.586577
3,161,0,39853,29,-36,-81,39727,352,-640,-7968,40047,-29,-157,-443,1401890018.604450
3,162,0,41853,32,-32,-89,41604,368,-576,-8000,40047,-29,-157,-443,1401890018.616275
3,163,0,43852,35,-34,-88,43481,352,-592,-8144,42627,-27,-155,-442,1401890018.616612
3,164,0,44852,32,-30,-87,45358,304,-576,-8112,45208,-30,-159,-443,1401890018.633994
3,165,0,46852,12,-41,-84,47235,304,-416,-8144,45208,-30,-159,-443,1401890018.646448
3,166,0,48852,-3,-37,-82,49112,304,-432,-8176,47788,-27,-157,-443,1401890018.646705
3,167,0,50851,-21,-41,-75,50990,192,-400,-8192,50367,-27,-154,-447,1401890018.664531
3,168,0,52851,-19,-30,-66,52867,224,-432,-8160,52948,-27,-154,-443,1401890018.677074
3,169,0,54851,-15,-31,-57,54745,240,-384,-8192,52948,-27,-154,-443,1401890018.677312
3,170,0,56850,-6,-25,-49,56623,160,-384,-8192,55529,-28,-156,-445,1401890018.695814
3,171,0,58850,12,-33,-43,58500,208,-464,-8160,58109,-28,-154,-443,1401890018.696071
3,172,0,59850,12,-35,-43,60378,224,-352,-8176,60689,-27,-156,-443,1401890018.714044
3,173,0,61849,-1,-31,-40,62256,240,-400,-8176,60689,-27,-156,-443,1401890018.726381
3,174,0,63849,4,-33,-50,64134,288,-336,-8176,63269,-25,-154,-440,1401890018.726742
3,175,0,313,-9,-9,-34,475,368,-384,-8112,314,-25,-155,-443,1401890018.744634
3,176,0,2312,-13,-11,-57,2354,400,-368,-8192,314,-25,-155,-443,1401890018.757045
3,177,0,4312,-20,-11,-58,4232,320,-432,-8160,2894,-26,-156,-442,1401890018.757469
3,178,0,6312,-34,-19,-65,6109,336,-384,-8208,5474,-23,-156,-441,1401890018.776825
3,179,0,8311,-42,-27,-69,7986,208,-432,-8144,8053,-24,-153,-441,1401890018.777060
3,180,0,9311,-46,-27,-58,9864,240,-384,-8208,8053,-24,-153,-441,1401890018.795693
3,181,0,11311,-52,-38,-49,11742,176,-416,-8192,10631,-24,-157,-442,1401890018.795951
3,182,0,13310,-53,-47,-56,13620,160,-352,-8208,13211,-22,-153,-444,1401890018.814194
3,183,0,15310,-45,-51,-60,15497,128,-352,-8224,15791,-25,-155,-443,1401890018.826550
3,184,0,17310,-47,-50,-76,17375,176,-384,-8160,15791,-25,-155,-443,1401890018.827073
3,185,0,19309,-72,-41,-93,19252,304,-384,-8160,18370,-24,-153,-441,1401890018.845572
3,186,0,21309,-80,-31,-98,21130,336,-464,-8160,20950,-23,-157,-442,1401890018.851844
3,187,0,23309,-82,-26,-101,23007,384,-432,-8192,20950,-23,-157,-442,1401890018.864204
3,188,0,24309,-81,-25,-96,24885,304,-384,-8256,23530,-24,-157,-440,1401890018.876700
3,189,0,26308,-75,-32,-91,26763,368,-416,-8432,26110,-22,-155,-440,1401890018.877129
3,190,0,28308,-45,-48,-79,28642,336,-400,-8496,28689,-23,-155,-443,1401890018.895680
3,191,0,30308,-22,-44,-72,30520,352,-528,-8512,28689,-23,-155,-443,1401890018.895974
3,192,0,32307,-4,-58,-56,32398,352,-688,-8336,31268,-23,-158,-442,1401890018.913826
3,193,0,34307,-7,-51,-18,34276,336,-768,-8224,33848,-20,-156,-441,1401890018.925400
3,194,0,36307,-31,-50,15,36154,256,-864,-8144,36429,-20,-155,-442,1401890018.925616
3,195,0,38306,-59,-57,57,38031,256,-784,-8080,36429,-20,-155,-442,1401890018.944118
3,196,0,39306,-63,-62,70,39909,224,-624,-8032,39009,-21,-156,-443,1401890018.956860
3,198,0,43305,-55,-81,70,43665,288,-560,-7936,41588,-21,-158,-440,1401890018.975223
3,199,0,45305,-38,-84,45,45543,432,-512,-7936,44168,-17,-155,-440,1401890018.987034
3,200,0,47305,-14,-81,-6,47421,544,-512,-8048,46748,-17,-156,-439,1401890018.987387
3,201,0,49304,14,-99,-33,49299,576,-544,-8032,49329,-19,-154,-440,1401890019.6043
3,202,0,51304,34,-78,-59,51178,720,-608,-8064,49329,-19,-154,-440,1401890019.6353
3,203,0,53304,50,-65,-54,53056,912,-624,-8064,51910,-19,-155,-442,1401890019.23771
3,204,0,54304,47,-73,-52,54934,928,-704,-8064,54491,-16,-154,-438,1401890019.35750
3,205,0,56303,20,-89,-44,56812,992,-672,-8096,57071,-16,-153,-439,1401890019.36199
3,206,0,58303,6,-100,-40,58689,976,-784,-8176,57071,-16,-153,-439,1401890019.54489
3,207,0,60303,13,-111,-31,60566,1008,-864,-8192,59652,-13,-160,-439,1401890019.67031
3,208,0,62302,16,-122,-18,62444,976,-960,-8192,62232,-13,-153,-441,1401890019.67479
3,209,0,64302,27,-130,-11,64322,896,-1040,-8192,62232,-13,-153,-441,1401890019.85992
3,210,0,766,42,-123,-1,664,880,-1120,-8144,64811,-11,-153,-440,1401890019.86465
3,211,0,2765,60,-126,10,2542,784,-1184,-8160,1855,-11,-150,-441,1401890019.103859
3,212,0,3765,69,-124,9,4420,848,-1280,-8144,4435,-8,-154,-442,1401890019.116545
3,213,0,5765,64,-125,-7,6297,896,-1312,-8144,4435,-8,-154,-442,1401890019.116851
3,216,0,11764,-22,-73,-86,11930,1120,-1360,-7968,12176,-7,-153,-442,1401890019.153354
3,217,0,13763,-61,-42,-114,13808,1184,-1312,-8096,12176,-7,-153,-442,1401890019.165495
3,218,0,15763,-66,-3,-135,15684,1200,-1392,-8144,14756,-10,-162,-443,1401890019.165948
3,219,0,17763,-51,22,-129,17561,1120,-1456,-8160,17337,-10,-155,-441,1401890019.184403
3,220,0,18763,-36,45,-135,19439,1088,-1408,-8208,17337,-10,-155,-441,1401890019.196094
3,221,0,20762,-24,59,-134,21317,992,-1424,-8208,19918,-8,-154,-444,1401890019.196448
3,222,0,22762,-10,79,-137,23194,832,-1360,-8192,22499,-8,-155,-444,1401890019.214860
3,223,0,24762,-9,83,-132,25071,736,-1232,-8192,25080,-8,-154,-446,1401890019.226403
3,224,0,26761,-28,82,-137,26949,560,-1216,-8176,25080,-8,-154,-446,1401890019.226618
3,225,0,28761,-58,86,-126,28827,416,-1152,-8128,27661,-8,-160,-443,1401890019.244714
3,226,0,30761,-92,88,-97,30704,352,-992,-7952,30241,-11,-158,-447,1401890019.257010
3,227,0,32760,-115,92,-47,32581,256,-992,-7728,32821,-11,-156,-444,1401890019.257306
3,228,0,33760,-121,91,-23,34458,384,-720,-7472,32821,-11,-156,-444,1401890019.275156
3,229,0,35760,-86,110,7,36336,400,-672,-7328,35402,-13,-157,-443,1401890019.287054
3,230,0,37759,-13,113,41,38213,512,-592,-7168,37984,-13,-158,-443,1401890019.287293
3,231,0,39759,74,120,50,40090,608,-592,-7120,37984,-13,-158,-443,1401890019.304865
3,232,0,41759,160,118,49,41966,752,-624,-7264,40564,-13,-157,-446,1401890019.317300
3,233,0,43758,230,111,18,43844,800,-656,-7520,43144,-13,-158,-444,1401890019.317706
3,234,0,45758,253,90,-19,45721,864,-688,-7872,45724,-13,-155,-448,1401890019.336174
3,235,0,47758,274,79,-57,47599,976,-608,-8208,45724,-13,-155,-448,1401890019.336434
3,236,0,48758,282,68,-70,49477,976,-624,-8624,48304,-13,-156,-445,1401890019.354757
3,237,0,50757,302,70,-93,51354,928,-832,-9008,50884,-19,-152,-447,1401890019.366464
3,238,0,52757,303,73,-82,53230,928,-800,-9104,50884,-19,-152,-447,1401890019.366779
3,239,0,54757,271,81,-50,55108,912,-880,-9056,53464,-14,-150,-444,1401890019.385220
3,240,0,56756,166,78,-18,56986,976,-864,-8912,56045,-14,-151,-440,1401890019.391837
3,241,0,58756,22,69,9,58864,896,-720,-8752,58624,-18,-149,-446,1401890019.404213
3,242,0,60756,-122,54,54,60741,800,-528,-8464,58624,-18,-149,-446,1401890019.416386
3,244,0,63755,-290,52,113,64496,688,-304,-8000,63783,-19,-152,-446,1401890019.433930
3,245,0,219,-324,53,138,837,544,-160,-7856,826,-20,-158,-447,1401890019.445897
3,246,0,2218,-294,61,149,2714,448,0,-7696,826,-20,-158,-447,1401890019.446142
3,247,0,4218,-204,82,156,4592,352,80,-7680,3407,-20,-161,-449,1401890019.463403
3,248,0,6218,-61,104,137,6469,208,80,-7648,5987,-21,-162,-447,1401890019.475149
3,249,0,8217,68,118,107,8346,64,64,-7664,5987,-21,-162,-447,1401890019.486697
3,250,0,10217,171,128,68,10224,-32,64,-7792,8567,-22,-160,-445,1401890019.486879
3,251,0,12217,228,125,27,12101,-192,-32,-7968,11147,-22,-160,-445,1401890019.504380
3,252,0,13217,236,126,13,13977,-288,-112,-8016,13727,-25,-158,-445,1401890019.516020
3,253,0,15216,231,123,-9,15854,-304,-208,-8064,13727,-25,-158,-445,1401890019.516269
3,254,0,17216,212,135,-18,17731,-336,-224,-8176,16308,-26,-160,-447,1401890019.532885
3,255,0,19216,163,157,-10,19608,-416,-160,-8288,18888,-30,-157,-445,1401890019.544753
3,0,0,21215,113,194,14,21485,-352,-112,-8432,21467,-30,-155,-444,1401890019.556015
3,1,0,23215,73,206,33,23362,-352,96,-8512,21467,-30,-155,-444,1401890019.556264
3,2,0,25214,39,213,66,25239,-336,176,-8624,24046,-29,-154,-443,1401890019.573893
3,3,0,27214,49,207,108,27117,-336,304,-8672,26627,-30,-155,-443,1401890019.586204
3,4,0,28214,60,209,119,28995,-352,384,-8656,26627,-30,-155,-443,1401890019.586476
3,5,0,30214,113,199,156,30873,-240,496,-8656,29207,-35,-157,-442,1401890019.604049
3,6,0,32213,169,175,173,32751,-192,512,-8672,31787,-34,-156,-442,1401890019.615408
3,7,0,34213,210,159,175,34629,-112,496,-8688,34366,-38,-152,-438,1401890019.621229
3,8,0,36213,200,148,173,36506,-64,368,-8656,34366,-38,-152,-438,1401890019.632944
3,9,0,38212,130,126,152,38383,-16,336,-8624,36947,-38,-151,-442,1401890019.644849
3,10,0,40212,42,125,121,40260,-16,320,-8624,39528,-37,-150,-441,1401890019.657163
3,11,0,42212,-50,121,102,42137,48,208,-8672,42108,-38,-153,-439,1401890019.657409
3,12,0,43211,-90,127,88,44014,32,160,-8768,42108,-38,-153,-439,1401890019.675727
3,13,0,45211,-128,133,69,45892,32,80,-8752,44688,-41,-153,-437,1401890019.676190
3,14,0,47211,-142,140,38,47769,0,-96,-8752,47268,-41,-154,-440,1401890019.693437
3,15,0,49210,-123,148,20,49646,-32,-160,-8736,47268,-41,-154,-440,1401890019.705687
3,16,0,51210,-97,144,-3,51523,-48,-240,-8640,49847,-42,-157,-437,1401890019.705994
3,17,0,53210,-70,148,-35,53401,-96,-304,-8480,52427,-42,-156,-440,1401890019.723810
3,18,0,55209,-75,141,-65,55279,-160,-288,-8320,55007,-45,-161,-438,1401890019.736027
3,19,0,57209,-87,131,-96,57156,-208,-272,-8208,55007,-45,-161,-438,1401890019.736340
3,20,0,58209,-107,129,-104,59033,-304,-224,-8176,57586,-47,-161,-442,1401890019.754608
3,21,0,60209,-147,106,-111,60911,-352,-112,-8112,60167,-45,-162,-440,1401890019.766968
3,22,0,62208,-178,101,-116,62788,-400,-16,-8080,62747,-44,-159,-441,1401890019.767429
3,23,0,64208,-204,94,-105,64666,-528,144,-8048,62747,-44,-159,-441,1401890019.785461
3,24,0,672,-210,83,-98,1007,-592,256,-8032,65327,-50,-163,-438,1401890019.791956
3,25,0,2671,-187,83,-93,2886,-752,288,-8128,2371,-51,-162,-440,1401890019.804702
3,26,0,4671,-142,84,-95,4763,-768,400,-8208,2371,-51,-162,-440,1401890019.816209
3,27,0,6671,-87,61,-100,6642,-800,304,-8224,4950,-48,-164,-439,1401890019.816659
3,28,0,7670,-74,62,-104,8521,-848,272,-8208,7529,-48,-164,-439,1401890019.834788
3,29,0,9670,-73,43,-108,10399,-800,288,-8224,10109,-53,-164,-439,1401890019.847221
3,30,0,11670,-107,22,-107,12276,-704,336,-8400,10109,-53,-164,-439,1401890019.847565
3,31,0,13669,-138,-5,-107,14153,-640,256,-8576,12690,-52,-165,-440,1401890019.865659
3,32,0,15669,-138,-24,-91,16029,-480,32,-8768,15270,-52,-165,-440,1401890019.865900
3,33,0,17669,-139,-36,-79,17907,-288,-224,-8640,17850,-49,-162,-436,1401890019.884338
3,34,0,19668,-176,-44,-27,19785,-96,-352,-8400,17850,-49,-162,-436,1401890019.896643
3,35,0,21668,-228,-37,17,21662,144,-480,-8224,20429,-52,-167,-439,1401890019.896879
3,36,0,22668,-246,-41,47,23540,208,-528,-8112,23009,-51,-168,-439,1401890019.914093
3,37,0,24668,-228,-36,71,25417,256,-656,-7856,23009,-51,-168,-439,1401890019.926704
3,38,0,26667,-171,-22,94,27295,160,-720,-7728,25588,-49,-171,-438,1401890019.927172
3,39,0,28667,-85,1,77,29172,32,-736,-7632,28167,-51,-169,-441,1401890019.944549
3,40,0,30667,-7,13,51,31049,-48,-752,-7568,30748,-48,-170,-437,1401890019.956014
3,41,0,32666,22,11,17,32927,-80,-784,-7552,30748,-48,-170,-437,1401890019.956271
3,42,0,34666,25,6,-22,34805,-96,-688,-7616,33328,-47,-170,-440,1401890019.973207
3,43,0,36666,-28,-9,-29,36683,-160,-496,-7744,35907,-47,-168,-440,1401890019.984715
3,44,0,37665,-59,-10,-37,38561,-224,-336,-7984,38487,-49,-170,-438,1401890019.996571
3,45,0,39665,-108,-27,-62,40437,-368,-176,-8192,38487,-49,-170,-438,1401890019.996961
3,46,0,41665,-135,-43,-57,42314,-528,-144,-8240,41068,-49,-171,-439,1401890020.14181
3,47,0,43664,-126,-59,-48,44192,-528,-96,-8272,43647,-48,-167,-439,1401890020.25457
3,48,0,45664,-87,-62,-38,46070,-400,-224,-8224,43647,-48,-167,-439,1401890020.31209
3,49,0,47664,-44,-56,-34,47947,-352,-240,-8240,46227,-47,-170,-438,1401890020.43516
3,50,0,49663,-7,-54,-43,49825,-256,-320,-8240,48808,-50,-167,-436,1401890020.55121
3,51,0,51663,27,-58,-62,51703,-160,-352,-8224,51388,-50,-168,-437,1401890020.67393
3,52,0,52663,37,-52,-67,53581,-128,-352,-8256,51388,-50,-168,-437,1401890020.67704
3,53,0,54663,33,-57,-92,55458,-64,-496,-8224,53968,-48,-167,-439,1401890020.86013
3,54,0,56662,18,-63,-122,57335,32,-544,-8192,56548,-49,-169,-438,1401890020.86316
3,55,0,58662,-3,-58,-124,59214,112,-576,-8192,59128,-48,-166,-437,1401890020.104118
3,56,0,60662,-35,-58,-108,61092,16,-640,-8192,59128,-48,-166,-437,1401890020.116039
3,57,0,62661,-57,-56,-81,62970,16,-672,-8112,61707,-49,-168,-437,1401890020.116264
3,58,0,64661,-82,-66,-55,64847,32,-752,-7984,64287,-48,-166,-437,1401890020.134913
3,59,0,1125,-89,-85,-41,1188,-64,-736,-7920,64287,-48,-166,-437,1401890020.147037
3,60,0,2124,-90,-90,-32,3066,-80,-736,-7808,1332,-45,-168,-438,1401890020.147285
3,61,0,4124,-78,-104,-38,4944,-160,-704,-7808,3912,-44,-169,-437,1401890020.164713
3,62,0,6124,-60,-103,-36,6821,-176,-656,-7808,6492,-42,-169,-439,1401890020.176664
3,63,0,8123,-23,-107,-38,8699,-192,-672,-7872,6492,-42,-169,-439,1401890020.177074
3,64,0,10123,-23,-118,-33,10577,-224,-704,-7872,9073,-39,-172,-440,1401890020.195562
3,65,0,12123,-37,-119,-29,12454,-240,-592,-7952,11653,-43,-170,-440,1401890020.195924
3,66,0,14122,-69,-127,-27,14332,-256,-592,-7984,14234,-41,-170,-441,1401890020.213952
3,67,0,16122,-64,-129,-13,16210,-160,-480,-8112,14234,-41,-170,-441,1401890020.225891
3,68,0,17122,-45,-132,-3,18087,-64,-544,-8144,16813,-38,-171,-441,1401890020.226201
3,69,0,19122,-9,-138,5,19965,32,-480,-8192,19393,-35,-169,-441,1401890020.243716
3,70,0,21121,29,-129,-2,21841,288,-448,-8224,19393,-35,-169,-441,1401890020.256119
3,71,0,23121,60,-100,-29,23249,464,-528,-8224,21973,-35,-169,-443,1401890020.256441
3,72,0,25121,76,-75,-74,25126,624,-608,-8256,24553,-31,-170,-442,1401890020.274831
3,73,0,27120,72,-56,-108,27004,752,-656,-8272,27134,-33,-167,-440,1401890020.286973
3,74,0,29120,50,-50,-126,28881,768,-704,-8288,27134,-33,-167,-440,1401890020.287327
3,75,0,31120,29,-63,-132,30759,864,-704,-8240,29715,-31,-167,-443,1401890020.305709
3,76,0,32119,20,-70,-121,32636,848,-752,-8208,32294,-33,-165,-441,1401890020.306146
3,77,0,34119,1,-87,-119,34513,800,-800,-8160,34874,-31,-165,-440,1401890020.323322
3,78,0,36119,-12,-99,-129,36391,784,-880,-8016,34874,-31,-165,-440,1401890020.335306
3,79,0,38118,-25,-121,-128,38267,752,-864,-7968,37454,-33,-165,-440,1401890020.341672
3,80,0,40118,-33,-141,-113,40144,592,-880,-7872,40035,-29,-165,-438,1401890020.354271
3,81,0,42118,-37,-167,-102,42022,480,-864,-7856,40035,-29,-165,-438,1401890020.366785
3,82,0,44117,-29,-189,-105,43899,464,-784,-7872,42615,-30,-169,-439,1401890020.367013
3,83,0,46117,-14,-209,-106,45772,336,-800,-7936,45195,-28,-166,-437,1401890020.385459
3,84,0,47117,-7,-217,-106,47650,368,-896,-7904,47775,-24,-167,-439,1401890020.392046
3,85,0,49117,18,-213,-110,49527,368,-896,-7920,47775,-24,-167,-439,1401890020.404393
3,86,0,51116,48,-219,-111,51405,448,-992,-7936,50355,-24,-165,-439,1401890020.416697
3,87,0,53116,81,-208,-131,53283,400,-1200,-7968,52936,-25,-167,-439,1401890020.417155
3,88,0,55116,106,-202,-148,55161,384,-1200,-8064,55516,-24,-165,-439,1401890020.434512
3,89,0,57115,132,-185,-152,57038,448,-1392,-8112,55516,-24,-165,-439,1401890020.446069
3,90,0,59115,157,-164,-148,58917,448,-1504,-8144,58096,-20,-167,-438,1401890020.446478
3,91,0,61115,175,-141,-137,60796,432,-1520,-8160,60677,-21,-163,-438,1401890020.464764
3,92,0,62114,183,-130,-129,62675,384,-1472,-8208,60677,-21,-163,-438,1401890020.476833
3,93,0,64114,166,-101,-114,64549,336,-1536,-8336,63256,-22,-163,-438,1401890020.477288
3,94,0,578,112,-69,-103,891,320,-1504,-8464,302,-20,-160,-438,1401890020.495804
3,95,0,2577,50,-37,-99,2769,240,-1440,-8560,2882,-22,-161,-436,1401890020.496143
3,96,0,4577,-8,-21,-93,4646,176,-1424,-8560,2882,-22,-161,-436,1401890020.513817
3,97,0,6577,-56,15,-80,6526,96,-1408,-8480,5462,-23,-160,-438,1401890020.525402
3,98,0,8576,-81,57,-69,8404,32,-1376,-8384,8043,-21,-159,-435,1401890020.531683
3,99,0,10576,-80,97,-38,10281,32,-1280,-8240,10624,-21,-157,-438,1401890020.544026
3,100,0,11576,-74,113,-20,12159,48,-1264,-8144,10624,-21,-157,-438,1401890020.556493
3,101,0,13576,-58,120,17,14036,48,-1184,-8048,13204,-23,-164,-435,1401890020.556762
3,102,0,15575,-44,129,60,15914,80,-1136,-8016,15784,-22,-161,-436,1401890020.575031
3,103,0,17575,-35,124,84,17791,144,-1136,-7856,15784,-22,-161,-436,1401890020.586908
3,104,0,19575,-20,119,120,19669,176,-1168,-7792,18364,-21,-161,-437,1401890020.587166
3,105,0,21574,-9,124,141,21546,256,-1056,-7728,20943,-21,-163,-434,1401890020.605671
3,106,0,23574,8,125,158,23424,256,-1040,-7696,23523,-24,-160,-435,1401890020.605861
3,107,0,25574,40,131,165,25301,336,-1056,-7776,23523,-24,-160,-435,1401890020.623762
3,108,0,26573,53,146,167,27179,368,-976,-7856,26103,-24,-156,-437,1401890020.634727
3,109,0,28573,85,166,165,29055,480,-960,-7984,28684,-24,-160,-439,1401890020.646938
3,110,0,30573,108,171,147,30932,528,-960,-8112,31263,-29,-158,-437,1401890020.647275
3,111,0,32572,118,171,139,32809,544,-960,-8192,31263,-29,-158,-437,1401890020.665916
3,112,0,34572,107,171,133,34686,576,-1056,-8224,33844,-28,-159,-439,1401890020.666150
3,113,0,36572,60,161,133,36564,528,-976,-8304,36423,-28,-157,-438,1401890020.684694
3,114,0,38571,4,148,142,38441,544,-1024,-8288,36423,-28,-157,-438,1401890020.696911
3,115,0,40571,-49,162,154,40318,640,-896,-8288,39002,-29,-158,-441,1401890020.697107
3,116,0,41571,-71,154,160,42196,672,-848,-8256,41582,-28,-159,-438,1401890020.715720
3,117,0,43571,-107,150,170,44073,656,-720,-8208,44162,-30,-158,-441,1401890020.716018
3,118,0,45570,-126,145,177,45952,560,-576,-8144,44162,-30,-158,-441,1401890020.732843
3,119,0,47570,-121,141,178,47830,512,-528,-8048,46742,-30,-160,-439,1401890020.744080
3,120,0,49570,-104,149,170,49708,496,-480,-8016,49322,-34,-162,-440,1401890020.755543
3,121,0,51569,-64,156,161,51585,448,-480,-7984,51903,-30,-161,-439,1401890020.761814
3,122,0,53569,-26,167,141,53463,368,-480,-7920,51903,-30,-161,-439,1401890020.774119
3,123,0,55569,2,153,119,55340,288,-512,-7952,54483,-32,-160,-434,1401890020.786455
3,124,0,56568,14,162,111,57217,240,-592,-7936,57064,-35,-163,-438,1401890020.786916
3,125,0,58568,13,159,99,59093,240,-592,-7968,57064,-35,-163,-438,1401890020.804864
3,126,0,60568,6,166,90,60971,256,-624,-8000,59644,-33,-164,-438,1401890020.817191
3,127,0,62567,-2,158,87,62847,256,-624,-8016,62224,-36,-162,-440,1401890020.817669
3,128,0,64567,-6,149,83,64724,240,-576,-8032,64804,-34,-163,-442,1401890020.835228
3,129,0,1031,2,149,76,1065,224,-592,-8112,64804,-34,-163,-442,1401890020.841442
3,130,0,3030,11,138,56,2943,224,-544,-8144,1848,-37,-165,-439,1401890020.853152
3,131,0,5030,7,144,43,4820,192,-480,-8160,4429,-39,-161,-441,1401890020.864532
3,132,0,6030,14,151,36,6697,256,-464,-8208,7009,-38,-162,-443,1401890020.877009
3,133,0,8030,19,141,24,8575,208,-448,-8224,7009,-38,-162,-443,1401890020.877317
3,134,0,10029,20,136,18,10452,208,-432,-8192,9589,-35,-164,-440,1401890020.895956
3,135,0,12029,12,120,33,12329,256,-400,-8160,12170,-36,-163,-440,1401890020.896440
3,136,0,14028,1,99,40,14206,208,-384,-8176,12170,-36,-163,-440,1401890020.914148
3,137,0,16028,-11,90,39,16084,208,-320,-8176,14750,-39,-164,-440,1401890020.926577
3,138,0,18028,-8,75,42,17961,208,-288,-8160,17332,-39,-165,-442,1401890020.926988
3,139,0,20027,-9,58,39,19838,80,-304,-8112,19913,-39,-163,-442,1401890020.944789
3,140,0,21027,-7,45,39,21716,80,-304,-8144,19913,-39,-163,-442,1401890020.957109
3,141,0,23027,-1,38,29,23593,144,-256,-8112,22494,-39,-162,-441,1401890020.957405
3,142,0,25027,2,21,-4,25470,224,-288,-8096,25075,-41,-162,-439,1401890020.975708
3,143,0,27026,10,8,-18,27348,256,-288,-8112,25075,-41,-162,-439,1401890020.976049
3,144,0,29026,4,7,-44,29226,272,-368,-8160,27655,-43,-162,-441,1401890020.993330
3,145,0,31026,-11,9,-54,31104,224,-480,-8192,30236,-40,-162,-443,1401890021.4959
3,146,0,33025,-17,9,-70,32982,192,-528,-8208,32816,-42,-163,-443,1401890021.17352
3,147,0,35025,-12,-5,-59,34860,128,-560,-8240,32816,-42,-163,-443,1401890021.17764
3,148,0,36025,-6,-12,-54,36738,112,-640,-8240,35396,-45,-164,-441,1401890021.35611
3,149,0,38024,-8,-11,-57,38616,-16,-640,-8272,37977,-43,-161,-442,1401890021.35827
3,150,0,40024,-23,-22,-43,40494,-80,-656,-8256,40557,-42,-164,-439,1401890021.53034
3,151,0,42024,-38,-24,-53,42373,-80,-608,-8240,40557,-42,-164,-439,1401890021.65449
3,152,0,44023,-36,-27,-68,44251,-80,-544,-8224,43138,-40,-164,-434,1401890021.71913
3,153,0,46023,-45,-23,-72,46129,-176,-544,-8192,45719,-43,-166,-443,1401890021.84411
3,154,0,48023,-45,-23,-77,48007,-112,-464,-8192,45719,-43,-166,-443,1401890021.96873
3,155,0,50022,-41,-16,-82,49885,-144,-400,-8192,48299,-39,-166,-439,1401890021.97151
3,156,0,51022,-42,-20,-72,51764,-192,-368,-8192,50880,-41,-166,-441,1401890021.115438
3,157,0,53022,-43,-11,-84,53641,-176,-320,-8224,53460,-40,-170,-440,1401890021.115776
3,158,0,55022,-39,-9,-72,55520,-160,-384,-8192,53460,-40,-170,-440,1401890021.134302
3,159,0,57021,-25,-1,-70,57398,-80,-416,-8272,56040,-42,-169,-441,1401890021.145090
3,160,0,59021,-3,-15,-75,59277,-128,-480,-8256,58621,-42,-168,-440,1401890021.155716
3,161,0,61021,16,-21,-89,61155,-96,-512,-8272,61202,-41,-167,-442,1401890021.155942
3,162,0,63020,23,-21,-78,63033,-112,-608,-8240,61202,-41,-167,-442,1401890021.173123
3,163,0,65020,14,-31,-59,64912,-112,-608,-8192,63784,-41,-169,-441,1401890021.185578
3,164,0,484,5,-31,-58,1255,-32,-624,-8128,828,-39,-169,-439,1401890021.186038
3,165,0,2483,-25,-22,-58,3133,-64,-608,-8080,828,-39,-169,-439,1401890021.203897
3,166,0,4483,-44,-18,-63,5011,-48,-592,-8032,3408,-39,-168,-439,1401890021.216071
3,167,0,6483,-51,-16,-74,6889,-80,-560,-8016,5989,-42,-167,-441,1401890021.216387
3,168,0,8482,-47,-15,-76,8767,-80,-544,-8080,8570,-42,-170,-441,1401890021.234786
3,169,0,10482,-35,-8,-85,10644,-112,-544,-8176,8570,-42,-170,-441,1401890021.246967
3,170,0,12482,-28,-13,-95,12522,-176,-496,-8160,11152,-41,-169,-440,1401890021.247413
3,171,0,14481,-28,-21,-90,14400,-160,-560,-8176,13732,-41,-169,-439,1401890021.265791
3,172,0,15481,-20,-23,-89,16278,-176,-560,-8224,16312,-37,-166,-440,1401890021.266136
3,173,0,17481,-21,-24,-102,18156,-160,-624,-8224,16312,-37,-166,-440,1401890021.284766
3,174,0,19481,-30,-32,-94,20034,-192,-560,-8208,18893,-37,-170,-438,1401890021.296533
3,175,0,21480,-37,-29,-81,21912,-144,-608,-8208,21474,-41,-169,-439,1401890021.296739
3,176,0,23480,-38,-22,-79,23791,-224,-640,-8224,21474,-41,-169,-439,1401890021.315187
3,177,0,25480,-42,-13,-79,25669,-160,-656,-8224,24055,-41,-168,-438,1401890021.321701
3,178,0,27479,-40,-3,-67,27546,-80,-576,-8208,26635,-39,-170,-441,1401890021.334270
3,179,0,29479,-35,-1,-72,29423,-112,-656,-8176,29214,-39,-174,-439,1401890021.346141
3,180,0,30479,-32,4,-70,31301,-48,-624,-8144,29214,-39,-174,-439,1401890021.346339
3,181,0,32478,-34,8,-76,33178,-48,-576,-8192,31795,-39,-171,-443,1401890021.364326
3,182,0,34478,-36,11,-84,35055,-32,-528,-8160,34374,-39,-174,-438,1401890021.376978
3,183,0,36478,-31,11,-78,36933,-32,-624,-8160,36955,-39,-171,-440,1401890021.377250
3,184,0,38477,-22,10,-70,38810,-112,-608,-8176,36955,-39,-171,-440,1401890021.395273
3,185,0,40477,-11,10,-83,40689,-96,-592,-8192,39536,-39,-173,-438,1401890021.401672
3,186,0,42477,10,-13,-74,42567,-96,-656,-8144,42117,-40,-173,-438,1401890021.414134
3,187,0,44476,22,-18,-86,44446,-80,-704,-8160,42117,-40,-173,-438,1401890021.426604
3,188,0,45476,20,-23,-88,46324,-144,-800,-8160,44698,-40,-176,-440,1401890021.426873
3,189,0,47476,22,-43,-79,48202,-96,-848,-8000,47279,-38,-175,-438,1401890021.444161
3,190,0,49476,15,-53,-70,50080,-48,-800,-7952,49860,-38,-176,-439,1401890021.456669
3,191,0,51475,-3,-67,-76,51957,-112,-832,-7936,49860,-38,-176,-439,1401890021.457052
3,192,0,53475,-28,-55,-85,53835,-64,-768,-7952,52441,-43,-174,-439,1401890021.475289
3,193,0,55475,-38,-47,-94,55713,0,-768,-7984,55022,-43,-174,-440,1401890021.481443
3,194,0,57474,-52,-38,-94,57592,-32,-720,-8080,57604,-40,-178,-441,1401890021.493810
3,195,0,59474,-49,-35,-94,59470,0,-720,-8160,57604,-40,-178,-441,1401890021.506242
3,196,0,60474,-42,-39,-98,61349,-80,-720,-8144,60184,-40,-173,-438,1401890021.506807
3,197,0,62473,-33,-31,-102,63227,-96,-784,-8176,62765,-40,-173,-442,1401890021.525228
3,198,0,64473,-10,-42,-104,65105,-208,-768,-8176,62765,-40,-173,-442,1401890021.531697
3,199,0,937,12,-66,-89,1447,-176,-800,-8176,65346,-40,-175,-441,1401890021.543595
3,200,0,2936,29,-47,-72,3325,-192,-784,-8176,2391,-40,-175,-439,1401890021.555467
3,201,0,4936,25,-47,-52,5202,-144,-736,-8192,4971,-40,-178,-437,1401890021.561820
3,202,0,6936,23,-42,-37,7080,-48,-720,-8128,4971,-40,-178,-437,1401890021.574325
3,203,0,8935,34,-33,-38,8959,-80,-688,-8176,7551,-38,-174,-436,1401890021.586785
3,204,0,9935,36,-29,-39,10838,-64,-672,-8176,10131,-38,-172,-441,1401890021.587060
3,205,0,11935,42,-9,-42,12716,0,-640,-8176,12712,-40,-175,-440,1401890021.605477
3,206,0,13935,41,-5,-42,14593,64,-784,-8176,12712,-40,-175,-440,1401890021.611846
3,207,0,15934,29,-3,-44,16471,80,-816,-8160,15293,-40,-176,-438,1401890021.624268
3,208,0,17934,5,-14,-46,18349,96,-816,-8144,17874,-43,-174,-437,1401890021.636926
3,209,0,19934,-1,-14,-61,20227,96,-784,-8064,17874,-43,-174,-437,1401890021.637431
3,210,0,21933,-18,11,-54,22105,16,-736,-8112,20456,-40,-175,-435,1401890021.655417
3,211,0,23933,-21,-4,-53,23983,0,-736,-8096,23037,-40,-171,-440,1401890021.661784
3,212,0,24933,-26,-3,-46,25861,-32,-704,-8176,25618,-38,-171,-439,1401890021.673471
3,213,0,26932,-17,-10,-41,27740,0,-704,-8160,25618,-38,-171,-439,1401890021.686018
3,214,0,28932,-15,-16,-37,29617,16,-784,-8160,28199,-42,-172,-439,1401890021.686258
3,215,0,30932,-11,-33,-41,31495,-96,-784,-8192,30780,-39,-170,-437,1401890021.703917
3,216,0,32931,-13,-27,-48,32903,-64,-800,-8160,33362,-39,-172,-438,1401890021.716353
3,217,0,34931,-1,-33,-34,35252,-80,-816,-8224,33362,-39,-172,-438,1401890021.716607
3,218,0,36931,-1,-28,-20,37129,-80,-784,-8224,35941,-37,-177,-436,1401890021.734666
3,219,0,38930,15,-28,-15,39007,-64,-832,-8192,38522,-40,-173,-439,1401890021.746269
3,220,0,39930,23,-27,-14,40886,-64,-896,-8160,38522,-40,-173,-439,1401890021.746713
3,221,0,41930,20,-21,-33,42765,-96,-816,-8208,41102,-38,-170,-438,1401890021.764783
3,222,0,43930,18,-23,-56,44643,-112,-656,-8224,43682,-41,-171,-439,1401890021.777229
3,223,0,45929,-7,-11,-79,46521,-176,-656,-8240,46263,-40,-171,-438,1401890021.777670
3,224,0,47929,-13,8,-77,48399,-160,-592,-8256,46263,-40,-171,-438,1401890021.795929
3,225,0,49929,-4,18,-70,50277,-192,-752,-8208,48844,-43,-171,-436,1401890021.796266
3,226,0,51928,2,27,-44,52156,-176,-752,-8000,51425,-41,-171,-438,1401890021.815058
3,227,0,53928,-13,35,-6,53565,-160,-768,-7952,54007,-44,-169,-438,1401890021.827474
3,228,0,54928,-23,44,16,55914,-144,-704,-7840,54007,-44,-169,-438,1401890021.827753
3,229,0,56927,-21,27,68,57792,-192,-736,-7984,56588,-40,-176,-437,1401890021.845953
3,230,0,58927,-16,-6,117,59670,-192,-752,-8144,59168,-43,-171,-437,1401890021.846295
3,231,0,60927,12,-50,148,61079,-272,-640,-8176,59168,-43,-171,-437,1401890021.864447
3,232,0,62926,43,-68,146,62957,-272,-768,-8144,61749,-46,-171,-436,1401890021.877035
3,233,0,64926,55,-65,142,64835,-288,-832,-8096,64330,-44,-174,-434,1401890021.877433
3,234,0,1390,19,-47,126,1177,-192,-832,-8160,1374,-42,-173,-434,1401890021.896053
3,235,0,3389,-27,11,109,3054,-112,-736,-8144,1374,-42,-173,-434,1401890021.896506
3,236,0,4389,-45,38,105,4932,96,-704,-8096,3955,-40,-174,-436,1401890021.915021
3,237,0,6389,-69,89,89,6810,320,-768,-8128,6535,-39,-171,-439,1401890021.927515
3,238,0,8389,-57,117,99,8688,416,-784,-8176,9116,-39,-173,-438,1401890021.927930
3,239,0,10388,-24,140,114,10566,576,-864,-8208,9116,-39,-173,-438,1401890021.946287
3,240,0,12388,24,138,131,12444,656,-1040,-8224,11697,-37,-172,-433,1401890021.946655
3,241,0,14388,63,143,148,14323,640,-1120,-8208,14279,-39,-172,-440,1401890021.964173
3,242,0,16387,81,127,151,16200,528,-1120,-8176,14279,-39,-172,-440,1401890021.976495
3,243,0,18387,55,99,121,18078,496,-960,-8080,16860,-38,-171,-438,1401890021.976758
3,244,0,20387,1,68,54,19956,432,-768,-8096,19441,-40,-169,-439,1401890021.995079
3,245,0,21386,-15,72,25,21833,432,-576,-8096,22022,-41,-168,-439,1401890022.7429
3,246,0,23386,-62,56,-51,23711,320,-464,-8096,22022,-41,-168,-439,1401890022.7890
3,247,0,25386,-75,30,-96,25590,176,-384,-8112,24603,-40,-172,-436,1401890022.26159
3,248,0,27385,-60,9,-126,27469,96,-432,-8128,27184,-46,-171,-435,1401890022.26432
3,249,0,29385,-46,-10,-107,29348,-16,-480,-8144,27184,-46,-171,-435,1401890022.44083
3,250,0,31385,-29,-37,-71,31226,-80,-640,-8160,29766,-42,-171,-435,1401890022.56301
3,251,0,33384,-13,-73,-31,33104,-160,-784,-8176,32346,-44,-173,-434,1401890022.56763
3,252,0,34384,4,-92,-6,34982,-144,-816,-8192,34928,-41,-173,-436,1401890022.73848
3,253,0,36384,22,-103,28,36860,-112,-960,-8208,34928,-41,-173,-436,1401890022.85547
3,254,0,38384,33,-102,45,38738,-64,-976,-8192,37510,-42,-171,-435,1401890022.85953
3,255,0,40383,42,-85,44,40615,-48,-880,-8192,40090,-42,-170,-438,1401890022.104452
3,0,0,42383,34,-70,22,42493,64,-864,-8128,42672,-40,-171,-437,1401890022.117033
3,1,0,44383,18,-49,-18,44370,96,-800,-8160,42672,-40,-171,-437,1401890022.117437
3,2,0,46382,11,-31,-50,46248,128,-736,-8208,45253,-39,-172,-435,1401890022.135691
3,3,0,48382,13,-19,-75,48125,208,-768,-8176,47835,-38,-173,-435,1401890022.136094
3,4,0,50382,16,-10,-67,50002,160,-816,-8112,47835,-38,-173,-435,1401890022.154408
3,5,0,51381,19,-4,-78,51880,128,-800,-8080,50416,-40,-172,-434,1401890022.166160
3,6,0,53381,15,-3,-60,53759,176,-848,-8000,52997,-36,-171,-437,1401890022.166438
3,7,0,55381,25,-1,-26,55636,128,-768,-8128,55578,-39,-174,-437,1401890022.184865
3,8,0,57380,12,8,-4,57515,64,-736,-8128,55578,-39,-174,-437,1401890022.197164
3,9,0,59380,1,9,1,59392,48,-736,-8144,58159,-37,-171,-437,1401890022.197550
3,10,0,61380,-11,9,7,61270,64,-704,-8192,60740,-39,-171,-436,1401890022.216134
3,11,0,63379,-13,-8,3,63149,-32,-720,-8192,63321,-42,-169,-435,1401890022.216561
3,12,0,65379,-13,0,7,65026,16,-688,-8192,63321,-42,-169,-435,1401890022.234748
3,13,0,843,-4,-1,4,1368,48,-704,-8192,366,-38,-172,-432,1401890022.246314
3,14,0,2843,7,-13,12,3246,16,-704,-8160,2947,-38,-169,-437,1401890022.246544
3,15,0,4842,13,3,-4,5123,48,-720,-8112,2947,-38,-169,-437,1401890022.264706
3,16,0,6842,12,5,-7,7001,16,-672,-8128,5528,-41,-171,-436,1401890022.277082
3,17,0,8842,9,8,-15,8879,80,-656,-8144,8109,-41,-170,-434,1401890022.277359
3,18,0,10841,-4,4,-32,10757,80,-656,-8144,10689,-39,-168,-438,1401890022.295847
3,19,0,12841,8,5,-34,12636,0,-688,-8160,10689,-39,-168,-438,1401890022.296273
3,20,0,14841,20,15,-19,14514,64,-752,-8176,13270,-39,-173,-437,1401890022.314831
3,21,0,15840,15,11,-18,16392,48,-720,-8160,15851,-37,-169,-439,1401890022.326793
3,22,0,17840,7,-3,1,18269,32,-688,-8176,18432,-40,-171,-435,1401890022.327191
3,23,0,19840,1,-1,-4,20147,16,-736,-8176,18432,-40,-171,-435,1401890022.344985
3,24,0,21839,-6,-4,-3,22025,-16,-768,-8144,21012,-40,-174,-436,1401890022.357259
3,25,0,23839,-33,8,-11,23903,0,-784,-8176,23593,-41,-172,-439,1401890022.357743
3,26,0,25839,-44,2,-5,25777,48,-672,-8208,23593,-41,-172,-439,1401890022.375989
3,27,0,27838,-40,9,-5,27656,80,-720,-8192,26174,-40,-169,-437,1401890022.376257
3,28,0,29838,-30,16,-2,29534,80,-752,-8160,28756,-40,-171,-436,1401890022.394833
3,29,0,30838,-11,21,-10,31412,64,-720,-8208,31337,-39,-170,-436,1401890022.407391
3,30,0,32838,-2,11,-17,33290,80,-720,-8160,31337,-39,-170,-436,1401890022.407608
3,31,0,34837,-9,11,-19,35169,48,-768,-8160,33917,-43,-172,-439,1401890022.425331
3,32,0,36837,0,16,-9,37047,48,-784,-8128,36499,-39,-174,-435,1401890022.431738
3,33,0,38837,-2,15,-1,38926,0,-768,-8112,39081,-39,-174,-434,1401890022.444095
3,34,0,40836,1,6,-1,40804,-16,-768,-8128,39081,-39,-174,-434,1401890022.456391
3,35,0,42836,-7,1,-10,42682,0,-768,-8128,41662,-40,-170,-437,1401890022.456668
3,36,0,44836,-5,-10,-16,44560,-16,-752,-8160,44243,-38,-172,-435,1401890022.474779
3,37,0,45835,-6,-1,-28,46438,32,-736,-8176,44243,-38,-172,-435,1401890022.486777
3,38,0,47835,-5,-3,-17,48317,0,-752,-8208,46825,-39,-173,-435,1401890022.487160
3,39,0,49835,-18,0,-6,50196,16,-704,-8176,49406,-41,-171,-438,1401890022.505424
3,40,0,51834,-21,5,2,52073,0,-720,-8176,51987,-41,-174,-440,1401890022.505775
3,41,0,53834,-21,6,1,53951,48,-688,-8160,51987,-41,-174,-440,1401890022.524030
3,42,0,55834,-21,1,-9,55829,80,-720,-8128,54567,-42,-172,-439,1401890022.536270
3,43,0,57833,-14,2,-23,57708,48,-736,-8112,57148,-40,-173,-440,1401890022.536643
3,44,0,59833,-5,6,-25,59585,48,-752,-8128,59729,-40,-174,-439,1401890022.554250
3,45,0,60833,-17,14,-33,61463,48,-768,-8112,59729,-40,-174,-439,1401890022.566636
3,46,0,62833,-16,14,-40,63341,96,-720,-8144,62310,-39,-175,-435,1401890022.566824
3,47,0,64832,-21,18,-26,65219,32,-672,-8144,64890,-41,-173,-436,1401890022.585083
3,48,0,1296,-11,19,-24,1561,16,-768,-8096,64890,-41,-173,-436,1401890022.597474
3,49,0,3296,-11,11,-19,3439,48,-736,-8144,1937,-38,-175,-437,1401890022.597781
3,50,0,5295,-17,6,-17,5317,16,-768,-8144,4518,-39,-172,-436,1401890022.616164
3,51,0,7295,-16,4,-29,7194,0,-800,-8144,7099,-43,-174,-436,1401890022.616592
3,52,0,9295,-17,-16,-7,9073,0,-784,-8096,7099,-43,-174,-436,1401890022.634975
3,53,0,10294,-18,-13,-14,10951,-16,-752,-8096,9680,-41,-174,-437,1401890022.647032
3,54,0,12294,-22,-6,-3,12829,-16,-816,-8128,12260,-40,-173,-439,1401890022.647334
3,55,0,14294,-16,1,-16,14708,16,-800,-8160,14841,-39,-174,-437,1401890022.665379
3,56,0,16293,8,-3,-13,16586,48,-816,-8208,14841,-39,-174,-437,1401890022.671214
3,57,0,18293,39,24,-15,18464,80,-816,-8176,17422,-38,-176,-438,1401890022.683791
3,58,0,20293,37,33,-15,20342,160,-848,-8160,20002,-40,-173,-438,1401890022.696018
3,59,0,22292,28,25,-10,22220,144,-912,-8128,20002,-40,-173,-438,1401890022.696390
3,60,0,24292,19,17,-6,24099,144,-784,-8144,22582,-40,-176,-438,1401890022.714823
3,61,0,25292,15,7,-13,25973,48,-816,-8128,25163,-41,-173,-435,1401890022.726497
3,62,0,27292,-18,-2,-16,27852,-48,-720,-8144,27744,-39,-172,-440,1401890022.726703
3,63,0,29291,-8,-14,-20,29730,-112,-752,-8096,27744,-39,-172,-440,1401890022.745122
3,64,0,31291,3,-21,-48,31610,-32,-768,-8080,30326,-39,-175,-435,1401890022.750815
3,65,0,33291,28,-18,-76,33487,-64,-768,-8128,32907,-41,-174,-438,1401890022.762776
3,66,0,35290,50,-7,-76,35365,16,-768,-8144,35488,-41,-178,-438,1401890022.775209
3,67,0,37290,65,-2,-94,37244,0,-736,-8176,35488,-41,-178,-438,1401890022.781606
3,68,0,39290,83,-2,-92,39118,32,-656,-8160,38068,-39,-179,-439,1401890022.793454
3,69,0,40289,88,2,-99,40997,16,-720,-8128,40649,-40,-175,-437,1401890022.806005
3,70,0,42289,93,0,-101,42875,16,-624,-8160,40649,-40,-175,-437,1401890022.806231
3,71,0,44289,87,-8,-94,44754,32,-704,-8144,43229,-39,-174,-435,1401890022.824680
3,72,0,46288,82,-13,-82,46633,48,-656,-8144,45810,-40,-171,-438,1401890022.837148
3,73,0,48288,70,-23,-55,48512,64,-768,-8096,48392,-38,-169,-443,1401890022.837547
3,74,0,50288,74,-28,-37,50391,48,-768,-8048,48392,-38,-169,-443,1401890022.855601
3,75,0,52287,68,-30,-18,52265,16,-768,-8112,50973,-39,-170,-438,1401890022.855904
3,76,0,54287,78,-33,-16,54144,48,-720,-8096,53555,-36,-170,-441,1401890022.874249
3,77,0,55287,71,-36,-19,56019,0,-736,-8128,56136,-40,-168,-439,1401890022.886683
3,78,0,57287,87,-32,-25,57898,48,-640,-8112,56136,-40,-168,-439,1401890022.886995
3,79,0,59286,92,-39,-57,59777,48,-576,-8160,58716,-39,-172,-441,1401890022.904775
3,80,0,61286,101,-29,-88,61652,0,-544,-8192,61297,-39,-170,-438,1401890022.917033
3,81,0,63286,116,-18,-124,63531,48,-512,-8224,61297,-39,-170,-438,1401890022.917402
3,82,0,65285,136,-10,-149,65410,64,-528,-8240,63878,-40,-168,-440,1401890022.935889
3,83,0,1749,162,-16,-146,1752,-32,-560,-8224,922,-38,-164,-440,1401890022.936075
3,84,0,3749,174,-32,-129,3630,32,-640,-8192,3503,-39,-165,-443,1401890022.953202
3,85,0,4749,172,-31,-115,5508,16,-608,-8160,3503,-39,-165,-443,1401890022.965162
3,86,0,6748,160,-53,-102,7388,16,-560,-8144,6083,-40,-167,-440,1401890022.971655
3,87,0,8748,165,-67,-83,9266,16,-592,-8080,8664,-38,-164,-441,1401890022.983500
3,88,0,10748,168,-79,-87,11145,112,-512,-8096,11246,-40,-162,-442,1401890022.996108
3,89,0,12747,168,-90,-93,13024,80,-496,-8064,11246,-40,-162,-442,1401890022.996370
3,90,0,14747,156,-102,-119,14902,128,-448,-8096,13826,-36,-163,-436,1401890023.14869
3,91,0,16747,136,-100,-148,16779,160,-368,-8160,16407,-35,-160,-438,1401890023.27207
3,92,0,18746,121,-98,-171,18657,288,-432,-8144,16407,-35,-160,-438,1401890023.27653
3,93,0,19746,108,-86,-189,20535,288,-480,-8176,18987,-36,-161,-441,1401890023.45799
3,94,0,21746,89,-75,-206,22414,368,-416,-8144,21567,-36,-159,-444,1401890023.46247
3,95,0,23745,101,-68,-230,24292,368,-432,-8128,24148,-36,-158,-445,1401890023.63671
3,96,0,25745,148,-49,-234,26170,336,-464,-8192,24148,-36,-158,-445,1401890023.76223
3,97,0,27745,153,-37,-223,28047,176,-416,-8384,26728,-36,-164,-442,1401890023.76528
3,98,0,29744,100,-23,-198,29925,176,-416,-8432,29309,-35,-158,-441,1401890023.95211
3,99,0,31744,33,-14,-163,31802,320,-400,-8256,29309,-35,-158,-441,1401890023.101667
3,100,0,33744,-27,-3,-127,33680,496,-400,-8144,31888,-36,-158,-439,1401890023.114210
3,101,0,34744,-39,9,-108,35557,608,-304,-8160,34468,-34,-161,-437,1401890023.126356
3,102,0,36743,-41,49,-108,37435,544,-416,-8224,37050,-34,-159,-441,1401890023.126662
3,103,0,38743,25,61,-103,39312,336,-464,-8496,37050,-34,-159,-441,1401890023.144831
3,104,0,40743,92,57,-66,41190,48,-560,-8592,39630,-39,-155,-439,1401890023.157171
3,105,0,42742,32,51,7,43068,-80,-480,-8480,42210,-41,-161,-440,1401890023.157627
3,106,0,44742,-66,47,66,44945,-96,-400,-8304,44790,-36,-159,-443,1401890023.175851
3,107,0,46742,-153,48,76,46822,-144,-256,-8240,44790,-36,-159,-443,1401890023.176156
3,108,0,48741,-192,60,26,48701,-240,-64,-8224,47371,-37,-159,-438,1401890023.194006
3,109,0,49741,-214,60,-3,50578,-336,32,-8192,49952,-39,-162,-440,1401890023.205897
3,110,0,51741,-241,37,-64,52456,-512,96,-8160,49952,-39,-162,-440,1401890023.206278
3,111,0,53740,-256,18,-93,54334,-592,32,-8096,52533,-37,-164,-441,1401890023.224905
3,112,0,55740,-252,-13,-69,56212,-496,0,-8032,55113,-40,-168,-440,1401890023.237158
3,113,0,57740,-221,-37,-26,58090,-480,-80,-7920,57694,-42,-166,-443,1401890023.237627
3,114,0,59739,-165,-49,25,59968,-368,-224,-7920,57694,-42,-166,-443,1401890023.254832
3,115,0,61739,-99,-69,75,61846,-240,-240,-7872,60276,-38,-169,-443,1401890023.267068
3,116,0,63739,-31,-86,118,63724,-192,-384,-7904,62856,-35,-172,-441,1401890023.267337
3,117,0,64739,-8,-92,129,66,-96,-496,-7952,65436,-38,-170,-441,1401890023.285131
3,118,0,1202,9,-114,158,1945,-80,-640,-8000,65436,-38,-170,-441,1401890023.296774
3,119,0,3202,-4,-113,190,3823,-64,-672,-8112,2481,-37,-170,-431,1401890023.297226
3,120,0,5202,-19,-102,196,5701,16,-704,-8176,5062,-38,-170,-440,1401890023.315116
3,121,0,7201,-33,-88,203,7579,192,-864,-8240,5062,-38,-170,-440,1401890023.327386
3,122,0,9201,-41,-77,166,9457,336,-848,-8224,7642,-34,-168,-438,1401890023.327869
3,123,0,11201,-55,-59,125,11334,448,-960,-8192,10222,-34,-169,-443,1401890023.345682
3,124,0,13200,-75,-44,70,13212,608,-976,-8192,12801,-34,-167,-435,1401890023.345983
3,125,0,14200,-88,-32,50,15090,704,-976,-8208,12801,-34,-167,-435,1401890023.363829
3,126,0,16200,-106,-25,19,16969,720,-992,-8240,15381,-33,-168,-440,1401890023.376115
3,127,0,18199,-106,-15,12,18378,704,-928,-8288,17962,-32,-168,-438,1401890023.376391
3,128,0,20199,-95,-17,15,20256,624,-1040,-8256,20543,-33,-171,-435,1401890023.394115
3,129,0,22199,-55,-33,5,22134,560,-992,-8224,20543,-33,-171,-435,1401890023.405757
3,130,0,24198,-18,-40,-2,24013,448,-944,-8208,23124,-33,-172,-437,1401890023.406138
3,131,0,26198,16,-85,-10,25892,320,-960,-8192,25704,-33,-171,-435,1401890023.424733
3,132,0,28198,49,-89,-18,27770,288,-896,-8160,25704,-33,-171,-435,1401890023.436968
3,133,0,29198,56,-76,-25,29644,224,-880,-8192,28284,-31,-166,-437,1401890023.437227
3,134,0,31197,67,-81,-45,31522,192,-896,-8176,30865,-31,-166,-436,1401890023.454922
3,135,0,33197,66,-77,-73,33399,224,-816,-8192,33445,-29,-165,-437,1401890023.467151
3,136,0,35197,55,-57,-104,35277,336,-752,-8128,33445,-29,-165,-437,1401890023.467634
3,137,0,37196,34,-38,-141,37155,432,-816,-8080,36026,-29,-166,-437,1401890023.485610
3,138,0,39196,32,-10,-176,39034,480,-816,-8096,38606,-32,-164,-437,1401890023.485835
3,139,0,41196,43,8,-214,40911,480,-784,-8064,41186,-32,-165,-434,1401890023.503768
3,140,0,43195,71,16,-259,42789,448,-768,-8048,41186,-32,-165,-434,1401890023.516157
3,141,0,44195,85,24,-277,44666,432,-704,-8096,43767,-30,-163,-437,1401890023.516607
3,142,0,46195,104,27,-301,46545,352,-672,-8048,46347,-30,-164,-436,1401890023.534585
3,143,0,48194,96,23,-320,48423,272,-528,-8128,46347,-30,-164,-436,1401890023.546841
3,144,0,50194,77,17,-324,50301,128,-496,-8160,48929,-30,-163,-434,1401890023.547306
3,145,0,52194,48,7,-307,52179,48,-512,-8160,51509,-30,-164,-435,1401890023.565722
3,146,0,54193,32,-10,-274,54058,-64,-336,-8160,54091,-30,-163,-437,1401890023.566107
3,147,0,56193,16,-34,-232,55936,-144,-368,-8208,54091,-30,-163,-437,1401890023.584392
3,148,0,58193,-3,-43,-191,57814,-192,-352,-8160,56672,-30,-164,-437,1401890023.596242
3,149,0,59193,-6,-35,-174,59692,-288,-336,-8192,59254,-28,-163,-435,1401890023.596621
3,150,0,61192,-24,-45,-148,61570,-272,-336,-8240,61834,-28,-165,-438,1401890023.615112
3,151,0,63192,-46,-57,-127,63449,-240,-400,-8224,61834,-28,-165,-438,1401890023.627389
3,152,0,65192,-69,-62,-114,65326,-224,-480,-8192,64415,-31,-166,-439,1401890023.627858
3,153,0,1655,-74,-55,-109,1664,-48,-528,-8176,1460,-31,-166,-436,1401890023.646324
3,154,0,3655,-67,-34,-98,3542,-48,-560,-8224,1460,-31,-166,-436,1401890023.646745
3,155,0,5655,-56,-23,-94,5419,48,-576,-8160,4041,-31,-166,-438,1401890023.664517
3,156,0,7654,-57,-2,-81,7298,144,-608,-8160,6622,-31,-165,-438,1401890023.677110
3,157,0,8654,-50,16,-68,9175,112,-672,-8112,9204,-32,-169,-435,1401890023.677400
3,158,0,10654,-52,38,-70,11053,160,-624,-8128,9204,-32,-169,-435,1401890023.695688
3,159,0,12653,-68,60,-71,12931,176,-624,-8112,11784,-32,-167,-436,1401890023.695968
3,160,0,14653,-80,74,-78,14809,80,-656,-8192,14364,-29,-169,-436,1401890023.713657
3,161,0,16653,-69,86,-83,16687,32,-576,-8208,16946,-29,-169,-437,1401890023.726231
3,162,0,18652,-46,90,-82,18566,32,-720,-8208,16946,-29,-169,-437,1401890023.726687
3,163,0,20652,-23,86,-72,20443,48,-656,-8176,19526,-30,-168,-435,1401890023.745100
3,164,0,22652,-24,88,-55,22321,144,-672,-8160,22107,-30,-167,-437,1401890023.756708
3,165,0,23652,-20,86,-55,24199,112,-672,-8144,22107,-30,-167,-437,1401890023.756904
3,166,0,25651,-26,90,-73,26076,240,-704,-8160,24688,-33,-169,-436,1401890023.774112
3,167,0,27651,-25,85,-80,27954,224,-704,-8192,27269,-33,-170,-437,1401890023.786388
3,168,0,29651,-17,85,-79,29832,304,-640,-8128,29849,-31,-170,-436,1401890023.786856
3,169,0,31650,-36,75,-72,31711,256,-624,-8160,29849,-31,-170,-436,1401890023.805129
3,170,0,33650,-49,71,-61,33588,240,-592,-8176,32429,-31,-166,-435,1401890023.811511
3,171,0,35650,-70,68,-52,35467,160,-512,-8192,35010,-36,-171,-438,1401890023.823894
3,172,0,37649,-75,80,-68,37344,128,-464,-8176,37590,-36,-172,-437,1401890023.835853
3,173,0,38649,-75,79,-70,39222,96,-448,-8192,37590,-36,-172,-437,1401890023.836117
3,174,0,40649,-79,78,-83,41099,16,-416,-8208,40171,-35,-169,-440,1401890023.854660
3,175,0,42648,-71,71,-95,42977,-16,-352,-8192,42750,-35,-171,-438,1401890023.865528
3,176,0,44648,-55,73,-86,44854,-32,-400,-8176,42750,-35,-171,-438,1401890023.865772
3,177,0,46648,-37,77,-75,46732,-32,-448,-8160,45331,-35,-171,-439,1401890023.881634
3,178,0,48647,-13,72,-60,48609,0,-416,-8192,47911,-35,-170,-435,1401890023.893736
3,179,0,50647,11,41,-50,50487,-16,-512,-8176,50492,-33,-172,-440,1401890023.904830
3,180,0,52647,25,58,-38,52365,-32,-560,-8176,50492,-33,-172,-440,1401890023.917148
3,181,0,53647,31,53,-35,54242,32,-544,-8176,53073,-33,-171,-437,1401890023.917564
3,182,0,55646,16,38,-29,56120,48,-528,-8160,55653,-35,-174,-441,1401890023.935897
3,183,0,57646,-3,17,-29,57998,32,-528,-8160,58234,-35,-174,-439,1401890023.936372
3,184,0,59646,-12,23,-28,59876,64,-576,-8160,58234,-35,-174,-439,1401890023.954739
3,185,0,61645,-22,26,-19,61753,80,-496,-8176,60815,-37,-176,-440,1401890023.966259
3,186,0,63645,-28,26,-23,63630,96,-528,-8144,63395,-37,-172,-439,1401890023.966633
3,187,0,109,-27,26,-27,65508,112,-592,-8128,63395,-37,-172,-439,1401890023.984583
3,188,0,2108,-9,17,-23,1850,96,-560,-8128,438,-37,-174,-437,1401890023.996871
3,189,0,3108,-13,18,-24,3729,48,-576,-8096,3019,-39,-172,-438,1401890023.997109
3,190,0,5108,-8,15,-24,5607,32,-464,-8128,5599,-36,-171,-441,1401890024.14597
3,191,0,7107,-19,12,-26,7485,0,-448,-8128,5599,-36,-171,-441,1401890024.26913
3,192,0,9107,-25,12,-24,9364,-112,-448,-8208,8180,-36,-174,-439,1401890024.27275
3,193,0,11107,-42,20,-22,11242,-144,-528,-8208,10760,-35,-176,-443,1401890024.45979
3,194,0,13106,-58,18,-18,13120,-176,-480,-8192,13341,-34,-178,-443,1401890024.46221
3,195,0,15106,-67,15,-4,14998,-160,-512,-8176,13341,-34,-178,-443,1401890024.64287
3,196,0,17106,-81,17,25,16876,-208,-464,-8112,15921,-35,-177,-439,1401890024.76733
3,197,0,18106,-77,20,41,18754,-208,-480,-8128,18501,-38,-176,-440,1401890024.76980
3,198,0,20105,-72,17,59,20631,-176,-480,-8112,18501,-38,-176,-440,1401890024.95352
3,199,0,22105,-66,21,64,22508,-160,-496,-8128,21082,-34,-175,-441,1401890024.101681
3,200,0,24105,-40,25,70,24386,-144,-480,-8160,23662,-34,-177,-440,1401890024.113623
3,201,0,26104,-20,18,63,26263,-208,-464,-8256,26242,-35,-176,-442,1401890024.125494
3,202,0,28104,-5,6,55,28141,-224,-528,-8304,26242,-35,-176,-442,1401890024.125714
3,203,0,30104,12,-18,45,30019,-256,-544,-8352,28823,-36,-179,-440,1401890024.144229
3,204,0,32103,12,-21,51,31896,-208,-656,-8320,31403,-34,-177,-442,1401890024.156688
3,205,0,33103,4,-22,57,33774,-144,-592,-8240,33983,-33,-177,-443,1401890024.156968
3,206,0,35103,-27,-27,68,35651,-96,-592,-8208,33983,-33,-177,-443,1401890024.174760
3,207,0,37102,-38,-30,83,37528,0,-544,-8160,36562,-34,-178,-441,1401890024.187267
3,208,0,39102,-43,-22,101,39405,-32,-592,-8112,39142,-33,-176,-443,1401890024.187716
3,209,0,41102,-26,-21,114,41282,80,-592,-8016,39142,-33,-176,-443,1401890024.206276
3,210,0,43101,-14,-18,115,43160,64,-544,-8016,41722,-31,-176,-441,1401890024.206756
3,211,0,45101,18,-17,106,45037,96,-656,-8016,44302,-31,-177,-440,1401890024.224452
3,212,0,47101,39,-4,103,46914,112,-688,-7984,46884,-34,-176,-443,1401890024.236659
3,213,0,48101,44,4,96,48792,64,-624,-8016,46884,-34,-176,-443,1401890024.237005
3,214,0,50100,57,1,95,50670,16,-608,-8016,49464,-33,-181,-442,1401890024.255150
3,215,0,52100,60,-10,121,52548,-32,-640,-8112,52044,-34,-176,-441,1401890024.260923
3,216,0,54100,50,-18,115,54425,-80,-576,-8096,54624,-33,-176,-441,1401890024.273257
3,217,0,56099,28,-33,115,56303,-80,-656,-8192,54624,-33,-176,-441,1401890024.285839
3,218,0,58099,23,-40,118,58180,16,-688,-8160,57204,-30,-178,-438,1401890024.286343
3,219,0,60099,32,-48,101,60057,-48,-640,-8176,59784,-32,-173,-442,1401890024.304128
3,220,0,62098,58,-32,105,61934,-48,-656,-8160,59784,-32,-173,-442,1401890024.316094
3,221,0,63098,76,-26,106,63812,-16,-688,-8224,62365,-31,-171,-440,1401890024.316306
3,222,0,65098,113,-37,109,153,-16,-800,-8208,64946,-29,-172,-441,1401890024.334726
3,223,0,1562,131,-27,129,2030,64,-848,-8192,1990,-30,-171,-444,1401890024.346863
3,224,0,3561,121,-33,141,3908,128,-800,-8176,1990,-30,-171,-444,1401890024.347318
3,225,0,5561,103,-34,152,5786,96,-752,-8192,4569,-29,-174,-443,1401890024.364844
3,226,0,7561,77,-37,148,7663,96,-688,-8192,7150,-28,-168,-445,1401890024.376332
3,227,0,9560,60,-42,145,9541,144,-576,-8192,7150,-28,-168,-445,1401890024.376584
3,228,0,11560,47,-40,135,11419,128,-560,-8208,9731,-30,-170,-442,1401890024.394690
3,229,0,12560,48,-41,130,13298,128,-608,-8176,12311,-29,-168,-439,1401890024.407088
3,230,0,14559,45,-51,112,15176,176,-640,-8192,14893,-26,-167,-441,1401890024.407321
3,231,0,16559,38,-55,98,17054,192,-704,-8176,14893,-26,-167,-441,1401890024.425108
3,232,0,18559,42,-51,89,18931,240,-736,-8176,17473,-29,-166,-438,1401890024.437036
3,233,0,20558,63,-53,90,20809,224,-784,-8160,20053,-25,-166,-442,1401890024.437320
3,234,0,22558,81,-49,98,22686,272,-768,-8176,22634,-25,-167,-442,1401890024.455209
3,235,0,24558,80,-54,110,24564,288,-736,-8192,22634,-25,-167,-442,1401890024.461039
3,236,0,26557,72,-53,106,26441,336,-768,-8192,25214,-25,-163,-438,1401890024.473332
3,237,0,27557,59,-55,97,28319,400,-816,-8176,27794,-24,-164,-441,1401890024.485624
3,238,0,29557,67,-57,85,30195,400,-848,-8176,27794,-24,-164,-441,1401890024.485899
3,239,0,31557,65,-64,81,32072,400,-800,-8176,30374,-23,-166,-440,1401890024.504479
3,240,0,33556,71,-62,90,33949,432,-832,-8176,32954,-24,-162,-442,1401890024.516572
3,241,0,35556,64,-58,94,35827,432,-800,-8208,35534,-22,-160,-442,1401890024.516824
3,242,0,37556,64,-57,99,37704,448,-688,-8192,35534,-22,-160,-442,1401890024.534699
3,243,0,39555,32,-62,85,39581,480,-624,-8176,38114,-22,-161,-439,1401890024.546972
3,244,0,41555,9,-52,76,41458,416,-512,-8224,40694,-22,-162,-440,1401890024.547180
3,245,0,42555,3,-48,63,43336,480,-608,-8224,43274,-23,-160,-441,1401890024.564698
3,246,0,44554,4,-34,42,45214,512,-736,-8208,43274,-23,-160,-441,1401890024.576737
3,247,0,46554,10,-34,48,47092,624,-896,-8176,45854,-21,-164,-436,1401890024.577099
3,248,0,48554,23,-27,66,48970,592,-976,-8064,48434,-19,-161,-441,1401890024.595836
3,249,0,50553,34,-31,90,50848,544,-960,-8032,48434,-19,-161,-441,1401890024.596077
3,250,0,52553,17,-36,107,52726,528,-880,-8016,51015,-21,-163,-439,1401890024.614102
3,251,0,54553,-18,-22,105,54604,480,-832,-8064,53595,-22,-162,-439,1401890024.626622
3,252,0,56552,-47,-14,84,56482,432,-768,-8128,56174,-18,-162,-438,1401890024.626946
3,253,0,57552,-60,-13,80,58360,432,-752,-8160,56174,-18,-162,-438,1401890024.645257
3,254,0,59552,-67,-6,42,60238,544,-816,-8192,58755,-22,-161,-440,1401890024.651445
3,255,0,61552,-62,-1,23,62117,608,-784,-8192,61336,-19,-161,-438,1401890024.663022
3,0,0,63551,-60,8,-6,63996,592,-752,-8192,63917,-18,-163,-439,1401890024.675170
3,1,0,15,-66,10,-22,338,624,-736,-8144,63917,-18,-163,-439,1401890024.681437
3,2,0,2015,-53,9,-26,2215,592,-736,-8176,962,-20,-162,-440,1401890024.693747
3,3,0,4014,-28,6,-18,4093,544,-752,-8176,3541,-20,-163,-438,1401890024.706342
3,4,0,6014,-2,6,-16,5972,592,-784,-8144,3541,-20,-163,-438,1401890024.706568
3,5,0,7014,4,6,-11,7849,608,-800,-8160,6122,-18,-161,-436,1401890024.724417
3,6,0,9013,28,-8,-8,9727,544,-816,-8096,8701,-23,-160,-440,1401890024.736791
3,7,0,11013,37,8,-6,11605,560,-848,-8112,11282,-20,-160,-441,1401890024.737114
3,8,0,13013,18,2,-7,13484,512,-784,-8160,11282,-20,-160,-441,1401890024.755601
3,9,0,15012,-17,-1,-9,15363,464,-816,-8192,13863,-22,-163,-439,1401890024.756002
3,10,0,17012,-50,2,-15,17241,560,-784,-8192,16444,-22,-162,-438,1401890024.773666
3,11,0,19012,-39,-6,-38,19119,496,-832,-8160,19025,-19,-163,-441,1401890024.786206
3,12,0,21011,-22,-9,-44,20997,480,-896,-8112,19025,-19,-163,-441,1401890024.786651
3,13,0,22011,-23,-6,-43,22876,448,-816,-8064,21605,-19,-163,-443,1401890024.804713
3,14,0,24011,-33,-26,-58,24753,352,-800,-8080,24184,-18,-162,-438,1401890024.816921
3,15,0,26011,-64,-25,-71,26631,368,-784,-8144,24184,-18,-162,-438,1401890024.817178
3,16,0,28010,-82,-18,-79,28509,448,-704,-8160,26764,-17,-164,-440,1401890024.835644
3,17,0,30010,-75,-16,-80,30387,480,-656,-8144,29344,-16,-162,-438,1401890024.836082
3,18,0,32010,-72,-9,-77,32265,512,-640,-8144,31924,-20,-165,-441,1401890024.854724
3,19,0,34009,-71,-4,-90,34141,576,-608,-8176,31924,-20,-165,-441,1401890024.866490
3,20,0,36009,-75,-4,-96,36019,448,-656,-8128,34505,-17,-166,-438,1401890024.866737
3,21,0,37009,-79,-2,-103,37896,432,-592,-8112,37085,-18,-166,-437,1401890024.884297
3,22,0,39008,-85,-8,-111,39774,368,-640,-8000,39664,-19,-166,-438,1401890024.896824
3,23,0,41008,-92,-12,-103,41652,368,-656,-7936,39664,-19,-166,-438,1401890024.897083
3,24,0,43008,-96,-21,-86,43530,448,-720,-7968,42243,-17,-165,-439,1401890024.915390
3,25,0,45007,-96,-8,-86,45409,448,-608,-8048,44822,-20,-165,-440,1401890024.921682
3,26,0,47007,-79,-1,-64,47286,352,-592,-8096,44822,-20,-165,-440,1401890024.933896
3,27,0,49007,-54,5,-65,49164,368,-640,-8176,47403,-19,-166,-438,1401890024.946245
3,28,0,51006,-35,-2,-77,51042,304,-704,-8240,49984,-17,-169,-438,1401890024.946715
3,29,0,52006,-24,4,-73,52921,288,-768,-8224,52565,-18,-167,-438,1401890024.964025
3,30,0,54006,-19,2,-91,54799,304,-768,-8304,52565,-18,-167,-438,1401890024.976295
3,31,0,56006,-30,-6,-88,56207,272,-896,-8256,55145,-19,-167,-437,1401890024.976700
3,32,0,58005,-50,-21,-74,58085,224,-848,-8176,57726,-18,-168,-439,1401890024.994751
3,33,0,60005,-69,-32,-68,59964,256,-768,-8144,60305,-19,-168,-441,1401890025.7247
3,34,0,62005,-98,-38,-47,61842,304,-816,-8064,60305,-19,-168,-441,1401890025.7690
3,35,0,64004,-97,-35,-43,63720,368,-704,-8048,62884,-16,-172,-439,1401890025.26018
3,36,0,468,-87,-33,-36,63,336,-624,-8016,65465,-15,-170,-439,1401890025.26376
3,37,0,1468,-75,-29,-42,1941,400,-640,-8096,65465,-15,-170,-439,1401890025.44060
3,38,0,3467,-42,-21,-51,3819,352,-608,-8096,2509,-17,-170,-439,1401890025.55790
3,39,0,5467,-24,-19,-55,5696,352,-624,-8160,5089,-14,-172,-438,1401890025.56091
3,40,0,7467,-10,-22,-70,7574,432,-704,-8144,7670,-16,-171,-440,1401890025.74081
3,41,0,9466,-8,-26,-59,9452,320,-752,-8176,7670,-16,-171,-440,1401890025.86012
3,42,0,11466,-3,-31,-74,11330,368,-816,-8176,10251,-17,-171,-437,1401890025.86462
3,43,0,13466,-15,-35,-58,13208,304,-848,-8192,12832,-15,-174,-436,1401890025.104821
3,44,0,15465,-15,-36,-44,15085,272,-864,-8160,15411,-18,-172,-438,1401890025.117150
3,45,0,16465,-18,-35,-42,16964,288,-816,-8128,15411,-18,-172,-438,1401890025.117467
3,46,0,18465,-32,-40,-38,18841,272,-816,-8128,17992,-17,-171,-438,1401890025.134617
3,47,0,20465,-41,-46,-37,20718,304,-784,-8192,20572,-18,-171,-436,1401890025.147066
3,50,0,26464,13,-68,-56,26352,448,-704,-8176,25732,-17,-176,-435,1401890025.176921
3,51,0,28463,39,-65,-50,28230,560,-752,-8176,28313,-19,-170,-435,1401890025.177196
3,52,0,30463,55,-67,-58,30107,576,-704,-8160,28313,-19,-170,-435,1401890025.194844
3,53,0,31463,70,-73,-61,31985,624,-704,-8160,30893,-16,-172,-436,1401890025.207167
3,54,0,33463,95,-89,-55,33863,688,-848,-8064,33473,-16,-169,-435,1401890025.207616
3,55,0,35462,94,-105,-49,35737,720,-800,-8048,36053,-14,-169,-441,1401890025.225867
3,56,0,37462,77,-115,-49,37616,784,-784,-8000,36053,-14,-169,-441,1401890025.226221
3,57,0,39462,65,-128,-46,39494,816,-896,-7968,38634,-14,-172,-434,1401890025.243750
3,58,0,41461,56,-134,-45,41373,832,-912,-7920,41213,-14,-169,-439,1401890025.256440
3,59,0,43461,55,-135,-57,43251,944,-960,-7904,41213,-14,-169,-439,1401890025.256776
3,60,0,45461,58,-144,-70,45129,944,-1040,-7840,43793,-10,-173,-435,1401890025.275070
3,61,0,46460,67,-141,-78,47007,976,-1024,-7888,46373,-15,-171,-433,1401890025.287455
3,62,0,48460,80,-139,-90,48886,1072,-1008,-7920,48952,-12,-165,-437,1401890025.287845
3,63,0,50460,100,-138,-94,50763,1008,-1072,-7984,48952,-12,-165,-437,1401890025.306022
3,64,0,52459,113,-135,-108,52640,1024,-1184,-8064,51531,-11,-166,-434,1401890025.306473
3,65,0,54459,117,-130,-132,54519,1056,-1216,-8064,54111,-9,-168,-435,1401890025.324492
3,66,0,56459,106,-122,-146,56396,1040,-1216,-8144,56692,-10,-166,-435,1401890025.336253
3,67,0,58458,84,-112,-169,58274,944,-1184,-8144,56692,-10,-166,-435,1401890025.336598
3,68,0,60458,80,-105,-180,60153,880,-1264,-8192,59272,-12,-170,-437,1401890025.354748
3,69,0,61458,72,-103,-191,62032,832,-1248,-8176,61853,-8,-166,-435,1401890025.366381
3,70,0,63458,53,-99,-193,63908,720,-1344,-8176,61853,-8,-166,-435,1401890025.366615
3,71,0,65457,12,-100,-189,250,624,-1424,-8240,64433,-8,-168,-433,1401890025.384863
3,72,0,1921,-35,-96,-170,2128,512,-1536,-8224,1477,-10,-167,-437,1401890025.397350
3,73,0,3921,-86,-74,-153,4005,464,-1632,-8240,4057,-10,-167,-431,1401890025.397810
3,74,0,5920,-112,-47,-117,5884,320,-1632,-8288,4057,-10,-167,-431,1401890025.416288
3,75,0,7920,-132,-6,-92,7759,144,-1680,-8304,6637,-10,-170,-436,1401890025.416596
3,76,0,9920,-131,45,-65,9638,0,-1536,-8256,9217,-7,-168,-431,1401890025.434741
3,77,0,10919,-133,67,-66,11513,-96,-1600,-8224,11798,-7,-173,-434,1401890025.446590
3,78,0,12919,-136,106,-62,13390,-208,-1328,-8112,11798,-7,-173,-434,1401890025.446794
3,79,0,14919,-120,142,-44,15268,-224,-1216,-7936,14378,-11,-177,-434,1401890025.464967
3,80,0,16918,-94,183,-19,17142,-144,-1104,-7680,16958,-11,-173,-437,1401890025.477333
3,81,0,18918,-38,199,8,19020,-96,-1024,-7488,16958,-11,-173,-437,1401890025.477605
3,82,0,20918,46,207,26,20898,0,-896,-7328,19539,-13,-175,-434,1401890025.495601
3,83,0,22917,149,192,54,22777,304,-640,-7328,22119,-13,-176,-435,1401890025.495969
3,84,0,24917,244,189,56,24656,432,-608,-7504,24699,-13,-170,-438,1401890025.513613
3,85,0,25917,285,182,51,26535,672,-528,-8000,24699,-13,-170,-438,1401890025.526155
3,86,0,27917,346,188,35,28413,912,-752,-8288,27279,-13,-168,-437,1401890025.526595
3,87,0,29916,398,185,2,30291,1104,-960,-8640,29859,-15,-164,-437,1401890025.544472
3,88,0,31916,422,205,-10,32170,1232,-1184,-8704,32438,-15,-161,-436,1401890025.556651
3,89,0,33916,393,211,-18,34048,1184,-1328,-8736,32438,-15,-161,-436,1401890025.556924
3,90,0,35915,299,215,-46,35926,992,-1328,-8864,35019,-17,-160,-436,1401890025.574709
3,91,0,37915,168,202,-67,37804,832,-1264,-8832,37599,-17,-161,-438,1401890025.586546
3,92,0,39915,15,176,-68,39682,720,-1136,-8784,37599,-17,-161,-438,1401890025.586852
3,93,0,40914,-53,160,-57,41560,688,-976,-8592,40179,-18,-159,-439,1401890025.605126
3,94,0,42914,-164,137,-18,43438,608,-848,-8320,42759,-18,-162,-439,1401890025.611736
3,95,0,44914,-223,113,36,45316,512,-640,-8160,45340,-22,-163,-439,1401890025.624247
3,96,0,46913,-223,107,113,47193,464,-496,-7872,45340,-22,-163,-439,1401890025.636397
3,97,0,48913,-149,118,165,49072,304,-384,-7648,47920,-22,-170,-441,1401890025.636700
3,98,0,50913,-40,127,178,50950,272,-320,-7488,50500,-22,-168,-441,1401890025.655192
3,99,0,52912,76,134,146,52827,128,-192,-7456,53081,-22,-169,-439,1401890025.661190
3,100,0,54912,160,156,83,54703,80,-304,-7600,53081,-22,-169,-439,1401890025.673176
3,101,0,55912,190,157,40,56581,0,-368,-7840,55662,-23,-165,-436,1401890025.685749
3,102,0,57912,205,165,-41,58459,96,-448,-8064,58243,-23,-165,-440,1401890025.686191
3,103,0,59911,161,170,-102,60336,80,-576,-8224,58243,-23,-165,-440,1401890025.704578
3,104,0,61911,74,172,-118,62214,160,-736,-8224,60823,-26,-164,-439,1401890025.717066
3,105,0,63911,-36,178,-102,64091,208,-752,-8240,63403,-26,-165,-441,1401890025.717325
3,106,0,374,-120,171,-68,434,320,-592,-8288,447,-22,-165,-443,1401890025.735634
3,107,0,2374,-163,167,-36,2312,384,-496,-8224,447,-22,-165,-443,1401890025.736040
3,108,0,4374,-148,167,-5,4190,384,-416,-8208,3027,-22,-173,-444,1401890025.754150
3,109,0,5373,-134,163,3,6064,336,-304,-8176,5607,-25,-168,-443,1401890025.766722
3,110,0,7373,-89,157,5,7942,304,-192,-8032,5607,-25,-168,-443,1401890025.767044
3,111,0,9373,-19,153,-10,9816,208,-160,-8064,8188,-25,-171,-445,1401890025.785325
3,112,0,11372,15,143,-26,11694,80,-176,-8080,10769,-33,-170,-443,1401890025.791700
3,113,0,13372,46,151,-39,13573,16,-160,-8096,13349,-33,-171,-442,1401890025.804080
3,114,0,15372,55,151,-50,15451,-32,-128,-8112,13349,-33,-171,-442,1401890025.816693
3,115,0,17372,54,122,-52,17329,-96,-208,-8128,15930,-33,-167,-445,1401890025.816935
3,116,0,19371,50,102,-49,19207,-128,-256,-8176,18510,-33,-170,-446,1401890025.835319
3,117,0,20371,41,95,-44,21086,-128,-304,-8208,21091,-31,-169,-443,1401890025.841677
3,118,0,22371,37,69,-36,22964,-128,-368,-8224,21091,-31,-169,-443,1401890025.853502
3,119,0,24370,30,47,-38,24841,-96,-352,-8208,23672,-31,-171,-442,1401890025.865878
3,120,0,26370,38,32,-46,26719,-80,-512,-8192,26252,-31,-168,-444,1401890025.866231
3,121,0,28370,43,24,-60,28598,-16,-432,-8192,26252,-31,-168,-444,1401890025.884125
3,122,0,30369,67,14,-56,30476,32,-496,-8208,28832,-31,-170,-443,1401890025.896723
3,123,0,32369,90,3,-48,32353,128,-496,-8144,31411,-31,-167,-444,1401890025.897099
3,124,0,34369,94,1,-45,34232,240,-512,-8176,33991,-29,-168,-446,1401890025.915353
3,125,0,35369,94,3,-44,36109,192,-464,-8112,33991,-29,-168,-446,1401890025.921629
3,126,0,37368,88,7,-61,37987,144,-432,-8064,36571,-33,-169,-446,1401890025.934194
3,127,0,39368,86,0,-80,39865,64,-464,-8096,39151,-28,-169,-443,1401890025.946721
3,128,0,41368,69,8,-72,41742,48,-336,-8128,41731,-28,-168,-445,1401890025.947053
3,129,0,43367,62,10,-68,43621,-96,-272,-8192,41731,-28,-168,-445,1401890025.964596
3,130,0,45367,74,13,-65,45498,-48,-272,-8208,44312,-34,-167,-441,1401890025.976200
3,131,0,47367,90,8,-66,47375,-80,-320,-8240,46892,-33,-167,-444,1401890025.976686
3,132,0,49366,86,7,-74,49252,-144,-224,-8224,46892,-33,-167,-444,1401890025.995234
3,133,0,50366,79,17,-81,51130,-144,-288,-8240,49471,-35,-168,-446,1401890026.1717
3,134,0,52366,74,15,-84,53009,-160,-192,-8240,52050,-31,-167,-444,1401890026.13971
3,135,0,54365,68,22,-78,54886,-176,-144,-8240,54630,-33,-163,-444,1401890026.26361
3,136,0,56365,69,24,-68,56765,-224,-112,-8208,54630,-33,-163,-444,1401890026.26837
3,137,0,58365,92,25,-72,58643,-160,16,-8144,57211,-32,-168,-444,1401890026.44867
3,138,0,60364,121,16,-76,60520,-160,0,-8128,59792,-35,-165,-447,1401890026.57572
3,139,0,62364,148,-1,-84,62398,-96,-48,-8080,62372,-32,-165,-447,1401890026.57809
3,140,0,64364,162,-16,-94,64275,-80,-144,-8112,62372,-32,-165,-447,1401890026.75633
3,141,0,65364,167,-24,-97,617,-16,-240,-8096,64952,-31,-163,-442,1401890026.76042
3,142,0,1827,159,-25,-105,2494,0,-336,-8064,1996,-33,-162,-446,1401890026.93986
3,143,0,3827,135,-30,-98,4372,-16,-320,-8144,1996,-33,-162,-446,1401890026.106245
3,144,0,5827,100,-24,-98,6250,-16,-368,-8176,4577,-29,-160,-447,1401890026.106592
3,145,0,7826,66,-20,-79,8127,-48,-368,-8176,7157,-30,-160,-445,1401890026.124742
3,146,0,9826,37,-16,-78,10005,-128,-320,-8192,9736,-30,-162,-448,1401890026.137233
3,147,0,11826,23,-18,-75,11884,-96,-320,-8208,9736,-30,-162,-448,1401890026.137683
3,148,0,13825,11,-11,-75,13762,-48,-368,-8192,12316,-32,-164,-442,1401890026.155948
3,149,0,14825,3,-16,-84,15640,-128,-288,-8144,14896,-32,-165,-444,1401890026.156135
3,150,0,16825,-3,-16,-94,17518,-48,-288,-8144,17476,-32,-161,-444,1401890026.174030
3,151,0,18824,-13,-15,-103,19395,-96,-192,-8144,17476,-32,-161,-444,1401890026.186577
3,152,0,20824,-23,-18,-117,21273,-48,-32,-8160,20055,-30,-162,-442,1401890026.186827
3,153,0,22824,-33,-8,-133,23150,-80,-80,-8176,22635,-31,-163,-445,1401890026.204622
3,154,0,24823,-61,3,-140,25028,-48,-16,-8176,22635,-31,-163,-445,1401890026.217282
3,155,0,26823,-74,6,-165,26905,-32,-96,-8240,25214,-29,-166,-443,1401890026.217606
3,156,0,28823,-71,4,-187,28784,-32,-192,-8256,27794,-30,-164,-445,1401890026.236014
3,157,0,29823,-68,10,-191,30662,-32,-240,-8240,30374,-32,-165,-442,1401890026.236345
3,158,0,31822,-38,15,-190,32539,-80,-304,-8208,30374,-32,-165,-442,1401890026.254305
3,159,0,33822,-2,-4,-163,34417,-112,-432,-8224,32956,-30,-167,-444,1401890026.266073
3,160,0,35822,5,-9,-113,36294,-128,-432,-8208,35536,-28,-165,-441,1401890026.266302
3,161,0,37821,6,10,-69,38171,-144,-384,-8224,38117,-30,-165,-440,1401890026.284004
3,162,0,39821,7,28,-53,40049,-80,-368,-8176,38117,-30,-165,-440,1401890026.296716
3,163,0,41821,-22,50,-44,41925,-80,-256,-8160,40697,-29,-167,-441,1401890026.297098
3,164,0,43820,-30,57,-47,43803,-48,-224,-8144,43277,-32,-168,-441,1401890026.315175
3,165,0,44820,-27,72,-56,45680,-64,-112,-8128,43277,-32,-168,-441,1401890026.321313
3,166,0,46820,-23,89,-65,47559,-112,-96,-8128,45858,-30,-167,-441,1401890026.333798
3,167,0,48819,-12,85,-75,49437,-224,64,-8160,48438,-33,-172,-443,1401890026.346468
3,168,0,50819,-12,79,-83,51314,-368,144,-8192,51019,-31,-172,-438,1401890026.346848
3,169,0,52819,-13,45,-84,53192,-432,176,-8192,51019,-31,-172,-438,1401890026.365449
3,170,0,54818,5,-2,-57,55070,-512,80,-8160,53600,-30,-169,-442,1401890026.365814
3,171,0,56818,32,-29,-25,56947,-496,112,-8080,56180,-30,-171,-442,1401890026.383595
3,172,0,58818,42,-47,4,58824,-432,-48,-7984,58760,-32,-170,-444,1401890026.396214
3,173,0,59818,44,-49,16,60702,-384,-144,-7984,58760,-32,-170,-444,1401890026.396663
3,174,0,61817,42,-55,36,62581,-336,-128,-8080,61339,-33,-171,-440,1401890026.414586
3,175,0,63817,42,-47,49,64459,-288,-208,-8128,63919,-31,-169,-438,1401890026.427060
3,176,0,281,37,-29,48,801,-240,-144,-8224,63919,-31,-169,-438,1401890026.427464
3,177,0,2280,40,-16,35,2679,-320,-80,-8432,964,-34,-170,-444,1401890026.445346
3,178,0,4280,48,4,25,4557,-384,-128,-8608,3544,-33,-175,-443,1401890026.451650
3,179,0,6280,66,-9,12,6435,-416,-224,-8656,6123,-33,-170,-439,1401890026.464011
3,180,0,8279,59,-19,-18,8313,-416,-368,-8640,6123,-33,-170,-439,1401890026.475614
3,181,0,9279,66,-27,-21,10190,-368,-432,-8560,8702,-29,-170,-441,1401890026.475848
3,182,0,11279,60,-40,-31,12068,-368,-368,-8480,11283,-30,-167,-439,1401890026.494009
3,183,0,13279,47,-54,-28,13946,-384,-368,-8432,13863,-30,-173,-441,1401890026.505275
3,184,0,15278,44,-65,-26,15823,-384,-368,-8400,13863,-30,-173,-441,1401890026.511672
3,185,0,17278,42,-68,-26,17700,-352,-384,-8304,16443,-28,-173,-441,1401890026.524007
3,186,0,19278,51,-71,-41,19577,-304,-432,-8176,19024,-30,-171,-439,1401890026.536101
3,187,0,21277,69,-76,-54,21454,-288,-448,-8192,19024,-30,-171,-439,1401890026.536556
3,188,0,23277,64,-62,-66,23331,-240,-432,-8160,21603,-29,-168,-442,1401890026.555009
3,189,0,24277,53,-53,-73,25208,-256,-464,-8096,24182,-27,-169,-442,1401890026.566940
3,190,0,26276,26,-50,-85,27086,-256,-384,-8128,26762,-26,-167,-440,1401890026.567175
3,191,0,28276,4,-43,-99,28964,-240,-320,-8176,26762,-26,-167,-440,1401890026.583722
3,192,0,30276,-16,-3,-107,30842,-256,-240,-8192,29341,-26,-169,-439,1401890026.594210
3,193,0,32275,-23,8,-112,32720,-368,-208,-8192,31922,-30,-171,-440,1401890026.605642
3,194,0,34275,0,4,-129,34128,-448,-144,-8208,34501,-28,-167,-440,1401890026.605950
3,195,0,36275,18,0,-120,36006,-512,-144,-8192,34501,-28,-167,-440,1401890026.624260
3,196,0,38274,36,8,-103,37885,-528,-144,-8224,37082,-25,-170,-440,1401890026.636104
3,197,0,39274,38,13,-90,39763,-560,-112,-8176,39662,-28,-168,-439,1401890026.636556
3,198,0,41274,38,12,-59,41641,-656,-80,-8176,39662,-28,-168,-439,1401890026.654658
3,199,0,43274,12,-1,-35,43519,-624,-112,-8176,42241,-26,-166,-438,1401890026.666567
3,200,0,45273,-21,-4,-15,45397,-608,-96,-8160,44821,-26,-170,-439,1401890026.666934
3,201,0,47273,-51,-9,-7,47275,-576,-128,-8160,47400,-29,-169,-438,1401890026.683930
3,202,0,49273,-68,-20,-2,49153,-576,-160,-8176,47400,-29,-169,-438,1401890026.696195
3,203,0,51272,-89,-25,-6,51030,-544,-208,-8208,49981,-26,-168,-439,1401890026.696680
3,204,0,53272,-87,-37,8,52908,-480,-192,-8160,52561,-27,-166,-440,1401890026.715251
3,205,0,54272,-92,-34,3,54785,-416,-272,-8192,55140,-25,-171,-440,1401890026.721592
3,206,0,56271,-96,-37,-1,56662,-400,-272,-8256,55140,-25,-171,-440,1401890026.733578
3,207,0,58271,-88,-38,2,58540,-320,-368,-8384,57720,-23,-168,-438,1401890026.746130
3,208,0,60271,-88,-43,-22,60419,-320,-480,-8368,60300,-24,-169,-441,1401890026.746577
3,209,0,62270,-70,-44,-38,62297,-272,-528,-8400,60300,-24,-169,-441,1401890026.764760
3,210,0,64270,-60,-39,-43,64176,-272,-608,-8304,62880,-24,-172,-439,1401890026.776537
3,211,0,734,-58,-36,-46,518,-288,-608,-8240,65459,-22,-168,-441,1401890026.776721
3,212,0,2733,-64,-39,-45,2395,-288,-496,-8208,2504,-22,-170,-436,1401890026.794816
3,213,0,3733,-69,-32,-41,4274,-336,-448,-8176,2504,-22,-170,-436,1401890026.806756
3,214,0,5733,-70,-39,-41,6152,-432,-448,-8112,5083,-19,-172,-440,1401890026.807035
3,215,0,7733,-54,-54,-42,8030,-432,-384,-8144,7662,-22,-170,-441,1401890026.824640
3,216,0,9732,-34,-50,-37,9908,-480,-352,-8144,10242,-18,-171,-441,1401890026.837095
3,217,0,11732,-24,-62,-45,11786,-512,-304,-8112,10242,-18,-171,-441,1401890026.837553
3,218,0,13732,-29,-64,-51,13664,-512,-304,-8160,12822,-18,-175,-441,1401890026.856007
3,219,0,15731,-38,-68,-56,15542,-560,-336,-8160,15401,-17,-172,-439,1401890026.856310
3,220,0,17731,-50,-65,-58,17421,-528,-368,-8160,15401,-17,-172,-439,1401890026.874571
3,221,0,18731,-54,-67,-55,19299,-496,-464,-8144,17980,-15,-169,-441,1401890026.886425
3,222,0,20730,-63,-62,-51,21177,-432,-496,-8096,20560,-15,-171,-440,1401890026.886662
3,223,0,22730,-90,-57,-43,23055,-432,-528,-8096,23141,-14,-172,-437,1401890026.904687
3,224,0,24730,-81,-51,-40,24932,-448,-544,-8144,23141,-14,-172,-437,1401890026.917076
3,225,0,26730,-54,-52,-41,26810,-464,-656,-8144,25722,-12,-167,-440,1401890026.917425
3,226,0,28729,-43,-54,-38,28688,-496,-640,-8112,28302,-16,-169,-441,1401890026.935733
3,227,0,30729,-32,-66,-39,30567,-560,-736,-8080,30883,-11,-172,-441,1401890026.936090
3,228,0,32729,-39,-77,-49,32446,-576,-736,-8112,30883,-11,-172,-441,1401890026.954702
3,229,0,33728,-47,-78,-51,34325,-624,-736,-8128,33463,-9,-176,-440,1401890026.966473
3,230,0,35728,-70,-77,-49,36203,-768,-688,-8080,36043,-8,-172,-440,1401890026.966816
3,231,0,37728,-91,-82,-54,38081,-736,-704,-8064,36043,-8,-172,-440,1401890026.984283
3,232,0,39727,-107,-90,-50,39960,-816,-656,-8096,38623,-10,-175,-441,1401890026.996771
3,233,0,41727,-134,-84,-48,41839,-800,-624,-8048,41203,-8,-172,-439,1401890026.997017
3,234,0,43727,-129,-82,-45,43716,-880,-560,-8032,43784,-5,-174,-439,1401890027.15454
3,235,0,45726,-134,-84,-36,45595,-928,-608,-8080,43784,-5,-174,-439,1401890027.22051
3,236,0,47726,-129,-76,-33,47473,-944,-688,-8112,46364,-4,-175,-441,1401890027.34299
3,237,0,48726,-123,-72,-30,49351,-992,-704,-8144,48945,-1,-177,-442,1401890027.46788
3,238,0,50726,-116,-74,-20,51231,-896,-656,-8192,51524,0,-175,-442,1401890027.47005
3,239,0,52725,-126,-76,-18,53109,-992,-672,-8208,51524,0,-175,-442,1401890027.65256
3,240,0,54725,-135,-87,-13,54987,-944,-704,-8224,54104,0,-174,-442,1401890027.71655
3,241,0,56725,-171,-76,-1,56865,-928,-624,-8256,56684,3,-174,-439,1401890027.82692
3,242,0,58724,-199,-76,-11,58743,-864,-464,-8304,56684,3,-174,-439,1401890027.94756
3,243,0,60724,-221,-73,-18,60622,-832,-320,-8592,59263,5,-178,-441,1401890027.107138
3,244,0,62724,-251,-69,-33,62499,-944,-224,-8928,61842,5,-176,-440,1401890027.107576
3,245,0,63723,-247,-61,-43,64377,-1008,-112,-9280,64423,8,-179,-440,1401890027.126027
3,246,0,187,-211,-66,-53,719,-944,-128,-9424,64423,8,-179,-440,1401890027.126336
3,247,0,2187,-132,-95,-63,2596,-832,-272,-9184,1468,8,-180,-444,1401890027.144235
3,248,0,4186,-70,-113,-22,4475,-544,-432,-8720,4049,13,-180,-440,1401890027.156630
3,249,0,6186,-31,-134,49,6354,-272,-688,-8288,6628,13,-176,-437,1401890027.156914
3,250,0,8186,0,-139,138,8231,32,-848,-8128,6628,13,-176,-437,1401890027.174852
3,251,0,10185,69,-103,228,10107,192,-944,-8064,9209,16,-176,-435,1401890027.186557
3,252,0,12185,157,-62,270,11985,320,-1008,-7984,11790,16,-175,-442,1401890027.186832
3,253,0,13185,197,-39,269,13861,368,-1072,-8096,11790,16,-175,-442,1401890027.205324
3,254,0,15185,259,-13,227,15738,384,-1152,-8144,14371,19,-169,-441,1401890027.211683
3,255,0,17184,262,2,157,17616,320,-1024,-8208,16952,19,-169,-443,1401890027.224124
3,0,0,19184,200,-3,83,19493,144,-864,-8400,19531,18,-169,-440,1401890027.236538
3,1,0,21184,103,-5,40,21370,32,-688,-8448,19531,18,-169,-440,1401890027.236769
3,2,0,23183,9,-36,22,23248,-128,-544,-8496,22111,18,-172,-443,1401890027.254832
3,3,0,25183,-68,-70,34,25127,-192,-384,-8352,24690,21,-167,-446,1401890027.267582
3,4,0,27183,-107,-91,67,27005,-176,-384,-8352,24690,21,-167,-446,1401890027.267919
3,5,0,28182,-105,-96,80,28883,-112,-272,-8336,27270,21,-164,-443,1401890027.284497
3,6,0,30182,-89,-111,91,30761,-48,-224,-8464,29851,23,-168,-439,1401890027.296950
3,7,0,32182,-64,-100,62,32639,96,-160,-8496,32432,23,-165,-446,1401890027.297425
3,8,0,34181,-3,-79,38,34516,240,-128,-8624,32432,23,-165,-446,1401890027.316064
3,9,0,36181,51,-47,-29,36395,528,-112,-8720,35013,28,-166,-444,1401890027.316514
3,10,0,38181,109,-19,-103,38272,752,-240,-8832,37594,28,-165,-440,1401890027.335057
3,11,0,40180,155,-5,-142,40151,880,-416,-8880,40173,31,-163,-444,1401890027.346726
3,12,0,42180,178,-2,-163,42029,1040,-512,-8768,40173,31,-163,-444,1401890027.347028
3,13,0,43180,182,-4,-150,43908,1056,-592,-8576,42755,31,-162,-441,1401890027.364975
3,14,0,45180,170,-9,-98,45786,1152,-672,-8288,45335,30,-159,-443,1401890027.377556
3,15,0,47179,126,-21,-50,47663,1120,-672,-8080,45335,30,-159,-443,1401890027.377944
3,16,0,49179,68,-36,-9,49541,1184,-480,-7664,47916,30,-161,-444,1401890027.394418
3,17,0,51179,18,-42,-8,51418,1200,-448,-7360,50496,30,-156,-445,1401890027.406074
3,18,0,53178,-7,-71,-17,53296,1360,-352,-7056,53076,30,-158,-443,1401890027.406532
3,19,0,55178,-31,-66,-24,55175,1360,-288,-6896,53076,30,-158,-443,1401890027.424359
3,20,0,57178,-34,-57,-31,57052,1360,-128,-6800,55655,32,-162,-445,1401890027.436537
3,21,0,58178,-24,-61,-36,58930,1424,-64,-6768,58235,32,-160,-443,1401890027.436763
3,22,0,60177,-5,-69,-45,60808,1488,16,-6848,60816,33,-158,-441,1401890027.455018
3,23,0,62177,24,-64,-67,62686,1616,-96,-6880,60816,33,-158,-441,1401890027.467300
3,24,0,64177,46,-47,-102,64564,1776,-224,-7040,63396,33,-157,-440,1401890027.467575
3,25,0,640,49,-33,-143,905,1856,-192,-7216,441,37,-157,-441,1401890027.485097
3,26,0,2640,37,-27,-186,2783,1904,-368,-7392,441,37,-157,-441,1401890027.491326
3,27,0,4640,7,-43,-213,4661,1984,-416,-7664,3021,37,-155,-442,1401890027.503348
3,28,0,6639,-9,-33,-242,6538,1968,-576,-7888,5602,38,-155,-443,1401890027.515931
3,29,0,7639,-19,-27,-255,8416,1776,-560,-8144,8182,38,-153,-439,1401890027.516302
3,30,0,9639,-2,-37,-250,10294,1632,-800,-8192,8182,38,-153,-439,1401890027.534371
3,31,0,11638,28,-27,-235,12171,1440,-976,-8240,10762,35,-154,-440,1401890027.546767
3,32,0,13638,43,-33,-211,14050,1216,-1152,-8320,13342,37,-152,-438,1401890027.547016
3,33,0,15638,24,-31,-198,15927,1024,-1264,-8352,15923,35,-154,-438,1401890027.564992
3,34,0,17637,-22,-27,-185,17805,816,-1408,-8384,15923,35,-154,-438,1401890027.577233
3,35,0,19637,-86,-6,-178,19679,576,-1376,-8464,18504,37,-156,-436,1401890027.577559
3,36,0,21637,-150,7,-172,21558,320,-1344,-8544,21084,36,-155,-439,1401890027.594586
3,37,0,22637,-188,19,-179,23435,128,-1280,-8576,21084,36,-155,-439,1401890027.606927
3,38,0,24636,-255,52,-176,25313,32,-1344,-8656,23665,38,-155,-436,1401890027.607400
3,39,0,26636,-324,66,-151,27191,16,-1280,-8672,26246,35,-161,-440,1401890027.625738
3,40,0,28636,-388,94,-109,29069,-64,-1216,-8656,28826,38,-161,-440,1401890027.626015
3,41,0,30635,-435,116,-77,30947,-64,-1216,-8496,28826,38,-161,-440,1401890027.644341
3,42,0,32635,-456,141,-45,32826,-80,-1136,-8272,31406,34,-164,-438,1401890027.656880
3,43,0,34635,-444,145,-4,34703,-64,-1072,-8128,33987,40,-168,-441,1401890027.657186
3,44,0,36634,-399,151,41,36582,-32,-880,-8016,36568,37,-174,-440,1401890027.675790
3,45,0,37634,-370,153,60,38460,-16,-832,-7712,36568,37,-174,-440,1401890027.676045
3,46,0,39634,-305,150,90,40339,160,-832,-7488,39149,38,-173,-436,1401890027.694412
3,47,0,41633,-243,145,112,42217,256,-704,-7232,41729,34,-175,-441,1401890027.706642
3,48,0,43633,-168,122,144,44095,384,-784,-7072,41729,34,-175,-441,1401890027.706937
3,49,0,45633,-97,106,173,45973,464,-752,-6992,44309,36,-176,-441,1401890027.725200
3,50,0,47632,-37,74,195,47851,512,-864,-6960,46890,37,-177,-439,1401890027.731152
3,51,0,49632,9,26,198,49729,544,-960,-7024,49470,36,-176,-440,1401890027.743167
3,52,0,51632,50,13,199,51607,624,-1104,-7184,49470,36,-176,-440,1401890027.755686
3,53,0,52632,72,1,199,53484,608,-1296,-7296,52051,39,-173,-441,1401890027.756135
3,54,0,54631,90,-15,192,55362,672,-1440,-7520,54631,37,-177,-441,1401890027.774553
3,55,0,56631,77,-18,178,57240,656,-1664,-7760,57211,38,-173,-440,1401890027.786102
3,56,0,58631,67,-18,148,59118,656,-1840,-7904,57211,38,-173,-440,1401890027.786330
3,57,0,60630,51,-11,118,60996,704,-1920,-8080,59792,42,-173,-444,1401890027.804165
3,58,0,62630,44,-9,105,62875,656,-2000,-8032,62372,43,-172,-441,1401890027.816821
3,59,0,64630,23,-3,97,64753,640,-1968,-7888,62372,43,-172,-441,1401890027.817134
3,60,0,1093,0,-4,97,1095,592,-1936,-7840,64953,42,-173,-440,1401890027.835761
3,61,0,2093,-4,13,99,2974,560,-1840,-7680,1998,39,-170,-443,1401890027.836041
3,62,0,4093,21,12,106,4851,496,-1728,-7536,4579,44,-171,-445,1401890027.854059
3,63,0,6093,51,26,119,6729,448,-1648,-7392,4579,44,-171,-445,1401890027.866419
3,64,0,8092,111,38,123,8608,336,-1600,-7376,7160,44,-172,-445,1401890027.866691
3,65,0,10092,158,40,117,10486,256,-1568,-7392,9741,45,-170,-444,1401890027.884471
3,66,0,12092,181,43,116,12363,208,-1552,-7424,12322,48,-166,-446,1401890027.896241
3,67,0,14091,188,54,103,14240,128,-1552,-7392,12322,48,-166,-446,1401890027.896511
3,68,0,16091,153,66,91,16118,64,-1568,-7360,14903,44,-166,-445,1401890027.914979
3,69,0,17091,149,67,92,17996,48,-1520,-7328,17483,46,-165,-444,1401890027.926735
3,70,0,19090,113,70,78,19873,32,-1488,-7392,17483,46,-165,-444,1401890027.927015
3,71,0,21090,123,80,71,21751,160,-1488,-7376,20064,51,-164,-447,1401890027.945695
3,72,0,23090,158,81,68,23629,160,-1408,-7424,22644,48,-159,-447,1401890027.946077
3,73,0,25089,198,93,66,25507,256,-1424,-7472,25225,47,-158,-446,1401890027.964606
3,74,0,27089,232,96,42,27385,224,-1328,-7504,25225,47,-158,-446,1401890027.976863
3,75,0,29089,248,84,8,29263,304,-1328,-7568,27806,49,-157,-449,1401890027.977140
3,76,0,31088,266,76,-13,31141,416,-1360,-7712,30388,46,-158,-448,1401890027.994326
3,77,0,32088,267,77,-24,33019,480,-1424,-7792,32969,47,-155,-447,1401890028.6704
3,78,0,34088,239,81,-32,34897,528,-1616,-7936,32969,47,-155,-447,1401890028.7154
3,79,0,36088,188,73,-35,36774,544,-1872,-8016,35548,48,-149,-448,1401890028.25853
3,80,0,38087,114,65,-17,38651,464,-2096,-8032,38128,49,-151,-447,1401890028.26156
3,81,0,40087,-2,60,7,40528,384,-2304,-8144,38128,49,-151,-447,1401890028.44299
3,82,0,42087,-103,72,35,42407,144,-2400,-8192,40710,50,-148,-448,1401890028.56837
3,83,0,44086,-200,92,77,44285,-112,-2592,-8272,43291,48,-151,-449,1401890028.57192
3,84,0,46086,-294,128,112,46162,-496,-2704,-8320,45871,47,-150,-452,1401890028.75835
3,85,0,47086,-339,155,125,48040,-784,-2864,-8336,45871,47,-150,-452,1401890028.76185
3,86,0,49085,-411,215,167,49918,-1040,-2880,-8416,48453,47,-154,-450,1401890028.93232
3,87,0,51085,-443,272,191,51796,-1280,-2944,-8368,51033,47,-156,-451,1401890028.105516
3,88,0,53085,-445,327,204,53204,-1376,-2864,-8416,53614,46,-158,-451,1401890028.105793
3,89,0,55084,-402,358,219,55550,-1360,-2576,-8384,53614,46,-158,-451,1401890028.123766
3,90,0,57084,-292,361,213,57428,-1184,-2208,-8560,56194,44,-162,-454,1401890028.136315
3,91,0,59084,-149,322,161,58836,-1056,-1872,-8896,58775,44,-160,-454,1401890028.136683
3,92,0,61083,-11,239,40,60713,-672,-1568,-9376,58775,44,-160,-454,1401890028.154810
3,93,0,62083,34,202,-18,62591,-320,-1312,-9856,61354,43,-158,-454,1401890028.167153
3,94,0,64083,97,166,-152,64468,144,-1440,-10320,63935,42,-157,-454,1401890028.167569
3,95,0,547,114,104,-245,809,736,-1504,-10672,981,42,-156,-454,1401890028.185871
3,96,0,2546,117,35,-307,2687,1056,-1552,-11088,981,42,-156,-454,1401890028.186152
3,97,0,4546,65,-14,-308,4565,1072,-1808,-11472,3561,39,-155,-457,1401890028.204810
3,98,0,6546,-113,-19,-230,6442,1104,-2368,-11232,6142,39,-157,-456,1401890028.216985
3,99,0,8545,-437,-5,-101,8319,1152,-2480,-10656,8723,40,-161,-457,1401890028.217264
3,100,0,10545,-816,-7,46,10197,1216,-2192,-9824,8723,40,-161,-457,1401890028.235743
3,101,0,11545,-989,-5,104,12074,1200,-1760,-8960,11305,38,-171,-454,1401890028.236049
3,102,0,13545,-1233,-2,183,13951,896,-1088,-8384,13885,42,-175,-457,1401890028.254667
3,103,0,15544,-1254,5,232,15828,432,-400,-7952,13885,42,-175,-457,1401890028.267078
3,104,0,17544,-1023,33,225,17704,96,96,-7456,16466,43,-182,-454,1401890028.267457
3,105,0,19544,-621,66,161,19581,-224,416,-7152,19047,45,-189,-457,1401890028.286030
3,106,0,21543,-138,95,44,21458,-320,688,-6960,21628,44,-189,-457,1401890028.286263
3,107,0,23543,311,98,-73,23336,-416,752,-6864,21628,44,-189,-457,1401890028.304233
3,108,0,25543,648,105,-170,25213,-464,784,-6848,24210,47,-190,-457,1401890028.316595
3,109,0,26542,759,105,-203,27091,-416,688,-6960,26790,44,-181,-457,1401890028.316873
3,110,0,28542,844,78,-238,28968,-400,656,-7024,29371,42,-180,-462,1401890028.334208
3,111,0,30542,780,62,-220,30846,-320,800,-7056,29371,42,-180,-462,1401890028.346780
3,112,0,32541,603,52,-166,32724,-144,864,-7168,31952,44,-172,-458,1401890028.347237
3,113,0,34541,386,52,-86,34602,96,1024,-7392,34533,44,-170,-461,1401890028.365736
3,114,0,36541,202,27,-14,36480,464,1136,-7728,34533,44,-170,-461,1401890028.366043
3,115,0,38540,69,-12,33,38357,880,1232,-8048,37113,39,-169,-460,1401890028.384436
