nodeID,seqNumber,status,gyroTick,gyroX,gyroY,gyroZ,accelTick,accelX,accelY,accelZ,magTick,magX,magY,magZ,currentTime
3,250,0,52055,-5,-10,-5,52386,48,-240,-8224,52150,74,-204,-467,1401889953.337152
3,251,0,54055,-5,-7,-10,54265,112,-192,-8224,52150,74,-204,-467,1401889953.337170
3,252,0,56055,-4,-16,-13,56142,128,-192,-8240,54730,70,-204,-468,1401889953.337173
3,253,0,58054,3,-17,-22,58020,128,-160,-8240,57311,73,-201,-470,1401889953.337175
3,254,0,60054,21,-8,-34,59897,112,-288,-8224,59891,75,-204,-468,1401889953.337176
3,255,0,61054,28,-10,-36,61775,128,-240,-8224,59891,75,-204,-468,1401889953.337178
3,0,0,63053,19,-22,-25,63652,144,-256,-8240,62471,73,-206,-470,1401889953.337180
3,1,0,65053,17,-17,-17,65529,224,-256,-8240,65052,72,-200,-470,1401889953.337182
3,2,0,1516,6,-19,-15,1871,176,-272,-8224,2096,76,-203,-467,1401889953.337183
3,3,0,3516,-4,-12,-20,3749,144,-256,-8224,2096,76,-203,-467,1401889953.337185
3,4,0,5515,-16,-15,-22,5627,112,-208,-8240,4676,74,-203,-465,1401889953.337187
3,5,0,7515,-18,-4,-7,7505,160,-224,-8240,7257,73,-203,-469,1401889953.337188
3,6,0,9515,-11,-6,0,9383,176,-272,-8224,7257,73,-203,-469,1401889953.337190
3,7,0,10514,-16,-5,-7,11260,160,-288,-8208,9837,71,-202,-466,1401889953.337192
3,8,0,12514,-11,-2,-3,13138,160,-384,-8240,12417,69,-204,-467,1401889953.337194
3,9,0,14514,-13,2,-2,15015,80,-304,-8208,14998,73,-202,-467,1401889953.337195
3,10,0,16513,-13,-8,6,16893,112,-304,-8176,14998,73,-202,-467,1401889953.337197
3,11,0,18513,-4,-12,6,18771,144,-256,-8192,17578,72,-208,-468,1401889953.337199
3,12,0,20512,-21,-4,-4,20648,144,-272,-8192,20159,74,-203,-467,1401889953.337200
3,13,0,22512,-20,0,-15,22525,176,-208,-8208,20159,74,-203,-467,1401889953.337202
3,14,0,24511,-26,4,-18,24403,176,-240,-8192,22740,73,-203,-468,1401889953.337204
3,15,0,25511,-30,0,-20,26280,160,-224,-8192,25320,71,-201,-465,1401889953.337205
3,17,0,29510,-29,17,-25,30033,144,-272,-8176,27900,75,-205,-470,1401889953.337207
3,18,0,31510,-19,13,-20,31911,144,-272,-8208,30481,72,-203,-466,1401889953.337209
3,19,0,33509,-17,7,-11,33788,224,-272,-8256,33062,73,-205,-468,1401889953.337210
3,20,0,35509,-24,14,-2,35665,96,-336,-8224,35643,72,-203,-470,1401889953.337212
3,21,0,37509,-14,1,-12,37542,176,-256,-8240,35643,72,-203,-470,1401889953.337214
3,22,0,39508,-4,0,-7,39419,144,-288,-8224,38224,72,-203,-469,1401889953.337215
3,23,0,40508,3,-4,-19,41296,160,-256,-8240,40804,73,-204,-469,1401889953.337217
3,24,0,42508,4,0,-11,43173,160,-208,-8208,40804,73,-204,-469,1401889953.337218
3,25,0,44507,1,-5,-11,45051,144,-288,-8208,43384,72,-204,-467,1401889953.337220
3,26,0,46507,0,0,-12,46928,144,-224,-8240,45964,73,-205,-463,1401889953.337222
3,27,0,48506,-2,10,-17,48804,144,-240,-8208,48546,72,-200,-467,1401889953.337223
3,28,0,50506,0,-7,-23,50682,192,-288,-8208,48546,72,-200,-467,1401889953.337225
3,29,0,52505,13,-10,-18,52559,144,-256,-8208,51126,73,-204,-469,1401889953.337227
3,30,0,54505,22,7,-26,54436,224,-256,-8192,53707,74,-202,-469,1401889953.337228
3,31,0,55505,24,2,-24,56314,272,-96,-8176,56287,75,-204,-468,1401889953.337230
3,32,0,57504,45,10,-25,58191,384,0,-8208,56287,75,-204,-468,1401889953.337243
3,33,0,59504,74,-2,-48,60069,400,192,-8176,58867,72,-203,-463,1401889953.337245
3,34,0,61504,116,-1,-67,61945,592,304,-8160,61446,74,-203,-469,1401889953.337246
3,35,0,63503,149,-8,-95,63823,720,336,-8144,61446,74,-203,-469,1401889953.337248
3,36,0,65503,165,-20,-125,165,864,336,-8176,64027,75,-201,-467,1401889953.337250
3,37,0,1966,150,-39,-154,2042,976,320,-8192,1072,73,-201,-468,1401889953.337251
3,38,0,3966,127,-52,-166,3919,1056,176,-8224,3653,77,-202,-469,1401889953.337253
3,39,0,4966,124,-62,-174,5797,1248,224,-8336,3653,77,-202,-469,1401889953.337255
3,40,0,6965,129,-68,-178,7674,1360,240,-8512,6233,70,-198,-468,1401889953.337256
3,41,0,8965,101,-84,-158,9551,1472,128,-8624,8814,75,-199,-467,1401889953.337258
3,42,0,10964,39,-80,-132,11428,1632,16,-8528,11394,71,-201,-467,1401889953.337260
3,43,0,12964,-37,-83,-130,13305,1936,-32,-8320,11394,71,-201,-467,1401889953.337261
3,44,0,14964,-132,-85,-173,15183,2064,144,-8160,13975,75,-199,-467,1401889953.337263
3,45,0,16963,-219,-113,-256,17061,2016,288,-7808,16554,74,-203,-467,1401889953.337303
3,46,0,18963,-279,-137,-372,18938,1904,416,-7488,16554,74,-203,-467,1401889953.337305
3,47,0,19962,-301,-162,-430,20816,1696,592,-7296,19135,75,-204,-465,1401889953.337307
3,48,0,21962,-331,-202,-530,22693,1472,864,-7392,21714,75,-209,-465,1401889953.337308
3,49,0,23962,-368,-245,-641,24571,1360,1168,-7712,24296,77,-214,-466,1401889953.337310
3,50,0,25961,-363,-248,-751,26449,1344,1424,-8112,24296,77,-214,-466,1401889953.337312
3,51,0,27961,-266,-226,-864,28327,1280,1520,-8560,26877,77,-219,-461,1401889953.337313
3,52,0,29960,-70,-186,-965,30204,1280,1376,-8912,29458,77,-222,-460,1401889953.337315
3,53,0,31960,189,-127,-1070,32081,1344,1008,-8976,32039,75,-223,-461,1401889953.337317
3,54,0,33960,375,-85,-1150,33959,1392,752,-8736,32039,75,-223,-461,1401889953.337318
3,55,0,34959,421,-81,-1194,35836,1360,640,-8400,34620,73,-223,-465,1401889953.337320
3,56,0,36959,392,-105,-1259,37713,1312,832,-8256,37199,72,-225,-462,1401889953.337322
3,57,0,38958,290,-163,-1295,39591,1424,1040,-8224,37199,72,-225,-462,1401889953.337323
3,58,0,40958,177,-247,-1334,41467,1504,1168,-8208,39780,74,-225,-462,1401889953.337325
3,59,0,42958,86,-370,-1379,43344,1600,1216,-8320,42361,70,-225,-461,1401889953.337327
3,60,0,44957,12,-504,-1429,45222,1872,1040,-8656,44943,75,-231,-460,1401889953.337329
3,61,0,46957,-52,-611,-1484,47100,2336,624,-9088,44943,75,-231,-460,1401889953.337330
3,62,0,48956,-119,-690,-1531,48978,2752,208,-9216,47522,69,-233,-459,1401889953.337332
3,63,0,49956,-158,-716,-1562,50856,3168,-176,-9296,50103,73,-241,-452,1401889953.337334
3,64,0,51956,-238,-775,-1618,52734,3232,-464,-9152,52683,74,-248,-453,1401889953.337335
3,65,0,53955,-310,-814,-1666,54612,3008,-432,-8848,52683,74,-248,-453,1401889953.337337
3,66,0,55955,-334,-816,-1688,56489,2448,-272,-8560,55263,77,-254,-452,1401889953.337339
3,67,0,57954,-308,-826,-1685,58367,1920,-48,-8496,57843,79,-7,-448,1401889953.337340
3,68,0,59954,-236,-857,-1679,60245,1168,176,-8704,57843,79,-7,-448,1401889953.337342
3,69,0,61954,-142,-886,-1670,62122,560,144,-8928,60424,82,-269,-445,1401889953.337344
3,70,0,63953,-44,-885,-1645,63999,64,-128,-9120,63004,84,-274,-445,1401889953.337345
3,71,0,64953,2,-890,-1641,342,-224,-672,-9072,48,89,-277,-440,1401889953.337347
3,72,0,1417,51,-833,-1595,2220,-544,-1072,-8752,48,89,-277,-440,1401889953.337349
3,73,0,3416,24,-758,-1501,4097,-816,-1264,-8352,2628,89,-282,-437,1401889953.337351
3,74,0,5416,-82,-620,-1379,5975,-992,-1104,-8144,5208,91,-285,-435,1401889953.337352
3,75,0,7415,-187,-475,-1225,7854,-1024,-624,-7872,7787,91,-287,-435,1401889953.337354
3,76,0,9415,-210,-328,-1089,9732,-864,-368,-7712,7787,91,-287,-435,1401889953.337356
3,77,0,11414,-117,-184,-1011,11610,-496,-336,-7712,10368,92,-292,-432,1401889953.337358
3,78,0,13414,34,-59,-1027,13488,-32,-464,-7856,12949,90,-294,-431,1401889953.337359
3,79,0,14414,130,-5,-1069,15365,400,-656,-7856,12949,90,-294,-431,1401889953.337361
3,80,0,16413,316,78,-1190,17242,784,-976,-7968,15529,89,-294,-430,1401889953.337363
3,81,0,18413,444,137,-1325,19119,1056,-1280,-8016,18109,85,-297,-428,1401889953.337364
3,82,0,20413,505,166,-1415,20996,1232,-1728,-8144,20689,80,-295,-434,1401889953.337366
3,83,0,22412,463,185,-1418,22872,1408,-2016,-8192,20689,80,-295,-434,1401889953.337368
3,84,0,24412,337,174,-1329,24750,1504,-2288,-8176,23269,75,-296,-437,1401889953.337370
3,85,0,26411,191,126,-1177,26628,1440,-2208,-8144,25849,73,-298,-435,1401889953.337371
3,86,0,28411,67,79,-1023,28505,1296,-1984,-8064,28429,67,-297,-440,1401889953.337373
3,87,0,29411,23,33,-966,30383,976,-1664,-7888,28429,67,-297,-440,1401889953.337375
3,88,0,31410,-17,-16,-903,32261,720,-1296,-7584,31009,65,-302,-438,1401889953.337376
3,89,0,33410,-25,-31,-932,34139,528,-1008,-7424,33588,65,-304,-440,1401889953.337378
3,90,0,35409,5,-30,-997,36017,320,-832,-7264,33588,65,-304,-440,1401889953.337380
3,91,0,37409,33,14,-1053,37894,208,-704,-7200,36168,64,-307,-434,1401889953.337381
3,92,0,39409,85,91,-1080,39771,176,-640,-7104,38748,61,-308,-436,1401889953.337383
3,93,0,41408,140,178,-1078,41648,176,-480,-6976,41327,59,-308,-438,1401889953.337396
3,94,0,43408,231,261,-1034,43524,176,-528,-6912,41327,59,-308,-438,1401889953.337398
3,95,0,44407,270,303,-1002,44932,208,-464,-6864,43906,53,-309,-437,1401889953.337413
3,96,0,46407,348,376,-925,46808,288,-608,-6912,46486,47,-311,-440,1401889953.337415
3,97,0,48407,425,422,-843,48686,464,-848,-6944,49067,43,-308,-443,1401889953.337417
3,98,0,50406,470,455,-790,50564,688,-1136,-7088,49067,43,-308,-443,1401889953.337419
3,99,0,52406,514,461,-753,52440,928,-1568,-7344,51647,37,-308,-443,1401889953.337420
3,100,0,54405,512,463,-738,54318,1344,-1952,-7680,54228,32,-300,-445,1401889953.337422
3,101,0,56405,466,442,-733,56195,1824,-2368,-8096,54228,32,-300,-445,1401889953.337424
3,102,0,58405,363,412,-755,58073,2144,-2544,-8288,56808,28,-300,-449,1401889953.337425
3,103,0,59404,302,387,-772,59951,2480,-2640,-8448,59388,25,-297,-450,1401889953.337427
3,104,0,61404,178,333,-789,61829,2592,-2624,-8608,61969,20,-300,-448,1401889953.337429
3,105,0,63403,54,276,-823,63707,2688,-2480,-8608,61969,20,-300,-448,1401889953.337430
3,106,0,65403,-19,196,-865,49,2576,-2368,-8528,64550,17,-300,-450,1401889953.337432
3,107,0,1867,-57,117,-888,1926,2528,-2144,-8368,1593,11,-301,-450,1401889953.337434
3,108,0,3866,-96,20,-883,3804,2496,-1952,-8288,4174,8,-304,-450,1401889953.337436
3,109,0,5866,-142,-58,-868,5682,2400,-1712,-8288,4174,8,-304,-450,1401889953.337438
3,110,0,7865,-208,-117,-884,7560,2368,-1568,-8336,6753,3,-308,-449,1401889953.337440
3,111,0,8865,-230,-141,-900,9438,2176,-1584,-8464,9333,6,-308,-447,1401889953.337441
3,112,0,10865,-277,-191,-930,11314,2048,-1648,-8496,9333,6,-308,-447,1401889953.337443
3,113,0,12864,-311,-217,-956,13192,1696,-1584,-8480,11914,5,-309,-446,1401889953.337445
3,114,0,14864,-314,-236,-959,15069,1312,-1296,-8560,14494,3,-315,-443,1401889953.337447
3,115,0,16863,-274,-248,-935,16947,1040,-640,-9136,17075,1,-318,-441,1401889953.337449
3,116,0,18863,-167,-238,-897,18825,880,-256,-9152,17075,1,-318,-441,1401889953.337451
3,117,0,20863,-24,-259,-905,20703,848,-80,-9248,19656,1,-318,-443,1401889953.337452
3,118,0,22862,45,-284,-941,22582,880,-112,-9312,22236,-1,-321,-444,1401889953.337454
3,119,0,23862,26,-305,-972,24460,896,-176,-9632,24815,1,-320,-441,1401889953.337456
3,120,0,25862,-112,-338,-1010,26338,752,-176,-9872,24815,1,-320,-441,1401889953.337458
3,121,0,27861,-292,-373,-1008,28215,368,-16,-9840,27395,-5,-329,-440,1401889953.337460
3,122,0,29861,-414,-387,-940,30094,48,240,-9632,29975,-5,-331,-437,1401889953.337461
3,35,0,59326,-12,-2,2,59846,-64,-288,-8000,59795,-38,-131,-446,1401889953.337778
3,36,0,61325,-38,11,-2,61724,0,-224,-7968,59795,-38,-131,-446,1401889953.355390
3,37,0,63325,-54,10,-16,63602,16,-144,-8016,62376,-36,-131,-444,1401889953.366803
3,38,0,65324,-64,21,-34,65480,-16,-192,-8144,64955,-33,-134,-443,1401889953.367168
3,39,0,1788,-54,18,-41,1821,-16,-256,-8192,1999,-33,-132,-445,1401889953.385153
3,40,0,3788,-26,13,-33,3699,-32,-288,-8256,1999,-33,-132,-445,1401889953.397586
3,41,0,5787,-18,10,-16,5576,0,-416,-8224,4579,-38,-133,-444,1401889953.397877
3,42,0,6787,-10,8,-1,7453,80,-544,-8224,7160,-35,-131,-445,1401889953.416177
3,43,0,8787,-26,14,12,9331,144,-496,-8288,7160,-35,-131,-445,1401889953.428574
3,44,0,10786,-51,28,7,11209,160,-512,-8320,9740,-35,-132,-444,1401889953.428951
3,45,0,12786,-64,28,13,13086,176,-528,-8384,12320,-36,-133,-442,1401889953.447442
3,46,0,14785,-73,26,8,14964,144,-592,-8384,14900,-37,-132,-442,1401889953.447870
3,47,0,16785,-62,30,-3,16841,80,-608,-8352,14900,-37,-132,-442,1401889953.465574
3,48,0,18785,-42,36,-1,18719,112,-672,-8336,17479,-38,-134,-445,1401889953.478317
3,49,0,20784,-24,37,2,20596,96,-672,-8336,20060,-34,-136,-445,1401889953.478744
3,50,0,21784,-30,38,3,22473,96,-688,-8320,22640,-34,-133,-444,1401889953.497216
3,51,0,23784,-20,40,8,24350,-16,-640,-8304,22640,-34,-133,-444,1401889953.497612
3,52,0,25783,-34,31,5,26228,0,-576,-8288,25220,-36,-138,-444,1401889953.516257
3,53,0,27783,-50,18,-5,28106,-64,-496,-8272,27800,-37,-135,-444,1401889953.528472
3,54,0,29782,-62,8,-10,29985,-128,-400,-8288,27800,-37,-135,-444,1401889953.528944
3,55,0,31782,-57,4,-17,31862,-96,-448,-8224,30381,-35,-138,-443,1401889953.547564
3,56,0,33782,-56,0,-23,33740,-80,-464,-8192,32960,-34,-136,-444,1401889953.548018
3,57,0,35781,-23,0,-21,35617,-112,-576,-8144,35540,-35,-136,-445,1401889953.565448
3,58,0,36781,-21,-2,-7,37495,-48,-576,-8144,35540,-35,-136,-445,1401889953.578157
3,59,0,38781,-19,2,21,39372,-128,-640,-8144,38120,-36,-136,-444,1401889953.578652
3,60,0,40780,-13,-1,35,41249,-112,-432,-8096,40700,-34,-138,-444,1401889953.596706
3,61,0,42780,30,-10,47,43127,-176,-320,-8080,43281,-35,-137,-446,1401889953.603044
3,62,0,44779,106,4,41,45004,-192,-240,-8144,43281,-35,-137,-446,1401889953.615563
3,63,0,46779,174,-6,30,46882,-128,-224,-8176,45862,-35,-136,-445,1401889953.628260
3,64,0,48778,225,-20,0,48760,-16,-256,-8192,48441,-36,-134,-446,1401889953.628778
3,65,0,50778,238,-33,-9,50637,64,-288,-8224,48441,-36,-134,-446,1401889953.646691
3,66,0,51778,248,-45,-17,52515,144,-272,-8192,51020,-34,-133,-446,1401889953.652520
3,67,0,53777,223,-45,-21,54393,64,-224,-8192,53601,-37,-130,-448,1401889953.664168
3,68,0,55777,178,-60,-34,56270,64,-80,-8192,56181,-35,-130,-445,1401889953.676587
3,69,0,57777,137,-43,-49,58148,192,-96,-8160,56181,-35,-130,-445,1401889953.682950
3,70,0,59776,85,-21,-64,60026,272,-192,-8144,58762,-35,-128,-448,1401889953.695560
3,71,0,61776,55,-5,-62,61903,320,-240,-8096,61342,-32,-129,-447,1401889953.707482
3,72,0,63775,46,3,-57,63780,288,-304,-8160,63922,-32,-130,-445,1401889953.707932
3,73,0,239,78,-10,-37,121,192,-320,-8224,63922,-32,-130,-445,1401889953.726567
3,74,0,1239,99,-7,-22,1998,-16,-272,-8224,966,-33,-131,-448,1401889953.733186
3,75,0,3238,123,-10,26,3876,-112,-192,-8192,3546,-33,-129,-445,1401889953.745849
3,76,0,5238,103,-12,21,5753,-144,-80,-8208,3546,-33,-129,-445,1401889953.757443
3,77,0,7238,45,0,23,7631,-208,-112,-8240,6125,-35,-127,-446,1401889953.757855
3,78,0,9237,1,-5,10,9509,-256,-80,-8240,8706,-37,-125,-444,1401889953.776015
3,79,0,11237,-9,12,-11,11386,-192,-144,-8240,11285,-33,-125,-444,1401889953.788532
3,80,0,13236,-14,14,-15,13264,-208,-304,-8224,11285,-33,-125,-444,1401889953.788945
3,81,0,15236,16,2,-11,15142,-224,-352,-8224,13866,-35,-127,-444,1401889953.807359
3,82,0,16236,27,-2,8,17019,-240,-352,-8192,16446,-31,-129,-446,1401889953.807802
3,83,0,18235,37,7,50,18896,-160,-288,-8112,19026,-31,-126,-447,1401889953.826023
3,84,0,20235,27,16,57,20774,-112,-224,-8064,19026,-31,-126,-447,1401889953.838516
3,85,0,22235,-12,20,50,22651,-64,-176,-8128,21605,-36,-131,-445,1401889953.838811
3,86,0,24234,-62,41,17,24529,-32,-176,-8208,24185,-35,-127,-441,1401889953.856607
3,87,0,26234,-75,54,-22,26406,80,-224,-8192,24185,-35,-127,-441,1401889953.862350
3,88,0,28233,-68,52,-41,28284,192,-320,-8112,26765,-35,-125,-444,1401889953.874498
3,89,0,30233,-80,53,-25,30161,240,-288,-8080,29345,-34,-125,-446,1401889953.887096
3,90,0,31233,-91,64,-9,32038,368,-208,-8224,31925,-35,-131,-444,1401889953.887444
3,91,0,33232,-92,73,9,33916,416,-160,-8352,31925,-35,-131,-444,1401889953.905948
3,92,0,35232,-56,79,21,35793,336,-224,-8416,34505,-33,-129,-444,1401889953.918562
3,93,0,37232,8,66,10,37671,224,-336,-8576,37084,-37,-128,-442,1401889953.918872
3,94,0,39231,65,63,2,39548,128,-400,-8496,39664,-33,-129,-443,1401889953.937532
3,95,0,41231,83,27,8,41426,48,-528,-8352,39664,-33,-129,-443,1401889953.937943
3,96,0,43230,53,8,30,43304,-32,-528,-8224,42243,-37,-133,-445,1401889953.955751
3,97,0,45230,18,-21,44,45182,-96,-400,-8192,44822,-38,-127,-445,1401889953.968053
3,98,0,46230,7,-25,47,47060,-128,-352,-8192,44822,-38,-127,-445,1401889953.968438
3,99,0,48229,-14,-17,32,48937,-64,-272,-8176,47402,-37,-127,-441,1401889953.987047
3,100,0,50229,-20,-9,14,50815,0,-208,-8144,49982,-35,-124,-443,1401889953.987418
3,101,0,52229,-31,2,-5,52694,112,-192,-8144,52561,-39,-129,-442,1401889954.5775
3,102,0,54228,-26,14,-29,54572,192,-240,-8112,52561,-39,-129,-442,1401889954.17930
3,103,0,56228,-17,15,-52,56449,176,-304,-8128,55140,-37,-127,-445,1401889954.18288
3,104,0,58227,8,10,-54,58325,272,-352,-8160,57720,-38,-128,-444,1401889954.36958
3,105,0,60227,29,16,-55,60203,224,-448,-8208,60299,-35,-127,-440,1401889954.37406
3,106,0,61227,38,11,-45,62080,176,-400,-8208,60299,-35,-127,-440,1401889954.55151
3,107,0,63226,34,7,-32,63957,64,-432,-8240,62880,-38,-128,-442,1401889954.67289
3,108,0,65226,14,-14,-22,299,16,-432,-8240,65460,-36,-124,-443,1401889954.67659
3,109,0,1690,-5,-20,-24,2176,0,-384,-8208,65460,-36,-124,-443,1401889954.85816
3,110,0,3689,-20,-27,-39,4053,-32,-416,-8176,2504,-36,-127,-443,1401889954.98258
3,111,0,5689,-44,-19,-58,5931,-64,-384,-8160,5084,-38,-127,-441,1401889954.98558
3,112,0,7688,-52,-20,-68,7809,-80,-352,-8208,7665,-37,-130,-441,1401889954.117132
3,113,0,9688,-54,-23,-74,9685,-80,-336,-8240,7665,-37,-130,-441,1401889954.117441
3,114,0,10688,-49,-20,-69,11561,-80,-352,-8208,10245,-33,-131,-441,1401889954.135167
3,115,0,12687,-42,-15,-67,13438,16,-224,-8208,12826,-37,-125,-445,1401889954.146877
3,116,0,14687,-40,-8,-65,15315,16,-192,-8208,15407,-36,-129,-442,1401889954.147183
3,117,0,16687,-59,-4,-64,17193,128,-208,-8224,15407,-36,-129,-442,1401889954.164676
3,118,0,18686,-57,11,-66,19071,64,-112,-8256,17987,-33,-128,-440,1401889954.176553
3,119,0,20686,-39,8,-70,20949,80,-208,-8288,20568,-34,-128,-444,1401889954.182920
3,120,0,22685,-3,-5,-52,22826,-16,-240,-8272,20568,-34,-128,-444,1401889954.195365
3,121,0,24685,20,-28,-46,24703,-16,-272,-8256,23149,-37,-128,-441,1401889954.207578
3,122,0,25685,23,-28,-44,26581,-64,-352,-8208,25729,-38,-131,-443,1401889954.207927
3,123,0,27684,23,-39,-34,28458,-48,-352,-8192,28308,-32,-128,-443,1401889954.225841
3,124,0,29684,27,-50,-25,30335,-64,-368,-8160,28308,-32,-128,-443,1401889954.237733
3,125,0,31684,12,-48,-21,32213,-64,-352,-8176,30887,-35,-131,-445,1401889954.237967
3,126,0,33683,-7,-42,-18,34091,-32,-304,-8192,33468,-34,-128,-444,1401889954.256422
3,127,0,35683,-18,-24,-20,35967,-48,-208,-8176,33468,-34,-128,-444,1401889954.268211
3,128,0,37682,-21,-9,-23,37843,-32,-256,-8192,36048,-30,-128,-442,1401889954.268584
3,129,0,39682,2,-17,-27,39721,0,-336,-8208,38627,-33,-128,-441,1401889954.287029
3,130,0,40682,0,-19,-38,41598,32,-336,-8240,41208,-32,-129,-444,1401889954.287512
3,131,0,42681,15,-8,-49,43475,80,-368,-8192,41208,-32,-129,-444,1401889954.306140
3,132,0,44681,24,-17,-63,45351,64,-352,-8256,43789,-33,-130,-443,1401889954.318741
3,133,0,46681,21,-28,-52,47228,64,-336,-8208,46368,-34,-129,-441,1401889954.319026
3,134,0,48680,4,-24,-55,49105,80,-352,-8224,48948,-32,-127,-444,1401889954.335675
3,135,0,50680,0,-27,-31,50983,112,-320,-8208,48948,-32,-127,-444,1401889954.346179
3,136,0,52679,-6,-25,-18,52859,80,-288,-8192,51529,-34,-129,-441,1401889954.356693
3,137,0,54679,-2,-27,0,54736,80,-304,-8192,54107,-33,-129,-444,1401889954.356938
3,138,0,55679,1,-29,7,56612,128,-224,-8192,54107,-33,-129,-444,1401889954.372924
3,139,0,57678,-4,-24,9,58489,64,-240,-8208,56687,-33,-128,-443,1401889954.384694
3,140,0,59678,6,-35,14,60366,80,-320,-8224,59268,-33,-128,-442,1401889954.397433
3,141,0,61678,7,-21,-1,62243,16,-320,-8208,61850,-34,-130,-446,1401889954.397800
3,142,0,63677,10,-36,-16,64120,32,-304,-8224,61850,-34,-130,-446,1401889954.415804
3,143,0,141,0,-26,-37,462,48,-336,-8208,64431,-34,-131,-442,1401889954.428538
3,144,0,2140,-6,-30,-45,2339,48,-336,-8176,1476,-30,-130,-442,1401889954.428929
3,145,0,4140,-9,-26,-39,4218,32,-304,-8176,4056,-35,-129,-443,1401889954.447148
3,146,0,5140,-11,-15,-33,6096,0,-336,-8192,4056,-35,-129,-443,1401889954.447413
3,147,0,7139,-12,-22,-20,7973,16,-320,-8160,6636,-31,-128,-439,1401889954.464887
3,148,0,9139,-16,-13,-27,9850,64,-288,-8192,9216,-31,-129,-442,1401889954.476135
3,149,0,11139,-10,-17,-21,11728,64,-320,-8192,9216,-31,-129,-442,1401889954.488595
3,150,0,13138,-19,-13,-28,13605,48,-208,-8208,11796,-32,-130,-445,1401889954.488945
3,151,0,15138,-12,-14,-36,15482,80,-288,-8208,14376,-29,-129,-444,1401889954.506770
3,152,0,17137,-14,-9,-34,17359,144,-352,-8224,16954,-30,-127,-442,1401889954.506963
3,153,0,19137,-17,-12,-26,19236,112,-304,-8272,16954,-30,-127,-442,1401889954.524699
3,154,0,20137,-24,-4,-21,21113,80,-400,-8224,19534,-31,-126,-444,1401889954.536803
3,155,0,22136,-23,-8,-14,22991,64,-432,-8208,22115,-33,-130,-443,1401889954.537159
3,156,0,24136,-34,-8,-14,24868,80,-336,-8192,24695,-35,-130,-441,1401889954.555543
3,157,0,26136,-29,-6,-16,26745,96,-384,-8208,24695,-35,-130,-441,1401889954.567416
3,158,0,28135,-25,-4,-19,28622,64,-336,-8192,27275,-29,-128,-441,1401889954.567748
3,159,0,30135,-32,-3,-31,30030,48,-352,-8208,29855,-32,-128,-441,1401889954.585253
3,160,0,32134,-29,-6,-45,31907,32,-352,-8192,29855,-32,-128,-441,1401889954.597792
3,161,0,34134,-17,-8,-46,33784,48,-320,-8176,32435,-30,-129,-441,1401889954.598112
3,162,0,35134,-9,-8,-49,35661,0,-240,-8176,35015,-32,-133,-444,1401889954.616411
3,163,0,37133,-9,-5,-49,37540,32,-336,-8192,37593,-32,-127,-442,1401889954.622793
3,164,0,39133,-7,-18,-48,39417,48,-416,-8192,37593,-32,-127,-442,1401889954.635057
3,165,0,41133,-2,-18,-54,41295,144,-368,-8176,40172,-32,-128,-442,1401889954.647596
3,166,0,43132,-24,-14,-42,43172,160,-400,-8160,42750,-32,-132,-440,1401889954.647868
3,167,0,45132,-35,-8,-42,45050,96,-384,-8160,45330,-32,-131,-441,1401889954.665055
3,168,0,47131,-34,-3,-33,46928,48,-352,-8192,45330,-32,-131,-441,1401889954.676968
3,169,0,49131,-24,3,-40,48805,32,-352,-8224,47911,-33,-128,-441,1401889954.677289
3,170,0,50131,-19,4,-32,50683,64,-352,-8208,50491,-33,-132,-443,1401889954.694378
3,171,0,52130,-6,-8,-28,52561,-16,-368,-8256,50491,-33,-132,-443,1401889954.706880
3,172,0,54130,-1,-4,-17,54440,32,-432,-8192,53070,-27,-132,-442,1401889954.707138
3,173,0,56130,-9,-10,-12,56318,32,-464,-8224,55650,-27,-131,-439,1401889954.725604
3,174,0,58129,-16,-15,-14,58194,32,-448,-8208,58230,-31,-131,-442,1401889954.737918
3,175,0,60129,-47,5,-14,60072,48,-448,-8256,58230,-31,-131,-442,1401889954.738374
3,176,0,62128,-42,13,-32,61950,16,-384,-8336,60810,-31,-130,-441,1401889954.757012
3,177,0,64128,-38,12,-36,63828,16,-352,-8352,63390,-32,-131,-438,1401889954.757240
3,178,0,65128,-29,15,-29,170,-48,-432,-8368,435,-32,-130,-443,1401889954.774656
3,179,0,1591,10,20,-26,2047,32,-480,-8304,435,-32,-130,-443,1401889954.787041
3,180,0,3591,44,22,-8,3925,80,-480,-8256,3015,-32,-132,-442,1401889954.787362
3,181,0,5591,52,17,5,5803,160,-384,-8272,5595,-32,-134,-444,1401889954.805014
3,182,0,7590,37,15,4,7681,208,-416,-8224,5595,-32,-134,-444,1401889954.817285
3,183,0,9590,14,-4,5,9559,128,-320,-8208,8175,-32,-130,-443,1401889954.817561
3,184,0,11589,-2,-7,-3,11437,144,-256,-8224,10755,-32,-131,-444,1401889954.836180
3,185,0,13589,-2,-7,0,13315,128,-272,-8176,13335,-32,-133,-442,1401889954.848175
3,186,0,14589,6,-2,-10,15192,112,-288,-8240,13335,-32,-133,-442,1401889954.848524
3,187,0,16588,18,2,-11,17071,64,-320,-8224,15915,-32,-130,-443,1401889954.867166
3,188,0,18588,32,8,-28,18949,80,-304,-8192,18495,-29,-129,-441,1401889954.867517
3,189,0,20588,32,17,-28,20829,64,-320,-8128,21075,-29,-130,-444,1401889954.885494
3,190,0,22587,24,6,-38,22707,64,-368,-8192,21075,-29,-130,-444,1401889954.897965
3,191,0,24587,36,23,-36,24585,16,-400,-8192,23656,-32,-131,-443,1401889954.898270
3,192,0,26586,57,9,-33,26463,64,-432,-8176,26236,-32,-132,-446,1401889954.916693
3,193,0,28586,87,5,-21,28341,0,-336,-8192,26236,-32,-132,-446,1401889954.923059
3,194,0,29586,102,-1,-15,30220,48,-400,-8160,28816,-31,-131,-447,1401889954.935749
3,195,0,31585,123,-2,-7,32097,0,-416,-8160,31396,-31,-131,-445,1401889954.947522
3,196,0,33585,143,-8,-21,33975,80,-352,-8176,33976,-30,-131,-441,1401889954.947872
3,197,0,35585,157,-12,-22,35852,64,-400,-8192,33976,-30,-131,-441,1401889954.965448
3,198,0,37584,143,-11,-16,37730,128,-400,-8192,36555,-30,-129,-443,1401889954.977545
3,199,0,39584,127,-12,-17,39607,80,-320,-8208,39134,-31,-127,-446,1401889954.978015
3,200,0,41583,88,-11,-22,41484,96,-304,-8192,41715,-29,-128,-445,1401889954.996058
3,201,0,43583,32,-9,-11,43362,160,-240,-8144,41715,-29,-128,-445,1401889955.8401
3,202,0,44583,7,-12,-16,45240,112,-272,-8112,44296,-31,-126,-445,1401889955.8695
3,203,0,46582,1,-6,-17,47118,144,-192,-8160,46876,-31,-126,-445,1401889955.26206
3,204,0,48582,8,7,-20,48996,128,-144,-8208,46876,-31,-126,-445,1401889955.38667
3,205,0,50582,42,3,-33,50874,80,-128,-8288,49455,-33,-126,-444,1401889955.39032
3,206,0,52581,78,-8,-37,52752,80,-208,-8288,52036,-29,-125,-444,1401889955.57404
3,207,0,54581,98,-15,-45,54628,80,-208,-8320,54616,-32,-123,-447,1401889955.57744
3,208,0,56580,101,-20,-42,56506,96,-256,-8224,54616,-32,-123,-447,1401889955.75548
3,209,0,58580,83,-25,-33,58384,112,-320,-8208,57197,-30,-124,-444,1401889955.87968
3,210,0,60580,59,-21,-20,60261,64,-240,-8208,59777,-32,-124,-446,1401889955.88272
3,211,0,61579,43,-22,-22,62139,64,-160,-8176,62359,-32,-123,-446,1401889955.106024
3,212,0,63579,24,-27,-24,64017,128,-96,-8192,62359,-32,-123,-446,1401889955.118221
3,213,0,43,10,-28,-28,358,112,-80,-8192,64938,-29,-122,-447,1401889955.118480
3,214,0,2042,20,-24,-23,2236,112,-112,-8176,1982,-32,-124,-447,1401889955.136603
3,215,0,4042,50,-2,-29,4114,112,-96,-8240,1982,-32,-124,-447,1401889955.143001
3,216,0,6041,70,-10,-19,5991,48,-176,-8224,4563,-31,-123,-445,1401889955.155415
3,217,0,8041,86,-11,-21,7868,32,-144,-8256,7143,-33,-125,-447,1401889955.167102
3,218,0,10041,82,-15,-12,9746,16,-256,-8256,9724,-27,-122,-445,1401889955.167307
3,219,0,11040,69,-9,-12,11623,128,-256,-8208,9724,-27,-122,-445,1401889955.185421
3,220,0,13040,37,-22,-19,13501,80,-224,-8224,12303,-29,-122,-444,1401889955.198076
3,221,0,15040,22,-23,-20,15379,96,-192,-8224,14884,-34,-121,-446,1401889955.198406
3,222,0,17039,8,-21,-9,17256,48,-128,-8224,17464,-30,-120,-443,1401889955.215597
3,223,0,19039,-1,-18,-34,19134,48,-160,-8224,17464,-30,-120,-443,1401889955.227596
3,224,0,21038,4,-22,-30,21011,80,-80,-8224,20044,-29,-119,-444,1401889955.227863
3,225,0,23038,17,-14,-41,22888,48,-128,-8224,22624,-31,-122,-446,1401889955.245507
3,226,0,25038,16,-22,-41,24765,112,-144,-8208,22624,-31,-122,-446,1401889955.257957
3,227,0,26037,18,-22,-45,26643,112,-96,-8208,25204,-29,-123,-446,1401889955.258288
3,228,0,28037,8,-24,-53,28521,96,-64,-8240,27784,-30,-122,-443,1401889955.276243
3,229,0,30037,13,-21,-53,30398,112,-96,-8208,30365,-31,-123,-444,1401889955.288627
3,230,0,32036,16,-14,-45,32277,32,-160,-8224,30365,-31,-123,-444,1401889955.288806
3,231,0,34036,20,-12,-36,34156,144,-160,-8208,32945,-31,-121,-443,1401889955.306927
3,232,0,36035,24,-8,-32,36035,80,-176,-8160,35525,-29,-122,-446,1401889955.307269
3,233,0,38035,15,-27,-25,37912,96,-176,-8176,38105,-31,-121,-448,1401889955.325596
3,234,0,40035,14,-19,-31,39790,96,-112,-8208,38105,-31,-121,-448,1401889955.337956
3,235,0,41034,14,-27,-37,41668,80,-112,-8224,40684,-31,-124,-443,1401889955.338225
3,236,0,43034,20,-17,-30,43547,0,-112,-8192,43264,-28,-120,-444,1401889955.356045
3,237,0,45034,25,-10,-26,45425,16,-112,-8224,43264,-28,-120,-444,1401889955.367818
3,238,0,47033,21,-15,-35,47304,16,-112,-8208,45843,-28,-122,-445,1401889955.368053
3,239,0,49033,13,-16,-36,49182,32,-176,-8256,48423,-27,-121,-442,1401889955.385704
3,240,0,51032,1,-2,-52,51059,32,-112,-8240,51004,-30,-118,-447,1401889955.397632
3,241,0,53032,6,-3,-53,52937,16,-208,-8192,51004,-30,-118,-447,1401889955.397913
3,242,0,55032,-6,0,-43,54815,128,-128,-8224,53583,-31,-121,-445,1401889955.415755
3,243,0,56031,-14,10,-43,56693,144,-160,-8176,56163,-31,-121,-446,1401889955.428124
3,244,0,58031,-18,3,-39,58571,80,-128,-8192,58743,-30,-120,-445,1401889955.428401
3,245,0,60031,-16,3,-22,60448,48,-128,-8224,58743,-30,-120,-445,1401889955.446259
3,246,0,62030,-18,-6,-34,62325,64,-160,-8192,61323,-29,-126,-443,1401889955.458517
3,247,0,64030,-17,2,-22,64203,32,-192,-8224,63903,-31,-120,-440,1401889955.459066
3,248,0,493,-14,-12,-19,546,48,-192,-8208,63903,-31,-120,-440,1401889955.477477
3,249,0,2493,-3,-3,-14,2424,48,-256,-8288,946,-30,-123,-442,1401889955.477734
3,250,0,4493,2,-6,8,4302,48,-240,-8272,3525,-28,-121,-445,1401889955.495951
3,251,0,5492,5,0,4,6180,64,-144,-8192,6104,-31,-119,-446,1401889955.508498
3,252,0,7492,-3,-9,5,8057,64,-144,-8192,6104,-31,-119,-446,1401889955.508993
3,253,0,9492,-7,-9,-10,9935,64,-96,-8192,8684,-31,-119,-443,1401889955.527227
3,254,0,11491,-5,3,-20,11813,96,-64,-8192,11263,-32,-122,-444,1401889955.527748
3,255,0,13491,-5,-3,-27,13691,48,-144,-8192,13843,-31,-121,-440,1401889955.545325
3,0,0,15490,4,7,-18,15570,32,-144,-8208,13843,-31,-121,-440,1401889955.557148
3,1,0,17490,11,-12,-20,17448,112,-144,-8256,16423,-30,-121,-446,1401889955.557542
3,2,0,19490,15,-7,-9,19325,144,-112,-8224,19002,-34,-121,-445,1401889955.575028
3,3,0,20489,14,-4,-14,21203,32,-128,-8224,19002,-34,-121,-445,1401889955.587507
3,4,0,22489,6,-4,-29,23080,32,-160,-8192,21582,-31,-120,-443,1401889955.587899
3,5,0,24489,-10,5,-22,24958,64,-112,-8240,24163,-33,-119,-445,1401889955.605679
3,6,0,26488,-21,23,-21,26836,112,-80,-8256,26744,-31,-123,-443,1401889955.618286
3,7,0,28488,-18,24,-20,28714,-32,-192,-8256,26744,-31,-123,-443,1401889955.618603
3,8,0,30487,-1,0,-6,30592,-16,-224,-8224,29324,-33,-124,-445,1401889955.636778
3,9,0,32487,5,2,-2,32469,16,-176,-8256,31905,-30,-122,-445,1401889955.642933
3,10,0,34487,13,4,-10,34346,-32,-176,-8256,34485,-32,-122,-444,1401889955.655487
3,11,0,35486,18,-3,-10,36224,16,-192,-8240,34485,-32,-122,-444,1401889955.668012
3,12,0,37486,21,0,-11,38102,0,-192,-8256,37064,-32,-121,-440,1401889955.668322
3,13,0,39486,14,6,-9,39980,32,-144,-8224,39643,-32,-120,-446,1401889955.685997
3,14,0,41485,1,-3,-11,41857,128,-48,-8240,39643,-32,-120,-446,1401889955.698261
3,15,0,43485,-3,3,-10,43735,112,-128,-8208,42222,-31,-120,-443,1401889955.698721
3,16,0,45484,-1,19,-23,45612,112,-32,-8224,44802,-28,-119,-445,1401889955.717226
3,17,0,47484,-7,18,-37,47489,144,-144,-8208,47383,-29,-119,-447,1401889955.717460
3,18,0,49484,5,16,-32,49367,96,-96,-8224,47383,-29,-119,-447,1401889955.735600
3,19,0,50483,10,16,-38,51245,112,-96,-8256,49963,-32,-125,-445,1401889955.747818
3,20,0,52483,18,19,-41,53123,64,-192,-8240,52543,-29,-121,-444,1401889955.748145
3,21,0,54483,18,15,-41,55000,80,-160,-8240,52543,-29,-121,-444,1401889955.766411
3,22,0,56482,9,7,-33,56877,80,-192,-8240,55124,-32,-121,-445,1401889955.772058
3,23,0,58482,13,11,-15,58754,48,-160,-8224,57705,-31,-121,-442,1401889955.782802
3,24,0,60481,10,15,-14,60631,80,-160,-8224,60285,-33,-120,-446,1401889955.793413
3,25,0,62481,14,7,-12,62508,16,-192,-8224,60285,-33,-120,-446,1401889955.804764
3,26,0,64481,14,8,-16,64386,112,-144,-8208,62864,-30,-122,-444,1401889955.816977
3,27,0,65480,5,25,-20,726,112,-64,-8208,65446,-30,-120,-443,1401889955.817278
3,28,0,1944,-5,22,-29,2603,96,-32,-8256,2491,-31,-118,-443,1401889955.835662
3,29,0,3944,-18,26,-40,4481,64,-64,-8240,2491,-31,-118,-443,1401889955.848054
3,30,0,5943,-11,31,-45,6358,32,-32,-8272,5071,-29,-120,-445,1401889955.848389
3,31,0,7943,8,14,-50,8235,16,-80,-8272,7651,-33,-123,-444,1401889955.866579
3,32,0,9943,25,15,-52,10114,96,-112,-8320,7651,-33,-123,-444,1401889955.872065
3,33,0,11942,46,28,-36,11992,48,-48,-8272,10231,-34,-121,-444,1401889955.884234
3,34,0,13942,48,21,-34,13869,48,-112,-8320,12811,-31,-120,-444,1401889955.896360
3,35,0,14942,47,23,-31,15746,64,-144,-8208,15390,-29,-121,-445,1401889955.907608
3,36,0,16941,27,12,-25,17623,64,-176,-8256,15390,-29,-121,-445,1401889955.907853
3,37,0,18941,17,4,-20,19500,112,-32,-8240,17971,-33,-120,-444,1401889955.925434
3,38,0,20940,2,3,-20,21378,16,-64,-8256,20551,-30,-122,-448,1401889955.937639
3,39,0,22940,-6,4,-20,23256,64,-80,-8192,23132,-31,-118,-442,1401889955.938001
3,40,0,24940,-5,13,-23,25133,64,-80,-8192,23132,-31,-118,-442,1401889955.956139
3,41,0,26939,-13,22,-41,27011,48,16,-8224,25711,-35,-118,-439,1401889955.967996
3,42,0,28939,-16,26,-42,28888,32,-64,-8240,28292,-34,-120,-446,1401889955.968227
3,43,0,29939,-14,27,-42,30766,-16,-112,-8208,28292,-34,-120,-446,1401889955.985882
3,44,0,31938,-14,31,-44,32643,-32,-96,-8208,30872,-32,-119,-442,1401889955.997911
3,45,0,33938,-5,25,-41,34519,16,-32,-8208,33452,-34,-121,-446,1401889955.998389
3,46,0,35937,1,22,-43,36397,-48,-32,-8208,36032,-35,-122,-446,1401889956.16324
3,47,0,37937,12,7,-28,38274,-16,48,-8208,36032,-35,-122,-446,1401889956.28013
3,48,0,39937,12,22,-22,40152,-32,0,-8208,38612,-35,-120,-444,1401889956.28208
3,49,0,41936,19,13,-19,42029,-48,16,-8224,41193,-33,-121,-444,1401889956.46633
3,50,0,43936,17,16,-15,43907,-48,16,-8192,43773,-31,-123,-445,1401889956.52949
3,51,0,44936,13,20,-12,45785,-80,-48,-8192,43773,-31,-123,-445,1401889956.64591
3,52,0,46935,25,20,-12,47662,-96,32,-8240,46354,-35,-119,-441,1401889956.75590
3,53,0,48935,26,28,-11,49539,-160,80,-8256,48934,-33,-117,-444,1401889956.88017
3,54,0,50934,33,19,-6,51417,-192,48,-8352,48934,-33,-117,-444,1401889956.88385
3,55,0,52934,61,18,1,53295,-176,-16,-8320,51513,-35,-120,-443,1401889956.106103
3,56,0,54934,79,7,17,55172,-144,-16,-8256,54092,-32,-119,-445,1401889956.117919
3,57,0,56933,91,-2,36,57050,-32,-32,-8208,56673,-33,-117,-445,1401889956.118290
3,58,0,58933,70,-11,43,58927,128,-64,-8176,56673,-33,-117,-445,1401889956.136715
3,59,0,59933,62,-11,45,60804,176,0,-8128,59253,-32,-117,-445,1401889956.143124
3,60,0,61932,36,-3,42,62682,256,32,-8144,61833,-33,-117,-442,1401889956.155249
3,61,0,63932,43,3,37,64559,320,160,-8144,64412,-34,-115,-443,1401889956.167543
3,62,0,395,65,17,-1,901,288,80,-8176,64412,-34,-115,-443,1401889956.167996
3,63,0,2395,78,23,-27,2778,256,128,-8208,1457,-35,-114,-443,1401889956.185134
3,64,0,4395,100,18,-54,4656,176,48,-8240,4037,-36,-114,-443,1401889956.197396
3,65,0,6394,121,16,-73,6533,96,-16,-8288,4037,-36,-114,-443,1401889956.197771
3,66,0,8394,131,1,-79,8411,96,-96,-8256,6618,-35,-114,-446,1401889956.215327
3,67,0,9394,130,4,-83,10288,128,-80,-8256,9197,-38,-114,-444,1401889956.227629
3,68,0,11393,112,-2,-91,12166,64,-96,-8208,11778,-31,-112,-444,1401889956.227874
3,69,0,13393,87,0,-109,13575,96,-48,-8208,11778,-31,-112,-444,1401889956.245619
3,70,0,15392,74,0,-104,15452,0,-32,-8224,14358,-33,-110,-444,1401889956.257717
3,71,0,17392,76,9,-100,17330,16,64,-8272,16938,-35,-115,-444,1401889956.258031
3,72,0,19392,85,5,-80,19207,-32,32,-8320,19519,-34,-113,-445,1401889956.275805
3,73,0,21391,91,0,-65,21084,-32,80,-8288,19519,-34,-113,-445,1401889956.287977
3,74,0,23391,84,-5,-56,22960,-48,112,-8272,22099,-35,-110,-442,1401889956.288215
3,75,0,24391,73,-3,-55,24837,-96,112,-8256,24679,-37,-112,-446,1401889956.306821
3,76,0,26390,37,-12,-45,26714,-112,208,-8288,24679,-37,-112,-446,1401889956.307114
3,77,0,28390,1,-16,-57,28592,-208,112,-8240,27260,-36,-110,-443,1401889956.325510
3,78,0,30389,-17,-11,-56,30469,-160,160,-8256,29841,-35,-111,-444,1401889956.338103
3,79,0,32389,3,-31,-25,32347,-176,192,-8224,32421,-34,-111,-443,1401889956.338305
3,80,0,34389,17,-34,-33,34224,-128,144,-8192,32421,-34,-111,-443,1401889956.356306
3,81,0,36388,27,-26,-27,36101,-144,96,-8224,35002,-35,-110,-442,1401889956.368696
3,82,0,38388,28,-26,-25,37977,-64,112,-8208,37583,-34,-112,-444,1401889956.368962
3,83,0,39388,34,-12,-29,39854,-80,80,-8192,40163,-32,-111,-444,1401889956.387264
3,84,0,41387,33,3,-28,41731,32,80,-8192,40163,-32,-111,-444,1401889956.387669
3,85,0,43387,25,-3,-37,43609,32,80,-8144,42743,-34,-110,-444,1401889956.405904
3,86,0,45386,10,-12,-36,45486,80,128,-8160,45324,-33,-109,-443,1401889956.418434
3,87,0,47386,1,-3,-51,47363,32,80,-8160,45324,-33,-109,-443,1401889956.418885
3,88,0,49386,-12,22,-57,49241,16,16,-8192,47904,-31,-110,-445,1401889956.437115
3,89,0,51385,-2,11,-52,51118,-16,32,-8240,50484,-34,-109,-445,1401889956.437524
3,90,0,53385,-1,16,-31,52995,-48,0,-8208,53065,-31,-110,-444,1401889956.455995
3,91,0,54385,-2,14,-28,54873,-96,64,-8272,53065,-31,-110,-444,1401889956.468198
3,92,0,56384,-4,8,-26,56750,-128,128,-8336,55645,-32,-108,-444,1401889956.468512
3,93,0,58384,-7,-4,-5,58628,-240,96,-8240,58225,-35,-109,-444,1401889956.486729
3,94,0,60383,-2,-19,11,60506,-288,96,-8224,60805,-34,-111,-443,1401889956.493120
3,95,0,62383,-11,-13,5,62383,-256,128,-8208,60805,-34,-111,-443,1401889956.505767
3,96,0,64383,-19,-24,16,64261,-320,144,-8240,63386,-35,-110,-442,1401889956.518213
3,97,0,846,-19,-27,14,602,-240,144,-8208,430,-35,-109,-441,1401889956.518647
3,98,0,2846,-12,-32,22,2480,-208,144,-8176,430,-35,-109,-441,1401889956.535908
3,99,0,3846,-8,-36,29,4357,-144,160,-8192,3010,-33,-110,-444,1401889956.548311
3,100,0,5845,11,-43,48,6234,-16,176,-8224,5590,-33,-111,-445,1401889956.548583
3,102,0,9844,3799,-1444,2230,9989,14288,-6560,-17920,8170,-34,-106,-445,1401889956.576799
3,103,0,11844,-4502,42,-8571,11867,-15872,-28016,-13456,10751,-31,-104,-429,1401889956.577022
3,104,0,13844,1110,-352,-1561,13745,-11088,-13744,-5616,13332,-31,-100,-424,1401889956.595117
3,105,0,15843,103,-511,-1950,15622,-8976,-6224,-6704,15914,-34,-99,-427,1401889956.607134
3,106,0,17843,227,-630,-2927,17501,-4688,-6400,-4096,15914,-34,-99,-427,1401889956.607590
3,107,0,18843,114,-533,-3185,19378,-944,-5504,-2688,18494,-34,-103,-426,1401889956.626045
3,108,0,20842,465,-414,-3048,21256,1344,-3264,-2192,21075,-27,-102,-431,1401889956.638641
3,109,0,22842,521,-176,-2471,23134,3328,-880,-3104,21075,-27,-102,-431,1401889956.639055
3,110,0,24841,709,150,-1832,25012,4784,880,-4512,23655,-23,-100,-430,1401889956.656638
3,111,0,26841,614,418,-1231,26890,5760,1456,-5648,26236,-23,-98,-435,1401889956.657001
3,112,0,28841,275,571,-399,28767,5808,1856,-6480,28815,-26,-97,-433,1401889956.675629
3,113,0,30840,-98,704,467,30645,5376,2528,-7408,28815,-26,-97,-433,1401889956.687935
3,114,0,32840,-310,734,1070,32522,4608,2208,-8160,31395,-26,-98,-437,1401889956.688223
3,115,0,33840,-432,695,1283,34400,3456,1744,-9152,33975,-28,-98,-437,1401889956.706231
3,116,0,35839,-638,565,1551,36278,2160,1552,-10528,36555,-28,-97,-438,1401889956.718401
3,117,0,37839,-530,507,1700,38156,992,1728,-11056,36555,-28,-97,-438,1401889956.718750
3,118,0,39838,-129,409,1814,40035,-224,1920,-11024,39136,-37,-102,-439,1401889956.736533
3,119,0,41838,380,220,1767,41914,-1280,1856,-10640,41716,-37,-94,-437,1401889956.743070
3,120,0,43838,777,6,1548,43792,-2208,1424,-10224,41716,-37,-94,-437,1401889956.755520
3,121,0,45837,863,-237,1179,45670,-2944,496,-9696,44297,-39,-88,-435,1401889956.767557
3,122,0,47837,754,-429,718,47550,-3088,-464,-9088,46877,-39,-83,-436,1401889956.767833
3,123,0,48837,661,-474,511,49428,-2800,-1280,-8432,49457,-36,-78,-436,1401889956.785496
3,124,0,50836,434,-473,248,51306,-2128,-2176,-8192,49457,-36,-78,-436,1401889956.797952
3,125,0,52836,286,-385,252,53184,-960,-3296,-7904,52037,-36,-78,-435,1401889956.798275
3,126,0,54835,131,-234,609,55062,-208,-4128,-7616,54617,-32,-76,-433,1401889956.816106
3,127,0,56835,-179,-39,1299,56940,-16,-4240,-7264,57197,-32,-77,-437,1401889956.828099
3,128,0,58835,-896,245,1968,58818,240,-2976,-6496,57197,-32,-77,-437,1401889956.828387
3,129,0,60834,-2258,565,1989,60694,624,784,-7216,59778,-32,-89,-436,1401889956.846695
3,130,0,62834,-3053,506,932,62571,704,4688,-9376,62357,-32,-105,-441,1401889956.853058
3,131,0,63834,-3001,366,424,64450,848,7104,-10448,62357,-32,-105,-441,1401889956.865605
3,132,0,297,-1930,63,-483,791,720,5584,-9856,64937,-35,-121,-440,1401889956.878012
3,133,0,2297,-626,-50,-715,2669,816,3424,-9104,1981,-35,-125,-440,1401889956.878332
3,134,0,4296,396,-104,-531,4547,784,1312,-8304,4561,-33,-122,-441,1401889956.896720
3,135,0,6296,836,-121,-182,6425,672,-16,-7696,4561,-33,-122,-441,1401889956.902940
3,136,0,8296,802,-135,98,8303,544,-608,-7584,7141,-33,-117,-439,1401889956.914993
3,137,0,10295,529,-149,251,10180,224,-656,-7712,9722,-36,-112,-440,1401889956.926910
3,138,0,12295,347,-173,276,12059,-16,-512,-7840,12301,-36,-113,-439,1401889956.927268
3,139,0,13295,297,-183,249,13938,-288,-336,-7968,12301,-36,-113,-439,1401889956.944873
3,140,0,15294,242,-186,154,15816,-528,-192,-8112,14881,-31,-111,-439,1401889956.957247
3,141,0,17294,218,-142,53,17693,-496,-224,-8208,17461,-31,-106,-439,1401889956.957514
3,142,0,19293,186,-90,-6,19570,-416,-304,-8272,17461,-31,-106,-439,1401889956.975425
3,143,0,21293,169,-25,-40,21447,-272,-384,-8400,20041,-30,-109,-439,1401889956.987120
3,144,0,23293,144,21,-41,23324,-160,-480,-8320,22620,-30,-106,-439,1401889956.987396
3,145,0,25292,79,49,-46,25201,-160,-400,-8272,25200,-30,-104,-438,1401889957.5484
3,146,0,27292,-32,45,-31,27079,-112,-320,-8224,25200,-30,-104,-438,1401889957.17207
3,147,0,28292,-88,49,-42,28955,-48,-224,-8192,27780,-33,-111,-438,1401889957.17415
3,148,0,30291,-201,45,-54,30832,16,-96,-8192,30359,-32,-108,-440,1401889957.35314
3,149,0,32291,-266,34,-77,32710,160,144,-8208,32938,-30,-110,-439,1401889957.47637
3,150,0,34290,-274,24,-94,34587,368,256,-8256,32938,-30,-110,-439,1401889957.48101
3,151,0,36290,-195,-4,-96,36464,448,256,-8224,35518,-32,-111,-439,1401889957.65936
3,152,0,38290,-70,-31,-81,38341,544,352,-8272,38099,-31,-113,-437,1401889957.78193
3,153,0,40289,67,-60,-68,40218,528,384,-8240,38099,-31,-113,-437,1401889957.78640
3,154,0,42289,180,-84,-23,42095,544,224,-8240,40679,-29,-112,-438,1401889957.97107
3,155,0,43289,221,-87,-2,43973,496,96,-8224,43258,-29,-113,-439,1401889957.97382
3,156,0,45288,261,-106,48,45851,368,0,-8224,45837,-29,-110,-436,1401889957.115608
3,157,0,47288,257,-103,81,47729,256,-64,-8240,45837,-29,-110,-436,1401889957.127449
3,158,0,49287,217,-93,93,49607,176,-224,-8256,48419,-29,-112,-438,1401889957.127708
3,159,0,51287,146,-68,79,51485,112,-256,-8272,51000,-25,-109,-438,1401889957.145595
3,160,0,53287,88,-52,48,53363,16,-384,-8320,53580,-27,-109,-438,1401889957.158111
3,161,0,55286,37,-33,11,55241,16,-288,-8416,53580,-27,-109,-438,1401889957.158522
3,162,0,57286,1,-35,-19,57119,32,-336,-8304,56160,-27,-109,-439,1401889957.177108
3,163,0,58286,-3,-35,-42,58997,96,-352,-8224,58739,-31,-108,-441,1401889957.177299
3,164,0,60285,-11,-23,-61,60875,96,-368,-8176,58739,-31,-108,-441,1401889957.195004
3,165,0,62285,-17,-22,-67,62753,144,-288,-8112,61318,-29,-110,-440,1401889957.207642
3,166,0,64285,-11,-17,-64,64631,224,-288,-8032,63898,-27,-109,-439,1401889957.208063
3,167,0,748,-13,-15,-70,973,224,-224,-8064,942,-29,-111,-442,1401889957.226637
3,168,0,2748,-12,-13,-85,2851,384,-96,-8144,942,-29,-111,-442,1401889957.233213
3,169,0,4747,-22,-10,-90,4729,464,0,-8192,3522,-25,-113,-437,1401889957.244957
3,170,0,6747,-28,6,-109,6606,448,160,-8320,6101,-25,-112,-436,1401889957.257056
3,171,0,7747,-27,16,-119,8484,448,112,-8320,6101,-25,-112,-436,1401889957.257443
3,172,0,9746,-22,23,-125,10362,480,144,-8320,8681,-25,-114,-438,1401889957.275352
3,173,0,11746,-5,25,-130,12240,464,96,-8304,11262,-29,-114,-437,1401889957.287289
3,174,0,13746,19,4,-128,14118,416,176,-8208,13842,-25,-112,-440,1401889957.288833
3,175,0,15745,43,16,-97,15996,240,128,-8160,13842,-25,-112,-440,1401889957.306475
3,176,0,17745,56,18,-84,17873,128,192,-8144,16422,-30,-111,-440,1401889957.312742
3,177,0,19744,73,1,-62,19751,80,320,-8160,19002,-28,-113,-438,1401889957.325150
3,178,0,21744,80,-18,-36,21629,48,368,-8128,21582,-26,-111,-439,1401889957.337783
3,179,0,22744,78,-22,-45,23506,0,448,-8112,21582,-26,-111,-439,1401889957.338083
3,180,0,24743,76,-32,-41,25384,-16,416,-8144,24162,-27,-111,-437,1401889957.355409
3,181,0,26743,75,-52,-33,27262,-48,400,-8176,26741,-26,-111,-439,1401889957.367513
3,182,0,28743,76,-60,-23,29140,-144,304,-8176,26741,-26,-111,-439,1401889957.367832
3,183,0,30742,51,-79,-9,31017,-208,240,-8240,29321,-30,-114,-438,1401889957.385612
3,184,0,32742,13,-95,1,32896,-240,224,-8416,31901,-27,-113,-440,1401889957.397345
3,185,0,34741,-13,-90,9,34774,-192,272,-8496,34481,-23,-112,-438,1401889957.397571
3,186,0,36741,-42,-75,7,36652,-336,256,-8704,34481,-23,-112,-438,1401889957.416205
3,187,0,37741,-48,-67,-2,38530,-336,352,-8752,37061,-24,-115,-437,1401889957.428709
3,188,0,39740,-59,-61,-31,40407,-352,384,-8896,39640,-24,-115,-438,1401889957.428927
3,189,0,41740,-70,-53,-61,42287,-416,368,-8896,42221,-26,-117,-442,1401889957.446987
3,190,0,43740,-67,-54,-83,44165,-480,416,-8848,42221,-26,-117,-442,1401889957.447162
3,191,0,45739,-46,-67,-105,46043,-528,368,-8784,44801,-23,-116,-436,1401889957.465006
3,192,0,47739,-27,-86,-124,47921,-560,336,-8800,47380,-23,-120,-441,1401889957.477225
3,193,0,49738,7,-111,-134,49799,-400,464,-8752,47380,-23,-120,-441,1401889957.477607
3,194,0,51738,85,-95,-135,51677,-320,288,-8656,49959,-23,-119,-441,1401889957.495671
3,195,0,52738,104,-95,-129,53555,-160,144,-8624,52540,-23,-121,-444,1401889957.507746
3,196,0,54737,144,-72,-130,55433,16,16,-8528,55120,-22,-119,-441,1401889957.508194
3,197,0,56737,176,-50,-140,57312,96,-64,-8432,55120,-22,-119,-441,1401889957.525105
3,198,0,58737,187,-21,-155,59191,160,-176,-8304,57699,-19,-116,-440,1401889957.537702
3,199,0,60736,186,-6,-161,61069,272,-208,-8272,60280,-18,-117,-444,1401889957.537988
3,200,0,62736,165,18,-180,62946,272,-224,-8208,62860,-18,-115,-442,1401889957.555784
3,201,0,64735,138,21,-213,64825,176,-80,-8144,62860,-18,-115,-442,1401889957.567961
3,202,0,1199,104,22,-230,1168,96,0,-8096,65441,-17,-116,-437,1401889957.568185
3,203,0,2199,87,13,-238,3047,-16,128,-8016,2485,-22,-117,-439,1401889957.586218
3,204,0,4198,49,8,-241,4924,-144,208,-7872,2485,-22,-117,-439,1401889957.598515
3,205,0,6198,1,-21,-228,6803,-256,304,-7792,5064,-19,-115,-441,1401889957.598869
3,206,0,8198,-45,-9,-203,8680,-336,464,-7712,7642,-22,-114,-439,1401889957.617051
3,207,0,10197,-73,-6,-158,10558,-368,560,-7696,10222,-19,-117,-443,1401889957.617327
3,208,0,12197,-74,-9,-108,12437,-496,672,-7728,10222,-19,-117,-443,1401889957.635912
3,209,0,14196,-71,-24,-95,14315,-576,752,-7760,12802,-17,-121,-440,1401889957.647619
3,210,0,16196,-36,-22,-56,16194,-512,864,-7808,15381,-15,-117,-440,1401889957.648071
3,211,0,17196,-8,-25,-38,18072,-544,880,-7968,17962,-17,-120,-440,1401889957.666693
3,212,0,19195,24,-55,-12,19949,-448,800,-8048,17962,-17,-120,-440,1401889957.673102
3,213,0,21195,34,-53,-4,21827,-464,768,-8208,20543,-15,-117,-442,1401889957.684774
3,214,0,23195,31,-61,-13,23706,-400,672,-8272,23123,-14,-117,-441,1401889957.697116
3,215,0,25194,8,-69,-29,25583,-384,560,-8336,23123,-14,-117,-441,1401889957.697484
3,216,0,27194,-19,-60,-41,27462,-384,448,-8480,25703,-15,-114,-441,1401889957.716074
3,217,0,29193,-36,-64,-44,29340,-320,256,-8528,28284,-13,-116,-441,1401889957.728615
3,218,0,31193,-43,-58,-15,31218,-272,176,-8544,30864,-10,-115,-441,1401889957.729065
3,219,0,32193,-58,-52,-3,33095,-208,128,-8496,30864,-10,-115,-441,1401889957.747137
3,220,0,34192,-91,-57,19,34972,-176,96,-8496,33444,-10,-118,-440,1401889957.747444
3,221,0,36192,-127,-51,23,36851,-240,128,-8384,36025,-10,-120,-441,1401889957.764757
3,222,0,38192,-151,-47,29,38728,-192,160,-8448,38605,-11,-117,-440,1401889957.777376
3,223,0,40191,-140,-42,23,40605,-192,144,-8336,38605,-11,-117,-440,1401889957.777744
3,224,0,42191,-105,-34,12,42483,-160,128,-8272,41185,-4,-120,-441,1401889957.794610
3,225,0,44191,-65,-41,6,44362,-176,48,-8192,43765,-4,-122,-439,1401889957.806492
3,226,0,46190,-47,-48,3,46239,-192,-16,-8176,43765,-4,-122,-439,1401889957.813050
3,227,0,47190,-47,-38,4,48117,-208,-64,-8144,46346,-4,-121,-440,1401889957.825413
3,228,0,49190,-44,-50,16,49995,-192,-80,-8080,48927,-2,-121,-440,1401889957.837536
3,229,0,51189,-49,-57,17,51873,-128,-64,-8112,51507,-3,-121,-439,1401889957.837817
3,230,0,53189,-59,-54,31,53281,-192,-32,-8128,51507,-3,-121,-439,1401889957.856259
3,231,0,55188,-84,-56,23,55159,-208,-112,-8144,54087,1,-123,-440,1401889957.868611
3,232,0,57188,-113,-71,25,57036,-224,-96,-8080,56668,-1,-122,-440,1401889957.868980
3,233,0,59188,-136,-85,20,58914,-240,-160,-8064,59249,0,-120,-443,1401889957.886518
3,234,0,61187,-150,-92,11,60791,-256,-112,-7968,59249,0,-120,-443,1401889957.892765
3,235,0,62187,-157,-95,4,62669,-256,-128,-8032,61828,3,-122,-438,1401889957.904584
3,236,0,64187,-158,-100,3,64547,-320,-112,-8016,64408,4,-124,-442,1401889957.917060
3,237,0,650,-157,-109,-7,888,-304,-112,-8032,64408,4,-124,-442,1401889957.917365
3,238,0,2650,-164,-112,-17,2767,-304,-80,-8016,1452,7,-127,-443,1401889957.935493
3,239,0,4649,-148,-115,-35,4645,-320,-64,-8048,4032,9,-127,-439,1401889957.948106
3,240,0,6649,-132,-123,-49,6522,-304,-176,-8096,6612,14,-128,-443,1401889957.948462
3,241,0,8649,-115,-128,-60,8400,-288,-272,-8144,6612,14,-128,-443,1401889957.967078
3,242,0,10648,-106,-129,-77,10277,-320,-288,-8208,9193,11,-128,-440,1401889957.967320
3,243,0,11648,-102,-117,-78,12154,-304,-224,-8208,11771,15,-128,-437,1401889957.985034
3,244,0,13648,-118,-122,-87,14031,-384,-48,-8400,14352,16,-130,-441,1401889957.997045
3,245,0,15647,-171,-99,-102,15907,-480,176,-8816,14352,16,-130,-441,1401889957.997482
3,246,0,17647,-248,-56,-100,17785,-656,336,-9344,16932,18,-132,-439,1401889958.15407
3,247,0,19646,-263,-28,-120,19662,-608,288,-9680,19513,21,-132,-441,1401889958.27875
3,248,0,21646,-228,-27,-157,21539,-656,112,-9520,19513,21,-132,-441,1401889958.28329
3,249,0,23646,-200,-43,-200,23416,-640,-32,-9280,22092,22,-134,-437,1401889958.46481
3,250,0,25645,-220,-77,-172,25294,-608,-112,-9104,24673,25,-130,-442,1401889958.52243
3,251,0,26645,-227,-88,-134,27172,-320,-320,-9072,27254,23,-134,-439,1401889958.64594
3,252,0,28645,-168,-99,-44,29050,32,-512,-9056,27254,23,-134,-439,1401889958.77054
3,253,0,30644,-30,-124,67,30928,432,-832,-8896,29834,27,-133,-439,1401889958.77350
3,254,0,32644,97,-119,166,32806,640,-896,-8720,32415,29,-131,-440,1401889958.96016
3,255,0,34643,132,-99,229,34684,688,-720,-8608,34996,30,-132,-439,1401889958.108208
3,0,0,36643,81,-62,249,36561,752,-528,-8768,34996,30,-132,-439,1401889958.108412
3,1,0,38643,-14,-60,228,38439,688,-320,-8896,37577,31,-131,-436,1401889958.126419
3,2,0,40642,-74,-48,166,40316,688,-176,-8896,40158,32,-130,-438,1401889958.132522
3,3,0,41642,-89,-52,123,42194,624,-96,-8864,40158,32,-130,-438,1401889958.144924
3,4,0,43642,-102,-66,49,44073,496,-160,-8672,42738,34,-129,-439,1401889958.157156
3,5,0,45641,-102,-84,1,45950,272,-112,-8496,45318,36,-132,-439,1401889958.157454
3,6,0,47641,-98,-86,-4,47827,80,96,-8304,47898,36,-131,-440,1401889958.175795
3,7,0,49640,-91,-75,8,49704,-32,256,-8288,47898,36,-131,-440,1401889958.187531
3,8,0,51640,-86,-50,17,51582,-32,400,-8400,50477,36,-131,-436,1401889958.187754
3,9,0,53640,-83,-35,7,53459,16,496,-8448,53057,38,-133,-436,1401889958.205584
3,10,0,55639,-80,-17,-26,55338,160,528,-8400,55638,40,-133,-438,1401889958.217852
3,11,0,56639,-82,-4,-44,57216,304,512,-8400,55638,40,-133,-438,1401889958.218127
3,12,0,58639,-75,22,-83,59094,544,480,-8400,58218,40,-135,-438,1401889958.236202
3,13,0,60638,-74,30,-110,60972,768,464,-8400,60799,41,-133,-438,1401889958.247989
3,14,0,62638,-64,34,-118,62850,1024,368,-8480,60799,41,-133,-438,1401889958.248291
3,15,0,64637,-57,28,-115,64728,1248,192,-8544,63378,37,-134,-435,1401889958.265801
3,16,0,1101,-43,20,-98,1070,1520,-80,-8464,422,42,-131,-438,1401889958.277486
3,17,0,3101,-44,24,-77,2948,1776,-192,-8320,3001,39,-133,-437,1401889958.277804
3,18,0,5100,-55,20,-35,4827,1824,-288,-8224,3001,39,-133,-437,1401889958.295563
3,19,0,6100,-59,29,-25,6705,1952,-368,-8048,5581,41,-134,-435,1401889958.308064
3,20,0,8100,-81,40,5,8583,2000,-272,-7840,8161,43,-132,-438,1401889958.308300
3,21,0,10099,-73,36,22,10461,1952,-176,-7696,10741,43,-131,-439,1401889958.326651
3,22,0,12099,-62,41,34,12339,1936,-16,-7584,10741,43,-131,-439,1401889958.332467
3,23,0,14099,-29,46,26,14216,1856,80,-7616,13322,45,-138,-440,1401889958.345009
3,24,0,16098,-15,35,13,16094,1744,192,-7632,15902,45,-133,-436,1401889958.356696
3,25,0,18098,-4,25,-12,17971,1728,240,-7664,15902,45,-133,-436,1401889958.357036
3,26,0,20097,-4,14,-25,19848,1744,224,-7648,18482,44,-134,-438,1401889958.374729
3,27,0,21097,-28,44,-38,21725,1744,112,-7632,21063,44,-133,-435,1401889958.387110
3,29,0,25096,-71,56,-91,25481,1712,32,-7760,23644,45,-130,-439,1401889958.404940
3,30,0,27096,-99,71,-124,27357,1664,-32,-7872,26224,45,-132,-437,1401889958.416910
3,31,0,29096,-128,70,-153,29235,1616,-80,-8048,28804,46,-131,-436,1401889958.417216
3,32,0,31095,-143,81,-171,31112,1584,-160,-8160,31384,46,-135,-437,1401889958.435745
3,33,0,33095,-146,84,-170,32990,1504,-320,-8144,31384,46,-135,-437,1401889958.448353
3,34,0,35094,-118,80,-161,34866,1472,-368,-8144,33965,44,-135,-438,1401889958.448693
3,35,0,36094,-111,78,-168,36743,1440,-368,-8160,36544,44,-135,-438,1401889958.466898
3,36,0,38094,-88,78,-178,38620,1424,-464,-8240,36544,44,-135,-438,1401889958.467247
3,37,0,40093,-68,67,-199,40497,1232,-496,-8464,39124,43,-136,-436,1401889958.485610
3,38,0,42093,-55,64,-212,42375,1072,-448,-8640,41704,43,-135,-438,1401889958.496377
3,39,0,44093,-60,53,-209,44252,848,-416,-8768,44284,41,-138,-437,1401889958.501877
3,40,0,46092,-92,43,-182,46129,592,-512,-8752,44284,41,-138,-437,1401889958.513098
3,41,0,48092,-160,45,-117,48005,512,-496,-8576,46864,41,-141,-437,1401889958.524792
3,42,0,50091,-220,38,-35,49882,384,-416,-8272,49445,42,-141,-441,1401889958.536523
3,43,0,51091,-263,40,-1,51760,368,-432,-8128,52024,42,-142,-439,1401889958.542534
3,44,0,53091,-341,57,46,53638,384,-320,-7888,52024,42,-142,-439,1401889958.553862
3,45,0,55090,-403,64,84,55515,368,-240,-7712,54605,44,-148,-435,1401889958.565016
3,46,0,57090,-428,88,93,57393,336,-144,-7616,57185,44,-149,-439,1401889958.576044
3,47,0,59090,-403,120,114,59269,448,-16,-7584,57185,44,-149,-439,1401889958.587384
3,49,0,63089,-219,150,132,63024,480,-128,-7536,62344,42,-156,-438,1401889958.604866
3,50,0,65088,-106,189,139,64901,560,-240,-7584,64924,42,-154,-436,1401889958.616132
3,51,0,552,-57,201,128,1242,704,-336,-7664,64924,42,-154,-436,1401889958.628153
3,52,0,2552,58,205,118,3120,816,-528,-7712,1968,42,-153,-439,1401889958.628400
3,53,0,4551,152,200,110,4997,880,-768,-7808,4549,40,-152,-439,1401889958.646276
3,54,0,6551,193,189,106,6874,976,-1008,-7888,4549,40,-152,-439,1401889958.658548
3,55,0,8551,188,168,109,8751,1008,-1216,-7968,7129,40,-152,-439,1401889958.658841
3,56,0,10550,135,144,110,10628,1072,-1408,-7968,9709,38,-150,-439,1401889958.676286
3,57,0,12550,45,108,115,12504,1056,-1408,-8032,12290,38,-148,-442,1401889958.688172
3,58,0,14549,-48,82,119,14381,1120,-1440,-7984,12290,38,-148,-442,1401889958.688496
3,59,0,15549,-94,82,120,16259,1168,-1424,-8000,14869,41,-148,-443,1401889958.706835
3,60,0,17549,-166,66,117,18135,1104,-1424,-7824,17450,41,-150,-445,1401889958.707128
3,61,0,19548,-194,56,105,20013,1024,-1296,-7760,20031,40,-153,-444,1401889958.725020
3,62,0,21548,-166,73,65,21890,976,-1184,-7664,20031,40,-153,-444,1401889958.737114
3,63,0,23548,-104,81,29,23767,896,-1152,-7648,22611,40,-152,-444,1401889958.737567
3,64,0,25547,-30,82,-30,25644,768,-1104,-7728,25191,42,-152,-443,1401889958.756002
3,65,0,27547,62,87,-78,27523,496,-1056,-7712,25191,42,-152,-443,1401889958.767605
3,66,0,29547,137,106,-114,29400,416,-960,-7840,27770,42,-152,-446,1401889958.767881
3,67,0,30546,165,115,-131,31278,176,-848,-7936,30350,38,-151,-444,1401889958.786435
3,68,0,32546,197,133,-152,33155,16,-912,-8080,32930,38,-149,-445,1401889958.792000
3,69,0,34546,202,146,-137,35032,-80,-928,-8112,32930,38,-149,-445,1401889958.803795
3,70,0,36545,184,155,-101,36909,-64,-976,-8128,35510,39,-149,-447,1401889958.815321
3,71,0,38545,155,183,-52,38786,-160,-1008,-8240,38091,39,-149,-449,1401889958.826544
3,72,0,40544,139,225,-11,40665,-128,-944,-8144,40671,35,-145,-449,1401889958.832321
3,73,0,42544,132,208,34,42542,-80,-1008,-8176,40671,35,-145,-449,1401889958.844475
3,74,0,44544,117,208,53,44419,16,-1024,-8160,43251,35,-145,-447,1401889958.856822
3,75,0,45543,118,210,60,46297,112,-1088,-8176,45830,35,-145,-451,1401889958.857097
3,76,0,47543,101,215,66,48175,144,-1072,-8144,45830,35,-145,-451,1401889958.875492
3,77,0,49543,110,211,65,50053,208,-1216,-8112,48410,35,-141,-453,1401889958.887497
3,78,0,51542,101,213,73,51930,304,-1200,-7984,50990,36,-140,-453,1401889958.887844
3,79,0,53542,100,218,70,53806,320,-1232,-7872,53570,31,-139,-454,1401889958.905179
3,80,0,55541,70,213,63,55684,256,-1200,-7824,53570,31,-139,-454,1401889958.917321
3,81,0,57541,30,205,47,57561,160,-1232,-7824,56150,32,-138,-455,1401889958.917696
3,82,0,59541,6,185,43,59439,80,-1264,-7856,58730,35,-139,-454,1401889958.935973
3,83,0,60540,3,178,52,61317,0,-1312,-7776,61310,30,-139,-455,1401889958.948061
3,84,0,62540,-16,195,62,63194,-112,-1344,-7824,61310,30,-139,-455,1401889958.948240
3,85,0,64540,-19,195,69,65071,-256,-1344,-7728,63890,27,-137,-452,1401889958.965211
3,86,0,1003,-34,180,62,1412,-336,-1360,-7728,934,31,-137,-457,1401889958.976896
3,87,0,3003,-38,179,65,3289,-480,-1248,-7776,934,31,-137,-457,1401889958.977209
3,88,0,5002,-9,175,58,5167,-512,-1360,-7840,3515,29,-135,-457,1401889958.994157
3,89,0,7002,5,173,64,7044,-640,-1344,-7888,6095,29,-138,-458,1401889959.6241
3,90,0,9002,14,202,81,8922,-736,-1312,-7824,8675,27,-136,-454,1401889959.18191
3,91,0,10001,16,217,87,10799,-800,-1264,-7744,8675,27,-136,-454,1401889959.18430
3,92,0,12001,22,239,100,12677,-656,-1264,-7696,11255,24,-135,-456,1401889959.36161
3,93,0,14001,61,270,108,14555,-768,-1328,-7728,13834,26,-133,-457,1401889959.48254
3,94,0,16000,120,276,100,16433,-880,-1344,-7776,16415,25,-135,-461,1401889959.48578
3,95,0,18000,173,276,103,18310,-912,-1488,-7824,16415,25,-135,-461,1401889959.66798
3,96,0,19999,221,269,127,20188,-960,-1760,-7920,18995,26,-131,-458,1401889959.67099
3,97,0,21999,272,262,169,22065,-1040,-1840,-7984,21575,20,-130,-460,1401889959.84621
3,98,0,23999,303,241,204,23943,-976,-1920,-8016,21575,20,-130,-460,1401889959.95779
3,99,0,24998,301,230,207,25820,-832,-1632,-8144,24154,19,-124,-461,1401889959.106859
3,100,0,26998,317,189,170,27697,-688,-1088,-8592,26734,20,-124,-462,1401889959.107202
3,101,0,28998,312,83,48,29574,-640,-752,-9440,29315,18,-120,-463,1401889959.124806
3,102,0,30997,280,7,-86,31452,-528,-560,-10480,29315,18,-120,-463,1401889959.136824
3,103,0,32997,300,16,-164,33330,16,-736,-10912,31895,17,-117,-461,1401889959.137147
3,104,0,34997,370,63,-172,35207,672,-992,-10800,34475,16,-112,-463,1401889959.155113
3,105,0,36996,325,67,-179,37084,1040,-1072,-10848,37056,14,-112,-466,1401889959.167691
3,106,0,38996,56,38,-191,38962,848,-1200,-10960,37056,14,-112,-466,1401889959.167862
3,107,0,39996,-125,34,-189,40838,656,-1280,-10944,39638,17,-113,-463,1401889959.185710
3,108,0,41995,-509,42,-152,42715,624,-1312,-10512,42217,18,-114,-464,1401889959.196906
3,109,0,43995,-831,33,-86,44593,624,-1184,-9920,42217,18,-114,-464,1401889959.197117
3,110,0,45994,-1086,16,8,46471,368,-1056,-9440,44796,12,-123,-467,1401889959.213968
3,111,0,47994,-1204,2,127,48348,-112,-848,-9120,47377,18,-132,-464,1401889959.226440
3,112,0,49994,-1121,0,280,50225,-512,-464,-8672,49958,19,-141,-467,1401889959.232909
3,113,0,51993,-807,14,339,52102,-704,-240,-8112,49958,19,-141,-467,1401889959.245192
3,114,0,53993,-378,40,306,53980,-784,-32,-7360,52539,21,-142,-466,1401889959.257601
3,115,0,54993,-172,50,252,55857,-800,288,-6944,55119,20,-148,-467,1401889959.258030
3,116,0,56992,176,67,99,57734,-800,512,-6912,57700,21,-144,-470,1401889959.276349
3,117,0,58992,370,74,-54,59611,-768,512,-7216,57700,21,-144,-470,1401889959.282840
3,118,0,60991,423,91,-163,61489,-784,448,-7584,60280,20,-144,-470,1401889959.294805
3,119,0,62991,376,106,-223,63366,-816,336,-7824,62861,21,-138,-469,1401889959.306715
3,120,0,64991,269,143,-213,65244,-720,224,-7968,62861,21,-138,-469,1401889959.307168
3,121,0,1454,131,174,-175,1586,-576,16,-8064,65442,22,-137,-470,1401889959.325510
3,122,0,3454,-21,179,-103,3463,-336,32,-8096,2487,19,-134,-471,1401889959.337810
3,123,0,4454,-103,195,-66,5340,-48,176,-8032,5067,17,-134,-471,1401889959.338115
3,124,0,6453,-210,183,33,7219,256,320,-7904,5067,17,-134,-471,1401889959.356083
3,125,0,8453,-287,129,106,9097,560,656,-7792,7646,15,-137,-473,1401889959.368477
3,126,0,10452,-327,75,163,10975,960,848,-7648,10226,14,-141,-472,1401889959.368764
3,127,0,12452,-308,8,177,12853,1040,1104,-7504,12807,13,-140,-473,1401889959.386847
3,128,0,14452,-248,-49,188,14731,1008,1152,-7520,12807,13,-140,-473,1401889959.387289
3,129,0,16451,-149,-117,223,16609,880,1248,-7504,15388,12,-141,-470,1401889959.404177
3,130,0,18451,-25,-175,291,18486,624,1104,-7520,17968,14,-144,-468,1401889959.415816
3,131,0,19451,33,-190,335,20364,352,976,-7648,17968,14,-144,-468,1401889959.427785
3,132,0,21450,147,-205,398,22242,48,816,-7984,20549,15,-144,-471,1401889959.428043
3,133,0,23450,245,-225,429,24120,-224,560,-8240,23130,15,-139,-468,1401889959.445854
3,134,0,25449,342,-237,410,25997,-464,320,-8672,25711,23,-140,-472,1401889959.457307
3,135,0,27449,405,-237,364,27876,-576,-48,-9136,25711,23,-140,-472,1401889959.457712
3,136,0,29449,439,-227,290,29754,-544,-448,-9344,28291,19,-133,-472,1401889959.474979
3,137,0,31448,426,-205,205,31632,-368,-752,-9440,30872,22,-134,-475,1401889959.487340
3,138,0,33448,385,-192,93,33510,-288,-1024,-9056,33452,24,-128,-470,1401889959.487792
3,139,0,34448,344,-170,43,35389,-80,-1008,-8512,33452,24,-128,-470,1401889959.504901
3,140,0,36447,245,-155,-23,37266,112,-784,-8160,36033,23,-129,-472,1401889959.516667
3,141,0,38447,166,-129,-57,39144,208,-576,-7728,38613,23,-127,-473,1401889959.516875
3,142,0,40447,125,-126,-83,41022,320,-288,-7408,38613,23,-127,-473,1401889959.535285
3,143,0,42446,97,-123,-111,42900,416,16,-7168,41194,23,-128,-474,1401889959.547163
3,144,0,44446,89,-129,-123,44778,608,352,-7136,43775,28,-127,-475,1401889959.547418
3,145,0,46445,95,-137,-149,46656,720,592,-7232,46355,26,-127,-476,1401889959.565331
3,146,0,48445,107,-158,-175,48534,784,816,-7280,46355,26,-127,-476,1401889959.577464
3,147,0,49445,110,-166,-189,50412,816,832,-7456,48936,28,-125,-473,1401889959.577937
3,148,0,51444,119,-161,-222,52290,864,640,-7776,51517,26,-129,-475,1401889959.595323
3,149,0,53444,155,-162,-245,53699,832,512,-7920,54097,27,-126,-472,1401889959.607498
3,150,0,55444,200,-165,-272,55576,640,352,-8064,54097,27,-126,-472,1401889959.607817
3,151,0,57443,246,-167,-287,57454,496,128,-8256,56678,29,-129,-472,1401889959.625902
3,152,0,59443,272,-172,-261,59332,208,-96,-8432,59259,30,-123,-473,1401889959.637827
3,153,0,61442,232,-182,-222,61209,-32,-304,-8480,59259,30,-123,-473,1401889959.638224
3,154,0,63442,179,-195,-175,63087,-384,-432,-8416,61840,27,-120,-473,1401889959.656045
3,155,0,64442,144,-195,-168,64965,-656,-368,-8448,64421,31,-123,-469,1401889959.668168
3,156,0,905,63,-208,-161,1306,-880,-256,-8448,1465,32,-124,-469,1401889959.668430
3,157,0,2905,21,-220,-171,3183,-992,-208,-8288,1465,32,-124,-469,1401889959.685820
3,158,0,4905,-4,-204,-203,5061,-1088,-176,-8224,4045,30,-124,-466,1401889959.697563
3,159,0,6904,-5,-186,-225,6938,-1008,-160,-8144,6625,33,-125,-470,1401889959.697895
3,160,0,8904,-26,-145,-245,8816,-960,-192,-7920,9205,33,-124,-466,1401889959.715578
3,161,0,10903,-59,-105,-258,10693,-912,-144,-7840,9205,33,-124,-466,1401889959.727615
3,162,0,12903,-90,-71,-263,12571,-816,-128,-7776,11784,35,-124,-468,1401889959.727915
3,163,0,13903,-110,-61,-261,14449,-656,-96,-7808,14365,35,-127,-470,1401889959.745552
3,164,0,15902,-133,-29,-261,16326,-544,-96,-7840,14365,35,-127,-470,1401889959.756851
3,165,0,17902,-151,-28,-259,18203,-448,-64,-8000,16944,38,-131,-470,1401889959.757194
3,166,0,19902,-138,-40,-261,20080,-368,-160,-8112,19526,36,-129,-470,1401889959.775582
3,167,0,21901,-104,-49,-258,21958,-304,-272,-8128,22106,37,-131,-467,1401889959.788295
3,168,0,23901,-60,-79,-258,23836,-256,-416,-8160,22106,37,-131,-467,1401889959.788535
3,169,0,25900,-33,-102,-239,25714,-192,-512,-8128,24687,39,-130,-470,1401889959.805919
3,170,0,27900,-63,-130,-224,27592,-272,-640,-8160,27267,39,-129,-471,1401889959.818035
3,171,0,28900,-92,-144,-204,29470,-272,-592,-8192,29847,37,-135,-468,1401889959.818249
3,172,0,30899,-159,-175,-172,31346,-336,-464,-8224,29847,37,-135,-468,1401889959.836572
3,173,0,32899,-220,-203,-132,33223,-416,-400,-8176,32428,41,-133,-467,1401889959.842924
3,174,0,34899,-240,-218,-87,35101,-496,-416,-8176,35008,46,-136,-469,1401889959.854930
3,175,0,36898,-238,-234,-68,36977,-528,-528,-8112,35008,46,-136,-469,1401889959.867463
3,176,0,38898,-229,-241,-53,38855,-624,-528,-8080,37588,44,-137,-471,1401889959.867840
3,177,0,40898,-226,-236,-51,40732,-688,-608,-7920,40168,46,-141,-470,1401889959.886126
3,178,0,42897,-212,-232,-39,42610,-688,-608,-7824,42749,50,-144,-469,1401889959.898618
3,179,0,43897,-195,-226,-36,44487,-784,-576,-7888,42749,50,-144,-469,1401889959.898888
3,180,0,45897,-135,-218,-34,46365,-656,-576,-7920,45329,47,-150,-472,1401889959.916810
3,181,0,47896,-65,-204,-36,48242,-528,-656,-8032,47910,53,-147,-470,1401889959.917047
3,182,0,49896,3,-214,-33,50120,-416,-912,-8192,50491,55,-147,-470,1401889959.935285
3,183,0,51895,33,-195,-43,51997,-336,-976,-8240,50491,55,-147,-470,1401889959.947629
3,184,0,53895,48,-197,-35,53874,-288,-1120,-8352,53071,54,-146,-466,1401889959.947900
3,185,0,55895,33,-191,-31,55751,-272,-1280,-8432,55651,57,-146,-472,1401889959.965629
3,186,0,57894,12,-200,-21,57629,-336,-1376,-8528,55651,57,-146,-472,1401889959.977958
3,187,0,58894,1,-208,-24,59506,-448,-1456,-8480,58231,56,-147,-471,1401889959.978364
3,188,0,60894,-37,-207,-40,61383,-576,-1424,-8496,60812,57,-147,-470,1401889959.996373
3,189,0,62893,-33,-205,-46,63260,-736,-1440,-8352,63392,60,-146,-468,1401889960.2117
3,190,0,64893,-32,-215,-64,65138,-784,-1424,-8224,63392,60,-146,-468,1401889960.13838
3,191,0,1356,-27,-215,-83,1478,-848,-1408,-8064,437,61,-152,-472,1401889960.26398
3,192,0,3356,-20,-218,-102,3356,-928,-1200,-7904,3017,63,-150,-469,1401889960.32734
3,193,0,5356,-24,-219,-114,5233,-864,-912,-8016,3017,63,-150,-469,1401889960.44795
3,194,0,7355,-93,-215,-119,7110,-1040,-416,-8304,5598,64,-149,-471,1401889960.57546
3,195,0,8355,-150,-194,-119,8987,-1232,-80,-9104,8179,67,-149,-465,1401889960.57777
3,196,0,10355,-242,-142,-93,10864,-1248,128,-10000,10759,67,-151,-470,1401889960.75843
3,197,0,12354,-215,-52,-61,12740,-1120,112,-10512,10759,67,-151,-470,1401889960.88321
3,198,0,14354,-42,32,-96,14617,-688,-144,-10336,13340,69,-150,-467,1401889960.88612
3,199,0,16353,58,63,-146,16494,-288,-336,-10096,15919,66,-151,-467,1401889960.106963
3,200,0,18353,20,70,-124,18371,112,-640,-9984,18499,69,-149,-468,1401889960.107415
3,201,0,20353,7,72,-53,20248,752,-1072,-10016,18499,69,-149,-468,1401889960.126089
3,202,0,22352,48,79,48,22125,1232,-1520,-9920,21080,67,-147,-469,1401889960.138443
3,203,0,23352,73,89,94,24002,1520,-1792,-9648,23660,68,-147,-469,1401889960.138810
3,204,0,25352,89,128,177,25878,1664,-1824,-9328,23660,68,-147,-469,1401889960.156925
3,205,0,27351,20,163,232,27755,1840,-1616,-9184,26240,70,-145,-469,1401889960.157193
3,206,0,29351,-98,211,203,29633,2128,-1296,-9056,28821,70,-145,-472,1401889960.174973
3,207,0,31350,-167,206,119,31510,2224,-992,-8928,31401,66,-147,-468,1401889960.187597
3,208,0,33350,-155,167,23,33388,2128,-624,-8560,31401,66,-147,-468,1401889960.187882
3,209,0,35350,-89,101,-40,35266,1920,-352,-8096,33982,67,-144,-475,1401889960.205601
3,210,0,37349,-27,28,-67,37143,1552,64,-7536,36561,64,-146,-473,1401889960.217183
3,211,0,38349,-15,3,-79,39019,1184,432,-7216,39141,64,-141,-474,1401889960.217458
3,212,0,40349,4,-49,-111,40897,992,784,-7024,39141,64,-141,-474,1401889960.235414
3,213,0,42348,6,-66,-158,42775,944,976,-6896,41721,65,-145,-468,1401889960.247997
3,214,0,44348,9,-68,-230,44652,1024,1088,-6848,44300,65,-142,-473,1401889960.248265
3,215,0,46348,7,-59,-305,46529,1248,992,-6848,44300,65,-142,-473,1401889960.266825
3,216,0,48347,8,-46,-365,48407,1488,768,-6784,46880,64,-144,-475,1401889960.267275
3,217,0,50347,5,-24,-403,50284,1792,576,-6784,49462,67,-143,-475,1401889960.285698
3,218,0,52346,-5,29,-429,52162,2096,352,-6864,52042,66,-141,-470,1401889960.298253
3,219,0,53346,8,44,-440,54039,2352,128,-6896,52042,66,-141,-470,1401889960.298553
3,220,0,55346,50,75,-429,55916,2592,-48,-6944,54622,63,-142,-471,1401889960.316179
3,221,0,57345,117,101,-408,57793,2848,-208,-7056,57203,63,-139,-472,1401889960.328365
3,222,0,59345,193,105,-371,59670,2960,-368,-7248,59784,65,-139,-470,1401889960.328700
3,223,0,61345,242,91,-363,61547,3056,-320,-7584,59784,65,-139,-470,1401889960.347222
3,224,0,63344,265,42,-362,63424,2736,-544,-8096,62364,64,-136,-468,1401889960.347583
3,225,0,65344,273,-16,-372,65302,2240,-656,-8368,64944,62,-135,-469,1401889960.365929
3,226,0,1807,221,-41,-360,1643,1536,-752,-8688,64944,62,-135,-469,1401889960.378069
3,227,0,2807,185,-46,-345,3521,880,-768,-9072,1988,62,-134,-468,1401889960.378550
3,228,0,4807,84,-72,-286,5399,128,-768,-9568,4568,62,-136,-468,1401889960.396904
3,229,0,6806,-60,-72,-191,7276,-448,-816,-10048,7149,61,-136,-467,1401889960.397131
3,230,0,8806,-198,-50,-92,9152,-864,-896,-10224,7149,61,-136,-467,1401889960.415024
3,231,0,10806,-303,-19,-42,11029,-1072,-768,-9840,9728,62,-140,-466,1401889960.427539
3,232,0,12805,-365,20,-22,12906,-1120,-592,-9152,12309,63,-143,-466,1401889960.427928
3,233,0,14805,-403,76,-28,14783,-1056,-448,-8480,14889,61,-145,-466,1401889960.445478
3,234,0,16804,-441,155,-9,16661,-848,-336,-8032,14889,61,-145,-466,1401889960.458028
3,235,0,17804,-455,200,0,18538,-592,-144,-7616,17469,66,-153,-466,1401889960.458260
3,236,0,19804,-433,265,17,20414,-240,160,-7200,20049,60,-153,-471,1401889960.476249
3,237,0,21803,-361,324,41,22291,128,352,-6976,20049,60,-153,-471,1401889960.488679
3,238,0,23803,-226,371,49,24169,528,352,-6880,22630,63,-155,-472,1401889960.489058
3,239,0,25803,-59,402,42,26046,768,304,-6928,25210,60,-156,-472,1401889960.506716
3,240,0,27802,75,411,21,27923,992,112,-7120,27790,59,-157,-473,1401889960.506953
3,241,0,29802,181,404,33,29800,1008,-64,-7216,27790,59,-157,-473,1401889960.524784
3,242,0,31802,219,354,45,31678,976,-448,-7392,30370,59,-155,-476,1401889960.537056
3,243,0,32801,219,317,64,33555,912,-704,-7584,32950,56,-152,-474,1401889960.537524
3,244,0,34801,190,239,125,35432,848,-1008,-7760,35529,55,-147,-479,1401889960.555338
3,245,0,36801,132,158,206,37309,752,-1296,-7904,35529,55,-147,-479,1401889960.567434
3,246,0,38800,63,77,287,39187,704,-1472,-7904,38109,55,-149,-473,1401889960.567783
3,247,0,40800,-6,16,344,41064,752,-1520,-7888,40689,54,-147,-473,1401889960.586051
3,248,0,42799,-78,-13,363,42941,704,-1648,-7888,40689,54,-147,-473,1401889960.598751
3,249,0,44799,-160,-26,342,44819,688,-1680,-7904,43269,56,-148,-473,1401889960.599057
3,250,0,46799,-223,-36,294,46696,592,-1664,-7920,45850,56,-147,-476,1401889960.616747
3,251,0,47798,-252,-33,272,48574,576,-1568,-7904,48429,57,-148,-474,1401889960.617058
3,252,0,49798,-326,-21,222,50452,432,-1504,-7760,48429,57,-148,-474,1401889960.634820
3,253,0,51798,-366,1,185,52329,336,-1472,-7664,51008,57,-154,-473,1401889960.647568
3,254,0,53797,-323,27,160,54207,272,-1376,-7600,53588,59,-156,-474,1401889960.647948
3,255,0,55797,-216,47,128,56085,160,-1216,-7520,56169,58,-154,-475,1401889960.666105
3,0,0,57796,-90,77,91,57963,64,-1024,-7408,56169,58,-154,-475,1401889960.678484
3,1,0,59796,65,87,56,59840,80,-944,-7328,58748,61,-155,-473,1401889960.678763
3,2,0,61796,197,101,24,61719,32,-912,-7280,61329,58,-152,-476,1401889960.696857
3,3,0,62795,245,106,0,63596,0,-848,-7248,61329,58,-152,-476,1401889960.697132
3,4,0,64795,332,113,-27,65474,-96,-928,-7424,63909,58,-152,-475,1401889960.714615
3,5,0,1259,374,112,-46,1815,-80,-896,-7520,953,59,-148,-475,1401889960.726632
3,6,0,3258,380,109,-36,3692,48,-1040,-7568,3533,58,-145,-478,1401889960.732977
3,7,0,5258,365,105,-31,5570,64,-1120,-7728,3533,58,-145,-478,1401889960.745373
3,8,0,7257,325,90,-15,7448,176,-1216,-7824,6113,57,-142,-475,1401889960.757536
3,9,0,9257,290,66,0,9324,224,-1168,-7888,8694,56,-138,-474,1401889960.757799
3,10,0,11257,269,48,-3,11202,320,-1232,-8016,11275,56,-137,-477,1401889960.776272
3,11,0,12256,249,43,-6,13080,432,-1200,-8064,11275,56,-137,-477,1401889960.788778
3,12,0,14256,249,23,-19,14958,432,-1216,-8144,13855,56,-136,-479,1401889960.789009
3,13,0,16256,238,10,-33,16836,480,-1248,-8112,16435,55,-135,-477,1401889960.806849
3,14,0,18255,218,5,-58,18714,576,-1312,-8128,16435,55,-135,-477,1401889960.807070
3,15,0,20255,180,-2,-83,20592,496,-1360,-8224,19016,55,-130,-481,1401889960.824509
3,16,0,22255,104,2,-115,22469,416,-1584,-8256,21596,53,-130,-478,1401889960.837067
3,17,0,24254,27,10,-136,24347,176,-1808,-8272,24177,55,-127,-484,1401889960.837396
3,18,0,26254,-43,31,-139,26224,-64,-1920,-8352,24177,55,-127,-484,1401889960.856170
3,19,0,28253,-109,72,-139,28101,-464,-1952,-8384,26758,59,-132,-482,1401889960.868693
3,20,0,29253,-136,79,-135,29978,-864,-1936,-8416,29338,54,-132,-480,1401889960.869089
3,21,0,31253,-189,128,-127,31857,-1280,-1840,-8544,31917,56,-133,-480,1401889960.887662
3,22,0,33252,-232,178,-108,33733,-1648,-1792,-8544,31917,56,-133,-480,1401889960.888066
3,23,0,35252,-288,224,-65,35610,-1840,-1696,-8496,34498,53,-134,-479,1401889960.906220
3,24,0,37252,-324,264,8,37488,-2016,-1552,-8336,37078,57,-136,-483,1401889960.918662
3,25,0,39251,-344,306,97,39365,-2096,-1408,-8208,37078,57,-136,-483,1401889960.919065
3,26,0,41251,-325,330,199,41243,-1952,-1360,-8016,39660,53,-137,-482,1401889960.936828
3,27,0,43250,-283,342,281,43121,-1872,-1280,-7824,42240,52,-140,-484,1401889960.937315
3,28,0,44250,-254,353,317,44999,-1744,-1200,-7744,44821,52,-141,-486,1401889960.955930
3,29,0,46250,-188,361,375,46877,-1648,-1360,-7728,44821,52,-141,-486,1401889960.968152
3,30,0,48249,-96,354,429,48755,-1472,-1424,-7680,47401,49,-138,-488,1401889960.968467
3,31,0,50249,-6,355,464,50632,-1360,-1552,-7744,49980,49,-137,-488,1401889960.986043
3,32,0,52249,80,335,454,52511,-1152,-1632,-8048,52562,42,-138,-486,1401889960.997906
3,33,0,54248,145,272,397,54389,-1120,-1440,-8320,52562,42,-138,-486,1401889960.998135
3,34,0,56248,205,171,266,56267,-992,-1232,-9056,55141,42,-136,-489,1401889961.15795
3,35,0,58247,283,52,86,58145,-768,-1424,-9904,57722,43,-131,-487,1401889961.27974
3,36,0,59247,318,5,2,60022,-352,-1536,-10720,57722,43,-131,-487,1401889961.28263
3,37,0,61247,376,-29,-122,61899,416,-1776,-11088,60302,43,-126,-485,1401889961.46231
3,38,0,63246,339,-38,-206,63777,1072,-1920,-11360,62881,45,-124,-484,1401889961.58408
3,39,0,65246,199,-55,-264,118,1344,-2096,-11456,65461,45,-124,-486,1401889961.58797
3,40,0,1710,-69,-51,-297,1996,1360,-2224,-11072,65461,45,-124,-486,1401889961.77397
3,41,0,3709,-420,-37,-239,3874,1392,-1920,-10272,2504,42,-126,-487,1401889961.77903
3,42,0,5709,-793,-38,-136,5751,1552,-1424,-9232,5084,42,-133,-488,1401889961.96369
3,43,0,7709,-1076,-53,-17,7628,1600,-848,-8512,7664,46,-141,-487,1401889961.102831
3,44,0,8708,-1147,-57,33,9505,1328,-352,-8160,7664,46,-141,-487,1401889961.113974
3,45,0,10708,-1156,-62,145,11383,720,80,-7984,10245,46,-155,-489,1401889961.125248
3,46,0,12708,-965,-58,246,13261,176,400,-7616,12825,50,-156,-490,1401889961.137584
3,47,0,14707,-635,-36,300,15139,-128,608,-7024,12825,50,-156,-490,1401889961.137926
3,48,0,16707,-254,-45,266,17016,-288,704,-6512,15406,50,-160,-491,1401889961.156330
3,49,0,18706,109,-53,157,18894,-416,816,-6272,17987,52,-161,-488,1401889961.162944
3,50,0,20706,442,-49,4,20771,-544,912,-6304,20566,52,-157,-491,1401889961.175058
3,51,0,22706,697,-32,-145,22649,-784,800,-6608,20566,52,-157,-491,1401889961.186831
3,52,0,23705,772,-8,-190,24526,-800,656,-6880,23147,50,-156,-490,1401889961.187176
3,53,0,25705,837,50,-221,26405,-704,576,-7120,25727,50,-147,-491,1401889961.205543
3,54,0,27705,795,121,-202,28283,-544,576,-7408,25727,50,-147,-491,1401889961.216325
3,55,0,29704,646,173,-149,30161,-336,560,-7808,28308,49,-140,-491,1401889961.221807
3,56,0,31704,446,208,-92,32038,-80,736,-8192,30889,49,-137,-490,1401889961.232286
3,57,0,33703,234,213,-61,33917,192,768,-8768,33469,42,-136,-496,1401889961.243877
3,58,0,35703,84,169,-74,35794,608,752,-9280,33469,42,-136,-496,1401889961.256394
3,59,0,37703,2,96,-75,37672,992,736,-9520,36049,42,-134,-492,1401889961.262925
3,60,0,38702,4,60,-50,39550,1088,496,-9392,38628,41,-134,-496,1401889961.274920
3,61,0,40702,68,10,73,41427,1216,320,-9008,41209,41,-135,-491,1401889961.287065
3,62,0,42702,145,-35,277,43304,960,272,-8624,41209,41,-135,-491,1401889961.287407
3,63,0,44701,199,-57,467,45182,912,256,-8384,43789,38,-136,-494,1401889961.306027
3,64,0,46701,289,-88,562,47059,768,240,-8176,46368,38,-126,-493,1401889961.317461
3,65,0,48700,373,-121,566,48936,688,96,-8064,46368,38,-126,-493,1401889961.317741
3,66,0,50700,442,-142,494,50814,688,-208,-7776,48948,41,-126,-492,1401889961.336136
3,67,0,52700,502,-174,387,52691,784,-448,-7600,51528,41,-119,-488,1401889961.348203
3,68,0,53700,505,-179,320,54569,832,-720,-7488,54108,45,-116,-494,1401889961.348509
3,69,0,55699,480,-188,196,56447,736,-944,-7568,54108,45,-116,-494,1401889961.366986
3,70,0,57699,411,-197,83,58325,800,-1008,-7792,56688,45,-115,-491,1401889961.367324
3,71,0,59698,309,-213,-19,60204,784,-992,-7936,59268,47,-111,-490,1401889961.386160
3,72,0,61698,199,-224,-117,62082,784,-880,-8064,61848,47,-108,-491,1401889961.398388
3,73,0,63698,68,-237,-212,63490,784,-896,-8016,61848,47,-108,-491,1401889961.398782
3,74,0,161,-70,-271,-295,65369,864,-400,-8080,64428,46,-118,-489,1401889961.416397
3,75,0,2161,-157,-321,-364,1711,768,-128,-7904,1471,48,-114,-490,1401889961.422956
3,76,0,3161,-206,-344,-411,3589,768,48,-7744,1471,48,-114,-490,1401889961.435322
3,77,0,5160,-280,-384,-461,5466,640,304,-7552,4052,48,-115,-489,1401889961.447082
3,78,0,7160,-327,-425,-491,7344,480,496,-7520,6632,50,-120,-485,1401889961.447386
3,79,0,9159,-327,-451,-485,9222,464,656,-7456,9212,53,-126,-487,1401889961.465461
3,80,0,11159,-281,-444,-461,11101,256,736,-7456,9212,53,-126,-487,1401889961.477767
3,81,0,13159,-187,-387,-396,12979,128,816,-7456,11793,55,-129,-484,1401889961.478040
3,82,0,15158,-51,-339,-328,14857,-128,704,-7632,14373,57,-128,-482,1401889961.496485
3,83,0,17158,83,-277,-236,16735,-400,560,-7792,16953,58,-129,-483,1401889961.502680
3,84,0,18158,152,-246,-199,18612,-688,384,-7840,16953,58,-129,-483,1401889961.515268
3,85,0,20157,262,-181,-140,20489,-816,96,-7904,19534,61,-133,-479,1401889961.527171
3,86,0,22157,320,-138,-105,22367,-944,-256,-7920,22114,60,-126,-480,1401889961.527507
3,87,0,24156,313,-98,-64,24245,-960,-496,-7920,22114,60,-126,-480,1401889961.545280
3,88,0,26156,232,-80,-45,26123,-1072,-720,-7904,24693,60,-129,-482,1401889961.557240
3,89,0,28156,148,-61,-26,28000,-1008,-976,-8000,27274,63,-124,-479,1401889961.557489
3,90,0,30155,65,-49,-22,29877,-1088,-1024,-8000,29854,63,-125,-485,1401889961.574828
3,91,0,32155,-13,-43,-30,31754,-1104,-1104,-8128,29854,63,-125,-485,1401889961.587005
3,92,0,33155,-34,-31,-40,33631,-960,-1120,-8144,32435,63,-123,-481,1401889961.587282
3,93,0,35154,-94,-24,-69,35509,-912,-1056,-8192,35015,65,-124,-482,1401889961.604198
3,94,0,37154,-156,-21,-78,37387,-800,-912,-8224,37596,65,-125,-481,1401889961.616509
3,95,0,39154,-211,-23,-105,39264,-608,-672,-8320,37596,65,-125,-481,1401889961.622861
3,96,0,41153,-251,-35,-119,41140,-432,-528,-8368,40176,64,-127,-477,1401889961.635312
3,97,0,43153,-260,-59,-121,43018,-176,-400,-8384,42757,65,-128,-483,1401889961.647477
3,98,0,45152,-252,-79,-95,44895,-32,-368,-8352,42757,65,-128,-483,1401889961.647792
3,99,0,47152,-220,-112,-44,46772,16,-448,-8256,45337,68,-132,-480,1401889961.665802
3,100,0,48152,-197,-124,-21,48648,16,-560,-8144,47916,68,-134,-481,1401889961.677776
3,101,0,50151,-132,-166,52,50525,-112,-688,-8064,50496,67,-134,-481,1401889961.678052
3,102,0,52151,-54,-180,124,52402,-352,-672,-8176,50496,67,-134,-481,1401889961.696401
3,103,0,54151,34,-193,185,54279,-432,-624,-8336,53078,70,-133,-479,1401889961.702858
3,104,0,56150,145,-177,214,56156,-368,-800,-8576,55659,70,-133,-481,1401889961.714474
3,105,0,58150,229,-156,214,58033,-256,-1056,-8656,58238,73,-135,-485,1401889961.726795
3,106,0,60149,271,-148,197,59909,-96,-1424,-8752,58238,73,-135,-485,1401889961.727138
3,107,0,62149,233,-138,165,61787,-32,-1600,-8848,60818,78,-132,-479,1401889961.744938
3,108,0,63149,192,-137,139,63663,16,-1792,-8912,63397,77,-127,-486,1401889961.757432
3,109,0,65148,80,-125,122,4,-112,-1872,-8880,63397,77,-127,-486,1401889961.757896
3,110,0,1612,-39,-140,99,1881,-176,-1824,-8688,441,77,-129,-482,1401889961.776034
3,111,0,3612,-139,-150,60,3759,-288,-1568,-8480,3021,77,-130,-484,1401889961.788460
3,112,0,5611,-166,-169,-7,5636,-480,-1376,-8256,5600,77,-133,-486,1401889961.788919
3,113,0,7611,-142,-189,-69,7514,-528,-1136,-8160,5600,77,-133,-486,1401889961.807385
3,114,0,9610,-111,-207,-145,9391,-720,-736,-8112,8180,80,-136,-485,1401889961.807599
3,115,0,11610,-120,-209,-216,11270,-976,-320,-8352,10760,80,-138,-484,1401889961.825403
3,116,0,12610,-144,-201,-243,13147,-1264,48,-9008,13340,83,-135,-483,1401889961.837846
3,117,0,14609,-213,-145,-239,15025,-1376,336,-9696,13340,83,-135,-483,1401889961.838110
3,118,0,16609,-204,-63,-199,16902,-1408,512,-10144,15920,83,-140,-483,1401889961.855836
3,119,0,18609,-139,12,-162,18780,-1280,464,-10176,18499,85,-139,-480,1401889961.868168
3,120,0,20608,-84,79,-148,20658,-800,240,-10064,18499,85,-139,-480,1401889961.868516
3,121,0,22608,-81,125,-130,22535,0,-256,-9936,21079,85,-140,-480,1401889961.886940
3,122,0,24608,-52,163,-105,24413,912,-944,-9824,23659,82,-140,-481,1401889961.887379
3,123,0,26607,-7,179,-48,26290,1776,-1472,-9648,26239,83,-141,-481,1401889961.906002
3,124,0,27607,17,194,-6,28168,2304,-1712,-9488,26239,83,-141,-481,1401889961.917574
3,125,0,29607,37,234,109,30046,2768,-1600,-9312,28818,81,-140,-482,1401889961.917853
3,126,0,31606,9,273,209,31923,3184,-1264,-9264,31397,78,-143,-485,1401889961.936239
3,127,0,33606,-5,275,211,33800,3456,-960,-9056,33978,78,-140,-487,1401889961.948674
3,128,0,35605,14,214,142,35678,3344,-640,-8576,33978,78,-140,-487,1401889961.949103
3,129,0,37605,50,126,80,37555,2992,-288,-7952,36558,80,-138,-484,1401889961.967089
3,130,0,39605,71,19,24,39432,2544,128,-7296,39139,79,-141,-486,1401889961.967367
3,131,0,41604,64,-65,-42,41309,2128,464,-6768,39139,79,-141,-486,1401889961.985865
3,132,0,42604,53,-92,-81,43186,1728,608,-6464,41719,76,-142,-485,1401889961.998155
3,133,0,44604,12,-152,-160,45063,1552,864,-6224,44299,78,-140,-484,1401889961.998431
3,134,0,46603,-29,-154,-231,46940,1520,880,-6048,46879,81,-140,-485,1401889962.16100
3,135,0,48603,-75,-139,-300,48818,1696,784,-6048,46879,81,-140,-485,1401889962.27887
3,136,0,50602,-112,-107,-356,50694,1904,720,-6080,49459,80,-140,-482,1401889962.28113
3,137,0,52602,-120,-46,-411,52572,2000,544,-6288,52039,80,-140,-481,1401889962.46440
3,138,0,54602,-71,19,-469,54449,2160,256,-6592,54618,83,-143,-482,1401889962.52673
3,139,0,56601,21,94,-513,56327,2336,64,-6976,54618,83,-143,-482,1401889962.64805
3,140,0,57601,77,137,-537,58204,2432,-192,-7360,57198,78,-142,-480,1401889962.77234
3,141,0,59601,229,209,-564,60081,2512,-256,-7856,59778,83,-141,-482,1401889962.77652
3,142,0,61600,372,264,-627,61960,2448,-288,-8208,59778,83,-141,-482,1401889962.96314
3,143,0,63600,490,275,-703,63838,2272,-368,-8528,62359,78,-140,-482,1401889962.102819
3,144,0,64,517,225,-775,180,1792,-496,-8976,64939,77,-137,-483,1401889962.114893
3,145,0,2063,475,125,-782,2057,1216,-848,-9536,1983,72,-136,-480,1401889962.126637
3,146,0,4063,319,-10,-660,3935,432,-1056,-9808,1983,72,-136,-480,1401889962.132971
3,147,0,6062,83,-97,-437,5813,-208,-1184,-10000,4564,71,-134,-480,1401889962.144907
3,148,0,7062,-54,-127,-303,7691,-720,-1040,-9888,7145,72,-138,-483,1401889962.157119
3,149,0,9062,-312,-132,-62,9569,-912,-768,-9488,9725,73,-140,-481,1401889962.157379
3,150,0,11061,-515,-98,117,11446,-1104,-368,-9168,9725,73,-140,-481,1401889962.175775
3,151,0,13061,-628,-17,192,13324,-1024,-80,-8768,12305,75,-145,-481,1401889962.188094
3,152,0,15061,-688,85,188,15202,-880,192,-8256,14886,77,-149,-478,1401889962.188362
3,153,0,17060,-723,189,142,17079,-576,304,-7856,14886,77,-149,-478,1401889962.206925
3,154,0,19060,-749,275,72,18957,-272,336,-7360,17466,75,-156,-480,1401889962.207410
3,155,0,21059,-720,353,23,20834,-16,352,-7136,20045,78,-163,-482,1401889962.224612
3,156,0,22059,-681,385,-3,22712,192,288,-6992,22625,75,-167,-479,1401889962.236552
3,157,0,24059,-551,405,-37,24590,416,128,-6896,22625,75,-167,-479,1401889962.242808
3,158,0,26058,-349,406,-57,26468,592,-96,-6992,25204,75,-172,-481,1401889962.255336
3,159,0,28058,-93,390,-68,28346,688,-448,-7056,27785,73,-173,-480,1401889962.266545
3,160,0,30058,173,348,-58,30225,672,-736,-7168,30365,72,-172,-480,1401889962.272886
3,161,0,32057,365,292,-27,32104,640,-1104,-7392,30365,72,-172,-480,1401889962.284179
3,162,0,34057,472,234,14,33981,640,-1376,-7600,32944,69,-167,-484,1401889962.296605
3,163,0,36056,446,165,81,35858,576,-1600,-7840,35524,68,-164,-483,1401889962.296832
3,164,0,37056,387,135,114,37736,608,-1712,-7920,35524,68,-164,-483,1401889962.315005
3,165,0,39056,258,38,165,39614,544,-1840,-8000,38105,68,-160,-485,1401889962.326868
3,166,0,41056,74,-43,207,41492,512,-1808,-8016,40686,67,-159,-482,1401889962.327161
3,167,0,43055,-113,-91,203,43369,512,-1680,-7952,43265,70,-160,-480,1401889962.345384
3,168,0,45055,-248,-132,191,45247,608,-1568,-7952,43265,70,-160,-480,1401889962.357867
3,169,0,47054,-322,-132,174,47125,528,-1536,-7760,45845,69,-161,-483,1401889962.358180
3,170,0,49054,-336,-102,164,49003,528,-1408,-7680,48425,72,-164,-480,1401889962.375821
3,171,0,51054,-301,-59,135,50880,464,-1328,-7568,51005,73,-167,-481,1401889962.388345
3,172,0,52053,-256,-35,111,52758,368,-1312,-7504,51005,73,-167,-481,1401889962.388580
3,173,0,54053,-111,1,87,54635,256,-1200,-7440,53584,76,-164,-480,1401889962.407112
3,174,0,56053,42,38,24,56514,112,-1072,-7520,56164,75,-168,-481,1401889962.407352
3,175,0,58052,177,81,-51,58391,-32,-1088,-7584,56164,75,-168,-481,1401889962.424961
3,176,0,60052,276,117,-81,60269,-160,-1072,-7616,58744,78,-166,-482,1401889962.437321
3,177,0,62051,330,154,-76,62147,-176,-1120,-7648,61324,75,-162,-482,1401889962.437767
3,178,0,64051,361,192,-43,64024,-144,-1216,-7600,63904,76,-159,-482,1401889962.455653
3,179,0,515,367,205,14,364,-144,-1264,-7568,63904,76,-159,-482,1401889962.468101
3,180,0,1514,368,190,45,2242,-96,-1360,-7520,948,73,-157,-487,1401889962.468360
3,181,0,3514,376,173,108,4118,64,-1376,-7504,3528,71,-152,-483,1401889962.486484
3,182,0,5514,342,143,145,5995,272,-1280,-7504,6108,71,-150,-484,1401889962.492822
3,183,0,7513,305,111,133,7872,304,-1232,-7648,6108,71,-150,-484,1401889962.505400
3,184,0,9513,266,92,101,9750,352,-1216,-7760,8688,70,-149,-485,1401889962.517943
3,185,0,11512,243,86,73,11629,432,-1216,-7920,11269,71,-142,-486,1401889962.518226
3,186,0,13512,230,74,41,13506,384,-1392,-7952,11269,71,-142,-486,1401889962.536007
3,187,0,15512,193,70,14,15384,384,-1472,-7888,13848,67,-142,-485,1401889962.548488
3,188,0,16512,177,66,-2,17263,240,-1632,-7744,16428,66,-142,-487,1401889962.548719
3,189,0,18511,151,59,-32,19141,176,-1680,-7664,19008,68,-138,-484,1401889962.566718
3,190,0,20511,126,62,-65,21019,0,-1808,-7760,19008,68,-138,-484,1401889962.567024
3,191,0,22510,92,60,-93,22896,-304,-1856,-7904,21588,68,-139,-486,1401889962.585251
3,192,0,24510,66,59,-104,24774,-672,-1904,-8064,24168,66,-138,-487,1401889962.597503
3,193,0,26510,24,83,-97,26651,-1024,-1904,-8256,26749,67,-138,-484,1401889962.597773
3,194,0,28509,-27,117,-64,28528,-1424,-1936,-8496,26749,67,-138,-484,1401889962.616169
3,195,0,30509,-90,173,-8,30405,-1712,-2000,-8624,29330,67,-141,-485,1401889962.627839
3,196,0,31509,-109,190,29,32284,-2000,-1952,-8608,31911,66,-136,-487,1401889962.628273
3,197,0,33508,-154,228,116,34161,-2176,-1776,-8368,31911,66,-136,-487,1401889962.646040
3,198,0,35508,-210,266,197,36040,-2112,-1632,-8272,34492,68,-139,-487,1401889962.658447
3,200,0,39507,-214,297,262,39797,-1840,-976,-8272,39651,65,-141,-488,1401889962.676931
3,201,0,41507,-123,272,249,41675,-1504,-656,-8528,39651,65,-141,-488,1401889962.677336
3,202,0,43506,3,218,199,43553,-1152,-432,-9168,42229,61,-141,-488,1401889962.695580
3,203,0,45506,131,167,114,45430,-752,-400,-9968,44809,61,-140,-488,1401889962.707246
3,204,0,46506,204,126,76,47307,-256,-496,-10768,47389,61,-132,-488,1401889962.707522
3,205,0,48505,362,64,13,49185,432,-608,-11456,47389,61,-132,-488,1401889962.724556
3,206,0,50505,447,-11,-33,51064,1008,-1056,-11968,49969,59,-131,-487,1401889962.736466
3,208,0,54504,158,-44,-107,54819,1520,-2352,-11920,52549,57,-127,-486,1401889962.754242
3,209,0,56504,-283,-52,-42,56698,1760,-2432,-11024,55128,58,-131,-484,1401889962.766690
3,210,0,58503,-823,-85,37,58575,1856,-2144,-9984,57708,60,-136,-488,1401889962.767065
3,211,0,60503,-1319,-113,125,60453,1664,-1584,-9104,60288,60,-145,-489,1401889962.785608
3,212,0,61503,-1503,-133,176,62331,1216,-1024,-8448,60288,60,-145,-489,1401889962.798019
3,213,0,63502,-1647,-146,278,64208,864,-336,-8096,62869,65,-159,-486,1401889962.798486
3,214,0,65502,-1447,-152,318,549,320,208,-7376,65448,66,-169,-488,1401889962.816793
3,215,0,1966,-970,-140,291,2426,-16,688,-6784,2492,70,-176,-485,1401889962.817151
3,216,0,3965,-429,-122,155,4305,-176,912,-6432,2492,70,-176,-485,1401889962.834939
3,217,0,5965,47,-112,-31,6182,-320,992,-6384,5072,74,-177,-485,1401889962.847035
3,218,0,7964,438,-99,-214,8061,-288,1056,-6576,7654,74,-177,-487,1401889962.847369
3,219,0,9964,703,-79,-352,9939,-144,976,-6848,7654,74,-177,-487,1401889962.865869
3,220,0,10964,783,-75,-400,11817,-176,688,-6992,10232,76,-172,-489,1401889962.878346
3,221,0,12963,839,-58,-422,13694,-192,544,-7136,12812,75,-168,-491,1401889962.878644
3,222,0,14963,754,-13,-368,15571,-144,496,-7264,15392,72,-162,-488,1401889962.896458
3,223,0,16963,555,46,-244,17448,-32,528,-7392,15392,72,-162,-488,1401889962.902598
3,224,0,18962,347,115,-124,19326,368,672,-7664,17972,73,-162,-489,1401889962.914764
3,225,0,20962,200,144,-34,21204,800,784,-8000,20552,72,-157,-489,1401889962.926670
3,226,0,22961,98,126,4,23081,1152,896,-8272,20552,72,-157,-489,1401889962.927009
3,227,0,24961,67,69,14,24959,1472,896,-8512,23132,70,-155,-488,1401889962.945400
3,228,0,25961,61,40,9,26837,1600,800,-8736,25712,70,-154,-485,1401889962.958047
3,229,0,27960,92,-2,12,28714,1488,768,-8736,28292,69,-153,-486,1401889962.958387
3,230,0,29960,148,-42,33,30592,1168,704,-8784,28292,69,-153,-486,1401889962.976564
3,231,0,31960,232,-73,61,32470,864,544,-8800,30872,69,-151,-490,1401889962.982964
3,232,0,33959,357,-120,118,34346,624,464,-8784,33453,69,-149,-485,1401889962.995200
3,233,0,35959,489,-183,178,36223,304,272,-8672,36034,69,-144,-490,1401889963.7906
3,234,0,37959,573,-240,219,38101,160,-112,-8592,36034,69,-144,-490,1401889963.8324
3,235,0,39958,576,-285,254,39978,32,-464,-8512,38614,70,-142,-485,1401889963.25437
3,236,0,40958,536,-298,256,41856,112,-768,-8368,41195,70,-135,-487,1401889963.37158
3,237,0,42958,400,-290,233,43734,176,-864,-8256,41195,70,-135,-487,1401889963.37611
3,238,0,44957,195,-258,172,45611,272,-896,-8208,43776,72,-134,-485,1401889963.55761
3,239,0,46957,-6,-204,59,47489,528,-800,-8192,46357,72,-132,-483,1401889963.68197
3,240,0,48956,-114,-149,-93,49367,528,-528,-8096,48937,78,-134,-485,1401889963.68480
3,241,0,50956,-149,-97,-280,51244,560,-368,-8064,48937,78,-134,-485,1401889963.85500
3,242,0,52956,-133,-63,-458,53121,608,-112,-7952,51517,78,-136,-486,1401889963.97888
3,243,0,54955,-120,-51,-598,54999,704,-16,-7888,54098,76,-139,-484,1401889963.98231
3,244,0,55955,-106,-56,-649,56877,688,192,-7808,56678,76,-145,-482,1401889963.116662
3,245,0,57955,-73,-86,-675,58286,672,240,-7712,56678,76,-145,-482,1401889963.117011
3,246,0,59954,-57,-144,-643,60164,736,352,-7456,59258,76,-147,-479,1401889963.134105
3,247,0,61954,-38,-200,-550,62041,624,416,-7280,61838,76,-149,-484,1401889963.145814
3,248,0,63953,0,-277,-441,63918,528,560,-7056,61838,76,-149,-484,1401889963.158279
3,249,0,417,42,-315,-323,259,272,672,-7008,64418,79,-148,-479,1401889963.158663
3,250,0,2417,130,-343,-221,2137,144,704,-7056,1461,79,-150,-483,1401889963.177027
3,251,0,4416,224,-353,-147,4015,-128,800,-7248,4041,82,-147,-477,1401889963.177460
3,252,0,5416,271,-350,-117,5893,-272,800,-7504,4041,82,-147,-477,1401889963.196159
3,253,0,7416,363,-333,-72,7769,-496,688,-7712,6621,82,-145,-481,1401889963.208114
3,254,0,9415,439,-281,-52,9646,-464,448,-7872,9201,85,-143,-474,1401889963.208354
3,255,0,11415,445,-222,-62,11523,-416,144,-8064,11781,85,-141,-475,1401889963.225956
3,0,0,13415,380,-166,-105,13400,-320,-192,-8176,11781,85,-141,-475,1401889963.237519
3,1,0,15414,253,-97,-154,15277,-320,-480,-8320,14362,87,-136,-471,1401889963.237675
3,2,0,17414,68,-42,-211,17155,-256,-592,-8480,16941,87,-138,-472,1401889963.255451
3,3,0,19413,-104,15,-238,19033,-336,-800,-8640,16941,87,-138,-472,1401889963.267222
3,4,0,20413,-187,42,-260,20910,-304,-784,-8800,19522,89,-134,-475,1401889963.267525
3,5,0,22413,-324,81,-287,22786,-272,-816,-8848,22101,89,-139,-475,1401889963.285254
3,6,0,24412,-392,96,-301,24663,-208,-864,-8864,24682,90,-145,-474,1401889963.297433
3,8,0,28412,-379,61,-273,28418,-288,-864,-8448,27263,90,-147,-475,1401889963.315366
3,9,0,30411,-334,13,-230,30295,-288,-832,-8224,29843,90,-152,-474,1401889963.326792
3,10,0,32411,-316,-28,-177,32172,-368,-688,-7984,32424,90,-155,-475,1401889963.327028
3,11,0,34410,-299,-65,-159,34051,-304,-368,-7840,32424,90,-155,-475,1401889963.345178
3,12,0,35410,-285,-81,-154,35929,-256,-144,-7888,35004,93,-158,-476,1401889963.357197
3,13,0,37410,-234,-112,-134,37806,-144,-80,-7952,37585,93,-160,-477,1401889963.357526
3,14,0,39409,-175,-136,-125,39683,-80,-176,-7968,37585,93,-160,-477,1401889963.374471
3,15,0,41409,-111,-135,-134,41561,-96,-384,-7952,40165,98,-163,-477,1401889963.386328
3,16,0,43409,-66,-127,-158,43439,-208,-512,-7936,42746,98,-163,-477,1401889963.392848
3,17,0,45408,-23,-99,-189,45317,-256,-656,-8048,45326,98,-165,-476,1401889963.404767
3,18,0,47408,-8,-90,-241,47195,-432,-704,-8192,45326,98,-165,-476,1401889963.417241
3,19,0,49408,34,-85,-297,49071,-432,-752,-8336,47906,98,-165,-477,1401889963.417515
3,20,0,50407,49,-81,-323,50948,-336,-912,-8512,50487,103,-162,-476,1401889963.435753
3,21,0,52407,84,-83,-368,52826,-208,-1136,-8544,53068,103,-165,-477,1401889963.448376
3,22,0,54407,94,-119,-377,54702,-80,-1360,-8464,53068,103,-165,-477,1401889963.448677
3,23,0,56406,57,-151,-354,56580,0,-1440,-8336,55648,105,-165,-476,1401889963.466128
3,24,0,58406,-3,-184,-309,58457,-48,-1440,-8176,58229,105,-170,-475,1401889963.478364
3,25,0,60405,-77,-203,-267,60333,-112,-1280,-8032,58229,105,-170,-475,1401889963.478844
3,26,0,62405,-135,-223,-271,62211,-176,-960,-7984,60810,109,-169,-477,1401889963.496790
3,27,0,64405,-167,-234,-314,64090,-208,-752,-7872,63390,109,-171,-476,1401889963.497144
3,29,0,1868,-143,-233,-443,2309,-288,-336,-7760,435,108,-173,-477,1401889963.526541
3,30,0,3868,-98,-217,-531,4186,-336,-48,-7888,3016,108,-177,-477,1401889963.526775
3,31,0,5867,-93,-204,-606,6064,-384,192,-8272,5596,116,-181,-473,1401889963.544302
3,32,0,7867,-117,-168,-662,7942,-448,592,-9104,8175,116,-180,-474,1401889963.556828
3,33,0,9866,-80,-130,-662,9819,-272,672,-9776,8175,116,-180,-474,1401889963.557142
3,34,0,11866,44,-114,-661,11697,-80,384,-10112,10755,118,-183,-473,1401889963.575276
3,35,0,13866,137,-93,-654,13576,-16,-80,-10032,13335,117,-184,-474,1401889963.587821
3,36,0,14865,117,-93,-631,15453,144,-528,-9936,13335,117,-184,-474,1401889963.588094
3,37,0,16865,14,-61,-507,17330,464,-1056,-9632,15915,118,-186,-470,1401889963.606531
3,38,0,18865,-19,-7,-313,19208,688,-1488,-9280,18494,117,-184,-471,1401889963.612904
3,39,0,20864,22,54,-124,21085,688,-1696,-8880,21074,121,-184,-472,1401889963.625364
3,40,0,22864,90,128,4,22963,624,-1568,-8624,21074,121,-184,-472,1401889963.637364
3,41,0,24864,120,191,42,24840,688,-1264,-8496,23654,120,-184,-474,1401889963.637699
3,42,0,26863,123,255,-3,26718,752,-928,-8624,26234,119,-182,-472,1401889963.655648
3,43,0,28863,115,283,-103,28595,768,-704,-8704,28814,121,-182,-477,1401889963.668001
3,44,0,29863,101,286,-170,30471,752,-480,-8784,28814,121,-182,-477,1401889963.668469
3,45,0,31862,70,258,-274,32349,832,-336,-8736,31395,119,-180,-475,1401889963.686880
3,46,0,33862,9,173,-339,34226,784,-160,-8496,33976,120,-181,-476,1401889963.687342
3,47,0,35861,-61,113,-379,36103,800,32,-8272,33976,120,-181,-476,1401889963.704585
3,49,0,39861,-122,-32,-376,39858,1040,176,-8064,39135,118,-183,-477,1401889963.727800
3,50,0,41860,-135,-65,-352,41736,1216,240,-7856,41716,118,-188,-481,1401889963.728021
3,52,0,44860,-80,-97,-306,45491,1664,192,-7456,44296,118,-188,-478,1401889963.757772
3,53,0,46859,-19,-98,-293,47368,1936,160,-7360,46876,122,-187,-476,1401889963.758223
3,54,0,48859,42,-97,-308,49245,2016,-16,-7120,49458,125,-189,-473,1401889963.776536
3,55,0,50858,104,-77,-342,51122,2128,-176,-6992,49458,125,-189,-473,1401889963.782994
3,56,0,52858,163,-77,-399,53000,2304,-352,-6912,52037,127,-186,-475,1401889963.794997
3,57,0,54858,201,-69,-458,54877,2464,-496,-6912,54617,126,-187,-474,1401889963.806517
3,58,0,56857,206,-80,-506,56753,2576,-608,-6992,54617,126,-187,-474,1401889963.812931
3,59,0,58857,182,-103,-523,58630,2592,-720,-7088,57197,124,-188,-476,1401889963.825254
3,60,0,59857,168,-119,-527,60507,2560,-720,-7248,59778,121,-187,-474,1401889963.836890
3,62,0,63856,88,-190,-479,64262,2320,-656,-7968,62358,125,-186,-476,1401889963.854781
3,63,0,320,31,-227,-462,602,2064,-592,-8320,64939,125,-187,-474,1401889963.866754
3,64,0,2319,-36,-230,-458,2480,1600,-560,-8832,1983,127,-187,-473,1401889963.867123
3,65,0,4319,-114,-206,-460,4357,1312,-592,-9088,4565,130,-193,-472,1401889963.885584
3,66,0,6318,-182,-161,-471,6233,848,-720,-9360,4565,130,-193,-472,1401889963.897386
3,67,0,8318,-247,-99,-472,8110,448,-800,-9280,7145,130,-198,-471,1401889963.897754
3,68,0,9318,-273,-67,-469,9987,224,-816,-9232,9726,132,-200,-467,1401889963.916240
3,69,0,11317,-290,-9,-457,11864,-16,-832,-9120,9726,132,-200,-467,1401889963.928492
3,70,0,13317,-291,34,-428,13741,-112,-848,-8944,12305,127,-201,-471,1401889963.929351
3,71,0,15317,-278,56,-400,15618,-160,-832,-8656,14885,130,-207,-465,1401889963.945508
3,72,0,17316,-291,68,-336,17495,-160,-800,-8352,17465,133,-208,-471,1401889963.956662
3,73,0,19316,-295,67,-283,19373,-64,-672,-8192,17465,133,-208,-471,1401889963.956878
3,74,0,21315,-292,73,-211,21250,32,-592,-7920,20046,131,-216,-467,1401889963.974891
3,75,0,23315,-262,65,-171,23127,176,-448,-7728,22627,127,-214,-467,1401889963.986862
3,76,0,24315,-236,63,-154,25004,304,-288,-7632,25207,131,-216,-467,1401889963.987223
3,77,0,26315,-200,74,-134,26881,528,-272,-7456,25207,131,-216,-467,1401889964.5434
3,78,0,28314,-138,58,-121,28758,688,-304,-7344,27788,130,-219,-468,1401889964.17379
3,79,0,30314,-62,52,-111,30636,800,-240,-7200,30367,130,-215,-468,1401889964.17693
3,80,0,32313,16,19,-92,32513,928,-352,-7184,30367,130,-215,-468,1401889964.35591
3,81,0,34313,90,5,-68,34388,1008,-432,-7136,32948,133,-218,-469,1401889964.48139
3,82,0,36313,156,-28,-49,36266,1072,-512,-7200,35530,131,-216,-468,1401889964.48518
3,83,0,38312,214,-64,-35,38143,1088,-688,-7280,38110,133,-216,-467,1401889964.66725
3,85,0,41312,280,-137,-13,41898,1280,-1152,-7456,40691,134,-211,-468,1401889964.84369
3,86,0,43311,297,-164,-2,43775,1424,-1328,-7520,43271,134,-210,-467,1401889964.96772
3,88,0,47310,281,-210,-37,47531,1648,-1584,-7760,45851,137,-207,-464,1401889964.114917
3,90,0,51310,201,-234,-152,51285,1680,-1680,-8176,51013,140,-206,-460,1401889964.132291
3,91,0,53309,145,-236,-230,53162,1648,-1616,-8368,51013,140,-206,-460,1401889964.144549
3,92,0,54309,112,-231,-267,55039,1536,-1600,-8496,53593,141,-202,-462,1401889964.156227
3,93,0,56309,53,-211,-342,56918,1440,-1552,-8512,56173,145,-203,-463,1401889964.168051
3,94,0,58308,-1,-185,-402,58795,1216,-1424,-8368,58752,147,-203,-461,1401889964.168351
3,95,0,60308,-25,-148,-446,60672,1088,-1296,-8272,58752,147,-203,-461,1401889964.186479
3,96,0,62308,-55,-127,-466,62548,1040,-1136,-8240,61332,143,-211,-462,1401889964.192842
3,97,0,64307,-52,-103,-474,64425,976,-960,-8192,63912,142,-211,-460,1401889964.205101
3,98,0,771,-11,-96,-458,766,944,-832,-8128,956,145,-208,-461,1401889964.217492
3,99,0,2770,42,-74,-436,2643,880,-768,-8128,956,145,-208,-461,1401889964.217875
3,100,0,3770,76,-65,-417,4520,880,-816,-8032,3537,147,-210,-458,1401889964.235407
3,101,0,5770,155,-51,-392,6396,944,-880,-7952,6117,144,-212,-462,1401889964.247889
3,102,0,7769,219,-42,-367,8273,976,-1056,-7856,6117,144,-212,-462,1401889964.248370
3,103,0,9769,246,-43,-370,10150,992,-1120,-7840,8698,144,-209,-461,1401889964.266490
3,104,0,11769,247,-37,-384,12027,1008,-1168,-7872,11278,146,-211,-461,1401889964.272331
3,105,0,13768,222,-27,-434,13904,992,-1152,-8016,13858,144,-210,-461,1401889964.284670
3,106,0,15768,188,-12,-483,15781,944,-1232,-8128,13858,144,-210,-461,1401889964.296624
3,107,0,17767,150,-2,-533,17657,880,-1312,-8192,16439,145,-212,-461,1401889964.302967
3,108,0,18767,136,9,-559,19535,816,-1408,-8192,19018,141,-210,-463,1401889964.315232
3,109,0,20767,100,35,-613,21412,768,-1344,-8192,19018,141,-210,-463,1401889964.327493
3,110,0,22766,66,55,-648,23289,784,-1424,-8128,21598,143,-213,-461,1401889964.327859
3,111,0,24766,38,61,-693,25165,768,-1408,-8144,24180,141,-216,-461,1401889964.345239
3,112,0,26766,13,69,-737,27042,736,-1408,-8048,26760,141,-218,-466,1401889964.357210
3,113,0,28765,31,75,-773,28919,688,-1264,-8128,26760,141,-218,-466,1401889964.357438
3,114,0,30765,62,89,-790,30797,640,-1184,-8128,29341,141,-220,-464,1401889964.375964
3,115,0,32765,92,102,-818,32673,624,-1088,-8176,31921,137,-222,-462,1401889964.388677
3,116,0,33764,116,110,-832,34550,576,-976,-8336,34501,135,-220,-466,1401889964.388984
3,117,0,35764,145,116,-850,36427,480,-880,-8448,34501,135,-220,-466,1401889964.406343
3,118,0,37764,153,131,-879,38303,512,-816,-8624,37082,131,-225,-463,1401889964.412752
3,119,0,39763,159,153,-899,40180,512,-768,-8752,39662,131,-227,-465,1401889964.424734
3,120,0,41763,162,170,-928,42057,528,-576,-8944,39662,131,-227,-465,1401889964.436264
3,121,0,43762,150,161,-944,43934,528,-464,-9184,42243,128,-227,-468,1401889964.442513
3,122,0,45762,122,149,-962,45811,656,-288,-9344,44823,124,-231,-467,1401889964.455056
3,123,0,47762,85,129,-960,47687,800,-128,-9392,47404,124,-230,-470,1401889964.467445
3,124,0,48761,65,115,-965,49564,960,-128,-9264,47404,124,-230,-470,1401889964.467712
3,125,0,50761,0,77,-944,51442,1152,-272,-9024,49984,122,-235,-470,1401889964.485070
3,126,0,52761,-78,36,-913,53319,1232,-368,-8688,52565,120,-235,-473,1401889964.497408
3,127,0,54760,-190,-8,-877,55196,1312,-368,-8416,55145,115,-243,-471,1401889964.497638
3,128,0,56760,-309,-48,-843,57073,1344,-336,-8208,55145,115,-243,-471,1401889964.515325
3,129,0,58759,-406,-92,-829,58950,1248,-160,-8128,57726,116,-247,-463,1401889964.528032
3,130,0,60759,-465,-107,-827,60827,1136,-64,-7968,60306,116,-255,-466,1401889964.528289
3,131,0,62759,-430,-119,-845,62705,1088,64,-7872,60306,116,-255,-466,1401889964.545903
3,132,0,63759,-377,-108,-845,64583,944,32,-7648,62886,114,-4,-465,1401889964.558283
3,133,0,222,-238,-85,-850,924,896,-64,-7472,65465,117,-264,-467,1401889964.558677
3,134,0,2222,-62,-76,-868,2802,816,-32,-7456,2509,113,-268,-464,1401889964.577006
3,135,0,4221,106,-62,-908,4679,704,-16,-7504,2509,113,-268,-464,1401889964.577351
3,136,0,6221,236,-52,-992,6557,576,-48,-7648,5090,113,-267,-465,1401889964.595831
3,137,0,8221,332,-53,-1073,8434,512,-96,-7776,7670,110,-273,-466,1401889964.608356
3,138,0,10220,365,-49,-1151,10311,560,-176,-7808,10251,109,-272,-465,1401889964.608665
3,139,0,12220,335,-54,-1194,12189,560,-192,-7904,10251,109,-272,-465,1401889964.627165
3,140,0,13220,293,-62,-1205,14067,624,-192,-7920,12830,107,-274,-467,1401889964.627432
3,141,0,15219,170,-58,-1200,15945,752,48,-8016,15412,103,-275,-469,1401889964.645774
3,142,0,17219,33,-73,-1170,17822,848,272,-8000,15412,103,-275,-469,1401889964.658334
3,143,0,19218,-75,-79,-1145,19699,976,640,-7984,17991,99,-277,-469,1401889964.658759
3,144,0,21218,-119,-88,-1141,21575,1024,848,-8032,20571,99,-282,-464,1401889964.677247
3,145,0,23218,-134,-100,-1180,23453,1056,1120,-8112,23152,94,-288,-466,1401889964.677701
3,146,0,25217,-108,-108,-1230,25331,976,1328,-8336,23152,94,-288,-466,1401889964.695729
3,147,0,27217,-55,-127,-1291,27208,800,1344,-8640,25731,92,-289,-468,1401889964.708159
3,148,0,28217,-33,-136,-1316,29085,640,1280,-9056,28310,88,-291,-465,1401889964.708430
3,149,0,30216,32,-151,-1336,30963,544,992,-9264,30891,88,-295,-465,1401889964.726092
3,150,0,32216,73,-162,-1343,32839,368,848,-9312,30891,88,-295,-465,1401889964.738143
3,151,0,34216,59,-183,-1307,34717,160,720,-9248,33471,84,-297,-464,1401889964.738374
3,152,0,36215,-35,-197,-1267,36594,128,736,-9152,36051,80,-300,-463,1401889964.756235
3,153,0,38215,-165,-220,-1229,38472,64,896,-9056,36051,80,-300,-463,1401889964.768714
3,154,0,40214,-263,-239,-1209,40349,32,992,-8960,38632,78,-306,-462,1401889964.769095
3,155,0,42214,-269,-251,-1237,42227,-48,1008,-8752,41213,75,-312,-464,1401889964.786711
3,156,0,43214,-233,-256,-1269,44104,0,912,-8544,43794,72,-317,-460,1401889964.786925
3,157,0,45213,-119,-242,-1356,45981,-32,736,-8352,43794,72,-317,-460,1401889964.805328
3,158,0,47213,3,-235,-1444,47858,64,576,-8224,46374,72,-323,-456,1401889964.817759
3,159,0,49213,87,-208,-1518,49736,112,320,-8160,48954,71,-323,-458,1401889964.818103
3,160,0,51212,114,-197,-1575,51613,128,256,-8112,51534,67,-328,-458,1401889964.836229
3,161,0,53212,106,-182,-1623,53491,176,112,-8048,51534,67,-328,-458,1401889964.842879
3,162,0,55211,64,-189,-1661,55369,192,64,-8112,54113,60,-329,-457,1401889964.854703
3,163,0,57211,18,-180,-1672,57245,192,96,-8080,56695,64,-334,-456,1401889964.867228
3,164,0,58211,0,-174,-1670,59122,128,160,-8096,56695,64,-334,-456,1401889964.867613
3,165,0,60211,-28,-197,-1664,60999,112,192,-8112,59275,57,-335,-456,1401889964.886121
3,166,0,62210,-43,-199,-1656,62877,48,336,-8144,61854,51,-340,-456,1401889964.898866
3,167,0,64210,-59,-216,-1645,64754,16,464,-8160,64435,48,-342,-449,1401889964.899294
3,168,0,673,-68,-245,-1651,1096,-16,592,-8176,64435,48,-342,-449,1401889964.917868
3,169,0,2673,-77,-266,-1652,2974,-16,720,-8192,1479,42,-347,-452,1401889964.918273
3,170,0,4673,-86,-276,-1649,4852,0,800,-8192,4059,38,-351,-453,1401889964.936611
3,172,0,7672,-73,-298,-1634,8606,0,960,-8208,6638,36,-353,-452,1401889964.954996
3,173,0,9672,-60,-297,-1640,10484,-16,1040,-8368,9217,31,-354,-450,1401889964.966984
3,174,0,11671,-50,-303,-1649,12361,-96,1088,-8464,11797,26,-360,-451,1401889964.967344
3,175,0,13671,-35,-302,-1670,14238,-96,992,-8544,11797,26,-360,-451,1401889964.985216
3,176,0,15670,-21,-309,-1707,16115,-112,912,-8656,14376,20,-362,-446,1401889964.997548
3,177,0,17670,-9,-310,-1730,17993,-112,800,-8640,16957,19,-365,-447,1401889964.997894
3,178,0,19670,-10,-294,-1751,19871,-96,736,-8656,19537,14,-366,-446,1401889965.15913
3,179,0,21669,-17,-305,-1748,21748,-160,544,-8576,19537,14,-366,-446,1401889965.28325
3,180,0,22669,-27,-303,-1745,23626,-144,464,-8512,22117,10,-368,-445,1401889965.28730
3,181,0,24669,-46,-304,-1732,25504,-176,496,-8416,24697,6,-373,-443,1401889965.46116
3,182,0,26668,-90,-296,-1723,27381,-144,464,-8272,27277,2,-371,-440,1401889965.58759
3,183,0,28668,-126,-297,-1708,28790,-112,560,-8256,27277,2,-371,-440,1401889965.59050
3,184,0,30668,-172,-307,-1706,30667,-144,720,-8208,29856,-2,-376,-439,1401889965.76243
3,185,0,32667,-206,-310,-1702,32544,-208,816,-8224,32436,-7,-380,-441,1401889965.82535
3,186,0,34667,-220,-324,-1708,34421,-240,1008,-8224,32436,-7,-380,-441,1401889965.95027
3,187,0,36666,-213,-329,-1717,36298,-256,1056,-8192,35016,-13,-381,-437,1401889965.107020
3,188,0,37666,-206,-337,-1715,38175,-192,1200,-8224,37596,-17,-385,-437,1401889965.107427
3,189,0,39666,-189,-334,-1718,40052,-224,1200,-8240,40175,-22,-388,-434,1401889965.125648
3,190,0,41665,-176,-338,-1710,41929,-224,1104,-8272,40175,-22,-388,-434,1401889965.137744
3,191,0,43665,-154,-333,-1683,43806,-272,1088,-8352,42756,-27,-392,-433,1401889965.138021
3,192,0,45665,-133,-328,-1657,45683,-288,1056,-8384,45337,-32,-393,-430,1401889965.156372
3,193,0,47664,-122,-324,-1621,47561,-336,912,-8336,47916,-35,-394,-429,1401889965.162902
3,194,0,49664,-124,-314,-1589,49438,-352,848,-8336,47916,-35,-394,-429,1401889965.175080
3,195,0,51663,-121,-306,-1557,51315,-416,720,-8384,50497,-39,-397,-430,1401889965.186851
3,196,0,52663,-122,-297,-1557,53192,-480,688,-8368,53076,-48,-395,-427,1401889965.187169
3,197,0,54663,-136,-274,-1538,55069,-464,688,-8384,53076,-48,-395,-427,1401889965.205058
3,198,0,56662,-173,-265,-1533,56947,-496,608,-8448,55655,-51,-399,-427,1401889965.217574
3,199,0,58662,-229,-253,-1529,58825,-448,624,-8560,58234,-57,-399,-425,1401889965.217817
3,200,0,60662,-268,-262,-1531,60702,-384,592,-8544,60813,-58,-403,-426,1401889965.235019
3,201,0,62661,-284,-272,-1526,62579,-256,656,-8448,60813,-58,-403,-426,1401889965.246684
3,202,0,64661,-295,-290,-1532,64456,-112,720,-8368,63391,-66,-405,-423,1401889965.246993
3,203,0,1125,-301,-327,-1523,798,16,800,-8304,435,-70,-406,-419,1401889965.265646
3,204,0,2124,-294,-345,-1513,2675,32,832,-8224,3015,-73,-409,-421,1401889965.277624
3,205,0,4124,-247,-394,-1496,4553,112,656,-8240,3015,-73,-409,-421,1401889965.277939
3,206,0,6124,-163,-448,-1457,6430,112,592,-8256,5595,-77,-414,-417,1401889965.295805
3,207,0,8123,-57,-486,-1407,8307,160,512,-8176,8175,-82,-410,-419,1401889965.308194
3,208,0,10123,38,-534,-1351,10185,288,304,-8096,8175,-82,-410,-419,1401889965.308485
3,209,0,12122,122,-561,-1293,12063,400,208,-7872,10754,-84,-407,-420,1401889965.326913
3,210,0,14122,165,-586,-1240,13939,512,-16,-7664,13334,-83,-409,-419,1401889965.327224
3,211,0,16122,195,-589,-1209,15817,688,-192,-7616,15914,-89,-406,-421,1401889965.344245
3,212,0,17121,190,-595,-1204,17694,768,-400,-7456,15914,-89,-406,-421,1401889965.356854
3,213,0,19121,175,-589,-1193,19571,960,-496,-7440,18494,-87,-403,-420,1401889965.357310
3,214,0,21121,134,-586,-1194,21447,992,-640,-7456,21074,-90,-405,-426,1401889965.375844
3,215,0,23120,96,-580,-1201,23324,1088,-688,-7424,23654,-93,-404,-425,1401889965.388215
3,216,0,25120,82,-579,-1231,25202,1072,-688,-7664,23654,-93,-404,-425,1401889965.388598
3,217,0,27120,75,-584,-1262,27079,1168,-640,-7840,26235,-95,-406,-424,1401889965.406951
3,218,0,29119,67,-576,-1296,28955,1168,-624,-8128,28815,-94,-403,-425,1401889965.407225
3,219,0,31119,66,-569,-1321,30831,1104,-592,-8336,28815,-94,-403,-425,1401889965.425840
3,220,0,32119,56,-559,-1329,32708,992,-736,-8576,31395,-100,-404,-425,1401889965.438087
3,221,0,34118,38,-540,-1315,34584,816,-880,-8800,33975,-98,-399,-423,1401889965.438414
3,222,0,36118,-8,-519,-1285,36461,736,-1040,-8848,36555,-102,-401,-425,1401889965.456934
3,223,0,38117,-63,-478,-1239,38338,608,-976,-8880,36555,-102,-401,-425,1401889965.457166
3,224,0,40117,-125,-459,-1194,40215,560,-992,-8928,39136,-104,-402,-424,1401889965.474643
3,225,0,42117,-162,-426,-1163,42093,528,-912,-8832,41715,-111,-397,-425,1401889965.487186
3,226,0,44116,-152,-401,-1142,43970,560,-832,-8768,44295,-108,-400,-426,1401889965.487419
3,227,0,46116,-116,-388,-1158,45848,560,-832,-8656,44295,-108,-400,-426,1401889965.505476
3,228,0,47116,-84,-374,-1162,47726,592,-768,-8512,46875,-112,-406,-424,1401889965.517524
3,229,0,49115,-3,-364,-1184,49604,592,-784,-8368,49454,-113,-399,-424,1401889965.517730
3,230,0,51115,77,-342,-1201,51482,592,-848,-8208,49454,-113,-399,-424,1401889965.535173
3,231,0,53114,124,-329,-1197,53359,544,-880,-8048,52033,-117,-402,-424,1401889965.546765
3,232,0,55114,142,-321,-1191,55238,624,-784,-7936,54613,-121,-397,-426,1401889965.547045
3,233,0,57114,145,-317,-1191,57115,672,-720,-7824,57193,-123,-397,-428,1401889965.565448
3,234,0,59113,124,-324,-1200,58993,672,-656,-7760,57193,-123,-397,-428,1401889965.577275
3,235,0,61113,108,-326,-1208,60870,592,-624,-7872,59774,-127,-398,-429,1401889965.577600
3,236,0,62113,103,-330,-1213,62747,656,-720,-7904,62354,-127,-393,-429,1401889965.595861
3,237,0,64112,91,-320,-1214,64624,608,-768,-7936,64933,-132,-392,-429,1401889965.608432
3,238,0,576,83,-303,-1211,966,624,-784,-7952,64933,-132,-392,-429,1401889965.608671
3,239,0,2576,77,-287,-1218,2842,704,-848,-8096,1976,-133,-390,-428,1401889965.627232
3,240,0,4575,74,-259,-1215,4719,640,-864,-8128,4556,-136,-390,-436,1401889965.627597
3,241,0,6575,73,-240,-1201,6596,640,-848,-8176,4556,-136,-390,-436,1401889965.645075
3,242,0,8574,61,-216,-1191,8473,704,-896,-8176,7138,-141,-386,-431,1401889965.657230
3,243,0,10574,58,-197,-1171,10350,736,-816,-8192,9718,-142,-383,-434,1401889965.657681
3,244,0,11574,55,-186,-1152,12227,736,-848,-8224,12298,-148,-383,-434,1401889965.675632
3,245,0,13573,58,-167,-1111,14105,608,-848,-8192,12298,-148,-383,-434,1401889965.687872
3,246,0,15573,74,-142,-1062,15982,576,-864,-8224,14878,-149,-388,-433,1401889965.688212
3,247,0,17573,98,-112,-1003,17859,496,-896,-8224,17458,-155,-378,-433,1401889965.706085
3,248,0,19572,118,-92,-957,19737,384,-944,-8208,20038,-155,-379,-432,1401889965.718585
3,249,0,21572,123,-80,-919,21613,288,-928,-8224,20038,-155,-379,-432,1401889965.718972
3,250,0,23572,108,-71,-891,23491,240,-848,-8208,22618,-159,-376,-430,1401889965.737329
3,251,0,25571,96,-61,-867,25369,240,-752,-8192,25199,-160,-372,-438,1401889965.737767
3,252,0,26571,88,-52,-851,27247,208,-896,-8112,25199,-160,-372,-438,1401889965.755231
3,253,0,28571,58,-63,-826,29124,288,-912,-8032,27779,-163,-373,-435,1401889965.767851
3,254,0,30570,47,-70,-798,31001,368,-912,-7936,30358,-164,-373,-436,1401889965.768275
3,255,0,32570,40,-70,-766,32879,480,-944,-7808,32938,-170,-369,-437,1401889965.785921
3,0,0,34569,50,-84,-731,34756,560,-1008,-7792,32938,-170,-369,-437,1401889965.798255
3,1,0,36569,72,-99,-711,36633,656,-992,-7744,35517,-169,-373,-439,1401889965.798708
3,2,0,38569,103,-100,-698,38510,688,-1120,-7760,38097,-172,-365,-441,1401889965.816974
3,3,0,40568,141,-94,-695,40388,736,-1184,-7792,38097,-172,-365,-441,1401889965.817390
3,4,0,41568,149,-97,-697,42265,768,-1328,-7792,40676,-174,-366,-437,1401889965.835269
3,5,0,43568,158,-91,-709,44142,768,-1456,-7872,43257,-175,-362,-433,1401889965.847178
3,6,0,45567,160,-90,-716,46020,752,-1552,-7936,45837,-173,-360,-440,1401889965.847434
3,7,0,47567,153,-90,-715,47897,816,-1600,-8016,45837,-173,-360,-440,1401889965.866104
3,8,0,49567,126,-97,-728,49775,848,-1632,-8080,48416,-179,-357,-438,1401889965.877923
3,9,0,51566,68,-99,-722,51653,880,-1664,-8112,50997,-179,-357,-441,1401889965.878178
3,10,0,53566,16,-100,-704,53531,752,-1680,-8128,53577,-183,-353,-440,1401889965.895976
3,11,0,55565,-27,-87,-697,55408,608,-1568,-8160,53577,-183,-353,-440,1401889965.907824
3,12,0,56565,-48,-83,-691,57286,608,-1456,-8112,56157,-183,-354,-444,1401889965.908308
3,13,0,58565,-66,-86,-676,59163,464,-1408,-8080,58737,-185,-349,-439,1401889965.926765
3,14,0,60564,-70,-62,-663,61040,288,-1328,-8080,58737,-185,-349,-439,1401889965.927049
3,15,0,62564,-61,-53,-653,62917,224,-1216,-8144,61317,-185,-351,-440,1401889965.944712
3,16,0,64564,-54,-31,-626,64794,160,-1264,-8048,63897,-188,-350,-440,1401889965.956454
3,17,0,1027,-32,-7,-595,1136,208,-1264,-7904,941,-188,-351,-440,1401889965.956728
3,18,0,3027,-2,3,-542,3012,128,-1328,-7760,941,-188,-351,-440,1401889965.974997
3,19,0,5026,34,31,-513,4889,144,-1280,-7696,3521,-189,-347,-440,1401889965.987355
3,20,0,6026,50,44,-494,6765,112,-1360,-7648,6102,-189,-347,-439,1401889965.987809
3,21,0,8026,87,66,-465,8642,112,-1488,-7696,8683,-192,-344,-439,1401889966.712
3,22,0,10025,109,82,-437,10519,64,-1648,-7712,8683,-192,-344,-439,1401889966.13015
3,23,0,12025,100,109,-404,12395,32,-1744,-7664,11264,-192,-341,-437,1401889966.25063
3,24,0,14025,95,127,-376,14272,-48,-1872,-7680,13845,-201,-339,-442,1401889966.37560
3,25,0,16024,78,141,-341,16148,-96,-1872,-7696,13845,-201,-339,-442,1401889966.37793
3,26,0,18024,87,163,-331,18025,-96,-1904,-7760,16424,-201,-336,-438,1401889966.55051
3,27,0,20024,67,176,-338,19902,-112,-1776,-8032,19005,-201,-336,-437,1401889966.67605
3,28,0,21023,61,174,-355,21779,-144,-1632,-8352,21584,-201,-334,-438,1401889966.67973
3,29,0,23023,42,188,-404,23656,-16,-1520,-8752,21584,-201,-334,-438,1401889966.86175
3,30,0,25023,18,186,-467,25532,160,-1344,-9184,24164,-204,-332,-437,1401889966.98485
3,31,0,27022,-7,185,-521,27409,400,-1344,-9568,26744,-204,-332,-435,1401889966.98938
3,32,0,29022,-51,188,-560,29286,544,-1392,-9792,29324,-208,-331,-433,1401889966.116901
3,33,0,31021,-117,156,-576,31163,816,-1408,-9968,29324,-208,-331,-433,1401889966.117314
3,34,0,33021,-204,121,-549,33040,944,-1472,-10048,31904,-208,-330,-430,1401889966.135187
3,35,0,35021,-278,86,-464,34916,992,-1552,-9952,34484,-215,-325,-430,1401889966.147111
3,36,0,36020,-317,71,-407,36794,1008,-1648,-9584,34484,-215,-325,-430,1401889966.147451
3,37,0,38020,-373,52,-270,38670,1040,-1536,-9040,37064,-215,-331,-429,1401889966.165851
3,38,0,40020,-414,16,-127,40547,1040,-1312,-8400,39644,-213,-330,-429,1401889966.178322
3,39,0,42019,-430,-8,-52,42425,912,-1200,-8032,42224,-213,-337,-427,1401889966.178671
3,40,0,44019,-405,-17,-30,44302,736,-960,-7744,42224,-213,-337,-427,1401889966.196775
3,41,0,46019,-360,-21,-79,46179,368,-928,-7664,44805,-211,-337,-425,1401889966.197078
3,42,0,48018,-276,-8,-148,48057,16,-912,-7824,47386,-211,-340,-426,1401889966.215475
3,43,0,50018,-171,20,-226,49934,-192,-880,-8048,49966,-209,-339,-424,1401889966.227836
3,44,0,51018,-109,28,-275,51811,-272,-1024,-8208,49966,-209,-339,-424,1401889966.228304
3,45,0,53017,8,61,-355,53687,-240,-1264,-8256,52547,-209,-339,-426,1401889966.245890
3,46,0,55017,81,116,-397,55564,-112,-1216,-8304,55128,-216,-336,-425,1401889966.257398
3,47,0,57016,106,143,-409,57440,0,-896,-8304,55128,-216,-336,-425,1401889966.257698
3,48,0,59016,107,155,-420,59317,176,-704,-8240,57709,-216,-334,-423,1401889966.276217
3,49,0,61016,78,145,-412,61194,400,-368,-8160,60288,-219,-333,-424,1401889966.288551
3,50,0,63015,50,138,-396,63071,592,-128,-7968,62868,-219,-331,-423,1401889966.288763
3,51,0,65015,38,119,-360,64949,880,192,-7712,62868,-219,-331,-423,1401889966.307002
3,52,0,479,36,100,-343,1289,1008,448,-7488,65449,-222,-326,-425,1401889966.307255
3,53,0,2478,56,69,-335,3166,1056,544,-7296,2494,-222,-326,-424,1401889966.325226
3,54,0,4478,90,37,-328,5043,1200,720,-7216,5075,-226,-324,-423,1401889966.337584
3,55,0,6478,126,9,-333,6920,1152,704,-7264,5075,-226,-324,-423,1401889966.337979
3,56,0,8477,165,-13,-323,8796,1056,816,-7296,7655,-226,-321,-426,1401889966.355169
3,57,0,10477,195,-35,-313,10673,1008,832,-7344,10235,-225,-320,-426,1401889966.367639
3,58,0,12476,213,-58,-282,12549,896,704,-7536,10235,-225,-320,-426,1401889966.367948
3,59,0,14476,214,-69,-259,14425,704,672,-7664,12816,-225,-318,-425,1401889966.385973
3,60,0,15476,214,-88,-246,16301,640,528,-7904,15395,-228,-313,-429,1401889966.397561
3,61,0,17475,204,-99,-236,18179,448,480,-8144,17975,-228,-312,-426,1401889966.397940
3,62,0,19475,210,-120,-202,20055,304,432,-8416,17975,-228,-312,-426,1401889966.416569
3,63,0,21475,206,-134,-176,21933,144,384,-8752,20555,-231,-315,-433,1401889966.423014
3,64,0,23474,198,-163,-149,23811,48,416,-9008,23135,-231,-309,-431,1401889966.435252
3,65,0,25474,193,-180,-122,25688,-48,432,-9152,25714,-229,-306,-433,1401889966.446615
3,66,0,27473,203,-186,-113,27565,-176,560,-9088,25714,-229,-306,-433,1401889966.446848
3,67,0,29473,261,-182,-112,29442,-144,752,-8960,28294,-229,-306,-432,1401889966.463961
3,68,0,30473,294,-183,-111,31319,-240,784,-8880,30875,-227,-306,-434,1401889966.476475
3,69,0,32473,314,-171,-127,33197,-192,864,-8768,30875,-227,-306,-434,1401889966.482842
3,70,0,34472,270,-146,-136,35074,-224,896,-8624,33454,-227,-302,-435,1401889966.495540
3,71,0,36472,207,-110,-141,36952,-80,784,-8432,36035,-225,-302,-436,1401889966.507918
3,72,0,38471,131,-56,-161,38829,160,672,-8208,38615,-225,-301,-436,1401889966.508145
