nodeID,seqNumber,status,gyroTick,gyroX,gyroY,gyroZ,accelTick,accelX,accelY,accelZ,magTick,magX,magY,magZ,currentTime
3,72,0,35168,-100,50,-26,34968,672,-944,-7808,34676,-22,-189,-436,1401890077.749334
3,73,0,37168,54,93,-30,36845,624,-1168,-7856,34676,-22,-189,-436,1401890077.749348
3,74,0,38168,118,119,-24,38723,624,-1504,-7952,37258,-23,-189,-438,1401890077.749350
3,75,0,40168,207,160,-22,40601,464,-1584,-8048,39838,-24,-189,-437,1401890077.749352
3,76,0,42167,231,181,-32,42478,96,-1616,-8144,42418,-22,-190,-438,1401890077.749354
3,77,0,44167,191,153,-52,44355,-208,-1408,-8160,42418,-22,-190,-438,1401890077.749356
3,78,0,46167,93,108,-68,46233,-608,-1088,-8224,44998,-23,-189,-438,1401890077.749357
3,79,0,48166,-20,45,-58,48112,-944,-800,-8400,47578,-26,-189,-436,1401890077.749359
3,80,0,50166,-105,-11,-25,49990,-1088,-464,-8496,50158,-23,-193,-435,1401890077.749361
3,81,0,52166,-118,-48,18,51868,-1120,-240,-8464,50158,-23,-193,-435,1401890077.749363
3,82,0,53166,-99,-69,33,53746,-816,-144,-8384,52739,-27,-192,-434,1401890077.749364
3,83,0,55165,-59,-90,42,55624,-432,-48,-8240,55318,-24,-191,-432,1401890077.749366
3,84,0,57165,-55,-92,29,57502,16,-112,-8112,55318,-24,-191,-432,1401890077.749368
3,85,0,59165,-70,-73,-16,59380,432,-96,-8064,57898,-24,-193,-431,1401890077.749369
3,86,0,61164,-71,-29,-64,61258,656,-208,-8064,60478,-26,-193,-435,1401890077.749371
3,87,0,63164,-27,37,-86,63137,832,-416,-8144,63059,-23,-192,-433,1401890077.749373
3,88,0,65164,70,112,-91,65015,704,-608,-8160,63059,-23,-192,-433,1401890077.749375
3,89,0,1628,172,169,-73,1357,592,-800,-8160,104,-24,-194,-429,1401890077.749376
3,90,0,2627,208,195,-53,3235,352,-1072,-8144,2684,-28,-192,-430,1401890077.749378
3,91,0,4627,228,210,-33,5113,96,-1120,-8160,5263,-31,-188,-435,1401890077.749380
3,92,0,6627,146,204,-10,6991,-144,-992,-8240,5263,-31,-188,-435,1401890077.749382
3,93,0,8626,35,170,-9,8869,-512,-880,-8272,7843,-30,-188,-433,1401890077.749383
3,94,0,10626,-56,129,-25,10746,-720,-656,-8448,10423,-30,-185,-433,1401890077.749385
3,95,0,12626,-94,91,-56,12623,-928,-560,-8480,10423,-30,-185,-433,1401890077.749387
3,96,0,14626,-60,69,-82,14500,-1056,-576,-8448,13004,-32,-188,-439,1401890077.749389
3,97,0,16625,-17,54,-116,16379,-1120,-608,-8384,15584,-28,-189,-439,1401890077.749390
3,98,0,17625,7,47,-137,18256,-1120,-720,-8240,18164,-26,-189,-439,1401890077.749392
3,99,0,19625,22,27,-164,20133,-944,-784,-8128,18164,-26,-189,-439,1401890077.749394
3,100,0,21624,22,1,-183,22011,-816,-832,-7712,20744,-23,-188,-443,1401890077.749395
3,101,0,23624,40,-36,-159,23889,-688,-848,-7520,23324,-26,-189,-441,1401890077.749397
3,102,0,25624,77,-62,-152,25766,-464,-896,-7440,25903,-23,-190,-442,1401890077.749399
3,103,0,27624,139,-88,-117,27643,-256,-944,-7520,25903,-23,-190,-442,1401890077.749401
3,104,0,29623,172,-82,-65,29521,-144,-752,-7648,28483,-22,-192,-444,1401890077.749402
3,105,0,31623,165,-57,-26,31399,-32,-656,-7776,31065,-24,-192,-443,1401890077.749404
3,106,0,32623,156,-48,-12,33276,-80,-624,-7968,31065,-24,-192,-443,1401890077.749406
3,107,0,34623,172,-30,0,35155,-80,-624,-8160,33645,-24,-192,-443,1401890077.749408
3,108,0,36622,201,-26,12,37033,-48,-688,-8240,36225,-26,-189,-445,1401890077.749409
3,109,0,38622,176,-20,7,38911,-64,-768,-8368,38805,-24,-189,-443,1401890077.749411
3,110,0,40622,108,-12,-6,40790,32,-656,-8368,38805,-24,-189,-443,1401890077.749413
3,111,0,42621,30,-6,-6,42668,16,-624,-8240,41385,-26,-189,-440,1401890077.749414
3,112,0,44621,-17,29,3,44545,96,-544,-8208,43966,-28,-189,-436,1401890077.749416
3,113,0,46621,-30,60,8,46423,176,-400,-8192,46547,-28,-184,-439,1401890077.749418
3,114,0,47621,-47,79,10,48301,176,-304,-8256,46547,-28,-184,-439,1401890077.749419
3,115,0,49620,-64,88,-12,50179,288,-256,-8272,49127,-31,-187,-436,1401890077.749421
3,116,0,51620,-76,87,-45,52058,240,-192,-8224,51707,-29,-187,-437,1401890077.749423
3,117,0,53620,-51,109,-81,53932,160,-304,-8176,51707,-29,-187,-437,1401890077.749424
3,118,0,55619,-8,127,-79,55810,32,-368,-8192,54287,-34,-185,-440,1401890077.749426
3,119,0,57619,40,159,-39,57687,-128,-416,-8208,56868,-33,-184,-435,1401890077.749428
3,120,0,59619,87,158,24,59565,-336,-336,-8192,59448,-31,-184,-438,1401890077.749468
3,121,0,61618,100,120,60,61443,-528,-208,-8192,59448,-31,-184,-438,1401890077.749470
3,122,0,62618,86,101,55,63321,-640,-192,-8192,62029,-32,-180,-444,1401890077.749472
3,123,0,64618,28,45,19,65200,-704,-160,-8208,64609,-34,-184,-443,1401890077.749474
3,124,0,1082,-28,-12,-28,1542,-784,-256,-8160,1654,-31,-184,-445,1401890077.749475
3,125,0,3081,-87,-34,-80,3420,-752,-256,-8240,1654,-31,-184,-445,1401890077.749477
3,126,0,5081,-89,-31,-117,5299,-832,-320,-8240,4234,-30,-181,-448,1401890077.749479
3,127,0,7081,-48,-14,-125,7176,-912,-512,-8256,6814,-29,-183,-448,1401890077.749480
3,128,0,9081,-21,-25,-112,9054,-896,-592,-8192,6814,-29,-183,-448,1401890077.749482
3,129,0,11080,-4,-33,-90,10932,-752,-720,-8176,9393,-27,-186,-447,1401890077.749484
3,130,0,12080,3,-47,-83,12811,-624,-784,-8144,11974,-24,-184,-448,1401890077.749485
3,131,0,14080,17,-45,-50,14688,-496,-736,-8016,14554,-24,-184,-447,1401890077.749487
3,132,0,16079,49,-40,-14,16567,-352,-672,-7920,14554,-24,-184,-447,1401890077.749489
3,133,0,18079,64,-50,25,18445,-240,-672,-7888,17135,-25,-186,-448,1401890077.749491
3,134,0,20079,77,-58,52,20324,-160,-720,-7808,19715,-25,-187,-449,1401890077.749492
3,135,0,22079,85,-68,66,22202,-32,-624,-7696,22294,-30,-187,-447,1401890077.749494
3,136,0,24078,79,-59,65,24080,144,-688,-7664,22294,-30,-187,-447,1401890077.749496
3,137,0,26078,72,-40,66,25958,112,-608,-7696,24874,-26,-187,-446,1401890077.749497
3,138,0,27078,82,-26,60,27832,176,-592,-7760,27454,-28,-187,-446,1401890077.749499
3,139,0,29077,94,-5,42,29706,112,-608,-7920,27454,-28,-187,-446,1401890077.749500
3,140,0,31077,145,7,24,31584,-48,-688,-8096,30034,-30,-182,-443,1401890077.749502
3,141,0,33077,197,26,3,33458,-80,-576,-8224,32615,-31,-182,-443,1401890077.749504
3,142,0,35077,214,35,-21,35335,-160,-560,-8320,35195,-32,-179,-442,1401890077.749506
3,143,0,37076,179,51,-36,37212,-240,-464,-8448,35195,-32,-179,-442,1401890077.749507
3,144,0,39076,150,54,-53,39090,-320,-352,-8512,37775,-31,-177,-444,1401890077.749509
3,145,0,41076,112,46,-55,40968,-240,-304,-8448,40354,-34,-177,-443,1401890077.749511
3,146,0,42076,101,46,-49,42846,-208,-256,-8192,42934,-29,-175,-444,1401890077.749512
3,147,0,44075,87,25,-34,44724,-224,-176,-8048,42934,-29,-175,-444,1401890077.749514
3,148,0,46075,58,22,-4,46603,-240,-80,-7824,45513,-36,-176,-444,1401890077.749520
3,149,0,48075,21,3,22,48481,-272,-32,-7696,48093,-33,-174,-444,1401890077.749522
3,150,0,50074,2,1,30,50359,-432,64,-7696,48093,-33,-174,-444,1401890077.749524
3,151,0,52074,7,-9,19,52237,-544,80,-7888,50674,-31,-170,-445,1401890077.749526
3,152,0,54074,42,-15,-12,54114,-672,48,-8144,53256,-33,-171,-443,1401890077.749527
3,153,0,56073,81,-39,-49,55992,-800,-80,-8240,55837,-33,-171,-447,1401890077.749529
3,154,0,57073,98,-40,-82,57871,-816,-224,-8288,55837,-33,-171,-447,1401890077.749531
3,155,0,59073,102,-57,-112,59749,-816,-352,-8432,58419,-30,-171,-446,1401890077.749532
3,156,0,61073,82,-46,-104,61627,-704,-464,-8464,60999,-31,-172,-446,1401890077.749534
3,157,0,63072,44,-35,-88,63504,-576,-448,-8448,63580,-31,-170,-445,1401890077.749536
3,158,0,65072,-6,-25,-59,65382,-512,-400,-8432,63580,-31,-170,-445,1401890077.749537
3,159,0,1536,-50,-10,-26,1724,-368,-448,-8384,626,-29,-176,-446,1401890077.749539
3,160,0,3535,-37,-8,8,3602,-272,-352,-8384,3206,-31,-171,-448,1401890077.749541
3,161,0,5535,-7,-11,33,5480,-144,-400,-8272,3206,-31,-171,-448,1401890077.749542
3,162,0,6535,15,-26,39,7358,-48,-384,-8176,5787,-29,-173,-445,1401890077.749544
3,163,0,8535,20,-29,24,9235,16,-384,-8048,8369,-29,-172,-445,1401890077.749546
3,164,0,10534,7,-42,18,11113,32,-416,-7952,10949,-29,-175,-445,1401890077.749548
3,165,0,12534,-19,-11,23,12991,0,-416,-7856,10949,-29,-175,-445,1401890077.749549
3,166,0,14534,-24,6,29,14868,-64,-384,-7872,13531,-31,-173,-445,1401890077.749551
3,167,0,16534,-10,9,36,16743,-144,-384,-8000,16112,-34,-175,-446,1401890077.749553
3,168,0,18533,12,16,33,18622,-288,-384,-8096,18693,-30,-172,-446,1401890077.749554
3,169,0,20533,36,38,32,20501,-352,-336,-8224,18693,-30,-172,-446,1401890077.749567
3,170,0,21533,40,41,25,22379,-448,-320,-8288,21274,-33,-170,-445,1401890077.749569
3,171,0,23532,71,56,7,24257,-384,-256,-8240,23855,-29,-171,-444,1401890077.749571
3,172,0,25532,99,53,-11,26135,-368,-368,-8144,23855,-29,-171,-444,1401890077.749585
3,173,0,27532,88,49,-6,28013,-352,-464,-8000,26436,-29,-172,-444,1401890077.749587
3,174,0,29532,62,45,5,29892,-384,-464,-7904,29017,-32,-169,-448,1401890077.749589
3,175,0,31531,14,22,20,31770,-448,-384,-7968,31597,-33,-173,-445,1401890077.749591
3,176,0,33531,-16,-4,44,33649,-624,-304,-8032,31597,-33,-173,-445,1401890077.749592
3,177,0,35531,-46,-4,69,35529,-880,-256,-8176,34177,-28,-175,-449,1401890077.749594
3,178,0,36530,-49,-8,77,37406,-944,-112,-8240,36758,-29,-172,-450,1401890077.749596
3,179,0,38530,-28,-1,94,39284,-896,-96,-8288,36758,-29,-172,-450,1401890077.749597
3,180,0,40530,-2,-19,111,41162,-816,-96,-8224,39339,-27,-173,-448,1401890077.749599
3,181,0,42530,-5,-21,119,43040,-592,-224,-8176,41919,-26,-173,-442,1401890077.749601
3,182,0,44529,-26,-13,145,44919,-432,-320,-8128,44499,-25,-174,-447,1401890077.749602
3,183,0,46529,-41,-18,180,46798,-320,-224,-8144,44499,-25,-174,-447,1401890077.749604
3,185,0,50528,-51,-2,221,50553,-112,-192,-8192,49660,-23,-177,-450,1401890077.749606
3,186,0,51528,-33,8,226,52431,80,-160,-8192,52241,-23,-174,-448,1401890077.749608
3,187,0,53528,2,10,205,54308,224,-368,-8208,52241,-23,-174,-448,1401890077.749609
3,188,0,55528,34,39,182,56187,304,-416,-8176,54822,-26,-174,-448,1401890077.749611
3,189,0,57527,54,58,165,58065,352,-528,-8128,57403,-26,-177,-447,1401890077.749613
3,190,0,59527,61,73,164,59944,304,-656,-8064,57403,-26,-177,-447,1401890077.749614
3,191,0,61527,53,83,156,61818,256,-560,-8048,59983,-21,-175,-448,1401890077.749616
3,192,0,63526,41,77,152,63697,256,-608,-8016,62564,-21,-174,-448,1401890077.749618
3,193,0,65526,24,56,152,39,208,-512,-7920,65145,-28,-172,-449,1401890077.749619
3,194,0,990,18,53,147,1913,176,-432,-7952,65145,-28,-172,-449,1401890077.749621
3,195,0,2990,14,38,136,3791,16,-352,-8096,2190,-28,-171,-448,1401890077.749623
3,196,0,4989,19,19,118,5670,-64,-256,-8176,4771,-27,-173,-447,1401890077.749624
3,197,0,6989,25,9,119,7080,-112,-304,-8192,7352,-27,-173,-449,1401890077.749626
3,198,0,8989,38,9,122,8958,-176,-192,-8240,7352,-27,-173,-449,1401890077.749628
3,199,0,10988,51,5,148,10836,-160,-256,-8320,9932,-28,-171,-441,1401890077.749630
3,200,0,12988,48,0,192,12714,-208,-240,-8240,12513,-28,-173,-448,1401890077.749631
3,206,0,56515,7917,-29012,6579,56839,272,-560,-8176,53916,1,-166,-436,1401890077.933272
3,207,0,58464,284,8,257,58717,192,-496,-8112,58793,-34,-170,-436,1401890077.944517
3,208,0,60413,286,1,288,60595,256,-512,-8112,58793,-34,-170,-436,1401890077.944747
3,209,0,62362,284,0,290,62473,288,-528,-8160,61371,-31,-169,-437,1401890077.962185
3,210,0,64311,284,6,279,64352,304,-576,-8176,63951,-32,-168,-436,1401890077.972928
3,211,0,724,280,-2,281,694,192,-544,-8160,63951,-32,-168,-436,1401890077.984800
3,212,0,2741,287,-4324,284,2572,240,-608,-8176,995,-30,-169,-436,1401890077.985044
3,213,0,4690,263,-2,208,4450,208,-624,-8176,3575,-32,-166,-436,1401890078.2738
3,214,0,5669,282,0,263,6328,208,-672,-8192,6156,-31,-167,-439,1401890078.14448
3,215,0,7668,275,-34,271,8206,256,-560,-8176,6156,-31,-167,-439,1401890078.14677
3,216,0,9668,261,-66,237,10084,208,-592,-8144,8736,-31,-167,-435,1401890078.32054
3,217,0,11667,243,-111,180,11962,208,-496,-8176,11316,-28,-165,-438,1401890078.43526
3,218,0,13666,196,-114,96,13839,208,-512,-8192,13898,-33,-166,-433,1401890078.55281
3,219,0,15666,153,-96,21,15716,192,-496,-8176,13898,-33,-166,-433,1401890078.55510
3,220,0,17665,111,-74,-34,17593,176,-464,-8160,16477,-31,-166,-433,1401890078.72950
3,221,0,19665,47,-7,-88,19471,192,-480,-8192,19058,-29,-167,-435,1401890078.84806
3,222,0,20665,39,15,-35,21349,144,-512,-8160,19058,-29,-167,-435,1401890078.85048
3,223,0,22664,60,4,-14,23226,128,-496,-8176,21637,-30,-165,-438,1401890078.102539
3,224,0,24664,68,7,-9,25103,208,-528,-8160,24219,-32,-165,-436,1401890078.114554
3,225,0,26664,72,0,-6,26981,160,-512,-8160,26798,-32,-163,-437,1401890078.114798
3,226,0,28663,58,0,7,28858,208,-464,-8112,26798,-32,-163,-437,1401890078.132445
3,227,0,30663,47,-3,7,30735,144,-432,-8160,29379,-31,-163,-438,1401890078.144415
3,228,0,32663,38,1,-11,32613,128,-464,-8160,31960,-31,-165,-437,1401890078.144662
3,229,0,34662,36,1,-9,34491,144,-448,-8176,34539,-31,-161,-432,1401890078.161792
3,230,0,35662,37,-8,-10,36369,208,-400,-8208,34539,-31,-161,-432,1401890078.173157
3,231,0,37662,42,3,-8,38247,192,-416,-8208,37120,-31,-161,-435,1401890078.185726
3,232,0,39661,54,8,-17,40125,208,-368,-8192,39701,-30,-160,-435,1401890078.186120
3,233,0,41661,56,3,-3,42002,160,-448,-8192,39701,-30,-160,-435,1401890078.204112
3,234,0,43661,55,8,7,43880,256,-432,-8224,42282,-30,-159,-437,1401890078.215658
3,235,0,45660,64,15,10,45758,240,-400,-8208,44862,-32,-158,-436,1401890078.215928
3,236,0,47660,57,6,17,47635,288,-416,-8192,47442,-32,-159,-436,1401890078.234077
3,237,0,49660,42,9,1,49512,256,-432,-8176,47442,-32,-159,-436,1401890078.245066
3,238,0,50659,26,11,3,51389,272,-416,-8080,50022,-32,-159,-435,1401890078.245308
3,239,0,52659,8,-3,1,53266,336,-336,-8144,52604,-32,-160,-441,1401890078.263750
3,240,0,54659,-12,9,4,55143,272,-336,-8176,55185,-32,-161,-434,1401890078.275100
3,241,0,56658,-15,-3,3,57020,272,-336,-8192,55185,-32,-161,-434,1401890078.275292
3,242,0,58658,8,-20,1,58896,256,-464,-8208,57765,-32,-161,-436,1401890078.293312
3,243,0,60658,21,-12,-2,60773,272,-448,-8192,60346,-32,-160,-436,1401890078.305218
3,244,0,62657,13,-13,-1,62650,256,-528,-8192,60346,-32,-160,-436,1401890078.305555
3,245,0,64657,-4,4,-2,64528,304,-496,-8208,62926,-32,-162,-436,1401890078.324024
3,246,0,121,-7,9,2,870,272,-480,-8224,65507,-28,-159,-434,1401890078.335636
3,247,0,2121,-35,13,-5,2748,256,-480,-8208,2551,-28,-162,-438,1401890078.335975
3,248,0,4120,-50,8,10,4625,256,-480,-8208,2551,-28,-162,-438,1401890078.353335
3,249,0,6120,-43,6,-5,6501,256,-432,-8208,5132,-31,-161,-434,1401890078.364874
3,250,0,8120,-37,3,-2,8379,256,-432,-8224,7713,-31,-163,-436,1401890078.365333
3,251,0,10119,-18,2,-2,10256,272,-432,-8192,10293,-30,-161,-437,1401890078.381248
3,252,0,12119,-12,2,0,12133,368,-480,-8176,10293,-30,-161,-437,1401890078.391989
3,253,0,14119,-12,-6,-9,14010,320,-448,-8144,12873,-30,-162,-435,1401890078.403851
3,254,0,15118,-11,-8,-7,15887,320,-496,-8176,15454,-31,-160,-435,1401890078.416331
3,255,0,17118,-16,-5,-12,17764,336,-384,-8176,15454,-31,-160,-435,1401890078.416749
3,0,0,19118,-17,-3,-10,19641,272,-480,-8160,18034,-31,-163,-438,1401890078.435454
3,1,0,21117,-19,1,-18,21518,352,-432,-8160,20615,-28,-163,-439,1401890078.435873
3,2,0,23117,-12,-5,-17,23395,304,-432,-8192,23195,-28,-163,-435,1401890078.453192
3,3,0,25117,-13,-7,-25,25272,352,-560,-8192,23195,-28,-163,-435,1401890078.464874
3,4,0,27116,3,-18,-32,27148,352,-544,-8160,25776,-31,-164,-434,1401890078.465174
3,5,0,29116,-14,-15,-40,29026,352,-560,-8160,28358,-31,-165,-438,1401890078.482762
3,6,0,30116,-11,-17,-30,30904,336,-592,-8160,30938,-32,-165,-435,1401890078.494784
3,7,0,32116,-9,-21,-28,32780,336,-560,-8176,30938,-32,-165,-435,1401890078.495086
3,8,0,34115,-10,-6,-15,34658,320,-560,-8128,33518,-32,-165,-436,1401890078.513161
3,9,0,36115,-15,-19,-10,36536,320,-464,-8160,36099,-29,-166,-438,1401890078.525080
3,10,0,38115,-21,-7,-20,38414,304,-560,-8192,36099,-29,-166,-438,1401890078.525498
3,11,0,40114,-16,-18,-26,40291,368,-544,-8160,38679,-29,-165,-437,1401890078.543250
3,12,0,42114,-10,-11,-30,42169,368,-496,-8160,41260,-29,-163,-435,1401890078.555587
3,13,0,44114,-8,-7,-34,44047,304,-464,-8160,43840,-29,-162,-435,1401890078.555986
3,14,0,45113,-3,-20,-32,45924,352,-528,-8112,43840,-29,-162,-435,1401890078.573641
3,15,0,47113,5,-24,-56,47802,304,-528,-8176,46421,-28,-162,-435,1401890078.585267
3,16,0,49113,7,-21,-53,49680,304,-608,-8176,49002,-28,-162,-434,1401890078.585622
3,17,0,51112,21,-25,-61,51558,304,-624,-8192,51582,-27,-166,-433,1401890078.604254
3,18,0,53112,2,-29,-47,53432,336,-656,-8160,51582,-27,-166,-433,1401890078.610660
3,19,0,55112,-18,-17,-42,55309,336,-704,-8160,54162,-27,-162,-437,1401890078.623220
3,20,0,57111,-39,-12,-37,57187,272,-640,-8160,56743,-27,-167,-435,1401890078.635696
3,21,0,59111,-47,-1,-32,59065,208,-656,-8144,56743,-27,-167,-435,1401890078.635940
3,22,0,60111,-44,-5,-36,60943,160,-656,-8144,59324,-27,-168,-435,1401890078.654385
3,23,0,62111,-38,6,-40,62820,208,-592,-8144,61904,-26,-164,-435,1401890078.660913
3,24,0,64110,-6,12,-39,64698,208,-576,-8176,64484,-26,-164,-439,1401890078.672400
3,25,0,574,7,8,-39,1040,208,-608,-8160,64484,-26,-164,-439,1401890078.684631
3,26,0,2574,22,15,-29,2918,208,-608,-8160,1529,-31,-165,-438,1401890078.685082
3,27,0,4573,26,22,-36,4795,144,-576,-8208,4111,-31,-164,-438,1401890078.703030
3,28,0,6573,40,31,-37,6673,176,-528,-8176,6691,-28,-166,-434,1401890078.715406
3,29,0,8573,39,31,-35,8550,176,-560,-8176,6691,-28,-166,-434,1401890078.715690
3,30,0,9572,35,24,-33,10427,224,-560,-8144,9272,-28,-168,-434,1401890078.734330
3,31,0,11572,30,11,-30,12305,304,-512,-8112,11852,-28,-165,-434,1401890078.740314
3,32,0,13572,12,-1,-24,14184,336,-480,-8128,11852,-28,-165,-434,1401890078.752608
3,33,0,15571,12,3,-11,16062,304,-480,-8064,14432,-28,-165,-434,1401890078.764984
3,34,0,17571,27,-3,-2,17940,352,-528,-8080,17013,-29,-165,-435,1401890078.765343
3,35,0,19571,31,3,-8,19818,336,-448,-8128,19593,-29,-165,-437,1401890078.783130
3,36,0,21570,45,3,-9,21695,336,-496,-8128,19593,-29,-165,-437,1401890078.795731
3,37,0,23570,49,10,-16,23574,400,-528,-8144,22174,-30,-165,-438,1401890078.796066
3,38,0,24570,46,12,-19,25452,368,-528,-8176,24755,-30,-165,-434,1401890078.814473
3,39,0,26570,29,8,-32,27330,368,-608,-8192,24755,-30,-165,-434,1401890078.820885
3,40,0,28569,10,-7,-37,29207,336,-560,-8112,27336,-30,-164,-437,1401890078.832958
3,41,0,30569,-4,-1,-29,31086,288,-560,-8176,29917,-30,-170,-433,1401890078.845500
3,42,0,32569,6,-9,-26,32963,272,-576,-8176,32497,-26,-163,-433,1401890078.845918
3,43,0,34568,7,-6,-29,34841,256,-576,-8160,32497,-26,-163,-433,1401890078.864432
3,44,0,36568,21,17,-19,36718,208,-528,-8176,35077,-26,-164,-432,1401890078.864745
3,45,0,38568,22,16,-22,38597,224,-448,-8208,37659,-26,-164,-437,1401890078.882769
3,46,0,39567,31,19,-18,40474,288,-400,-8192,40240,-26,-164,-436,1401890078.894888
3,47,0,41567,40,16,-11,42352,272,-416,-8176,40240,-26,-164,-436,1401890078.895289
3,48,0,43567,51,20,-13,44229,288,-432,-8176,42822,-29,-165,-434,1401890078.913250
3,49,0,45566,60,19,-21,46106,336,-416,-8160,45402,-29,-162,-433,1401890078.925681
3,50,0,47566,44,27,-34,47983,368,-496,-8096,45402,-29,-162,-433,1401890078.925987
3,51,0,49566,31,24,-40,49861,432,-416,-8112,47983,-28,-165,-434,1401890078.944534
3,52,0,51565,17,20,-45,51739,416,-416,-8096,50564,-28,-165,-429,1401890078.944840
3,53,0,53565,15,14,-43,53616,416,-480,-8128,53143,-27,-162,-433,1401890078.962587
3,54,0,54565,14,22,-42,55493,432,-464,-8160,53143,-27,-162,-433,1401890078.974273
3,55,0,56565,26,24,-54,57369,528,-560,-8144,55722,-28,-165,-432,1401890078.980600
3,56,0,58564,23,30,-58,59247,496,-560,-8096,58302,-29,-163,-431,1401890078.993061
3,57,0,60564,23,23,-60,61126,480,-672,-8144,60881,-29,-165,-430,1401890079.4973
3,58,0,62564,16,9,-56,63004,512,-672,-8128,60881,-29,-165,-430,1401890079.5455
3,59,0,64563,12,9,-44,64881,480,-704,-8176,63460,-29,-166,-432,1401890079.23272
3,60,0,1027,3,4,-34,754,448,-688,-8192,504,-28,-166,-432,1401890079.35833
3,61,0,3027,0,17,-8,2631,352,-656,-8160,3084,-29,-166,-429,1401890079.36334
3,62,0,4027,-2,0,-20,4508,336,-656,-8064,3084,-29,-166,-429,1401890079.54096
3,63,0,6026,-15,17,-12,6387,272,-672,-8096,5663,-29,-168,-425,1401890079.66451
3,64,0,8026,-20,17,-13,8265,272,-656,-8048,8242,-29,-170,-432,1401890079.66711
3,65,0,10026,-28,9,-13,10142,192,-608,-8032,8242,-29,-170,-432,1401890079.85208
3,66,0,12025,-38,-6,-2,12020,144,-576,-8032,10823,-28,-167,-431,1401890079.85704
3,67,0,14025,-33,-11,6,13898,112,-512,-8000,13404,-28,-168,-437,1401890079.104088
3,68,0,16025,-37,-10,1,15775,96,-512,-7984,15985,-26,-171,-434,1401890079.116488
3,69,0,18024,-36,-8,-9,17653,128,-480,-8064,15985,-26,-171,-434,1401890079.116826
3,70,0,19024,-34,-12,-9,19531,112,-544,-8080,18566,-24,-174,-430,1401890079.135204
3,71,0,21024,-17,-6,-34,21408,160,-512,-8160,21145,-26,-170,-430,1401890079.135553
3,72,0,23023,8,-16,-62,23287,176,-464,-8128,21145,-26,-170,-430,1401890079.154206
3,73,0,25023,24,-11,-78,25165,208,-480,-8192,23726,-28,-173,-431,1401890079.160872
3,74,0,27023,57,-12,-76,27042,240,-592,-8192,26307,-28,-171,-429,1401890079.172594
3,75,0,29023,84,-17,-94,28919,192,-592,-8192,28886,-26,-170,-433,1401890079.183860
3,76,0,31022,111,-10,-99,30797,160,-512,-8160,28886,-26,-170,-433,1401890079.196250
3,77,0,33022,123,5,-105,32676,192,-496,-8160,31467,-28,-170,-430,1401890079.196727
3,78,0,34022,120,2,-103,34553,224,-448,-8096,34046,-27,-171,-429,1401890079.214548
3,79,0,36021,113,23,-98,36430,288,-320,-8096,36626,-29,-170,-433,1401890079.214885
3,80,0,38021,91,31,-99,38308,224,-256,-8128,36626,-29,-170,-433,1401890079.233043
3,81,0,40021,68,41,-85,40186,160,-176,-8144,39206,-29,-174,-430,1401890079.245041
3,82,0,42020,64,42,-81,42063,96,-48,-8192,41786,-28,-168,-430,1401890079.245279
3,83,0,44020,74,35,-66,43941,48,16,-8208,41786,-28,-168,-430,1401890079.262980
3,84,0,46020,79,38,-43,45820,-16,48,-8272,44366,-28,-169,-426,1401890079.275199
3,85,0,48019,99,22,-18,47699,-192,0,-8288,46946,-27,-170,-428,1401890079.275502
3,86,0,49019,110,12,-3,49577,-224,64,-8336,49527,-27,-168,-427,1401890079.293485
3,87,0,51019,101,-8,49,51455,-288,176,-8416,49527,-27,-168,-427,1401890079.305389
3,88,0,53019,58,-21,56,53333,-400,176,-8496,52108,-27,-167,-429,1401890079.305682
3,89,0,55018,8,-38,61,55211,-400,144,-8672,54688,-28,-167,-431,1401890079.323612
3,90,0,57018,-40,-34,55,57089,-384,192,-8688,57269,-29,-168,-427,1401890079.335881
3,91,0,59018,-67,-32,47,58967,-368,80,-8736,57269,-29,-168,-427,1401890079.336234
3,92,0,61017,-72,-24,32,60845,-304,-48,-8656,59849,-27,-170,-425,1401890079.354233
3,93,0,63017,-74,-11,48,62723,-288,-64,-8640,62429,-28,-168,-428,1401890079.360659
3,94,0,64017,-66,-8,64,64600,-176,-224,-8592,62429,-28,-168,-428,1401890079.372949
3,95,0,481,-60,13,72,941,-240,-240,-8528,65010,-27,-170,-431,1401890079.384439
3,96,0,2480,-29,12,75,2819,-160,-272,-8416,2055,-25,-171,-429,1401890079.384690
3,97,0,4480,-4,13,67,4696,-96,-336,-8352,4635,-26,-173,-429,1401890079.403141
3,98,0,6480,24,4,55,6574,-32,-384,-8320,4635,-26,-173,-429,1401890079.414549
3,99,0,8479,52,12,15,8452,32,-400,-8288,7215,-22,-170,-429,1401890079.414754
3,100,0,10479,55,12,-32,10330,32,-368,-8224,9796,-20,-171,-430,1401890079.432851
3,101,0,12479,52,25,-68,12208,48,-432,-8208,12376,-22,-174,-430,1401890079.445165
3,102,0,13478,51,18,-85,14085,0,-352,-8192,12376,-22,-174,-430,1401890079.445438
3,103,0,15478,43,27,-113,15963,0,-384,-8160,14956,-23,-173,-428,1401890079.463947
3,104,0,17478,36,40,-139,17841,0,-336,-8096,17537,-21,-173,-430,1401890079.476464
3,105,0,19478,1,25,-139,19719,-48,-304,-7952,17537,-21,-173,-430,1401890079.476764
3,106,0,21477,-20,43,-137,21597,-96,-256,-7984,20118,-23,-173,-429,1401890079.494692
3,107,0,23477,-43,39,-116,23475,-176,-208,-8032,22697,-26,-174,-430,1401890079.494922
3,108,0,25477,-53,40,-101,25353,-400,-192,-8000,25276,-25,-173,-429,1401890079.513266
3,109,0,27476,-52,34,-83,27230,-448,-208,-8000,25276,-25,-173,-429,1401890079.524666
3,110,0,28476,-53,31,-70,29108,-608,-80,-8064,27856,-24,-175,-429,1401890079.524913
3,111,0,30476,-30,29,-49,30985,-672,-48,-8160,30436,-24,-175,-429,1401890079.543320
3,112,0,32475,-16,24,-23,32863,-688,-112,-8128,33017,-24,-176,-427,1401890079.555621
3,113,0,34475,-1,4,1,34740,-704,-144,-8160,33017,-24,-176,-427,1401890079.556077
3,114,0,36475,-2,-2,27,36617,-736,-80,-8192,35597,-22,-176,-429,1401890079.574110
3,115,0,38475,-7,-2,65,38494,-736,-256,-8144,38178,-26,-177,-431,1401890079.585096
3,116,0,40474,-14,-5,101,40372,-656,-336,-8176,38178,-26,-177,-431,1401890079.585482
3,117,0,42474,-39,-11,117,42249,-608,-336,-8176,40758,-22,-177,-429,1401890079.603370
3,118,0,43474,-56,-19,119,44127,-528,-464,-8160,43339,-22,-176,-428,1401890079.615697
3,119,0,45473,-81,-22,104,46004,-432,-560,-8128,45919,-25,-175,-431,1401890079.616188
3,120,0,47473,-116,-45,93,47881,-448,-512,-8144,45919,-25,-175,-431,1401890079.634178
3,121,0,49473,-129,-53,90,49758,-512,-400,-8128,48499,-19,-175,-430,1401890079.640497
3,122,0,51472,-110,-79,96,51635,-384,-528,-8048,51078,-19,-177,-429,1401890079.652585
3,123,0,53472,-74,-91,94,53513,-352,-432,-7984,53658,-19,-179,-432,1401890079.664952
3,124,0,55472,-38,-100,83,55391,-304,-416,-8016,53658,-19,-179,-432,1401890079.665246
3,125,0,57471,-1,-115,58,57268,-240,-416,-8128,56239,-15,-176,-431,1401890079.682245
3,126,0,58471,13,-127,41,59146,-240,-416,-8192,58819,-16,-179,-430,1401890079.693676
3,127,0,60471,47,-122,14,61024,-240,-528,-8304,58819,-16,-179,-430,1401890079.704572
3,128,0,62471,40,-134,-6,62901,-256,-656,-8224,61400,-14,-177,-433,1401890079.704843
3,129,0,64470,50,-134,-8,64778,-352,-704,-8240,63981,-11,-177,-432,1401890079.722503
3,130,0,934,45,-136,-1,1119,-416,-768,-8224,1026,-10,-177,-430,1401890079.734051
3,131,0,2934,32,-122,15,2996,-528,-672,-8240,1026,-10,-177,-430,1401890079.746615
3,132,0,4933,40,-119,26,4872,-672,-656,-8256,3607,-7,-175,-432,1401890079.746971
3,133,0,6933,34,-124,45,6749,-768,-640,-8272,6187,-8,-178,-432,1401890079.764224
3,134,0,7933,39,-124,57,8626,-800,-720,-8208,8768,-7,-175,-433,1401890079.770527
3,135,0,9933,39,-121,83,10502,-896,-656,-8192,8768,-7,-175,-433,1401890079.782282
3,136,0,11932,24,-124,103,12380,-896,-640,-8096,11347,-4,-172,-431,1401890079.794674
3,137,0,13932,23,-136,109,14258,-848,-624,-7952,13927,-2,-174,-431,1401890079.794847
3,138,0,15932,32,-129,104,16134,-832,-544,-7920,13927,-2,-174,-431,1401890079.812919
3,139,0,17931,47,-124,94,18012,-752,-496,-7872,16507,-3,-174,-435,1401890079.825063
3,140,0,19931,65,-131,80,19888,-688,-512,-7872,19088,3,-173,-435,1401890079.825356
3,141,0,21931,67,-130,55,21765,-608,-528,-7968,21668,1,-175,-434,1401890079.843753
3,142,0,22931,86,-135,44,23642,-544,-560,-7984,21668,1,-175,-434,1401890079.855048
3,143,0,24930,95,-131,24,25519,-416,-672,-7984,24247,4,-173,-434,1401890079.855268
3,144,0,26930,97,-137,6,27396,-288,-816,-8016,26827,8,-171,-431,1401890079.873802
3,145,0,28930,81,-153,14,29274,-304,-816,-8112,29408,12,-168,-433,1401890079.885949
3,146,0,30929,52,-163,15,31151,-144,-720,-8080,29408,12,-168,-433,1401890079.886279
3,147,0,32929,2,-179,2,33028,-192,-608,-8160,31989,9,-168,-432,1401890079.904367
3,148,0,34929,-54,-164,-38,34905,-272,-368,-8336,34569,14,-168,-431,1401890079.910874
3,149,0,36928,-97,-162,-104,36782,-368,-16,-8864,34569,14,-168,-431,1401890079.923426
3,150,0,37928,-105,-155,-139,38659,-576,208,-9552,37150,15,-168,-430,1401890079.935676
3,151,0,39928,-82,-156,-193,40537,-688,240,-10000,39730,18,-166,-433,1401890079.935922
3,152,0,41928,-15,-174,-207,42415,-608,176,-9872,42310,20,-166,-431,1401890079.954222
3,153,0,43927,21,-234,-219,44292,-368,64,-9440,42310,20,-166,-431,1401890079.960718
3,154,0,45927,10,-256,-198,46170,-16,-160,-8896,44891,19,-165,-427,1401890079.972739
3,155,0,47927,-1,-266,-128,48048,464,-400,-8624,47470,25,-167,-429,1401890079.985319
3,156,0,49926,43,-239,-28,49926,928,-656,-8528,50051,24,-163,-431,1401890079.985672
3,157,0,51926,121,-212,64,51803,1312,-992,-8464,50051,24,-163,-431,1401890080.2820
3,158,0,52926,147,-195,89,53681,1760,-1184,-8544,52631,28,-162,-429,1401890080.14908
3,159,0,54926,195,-161,95,55558,2112,-1136,-8736,55211,29,-162,-431,1401890080.15207
3,160,0,56925,184,-138,9,57436,2368,-944,-9024,55211,29,-162,-431,1401890080.33155
3,161,0,58925,141,-125,-121,59313,2480,-736,-9328,57790,30,-160,-428,1401890080.45715
3,162,0,60925,87,-143,-227,61191,2336,-560,-9424,60370,33,-156,-429,1401890080.46097
3,163,0,62924,18,-179,-274,63069,2064,-272,-9216,62949,34,-157,-426,1401890080.64550
3,164,0,64924,-66,-211,-281,64946,1792,-96,-8944,62949,34,-157,-426,1401890080.64783
3,165,0,1388,-158,-242,-247,1288,1504,64,-8912,65529,34,-156,-426,1401890080.82014
3,166,0,2388,-197,-261,-224,3165,1200,176,-8896,2574,41,-157,-424,1401890080.93800
3,167,0,4387,-261,-275,-185,5043,1072,288,-8752,5154,39,-158,-428,1401890080.105321
3,168,0,6387,-283,-276,-161,6921,976,336,-8416,5154,39,-158,-428,1401890080.105653
3,169,0,8387,-282,-267,-149,8798,992,448,-8144,7735,42,-162,-424,1401890080.123710
3,170,0,10386,-277,-243,-138,10676,1024,480,-7744,10315,42,-160,-424,1401890080.135821
3,171,0,12386,-267,-196,-146,12553,1184,544,-7360,10315,42,-160,-424,1401890080.136145
3,172,0,14386,-238,-156,-152,14430,1296,560,-7072,12896,44,-160,-422,1401890080.154015
3,173,0,16385,-179,-115,-158,16308,1344,432,-6736,15476,46,-163,-424,1401890080.166526
3,174,0,17385,-146,-98,-159,18185,1344,352,-6448,18057,47,-164,-422,1401890080.166913
3,175,0,19385,-61,-72,-156,20063,1360,224,-6192,18057,47,-164,-422,1401890080.183957
3,176,0,21385,33,-63,-137,21941,1376,160,-6112,20637,47,-165,-423,1401890080.195378
3,177,0,23384,122,-53,-113,23819,1296,-32,-6192,23217,50,-166,-422,1401890080.195617
3,178,0,25384,200,-51,-85,25697,1360,-144,-6368,25798,51,-162,-422,1401890080.213270
3,179,0,27384,249,-60,-56,27575,1456,-416,-6880,25798,51,-162,-422,1401890080.224772
3,180,0,29383,251,-60,-25,29453,1520,-672,-7360,28379,52,-162,-419,1401890080.225009
3,181,0,31383,205,-54,-6,31331,1664,-912,-7888,30961,55,-157,-423,1401890080.241993
3,182,0,32383,171,-43,7,33208,1744,-1104,-8256,30961,55,-157,-423,1401890080.253749
3,183,0,34383,56,-19,25,35086,1840,-1312,-8608,33541,53,-155,-418,1401890080.265382
3,184,0,36382,-82,22,28,36965,1840,-1328,-8912,36122,56,-156,-420,1401890080.265631
3,185,0,38382,-207,52,3,38844,1824,-1376,-9008,38703,54,-156,-421,1401890080.282365
3,186,0,40382,-294,98,-6,40721,1696,-1248,-8944,38703,54,-156,-421,1401890080.293383
3,187,0,42381,-372,138,-18,42599,1616,-1104,-8848,41283,59,-158,-421,1401890080.304744
3,188,0,44381,-411,186,-19,44477,1440,-1024,-8736,43864,58,-162,-421,1401890080.304992
3,189,0,46381,-441,217,18,46354,1328,-752,-8608,46445,56,-164,-423,1401890080.323093
3,190,0,47380,-456,215,43,48231,1360,-560,-8448,46445,56,-164,-423,1401890080.334477
3,191,0,49380,-493,201,84,50109,1520,-384,-8416,49026,56,-168,-419,1401890080.334907
3,192,0,51380,-529,183,121,51987,1552,-384,-8240,51606,53,-171,-421,1401890080.353322
3,193,0,53380,-514,149,158,53865,1536,-272,-8048,51606,53,-171,-421,1401890080.365750
3,194,0,55379,-462,106,216,55743,1424,-64,-7552,54186,53,-175,-424,1401890080.366081
3,195,0,57379,-365,33,296,57622,1232,128,-7120,56767,55,-178,-426,1401890080.383562
3,196,0,59379,-240,-51,362,59499,1008,208,-7040,59346,54,-177,-421,1401890080.395723
3,197,0,61378,-107,-110,385,61377,944,400,-7008,59346,54,-177,-421,1401890080.396151
3,198,0,62378,-41,-151,387,63255,1024,400,-7136,61926,59,-182,-422,1401890080.414671
3,199,0,64378,94,-218,373,65132,1392,256,-7312,64508,57,-177,-424,1401890080.414969
3,200,0,842,243,-257,358,1473,1920,-64,-7728,1552,62,-174,-420,1401890080.433084
3,201,0,2841,367,-270,333,3351,2528,-352,-8160,1552,62,-174,-420,1401890080.445321
3,202,0,4841,456,-246,300,5229,3024,-784,-8368,4132,62,-169,-414,1401890080.445632
3,203,0,6841,522,-182,296,7106,3344,-1168,-8480,6713,67,-165,-420,1401890080.463105
3,204,0,8840,592,-84,322,8984,3280,-1440,-8352,6713,67,-165,-420,1401890080.475593
3,205,0,10840,636,-4,353,10862,3104,-1472,-8144,9294,68,-161,-419,1401890080.476037
3,206,0,11840,643,12,373,12740,2816,-1232,-7824,11873,67,-156,-423,1401890080.493344
3,207,0,13839,608,38,356,14618,2544,-832,-7616,14455,67,-152,-421,1401890080.506039
3,208,0,15839,549,33,275,16495,2384,-432,-7552,14455,67,-152,-421,1401890080.506332
3,209,0,17839,443,-11,169,18374,2208,-48,-7616,17035,67,-150,-426,1401890080.524106
3,210,0,19839,313,-72,51,20251,2016,112,-8000,19615,68,-146,-423,1401890080.530512
3,211,0,21838,167,-146,-28,22129,1760,272,-8304,19615,68,-146,-423,1401890080.542553
3,212,0,23838,43,-203,-60,24006,1600,240,-8528,22195,73,-147,-421,1401890080.554333
3,213,0,25838,-51,-196,-38,25883,1552,352,-8608,24775,68,-143,-420,1401890080.560843
3,214,0,26837,-78,-186,-12,27761,1616,288,-8432,27355,68,-146,-418,1401890080.573023
3,215,0,28837,-119,-156,43,29639,1808,304,-8160,27355,68,-146,-418,1401890080.585439
3,216,0,30837,-141,-116,88,31516,1872,336,-7808,29936,69,-143,-420,1401890080.585748
3,217,0,32837,-120,-73,118,33394,1920,384,-7536,32516,68,-146,-418,1401890080.603434
3,218,0,34836,-24,-39,151,35272,1872,400,-7456,35097,71,-147,-418,1401890080.614343
3,219,0,36836,130,2,208,37151,1760,368,-7344,35097,71,-147,-418,1401890080.620595
3,220,0,38836,305,26,270,39028,1584,288,-7232,37676,71,-140,-414,1401890080.632753
3,221,0,40835,455,36,347,40906,1520,144,-7248,40256,71,-137,-417,1401890080.644600
3,222,0,41835,514,46,386,42784,1504,48,-7344,40256,71,-137,-417,1401890080.644888
3,223,0,43835,560,56,441,44663,1568,-80,-7648,42836,72,-134,-418,1401890080.661773
3,224,0,45835,519,85,463,46540,1696,-192,-8016,45417,72,-127,-413,1401890080.672797
3,225,0,47834,396,118,433,48418,1792,-336,-8304,47997,67,-122,-415,1401890080.685094
3,226,0,49834,247,159,348,50296,1888,-336,-8672,47997,67,-122,-415,1401890080.685580
3,227,0,51834,80,200,265,52175,1952,-368,-8960,50577,67,-119,-417,1401890080.703179
3,228,0,53833,-40,254,176,53584,2032,-336,-8976,53157,65,-117,-416,1401890080.714717
3,229,0,55833,-114,291,131,55462,1968,-256,-9072,55737,65,-117,-420,1401890080.715150
3,230,0,56833,-130,302,121,57340,1936,32,-9168,55737,65,-117,-420,1401890080.733733
3,231,0,58832,-101,302,145,59217,1888,336,-9088,58318,61,-115,-411,1401890080.745720
3,232,0,60832,9,298,213,61094,1952,448,-8784,60897,61,-112,-418,1401890080.746090
3,233,0,62832,157,278,293,62972,1888,672,-8432,60897,61,-112,-418,1401890080.764285
3,234,0,64832,231,235,340,64849,1936,656,-8192,63478,61,-111,-418,1401890080.770596
3,235,0,1295,217,224,351,1190,2080,688,-7872,522,61,-109,-420,1401890080.782855
3,236,0,3295,168,231,329,3067,2320,800,-7712,3102,58,-107,-420,1401890080.794470
3,237,0,5295,95,256,263,4944,2448,1040,-7648,3102,58,-107,-420,1401890080.794923
3,238,0,6294,57,259,218,6822,2480,1376,-7632,5682,58,-106,-420,1401890080.813245
3,239,0,8294,-41,284,102,8699,2560,1664,-7712,8263,54,-102,-420,1401890080.825716
3,240,0,10294,-151,309,-7,10576,2656,1952,-7968,10844,54,-107,-422,1401890080.826144
3,241,0,12294,-220,330,-117,12454,2880,2080,-8224,10844,54,-107,-422,1401890080.844596
3,242,0,14293,-215,303,-226,14331,2928,2144,-8576,13424,47,-106,-421,1401890080.845049
3,244,0,18293,-76,134,-370,18087,2832,1552,-8720,16003,47,-108,-420,1401890080.875417
3,245,0,20292,28,23,-409,19965,2640,1088,-8816,18582,46,-106,-420,1401890080.875658
3,246,0,21292,89,-27,-413,21843,2464,672,-8976,21162,46,-111,-424,1401890080.893370
3,247,0,23292,182,-119,-420,23720,2336,432,-9072,23743,48,-109,-424,1401890080.904910
3,248,0,25292,209,-179,-438,25598,2368,224,-9120,23743,48,-109,-424,1401890080.905173
3,249,0,27291,168,-221,-482,27475,2464,160,-9088,26322,48,-109,-423,1401890080.923560
3,250,0,29291,88,-244,-558,29352,2560,128,-9056,28903,50,-109,-425,1401890080.935845
3,251,0,31291,-21,-273,-626,31229,2672,144,-8880,31484,50,-112,-424,1401890080.936301
3,252,0,33290,-169,-296,-661,33108,2560,224,-8688,31484,50,-112,-424,1401890080.954093
3,253,0,35290,-343,-339,-656,34985,2400,304,-8384,34063,54,-114,-421,1401890080.960346
3,254,0,36290,-433,-362,-648,36864,2128,448,-8144,36643,54,-117,-420,1401890080.972556
3,255,0,38290,-598,-395,-619,38742,1808,544,-7840,36643,54,-117,-420,1401890080.984974
3,0,0,40289,-696,-414,-579,40619,1440,688,-7568,39223,59,-128,-419,1401890080.985352
3,1,0,42289,-687,-408,-541,42496,1104,816,-7216,41803,59,-134,-421,1401890081.2928
3,2,0,44289,-582,-387,-499,44374,736,896,-6880,44383,62,-140,-420,1401890081.15170
3,3,0,46288,-407,-351,-470,46253,432,976,-6816,44383,62,-140,-420,1401890081.15572
3,4,0,48288,-214,-314,-451,48132,128,944,-6800,46964,62,-144,-419,1401890081.33293
3,5,0,50288,-55,-273,-436,50010,-32,848,-6960,49544,68,-143,-418,1401890081.45339
3,6,0,51288,0,-251,-428,51889,-64,768,-7200,52124,68,-146,-416,1401890081.45656
3,7,0,53287,64,-171,-400,53767,-32,400,-7696,52124,68,-146,-416,1401890081.63333
3,9,0,57287,132,40,-304,57524,400,-208,-8848,57285,71,-143,-417,1401890081.81604
3,10,0,59286,136,166,-222,59402,608,-640,-9472,57285,71,-143,-417,1401890081.93244
3,11,0,61286,113,266,-150,61279,848,-1040,-9872,59865,68,-146,-417,1401890081.103960
3,12,0,63286,54,343,-88,63157,1056,-1392,-10016,62445,66,-145,-419,1401890081.114452
3,13,0,65285,-66,388,-17,65035,1360,-1664,-9792,65025,65,-145,-422,1401890081.114578
3,14,0,749,-141,393,26,1377,1584,-1680,-9424,65025,65,-145,-422,1401890081.132919
3,15,0,2749,-300,397,106,3255,1776,-1472,-8992,2069,64,-144,-423,1401890081.144909
3,16,0,4749,-440,403,181,5133,1840,-1216,-8528,4649,61,-147,-424,1401890081.145382
3,17,0,6748,-532,395,235,7013,1744,-912,-8208,7228,57,-150,-425,1401890081.163179
3,18,0,8748,-576,374,255,8891,1552,-576,-8032,7228,57,-150,-425,1401890081.175278
3,19,0,10748,-546,345,252,10770,1296,-304,-7888,9808,58,-157,-426,1401890081.175538
3,20,0,12747,-454,312,235,12649,960,-128,-7984,12388,59,-159,-424,1401890081.192989
3,21,0,14747,-318,284,214,14526,752,-80,-7936,12388,59,-159,-424,1401890081.203958
3,22,0,15747,-231,277,209,16404,544,-224,-7920,14969,52,-162,-426,1401890081.215913
3,23,0,17747,-39,286,196,18282,480,-464,-7824,17549,51,-159,-430,1401890081.216363
3,24,0,19746,119,335,184,20159,592,-704,-7632,20130,52,-161,-430,1401890081.234668
3,25,0,21746,209,386,163,22037,848,-832,-7520,20130,52,-161,-430,1401890081.234912
3,26,0,23746,226,438,149,23914,1120,-1072,-7456,22710,52,-156,-428,1401890081.252367
3,27,0,25745,181,502,129,25792,1424,-1088,-7472,25290,44,-157,-431,1401890081.264610
3,28,0,27745,111,529,109,27670,1712,-1040,-7472,27871,41,-154,-433,1401890081.265022
3,29,0,29745,38,562,70,29547,1904,-992,-7520,27871,41,-154,-433,1401890081.282371
3,30,0,30745,9,554,54,31425,2064,-864,-7744,30452,38,-153,-433,1401890081.294346
3,31,0,32744,-24,562,31,33302,2048,-608,-7936,33032,36,-154,-434,1401890081.294566
3,32,0,34744,-10,526,26,35180,2112,-448,-7952,33032,36,-154,-434,1401890081.312744
3,33,0,36744,26,450,23,37059,2064,-368,-7824,35612,30,-153,-435,1401890081.325076
3,34,0,38743,69,399,34,38938,2096,-304,-7616,38193,26,-151,-437,1401890081.325509
3,35,0,40743,105,333,49,40817,2208,-256,-7312,40774,24,-152,-437,1401890081.343818
3,36,0,42743,139,249,57,42695,2192,-320,-7168,40774,24,-152,-437,1401890081.354940
3,37,0,44742,121,187,44,44572,2208,-400,-7040,43355,22,-151,-435,1401890081.355230
3,38,0,45742,93,159,35,46449,2160,-288,-7024,45934,21,-150,-433,1401890081.373536
3,39,0,47742,56,119,8,48328,2128,-144,-7040,48515,17,-150,-436,1401890081.385539
3,40,0,49742,51,67,-23,50205,2096,-64,-7088,48515,17,-150,-436,1401890081.385760
3,41,0,51741,56,45,-45,52083,2112,-96,-7072,51096,16,-151,-435,1401890081.403700
3,42,0,53741,64,39,-63,53961,2112,-160,-7088,53677,16,-151,-433,1401890081.415697
3,43,0,55741,84,41,-89,55839,2032,-272,-7088,53677,16,-151,-433,1401890081.416130
3,44,0,57740,106,55,-113,57717,1840,-384,-7200,56257,13,-148,-436,1401890081.434699
3,45,0,59740,144,73,-147,59595,1632,-208,-7456,58838,14,-148,-433,1401890081.435133
3,46,0,60740,167,82,-166,61473,1184,16,-7952,61418,11,-149,-434,1401890081.452398
3,47,0,62740,222,108,-193,63350,832,272,-8528,61418,11,-149,-434,1401890081.464631
3,48,0,64739,301,126,-210,65229,528,336,-9072,63999,9,-147,-437,1401890081.464940
3,49,0,1203,356,94,-223,1571,208,224,-9280,1043,7,-145,-431,1401890081.482235
3,50,0,3203,381,45,-190,3449,-80,48,-9248,3623,5,-143,-436,1401890081.493838
3,51,0,5202,351,0,-115,5326,-352,-32,-9088,3623,5,-143,-436,1401890081.505839
3,52,0,7202,311,-27,-14,7203,-704,-64,-8864,6203,3,-147,-430,1401890081.506169
3,53,0,9202,257,-28,77,9081,-1072,-16,-8720,8783,2,-140,-432,1401890081.524251
3,54,0,10202,232,-22,120,10959,-1392,32,-8592,8783,2,-140,-432,1401890081.530670
3,55,0,12201,170,6,202,12838,-1680,64,-8640,11363,-1,-144,-432,1401890081.543060
3,56,0,14201,112,43,256,14715,-2080,368,-8832,13943,-4,-140,-430,1401890081.555364
3,57,0,16201,83,97,302,16593,-2480,448,-9264,16523,-2,-142,-429,1401890081.555673
3,58,0,18200,109,178,369,18471,-2880,528,-10160,16523,-2,-142,-429,1401890081.573648
3,59,0,20200,180,241,412,20348,-3184,368,-10688,19104,-4,-138,-428,1401890081.585985
3,60,0,22200,254,257,376,22226,-3088,112,-10672,21684,-8,-138,-428,1401890081.586286
3,61,0,24200,251,222,289,24103,-2896,-240,-10192,24264,-9,-136,-431,1401890081.603831
3,62,0,25199,209,200,248,25981,-2704,-416,-9536,24264,-9,-136,-431,1401890081.615690
3,63,0,27199,71,148,214,27858,-2496,-400,-9008,26844,-15,-142,-433,1401890081.616073
3,64,0,29199,-53,133,245,29736,-2256,-288,-8560,29424,-12,-136,-430,1401890081.632997
3,65,0,31198,-114,122,312,31613,-1744,-208,-8160,29424,-12,-136,-430,1401890081.645190
3,66,0,33198,-123,115,397,33491,-1248,-80,-7856,32004,-16,-135,-432,1401890081.645467
3,67,0,35198,-88,124,452,35368,-704,32,-7568,34585,-17,-135,-433,1401890081.663668
3,68,0,37198,-34,154,495,37246,-160,112,-7408,37165,-16,-137,-432,1401890081.676181
3,69,0,39197,23,160,511,39124,288,208,-7344,37165,-16,-137,-432,1401890081.676496
3,70,0,40197,47,176,517,41001,640,112,-7536,39745,-17,-135,-433,1401890081.693977
3,71,0,42197,87,188,518,42879,928,0,-7824,42325,-19,-134,-437,1401890081.705730
3,72,0,44196,131,172,481,44756,1040,-112,-8144,44906,-20,-130,-434,1401890081.707215
3,73,0,46196,186,115,411,46634,1040,-304,-8256,44906,-20,-130,-434,1401890081.724375
3,74,0,48196,220,46,330,48512,928,-400,-8304,47487,-21,-127,-431,1401890081.724708
3,75,0,50196,208,-31,251,50391,560,-544,-8352,50068,-24,-126,-433,1401890081.743253
3,76,0,52195,158,-104,194,52269,112,-576,-8448,50068,-24,-126,-433,1401890081.755611
3,77,0,54195,86,-155,191,54146,-448,-544,-8592,52648,-26,-129,-433,1401890081.756056
3,78,0,55195,50,-177,216,56024,-928,-464,-8704,55229,-24,-125,-433,1401890081.774070
3,79,0,57194,-8,-200,290,57902,-1328,-304,-8656,57810,-24,-126,-430,1401890081.780390
3,80,0,59194,-36,-194,359,59780,-1600,-160,-8512,57810,-24,-126,-430,1401890081.792181
3,81,0,61194,-49,-155,372,61658,-1776,32,-8272,60390,-26,-133,-434,1401890081.804713
3,82,0,63194,-44,-92,337,63536,-1728,144,-8080,62970,-26,-130,-432,1401890081.805144
3,83,0,65193,-41,-16,243,65414,-1600,352,-7856,62970,-26,-130,-432,1401890081.822919
3,84,0,1657,-55,60,142,1756,-1392,400,-7744,15,-26,-129,-435,1401890081.835363
3,85,0,3657,-69,127,31,3634,-1152,352,-7872,2594,-24,-130,-430,1401890081.835633
3,86,0,4657,-72,149,-19,5512,-944,272,-7952,5175,-25,-134,-433,1401890081.854153
3,87,0,6656,-75,177,-98,7389,-656,176,-8080,5175,-25,-134,-433,1401890081.860807
3,88,0,8656,-66,195,-148,9266,-560,0,-8128,7756,-26,-127,-433,1401890081.872732
3,89,0,10656,-52,192,-153,11144,-384,-224,-8240,10337,-30,-131,-435,1401890081.885285
3,90,0,12655,-41,164,-121,13022,-240,-352,-8336,12917,-28,-130,-435,1401890081.885692
3,91,0,14655,-42,136,-68,14899,-176,-592,-8352,12917,-28,-130,-435,1401890081.903763
3,92,0,16655,-48,100,-13,16776,-144,-704,-8256,15497,-29,-129,-438,1401890081.915835
3,93,0,18654,-53,63,19,18653,-96,-656,-8224,18078,-29,-129,-431,1401890081.916268
3,94,0,19654,-54,42,31,20531,-144,-560,-8080,18078,-29,-129,-431,1401890081.934851
3,95,0,21654,-78,14,30,22408,-144,-448,-7936,20659,-32,-130,-434,1401890081.935153
3,96,0,23654,-96,3,21,24285,-256,-240,-8000,23240,-31,-128,-434,1401890081.953822
3,97,0,25653,-101,-3,-4,26162,-320,-80,-8096,25821,-32,-134,-437,1401890081.965847
3,98,0,27653,-97,-1,-49,28040,-416,64,-8112,25821,-32,-134,-437,1401890081.966138
3,99,0,29653,-84,7,-93,29916,-400,128,-8096,28402,-30,-132,-432,1401890081.984310
3,100,0,31652,-82,15,-139,31793,-464,288,-8176,30982,-29,-130,-434,1401890081.990606
3,101,0,33652,-82,24,-199,33669,-368,544,-8256,33564,-30,-132,-436,1401890082.2173
3,102,0,34652,-59,23,-207,35546,-192,1264,-8832,33564,-30,-132,-436,1401890082.14732
3,103,0,36652,47,13,-279,37424,144,4960,-10576,36144,-33,-135,-433,1401890082.15013
3,104,0,38651,1007,-79,-638,39302,-80,-1072,-8512,38724,-33,-126,-436,1401890082.33406
3,105,0,40651,567,-60,-1146,41179,-432,-1184,-8896,38724,-33,-126,-436,1401890082.45907
3,106,0,42651,124,-65,-522,43056,-176,-352,-7952,41303,-32,-126,-434,1401890082.46139
3,107,0,44650,-44,-63,-536,44934,368,-336,-7728,43884,-30,-124,-436,1401890082.64935
3,108,0,46650,30,-49,-621,46811,864,-832,-7520,46464,-31,-124,-435,1401890082.65291
3,109,0,48650,230,-93,-309,48689,976,-1024,-7072,46464,-31,-124,-435,1401890082.82484
3,110,0,49650,273,-111,-105,50566,672,-832,-6912,49045,-30,-123,-436,1401890082.94097
3,111,0,51649,326,-131,223,52444,448,-672,-7232,51626,-32,-122,-439,1401890082.99944
3,112,0,53649,288,-195,358,54322,272,-432,-7424,54207,-28,-118,-436,1401890082.112184
3,113,0,55649,145,-256,297,56200,48,-256,-7424,54207,-28,-118,-436,1401890082.124170
3,114,0,57648,19,-265,83,58079,0,-320,-7344,56787,-25,-115,-433,1401890082.130772
3,115,0,59648,-30,-219,-72,59956,-112,-416,-7456,59367,-26,-115,-435,1401890082.143188
3,116,0,61648,-13,-158,-172,61834,-112,-448,-7584,59367,-26,-115,-435,1401890082.155663
3,117,0,63647,8,-110,-226,63712,-192,-416,-8016,61947,-27,-117,-432,1401890082.155886
3,118,0,64647,19,-74,-238,53,0,-208,-8464,64527,-24,-115,-435,1401890082.174192
3,119,0,1111,10,-18,-240,1930,96,-112,-9200,1571,-24,-112,-434,1401890082.180588
3,120,0,3111,-44,10,-232,3807,176,64,-9728,1571,-24,-112,-434,1401890082.193175
3,121,0,5110,-136,3,-256,5684,144,112,-9920,4150,-25,-112,-435,1401890082.205620
3,122,0,7110,-175,-9,-256,7561,320,48,-9696,6731,-28,-116,-434,1401890082.205953
3,123,0,9110,-79,-27,-246,9439,304,208,-9104,9311,-24,-117,-436,1401890082.224756
3,124,0,11110,116,-26,-214,11316,416,272,-8640,9311,-24,-117,-436,1401890082.225060
3,125,0,13109,398,-23,-256,13193,512,512,-8352,11891,-24,-118,-436,1401890082.243534
3,126,0,14109,549,-24,-292,15070,432,544,-7728,14471,-25,-115,-434,1401890082.255957
3,127,0,16109,749,-12,-540,16947,640,272,-7792,14471,-25,-115,-434,1401890082.256261
3,128,0,18108,793,-30,-784,18825,560,-128,-7632,17052,-26,-110,-434,1401890082.274335
3,129,0,20108,724,-45,-801,20702,320,-864,-8032,19631,-26,-104,-435,1401890082.280681
3,130,0,22108,390,-86,-563,22579,144,-1280,-8032,22212,-25,-102,-436,1401890082.292773
3,131,0,24108,-73,-82,-221,24456,64,-1104,-7760,22212,-25,-102,-436,1401890082.304672
3,132,0,26107,-370,-17,-4,26334,-128,-720,-7616,24793,-26,-103,-436,1401890082.305087
3,133,0,28107,-439,53,120,28212,-208,-384,-7712,27374,-23,-105,-433,1401890082.322706
3,134,0,29107,-403,71,118,30089,-192,-192,-7952,29956,-27,-108,-435,1401890082.335284
3,135,0,31106,-268,119,103,31966,-160,-32,-8112,29956,-27,-108,-435,1401890082.335782
3,136,0,33106,-142,145,65,33843,16,128,-8224,32538,-26,-109,-436,1401890082.353975
3,137,0,35106,-80,159,20,35251,128,224,-8320,35117,-26,-109,-437,1401890082.366697
3,138,0,37106,-80,164,32,37128,304,304,-8480,35117,-26,-109,-437,1401890082.367018
3,139,0,39105,-112,164,63,39006,208,304,-8592,37697,-25,-110,-439,1401890082.385533
3,140,0,41105,-164,162,119,40884,400,128,-8560,40277,-26,-109,-435,1401890082.385921
3,141,0,43105,-233,143,197,42761,432,-48,-8384,42858,-31,-110,-437,1401890082.402756
3,142,0,44104,-265,133,239,44639,576,-288,-8208,42858,-31,-110,-437,1401890082.415244
3,143,0,46104,-361,130,349,46516,672,-592,-8128,45438,-29,-111,-435,1401890082.415505
3,144,0,48104,-482,118,535,48392,944,-656,-7984,48020,-30,-115,-434,1401890082.433614
3,145,0,50104,-578,102,707,50269,656,-352,-7856,50601,-28,-117,-436,1401890082.445897
3,146,0,52103,-577,92,765,52147,192,304,-7952,50601,-28,-117,-436,1401890082.446171
3,147,0,54103,-441,80,646,54024,-32,1008,-8128,53182,-28,-120,-433,1401890082.464397
3,148,0,56103,-232,64,342,55902,-80,1072,-8224,55762,-30,-124,-438,1401890082.470705
3,149,0,58102,-38,52,97,57779,0,704,-8336,55762,-30,-124,-438,1401890082.482463
3,150,0,59102,16,47,11,59655,64,368,-8272,58342,-32,-122,-439,1401890082.494412
3,151,0,61102,80,57,-107,61532,176,-32,-8192,60923,-31,-118,-438,1401890082.494746
3,152,0,63102,82,69,-166,63409,224,-384,-8160,63503,-31,-121,-436,1401890082.512635
3,153,0,65101,48,74,-178,65286,192,-512,-8128,63503,-31,-121,-436,1401890082.525079
3,154,0,1565,7,74,-159,1627,176,-512,-8112,549,-31,-119,-437,1401890082.525379
3,155,0,3565,-37,66,-129,3503,144,-352,-8176,3129,-34,-122,-439,1401890082.543786
3,156,0,5564,-51,63,-100,5379,80,-208,-8224,5709,-33,-121,-436,1401890082.556269
3,157,0,7564,-21,41,-79,7255,144,-16,-8208,5709,-33,-121,-436,1401890082.556654
3,158,0,8564,-1,31,-74,9132,208,-16,-8192,8289,-34,-121,-437,1401890082.575093
3,159,0,10564,27,12,-65,11009,240,16,-8160,10870,-29,-125,-437,1401890082.575536
3,160,0,12563,34,24,-59,12887,192,32,-8192,10870,-29,-125,-437,1401890082.593422
3,161,0,14563,25,26,-64,14764,224,48,-8192,13450,-34,-123,-438,1401890082.605285
3,162,0,16563,6,24,-63,16642,192,-16,-8240,16031,-35,-120,-439,1401890082.605641
3,163,0,18562,-11,30,-72,18520,128,-144,-8256,18610,-36,-121,-436,1401890082.623570
3,164,0,20562,-21,21,-84,20393,48,-144,-8288,18610,-36,-121,-436,1401890082.636221
3,165,0,22562,-32,16,-96,22272,80,-224,-8288,21190,-33,-123,-436,1401890082.636492
3,166,0,23562,-32,3,-107,24150,80,-256,-8240,23771,-35,-123,-437,1401890082.654957
3,167,0,25561,-34,-15,-104,26028,16,-304,-8240,26351,-34,-122,-439,1401890082.655222
3,168,0,27561,-28,-20,-105,27905,16,-224,-8224,26351,-34,-122,-439,1401890082.673790
3,169,0,29561,-28,-26,-116,29784,0,-240,-8192,28931,-34,-123,-439,1401890082.686360
3,170,0,31560,-6,-31,-116,31662,16,-160,-8176,31510,-34,-124,-439,1401890082.686668
3,171,0,33560,-2,-25,-125,33540,0,-144,-8192,31510,-34,-124,-439,1401890082.704403
3,172,0,35560,12,-11,-133,35417,16,-128,-8160,34091,-34,-124,-437,1401890082.704786
3,173,0,37560,11,-15,-130,37295,-48,-80,-8144,36671,-33,-124,-438,1401890082.722506
3,174,0,38559,9,-20,-132,39173,-48,-128,-8160,39251,-31,-124,-437,1401890082.734537
3,175,0,40559,10,-13,-152,41051,-80,-48,-8176,39251,-31,-124,-437,1401890082.735009
3,176,0,42559,8,-22,-144,42928,-80,-80,-8208,41831,-32,-125,-438,1401890082.753551
3,177,0,44558,5,-15,-148,44806,-144,-48,-8176,44413,-31,-123,-438,1401890082.766133
3,178,0,46558,3,-22,-139,46683,-176,-64,-8224,46993,-33,-127,-439,1401890082.766572
3,179,0,48558,-3,-23,-133,48560,-160,-64,-8224,46993,-33,-127,-439,1401890082.784531
3,180,0,50558,2,-28,-117,50436,-112,-16,-8256,49574,-36,-129,-440,1401890082.784742
3,181,0,52557,1,-29,-98,52313,-176,48,-8224,52156,-35,-125,-438,1401890082.802337
3,182,0,53557,9,-39,-87,54191,-128,-64,-8208,52156,-35,-125,-438,1401890082.814558
3,183,0,55557,8,-43,-76,56068,-96,0,-8192,54736,-33,-126,-438,1401890082.814913
3,184,0,57556,8,-34,-62,57946,-192,-64,-8192,57317,-33,-123,-437,1401890082.833676
3,185,0,59556,6,-37,-53,59824,-272,-32,-8224,59898,-35,-128,-438,1401890082.845657
3,186,0,61556,5,-20,-52,61701,-320,32,-8240,59898,-35,-128,-438,1401890082.846040
3,187,0,63556,3,-28,-40,63578,-288,80,-8240,62479,-34,-126,-437,1401890082.864637
3,188,0,19,18,-34,-34,65455,-256,16,-8208,65060,-32,-125,-435,1401890082.864865
3,189,0,2019,9,-25,-34,1797,-256,-32,-8192,2104,-35,-126,-439,1401890082.883379
3,190,0,3019,4,-36,-27,3675,-224,-64,-8160,2104,-35,-126,-439,1401890082.895158
3,191,0,5019,-1,-27,-19,5552,-160,-80,-8112,4685,-30,-123,-436,1401890082.895509
3,192,0,7018,3,-17,-12,7430,-176,32,-8176,7265,-30,-125,-437,1401890082.912529
3,193,0,9018,12,-19,-10,9307,-96,-80,-8192,7265,-30,-125,-437,1401890082.925013
3,194,0,11018,43,-7,-5,11185,-48,-64,-8160,9845,-32,-128,-436,1401890082.925516
3,195,0,13017,65,-9,24,13063,0,-64,-8160,12426,-31,-126,-441,1401890082.944156
3,196,0,15017,61,-10,16,14940,48,0,-8160,15006,-33,-126,-436,1401890082.950621
3,198,0,18016,2559,-442,48,18695,-5232,-12832,-21344,17587,-34,-117,-440,1401890082.974596
3,199,0,20016,-2776,-3973,-3849,20572,-23280,-23952,-11136,20166,-28,-105,-419,1401890082.974867
3,200,0,22016,3367,-151,-1916,22450,-14816,-15408,-5872,22747,-38,-89,-411,1401890082.992769
3,201,0,24015,44,-48,-4158,24327,-10096,-7232,-7952,22747,-38,-89,-411,1401890083.4448
3,202,0,26015,354,-160,-3324,26204,-7648,-8272,-6640,25327,-46,-90,-412,1401890083.4718
3,203,0,28015,475,-42,-2658,28082,-4352,-8928,-5696,27908,-44,-86,-415,1401890083.23183
3,204,0,30015,861,35,-2296,29960,272,-8048,-5152,27908,-44,-86,-415,1401890083.34809
3,205,0,32014,908,126,-2066,31837,3904,-5952,-4880,30488,-45,-80,-419,1401890083.35117
3,206,0,33014,764,88,-1904,33715,5936,-3136,-4656,33068,-43,-80,-417,1401890083.53533
3,207,0,35014,438,14,-1344,35593,6912,-384,-5744,35648,-43,-78,-423,1401890083.65985
3,208,0,37014,131,62,-542,37471,6960,2016,-7440,35648,-43,-78,-423,1401890083.66438
3,209,0,39013,-86,93,388,39348,5520,3312,-8992,38228,-39,-84,-426,1401890083.85013
3,210,0,41013,-180,78,1271,41226,3536,3072,-9712,40808,-37,-79,-422,1401890083.85292
3,211,0,43013,-444,27,1866,43104,2128,2656,-9728,40808,-37,-79,-422,1401890083.102220
3,212,0,45012,-723,-13,2198,44982,528,2960,-9632,43388,-37,-81,-425,1401890083.114605
3,213,0,47012,-530,57,2309,46859,-816,3984,-10240,45967,-37,-85,-421,1401890083.114911
3,214,0,48012,-241,89,2258,48736,-1600,4096,-9872,48549,-37,-87,-423,1401890083.133504
3,215,0,50012,377,93,1972,50614,-2000,3392,-9168,48549,-37,-87,-423,1401890083.145766
3,216,0,52011,678,2,1377,52491,-2144,2240,-8832,51129,-43,-80,-423,1401890083.146104
3,217,0,54011,686,-155,724,54368,-1648,880,-8432,53710,-43,-75,-423,1401890083.163880
3,218,0,56011,555,-310,212,56246,-832,-64,-8016,56290,-37,-73,-422,1401890083.175643
3,219,0,58010,296,-389,-7,58123,-656,-416,-7776,56290,-37,-73,-422,1401890083.175865
3,220,0,60010,115,-387,28,60000,-912,-688,-7792,58872,-37,-71,-421,1401890083.193403
3,221,0,62010,38,-349,200,61877,-1072,-1024,-7792,61453,-32,-68,-425,1401890083.205097
3,222,0,64009,11,-289,303,63754,-848,-1312,-7776,61453,-32,-68,-425,1401890083.205342
3,223,0,65009,-9,-235,376,96,-528,-1728,-7888,64032,-32,-70,-420,1401890083.223157
3,224,0,1473,-86,-88,719,1973,112,-2336,-7952,1078,-31,-71,-423,1401890083.235878
3,225,0,3473,-137,33,1221,3851,176,-2800,-8000,3660,-31,-71,-426,1401890083.236282
3,226,0,5472,-138,199,1789,5728,1792,-2576,-8256,3660,-31,-71,-426,1401890083.254996
3,227,0,7472,-55,222,2152,7605,2352,-2864,-8320,6240,-29,-71,-427,1401890083.255405
3,228,0,9472,-286,179,1576,9483,896,-2848,-8256,8821,-29,-74,-427,1401890083.273929
3,229,0,11472,-2613,138,486,11360,304,608,-8544,11402,-29,-91,-433,1401890083.286165
3,230,0,13471,-4878,-251,27,13237,-560,8048,-10640,11402,-29,-91,-433,1401890083.286616
3,231,0,14471,-4414,-405,-247,15115,-1184,12160,-10736,13983,-29,-119,-431,1401890083.303880
3,232,0,16471,-1719,-449,-492,16993,-576,6688,-10352,16564,-24,-131,-431,1401890083.316241
3,233,0,18470,43,-365,-381,18871,-48,3920,-8912,16564,-24,-131,-431,1401890083.316494
3,234,0,20470,700,-253,-211,20748,80,2016,-7456,19145,-24,-131,-434,1401890083.335002
3,235,0,22470,785,-133,-162,22626,176,896,-6880,21726,-16,-125,-434,1401890083.335405
3,236,0,24470,701,-62,-144,24504,144,512,-6800,24305,-16,-123,-429,1401890083.353883
3,237,0,26469,863,-54,-65,26382,80,288,-7056,24305,-16,-123,-429,1401890083.366257
3,238,0,28469,901,-43,32,28259,-160,-640,-7232,26885,-22,-116,-434,1401890083.366632
3,239,0,29469,640,-38,42,30137,-576,-144,-7456,29466,-22,-113,-435,1401890083.384348
3,240,0,31468,101,-21,-81,32015,-496,224,-8064,32047,-19,-114,-431,1401890083.390707
3,241,0,33468,57,16,-26,33892,-640,176,-8496,32047,-19,-114,-431,1401890083.402735
3,242,0,35468,65,53,-6,35769,-528,144,-8944,34628,-19,-111,-432,1401890083.414017
3,243,0,37468,93,67,16,37647,-352,16,-9040,37209,-20,-108,-430,1401890083.426419
3,244,0,39467,65,74,-20,39523,-192,-80,-9024,37209,-20,-108,-430,1401890083.426778
3,245,0,41467,-52,72,-79,41400,-64,-64,-8864,39789,-20,-108,-432,1401890083.445032
3,246,0,43467,-205,60,-139,43278,-16,160,-8640,42370,-17,-111,-432,1401890083.445510
3,247,0,44467,-263,45,-159,45155,80,224,-8512,44951,-17,-113,-432,1401890083.464048
3,248,0,46466,-318,31,-171,47032,96,432,-8336,44951,-17,-113,-432,1401890083.470439
3,249,0,48466,-283,3,-168,48909,208,608,-8272,47532,-19,-112,-429,1401890083.482879
3,250,0,50466,-168,-22,-129,50786,384,688,-8112,50113,-19,-116,-431,1401890083.494918
3,251,0,52465,-17,-66,-129,52664,640,624,-7920,52692,-20,-116,-433,1401890083.495366
3,252,0,54465,127,-101,-98,54542,800,544,-7680,52692,-20,-116,-433,1401890083.513155
3,253,0,56465,222,-144,-53,56419,960,448,-7520,55273,-20,-115,-430,1401890083.525521
3,254,0,58464,268,-170,-9,58296,1152,224,-7408,57853,-16,-112,-433,1401890083.525989
3,255,0,59464,274,-181,15,60173,1264,32,-7296,57853,-16,-112,-433,1401890083.543660
3,0,0,61464,264,-200,58,62051,1376,-224,-7264,60433,-16,-112,-433,1401890083.556407
3,1,0,63464,224,-194,75,63929,1456,-416,-7264,63012,-12,-111,-433,1401890083.556751
3,2,0,65463,184,-190,65,269,1472,-592,-7360,57,-12,-109,-431,1401890083.575130
3,3,0,1927,157,-188,-7,2147,1392,-544,-7696,57,-12,-109,-431,1401890083.575618
3,4,0,3927,84,-182,-118,4024,1136,-1280,-7904,2636,-9,-109,-432,1401890083.594286
3,5,0,5926,45,-171,-486,5900,864,-1008,-8800,5217,-9,-109,-434,1401890083.600513
3,6,0,7926,223,-165,-356,7777,560,-1120,-9408,7798,-9,-109,-430,1401890083.611987
3,7,0,8926,278,-155,-390,9654,272,-1456,-9696,7798,-9,-109,-430,1401890083.624323
3,8,0,10926,348,-145,-454,11531,48,-1680,-9792,10378,-9,-106,-433,1401890083.630655
3,9,0,12925,328,-155,-483,13408,-288,-1840,-9744,12959,-3,-104,-430,1401890083.643163
3,10,0,14925,175,-160,-489,15286,-528,-1696,-9664,12959,-3,-104,-430,1401890083.655546
3,11,0,16925,-84,-154,-458,17164,-752,-1408,-9504,15541,-3,-104,-430,1401890083.655892
3,12,0,18924,-359,-136,-411,19042,-688,-1008,-9296,18122,0,-111,-431,1401890083.673780
3,13,0,20924,-579,-104,-336,20919,-464,-528,-8880,20703,0,-112,-430,1401890083.685995
3,14,0,22924,-669,-95,-252,22797,-256,-176,-8480,20703,0,-112,-430,1401890083.686224
3,15,0,23924,-685,-84,-206,24675,-64,32,-8176,23284,2,-120,-433,1401890083.703947
3,16,0,25923,-653,-61,-149,26552,64,304,-7808,25864,2,-124,-434,1401890083.715156
3,17,0,27923,-539,-36,-79,28429,304,448,-7440,28445,7,-128,-429,1401890083.715412
3,18,0,29923,-330,-2,-4,30307,560,464,-7232,28445,7,-128,-429,1401890083.731654
3,19,0,31923,-111,8,70,32185,736,480,-7168,31026,7,-128,-429,1401890083.743724
3,20,0,33922,69,8,118,34062,816,368,-7136,33607,7,-129,-433,1401890083.756073
3,21,0,35922,219,5,140,35939,832,192,-7136,33607,7,-129,-433,1401890083.756517
3,22,0,37922,326,5,134,37816,896,-80,-7168,36189,7,-126,-433,1401890083.774949
3,23,0,38921,368,9,124,39692,928,-400,-7216,38769,10,-125,-432,1401890083.775226
3,24,0,40921,425,20,60,41570,1040,-656,-7440,41350,10,-122,-430,1401890083.793677
3,25,0,42921,412,39,-14,43447,1088,-960,-7728,41350,10,-122,-430,1401890083.806014
3,26,0,44921,326,58,-102,45324,1136,-1200,-8096,43930,9,-116,-434,1401890083.806329
3,27,0,46920,214,90,-198,47200,1088,-1376,-8448,46510,9,-117,-432,1401890083.824508
3,28,0,48920,84,117,-271,49078,1072,-1408,-8896,49090,8,-117,-430,1401890083.824782
3,29,0,50920,-41,136,-322,50955,864,-1504,-9232,49090,8,-117,-430,1401890083.842894
3,30,0,52919,-182,168,-321,52833,736,-1232,-9360,51670,8,-118,-433,1401890083.855200
3,31,0,53919,-241,173,-312,54711,512,-912,-9392,54250,8,-121,-433,1401890083.855470
3,32,0,55919,-324,195,-270,56588,320,-496,-9312,54250,8,-121,-433,1401890083.873779
3,33,0,57919,-379,187,-229,58465,352,-128,-9152,56830,8,-123,-434,1401890083.886365
3,34,0,59918,-402,174,-202,60342,352,192,-8880,59411,7,-125,-433,1401890083.886603
3,35,0,61918,-378,151,-173,62219,432,368,-8496,61991,7,-127,-433,1401890083.904775
3,36,0,63918,-353,138,-141,64097,480,640,-8240,61991,7,-127,-433,1401890083.905244
3,37,0,381,-303,124,-78,439,464,752,-7840,64573,6,-130,-435,1401890083.922834
3,38,0,2381,-229,114,-4,2315,432,960,-7472,1617,6,-135,-435,1401890083.935240
3,39,0,3381,-184,109,38,4192,416,1296,-7168,4198,2,-136,-436,1401890083.935479
3,40,0,5381,-76,94,112,6069,304,1344,-6992,4198,2,-136,-436,1401890083.954093
3,41,0,7380,13,73,157,7946,192,1280,-6928,6779,2,-143,-435,1401890083.960654
3,42,0,9380,78,56,194,9824,128,1248,-6928,9360,5,-134,-434,1401890083.973317
3,43,0,11380,140,32,225,11701,80,1072,-7104,9360,5,-134,-434,1401890083.985397
3,44,0,13379,213,5,238,13577,16,832,-7344,11940,5,-132,-432,1401890083.985756
3,45,0,15379,300,-23,236,15453,-80,672,-7632,14520,4,-133,-432,1401890084.3660
3,46,0,17379,328,-43,197,17331,-96,512,-8032,17101,4,-130,-434,1401890084.15214
3,47,0,18379,303,-57,173,19208,-64,384,-8512,17101,4,-130,-434,1401890084.15437
3,48,0,20378,198,-56,108,21085,-64,272,-9280,19681,4,-129,-433,1401890084.33109
3,49,0,22378,33,-53,35,22963,-144,256,-9904,22261,4,-128,-433,1401890084.45657
3,50,0,24378,-144,-29,-11,24840,-192,240,-10304,22261,4,-128,-433,1401890084.46139
3,51,0,26377,-261,-26,-8,26718,-208,160,-10272,24842,10,-131,-437,1401890084.64024
3,52,0,28377,-251,-30,16,28595,-320,128,-9904,27423,10,-134,-433,1401890084.76262
3,53,0,30377,-184,-32,63,30473,-336,-64,-9360,30003,8,-135,-437,1401890084.76537
3,54,0,32377,-74,-30,113,32349,-336,0,-8784,30003,8,-135,-437,1401890084.94801
3,55,0,33376,-22,-33,142,34226,-176,-48,-8288,32584,10,-138,-435,1401890084.95185
3,56,0,35376,101,-42,181,36104,-144,0,-7936,35164,12,-136,-434,1401890084.113296
3,57,0,37376,236,-51,186,37981,-32,32,-7632,37745,9,-133,-435,1401890084.125198
3,58,0,39375,347,-75,150,39858,64,32,-7424,37745,9,-133,-435,1401890084.125474
3,59,0,41375,413,-95,90,41735,160,48,-7328,40326,13,-130,-436,1401890084.143969
3,60,0,43375,415,-112,-2,43612,288,96,-7296,42906,15,-127,-436,1401890084.155850
3,61,0,45375,374,-134,-85,45019,448,48,-7408,45486,13,-127,-431,1401890084.156109
3,62,0,47374,304,-152,-180,47365,432,-32,-7552,45486,13,-127,-431,1401890084.174333
3,63,0,48374,261,-153,-217,49242,464,-16,-7632,48067,12,-123,-433,1401890084.180903
3,64,0,50374,159,-162,-285,51120,416,48,-7856,50647,18,-125,-435,1401890084.193649
3,65,0,52374,86,-169,-331,52996,320,0,-8080,50647,18,-125,-435,1401890084.205916
3,66,0,54373,32,-181,-366,54871,128,48,-8224,53228,12,-124,-431,1401890084.206398
3,67,0,56373,16,-172,-373,56748,-96,-48,-8304,55808,14,-126,-433,1401890084.224055
3,68,0,58373,11,-190,-347,58625,-288,32,-8352,58388,16,-124,-429,1401890084.230477
3,69,0,60372,31,-186,-310,60503,-464,-16,-8336,58388,16,-124,-429,1401890084.242802
3,70,0,62372,54,-186,-260,62380,-704,48,-8256,60968,16,-129,-428,1401890084.255177
3,71,0,63372,66,-190,-229,64257,-976,-32,-8144,63550,16,-129,-428,1401890084.255454
3,72,0,65372,62,-180,-172,129,-992,80,-8112,595,22,-128,-426,1401890084.273806
3,73,0,1835,69,-155,-121,2006,-1296,160,-8064,595,22,-128,-426,1401890084.286334
3,74,0,3835,91,-115,-63,3884,-1296,176,-8080,3175,20,-128,-421,1401890084.286597
3,75,0,5835,116,-81,-21,5761,-1408,160,-8128,5754,20,-124,-429,1401890084.304191
3,76,0,7834,139,-58,9,7639,-1408,160,-8240,5754,20,-124,-429,1401890084.304450
3,77,0,9834,135,-46,30,9516,-1456,48,-8240,8335,23,-128,-428,1401890084.322148
3,78,0,11834,119,-20,48,11394,-1344,-176,-8224,10915,24,-126,-426,1401890084.334222
3,79,0,12834,87,-16,57,13272,-1120,-272,-8192,13494,24,-120,-429,1401890084.340547
3,80,0,14833,14,-7,64,15149,-1040,-208,-8128,13494,24,-120,-429,1401890084.352861
3,81,0,16833,-86,-9,64,17026,-992,-144,-8112,16074,25,-126,-430,1401890084.365180
3,82,0,18833,-187,-9,54,18904,-784,0,-8080,18653,26,-123,-430,1401890084.365457
3,83,0,20832,-248,-2,50,20781,-672,128,-8144,18653,26,-123,-430,1401890084.383598
3,84,0,22832,-255,-5,64,22658,-624,160,-8160,21232,27,-124,-428,1401890084.395960
3,85,0,24832,-218,-22,95,24534,-640,80,-8112,23810,27,-125,-425,1401890084.396223
3,86,0,26832,-166,-42,125,26411,-656,0,-8096,26390,28,-126,-428,1401890084.413542
3,87,0,27831,-143,-54,141,28288,-736,64,-8144,26390,28,-126,-428,1401890084.425263
3,88,0,29831,-113,-92,156,30166,-848,32,-8256,28970,28,-124,-430,1401890084.425619
3,89,0,31831,-80,-128,173,32043,-848,32,-8512,31550,31,-127,-431,1401890084.444263
3,90,0,33830,-42,-139,155,33920,-672,-112,-8752,34130,36,-126,-432,1401890084.450467
3,91,0,35830,-13,-145,131,35798,-448,-224,-8816,34130,36,-126,-432,1401890084.462745
3,92,0,37830,-7,-150,100,37675,-208,-432,-8768,36709,32,-124,-426,1401890084.475476
3,93,0,39830,-37,-132,93,39553,32,-592,-8688,39291,40,-128,-427,1401890084.475890
3,94,0,41829,-82,-129,107,41430,32,-704,-8512,39291,40,-128,-427,1401890084.494639
3,95,0,42829,-108,-118,116,43308,96,-672,-8480,41871,37,-127,-429,1401890084.495049
3,96,0,44829,-130,-95,103,45185,0,-656,-8512,44451,40,-124,-429,1401890084.512791
3,97,0,46828,-122,-112,96,47063,-32,-496,-8560,47032,41,-128,-429,1401890084.524574
3,98,0,48828,-82,-137,73,48940,-48,-240,-8816,47032,41,-128,-429,1401890084.525002
3,99,0,50828,-65,-159,15,50817,-256,16,-9328,49613,42,-129,-430,1401890084.542886
3,100,0,52828,-169,-161,-40,52694,-640,304,-10240,52192,44,-126,-433,1401890084.555244
3,101,0,54827,-293,-117,-91,54572,-752,544,-11168,54772,48,-131,-432,1401890084.555701
3,102,0,56827,-266,-70,-145,56449,-672,368,-11440,54772,48,-131,-432,1401890084.573504
3,103,0,57827,-215,-58,-199,58326,-560,272,-10656,57352,46,-130,-430,1401890084.585036
3,104,0,59827,-248,-51,-287,60203,-544,256,-10128,59933,51,-133,-430,1401890084.585515
3,105,0,61826,-393,-28,-322,62081,0,272,-9936,59933,51,-133,-430,1401890084.603979
3,106,0,63826,-400,0,-261,63959,784,48,-9920,62512,49,-136,-431,1401890084.614900
3,107,0,290,-267,23,-151,301,1424,-176,-9824,65093,53,-138,-431,1401890084.615176
3,108,0,2289,-116,55,-50,2178,1824,-176,-9776,2136,53,-137,-433,1401890084.633744
3,109,0,4289,-4,116,-4,4055,2064,-16,-9616,2136,53,-137,-433,1401890084.646137
3,110,0,6289,59,162,-29,5933,2208,176,-9376,4716,52,-137,-434,1401890084.646519
3,111,0,7289,68,172,-60,7810,2400,384,-8912,7297,52,-139,-437,1401890084.665105
3,112,0,9288,73,169,-144,9688,2464,432,-8336,9878,53,-139,-436,1401890084.665511
3,113,0,11288,88,154,-183,11566,2352,528,-7648,9878,53,-139,-436,1401890084.684000
3,114,0,13288,129,120,-153,13444,2192,480,-6992,12458,51,-136,-436,1401890084.690298
3,115,0,15287,174,94,-74,15322,1936,592,-6448,15038,53,-134,-435,1401890084.702607
3,116,0,17287,229,70,14,17200,1600,688,-6016,15038,53,-134,-435,1401890084.714160
3,117,0,19287,264,43,86,19078,1360,784,-5696,17618,50,-133,-435,1401890084.720598
3,118,0,21286,246,29,124,20956,1360,816,-5504,20198,52,-126,-434,1401890084.732461
3,119,0,22286,208,26,131,22833,1456,848,-5472,22779,56,-125,-437,1401890084.745044
3,120,0,24286,103,19,61,24710,1648,736,-5664,22779,56,-125,-437,1401890084.745394
3,121,0,26286,-20,-5,-32,26588,2048,576,-6048,25359,52,-122,-433,1401890084.763723
3,122,0,28285,-128,4,-144,28465,2432,288,-6720,27938,55,-124,-433,1401890084.775996
3,123,0,30285,-182,40,-244,30341,2656,112,-7536,30518,55,-125,-432,1401890084.776383
3,124,0,32285,-126,106,-296,32218,2832,-176,-8096,30518,55,-125,-432,1401890084.794845
3,125,0,34285,21,169,-289,34096,2736,-368,-8368,33099,56,-123,-437,1401890084.795083
3,126,0,36284,187,214,-299,35973,2512,-480,-8544,35679,53,-120,-434,1401890084.813371
3,127,0,37284,261,230,-330,37850,2176,-448,-8816,35679,53,-120,-434,1401890084.825282
3,128,0,39284,362,218,-435,39727,1728,-560,-9280,38258,53,-120,-437,1401890084.825716
3,129,0,41283,385,170,-552,41605,1232,-800,-9824,40837,52,-120,-437,1401890084.843743
3,130,0,43283,265,77,-561,43482,688,-784,-10000,43416,53,-118,-440,1401890084.856130
3,131,0,45283,11,-16,-466,45358,48,-672,-9968,43416,53,-118,-440,1401890084.856599
3,132,0,47283,-334,-70,-277,47236,-400,-464,-9520,45996,52,-119,-437,1401890084.875053
3,133,0,49282,-624,-70,-46,49113,-720,-112,-8880,48576,52,-123,-434,1401890084.875513
3,134,0,51282,-823,-36,136,50990,-752,176,-8224,51156,50,-131,-438,1401890084.893906
3,135,0,52282,-882,-4,212,52868,-608,336,-7728,51156,50,-131,-438,1401890084.906151
3,136,0,54282,-928,69,327,54745,-336,512,-7344,53735,54,-136,-441,1401890084.906496
3,137,0,56281,-926,153,364,56622,-176,608,-6928,56315,53,-140,-441,1401890084.924385
3,138,0,58281,-839,220,372,58500,80,704,-6736,56315,53,-140,-441,1401890084.930983
3,139,0,60281,-624,296,314,60378,224,496,-6672,58896,55,-147,-438,1401890084.942795
3,140,0,62280,-393,355,286,62256,320,432,-6720,61477,56,-148,-440,1401890084.955146
3,141,0,64280,-80,395,216,64134,384,400,-6832,64057,54,-150,-440,1401890084.955598
3,142,0,744,231,411,124,475,352,112,-6944,64057,54,-150,-440,1401890084.974104
3,143,0,1744,360,410,87,2353,416,-208,-7120,1101,54,-147,-441,1401890084.980493
3,144,0,3743,569,409,2,4231,512,-576,-7232,3682,53,-137,-443,1401890084.992806
3,145,0,5743,628,377,-43,6108,640,-960,-7520,6263,48,-135,-443,1401890085.5306
3,146,0,7743,537,325,-39,7986,736,-1360,-7712,6263,48,-135,-443,1401890085.5647
3,147,0,9742,315,260,14,9864,864,-1616,-7888,8843,48,-135,-443,1401890085.23599
3,148,0,11742,41,181,101,11742,944,-1824,-7856,11423,47,-132,-441,1401890085.35767
3,149,0,13742,-231,126,212,13619,992,-1776,-7728,11423,47,-132,-441,1401890085.36077
3,150,0,15741,-376,78,324,15495,944,-1632,-7280,14004,48,-133,-445,1401890085.54779
3,151,0,16741,-399,75,363,17372,816,-1408,-6992,16585,43,-136,-446,1401890085.55230
3,152,0,18741,-391,64,359,19250,784,-1152,-6816,19164,48,-137,-447,1401890085.73031
3,153,0,20741,-289,72,278,21127,608,-896,-6752,19164,48,-137,-447,1401890085.85468
3,154,0,22740,-132,93,135,23005,480,-704,-6848,21744,47,-135,-446,1401890085.85698
3,155,0,24740,2,111,-36,24882,384,-704,-7040,24323,51,-135,-449,1401890085.104272
3,156,0,26740,110,149,-177,26760,256,-688,-7232,26902,48,-135,-445,1401890085.110834
3,157,0,28740,183,174,-262,28637,96,-848,-7552,26902,48,-135,-445,1401890085.122771
3,158,0,30739,219,205,-268,30514,48,-832,-7760,29482,48,-134,-446,1401890085.135373
3,159,0,31739,227,211,-247,32391,32,-880,-7824,32061,48,-133,-452,1401890085.135746
3,160,0,33739,216,237,-177,34269,128,-816,-7872,32061,48,-133,-452,1401890085.153255
3,161,0,35738,187,227,-100,36146,208,-880,-7808,34641,46,-130,-453,1401890085.165557
3,162,0,37738,165,226,-58,38023,368,-896,-7824,37220,45,-128,-452,1401890085.165833
3,163,0,39738,132,193,-37,39900,464,-1152,-8000,39800,42,-129,-453,1401890085.184516
3,164,0,41738,86,152,-63,41777,480,-1312,-8224,39800,42,-129,-453,1401890085.184887
3,165,0,43737,17,93,-120,43654,528,-1520,-8560,42380,41,-125,-452,1401890085.202996
3,166,0,45737,-95,79,-153,45531,384,-1936,-9008,44960,41,-128,-451,1401890085.215159
3,167,0,46737,-159,80,-149,47408,32,-2336,-9216,47541,40,-126,-451,1401890085.215511
3,168,0,48737,-280,121,-105,49286,-320,-2720,-9376,47541,40,-126,-451,1401890085.232998
3,169,0,50736,-384,195,-14,51163,-816,-2816,-9344,50122,39,-128,-453,1401890085.244571
3,170,0,52736,-471,266,34,53040,-1296,-2944,-9328,52702,41,-134,-457,1401890085.244780
3,171,0,54736,-565,335,68,54917,-1728,-2832,-9088,52702,41,-134,-457,1401890085.263143
3,172,0,56735,-632,393,93,56794,-1968,-2704,-8816,55282,40,-136,-457,1401890085.275159
3,173,0,58735,-678,413,135,58671,-2112,-2432,-8544,57863,38,-138,-455,1401890085.275503
3,174,0,60735,-642,406,170,60549,-2192,-2048,-8240,60443,39,-143,-458,1401890085.293852
3,175,0,61735,-574,387,188,62426,-2048,-1504,-8272,60443,39,-143,-458,1401890085.305879
3,176,0,63734,-368,328,184,64302,-1856,-960,-8800,63023,36,-144,-457,1401890085.306321
3,177,0,198,-149,249,112,643,-1536,-368,-9488,67,34,-145,-459,1401890085.324257
3,178,0,2198,48,147,-11,2520,-912,208,-10240,2647,31,-146,-461,1401890085.330678
3,179,0,4197,191,51,-161,4397,-224,736,-10976,2647,31,-146,-461,1401890085.342788
3,180,0,6197,264,-33,-363,6274,288,736,-11776,5226,32,-143,-464,1401890085.354079
3,181,0,8197,250,-66,-548,8150,608,112,-12400,7806,31,-140,-460,1401890085.360490
3,182,0,10196,207,-53,-538,10026,1056,-848,-12256,7806,31,-140,-460,1401890085.372829
3,183,0,11196,139,-45,-468,11903,1584,-1408,-11568,10385,29,-143,-458,1401890085.384496
3,184,0,13196,-128,-32,-295,13780,1904,-1328,-10464,12965,31,-144,-460,1401890085.384784
3,185,0,15196,-552,-40,-150,15657,1968,-896,-9392,15547,32,-148,-462,1401890085.403358
3,186,0,17195,-1014,-69,-34,17533,1808,-288,-8544,15547,32,-148,-462,1401890085.415360
3,187,0,19195,-1354,-77,108,19410,1504,240,-7808,18127,32,-156,-460,1401890085.415810
3,188,0,21195,-1454,-72,294,21288,1216,736,-6816,20707,32,-165,-457,1401890085.433650
3,189,0,23195,-1315,-64,439,23164,912,1072,-5872,23287,34,-175,-457,1401890085.445861
3,190,0,25194,-989,-88,477,25042,608,1424,-5056,23287,34,-175,-457,1401890085.446229
3,191,0,26194,-768,-99,452,26920,272,1568,-4672,25867,36,-186,-455,1401890085.464621
3,192,0,28194,-215,-139,346,28797,-64,1712,-4944,28447,41,-184,-454,1401890085.465099
3,193,0,30193,382,-173,195,30675,-384,1600,-5696,28447,41,-184,-454,1401890085.483101
3,194,0,32193,952,-180,42,32553,-688,1264,-6864,31027,39,-180,-454,1401890085.495447
3,195,0,34193,1378,-163,-72,34430,-864,960,-8096,33607,40,-171,-460,1401890085.495670
3,196,0,36193,1581,-143,-119,36307,-928,672,-9136,36187,39,-161,-462,1401890085.513621
3,197,0,38192,1472,-138,-107,38185,-752,368,-9920,36187,39,-161,-462,1401890085.525518
3,198,0,40192,1090,-166,-68,40062,-432,304,-10400,38767,38,-150,-466,1401890085.525855
3,199,0,41192,864,-176,-42,41938,-48,352,-10480,41347,39,-143,-461,1401890085.543894
3,200,0,43192,443,-172,-12,43816,448,496,-10160,43926,41,-142,-465,1401890085.556454
3,201,0,45191,171,-113,11,45694,784,544,-9616,43926,41,-142,-465,1401890085.556692
3,202,0,47191,87,-30,79,47572,1104,384,-8944,46507,43,-144,-463,1401890085.574823
3,203,0,49191,163,52,195,49449,1328,176,-8336,49088,44,-136,-462,1401890085.575085
3,204,0,51190,334,106,298,51325,1440,-80,-7872,49088,44,-136,-462,1401890085.593615
3,205,0,53190,491,119,348,53203,1408,-192,-7280,51668,39,-135,-462,1401890085.605986
3,206,0,55190,556,101,319,55080,1440,-256,-6880,54249,41,-133,-463,1401890085.606177
3,207,0,56190,558,78,272,56958,1456,-192,-6704,56829,38,-125,-463,1401890085.623769
3,208,0,58189,518,16,140,58836,1408,-224,-6624,56829,38,-125,-463,1401890085.636077
3,209,0,60189,433,-60,-8,60713,1360,-176,-6704,59409,38,-126,-464,1401890085.636532
3,210,0,62189,331,-145,-113,62590,1344,-128,-6912,61989,37,-122,-465,1401890085.655085
3,211,0,64188,210,-220,-194,64466,1152,-32,-7024,64569,33,-121,-462,1401890085.655343
3,212,0,652,84,-275,-240,807,976,32,-7248,64569,33,-121,-462,1401890085.673461
3,213,0,2652,-41,-348,-276,2683,624,160,-7600,1614,36,-122,-458,1401890085.685908
3,214,0,4651,-153,-400,-287,4560,304,336,-8032,4195,34,-120,-462,1401890085.686193
3,215,0,5651,-187,-427,-277,6437,-64,560,-8288,4195,34,-120,-462,1401890085.703476
3,216,0,7651,-204,-469,-244,8314,-352,688,-8400,6776,35,-124,-461,1401890085.715578
3,217,0,9651,-120,-511,-199,10191,-608,672,-8272,9356,40,-129,-461,1401890085.715815
3,218,0,11650,16,-510,-148,12068,-640,640,-7904,11937,41,-128,-456,1401890085.733589
3,219,0,13650,153,-479,-102,13946,-608,704,-7392,11937,41,-128,-456,1401890085.745654
3,220,0,15650,223,-422,-75,15824,-688,704,-7072,14517,44,-132,-455,1401890085.745954
3,221,0,17650,238,-355,-16,17702,-736,736,-7040,17098,48,-127,-457,1401890085.764470
3,222,0,19649,212,-288,36,19579,-704,800,-7248,19678,46,-127,-456,1401890085.764874
3,223,0,20649,202,-247,67,21457,-720,752,-7520,19678,46,-127,-456,1401890085.783121
3,224,0,22649,188,-199,125,23334,-688,608,-7616,22259,49,-124,-450,1401890085.795663
3,225,0,24648,176,-157,164,25212,-640,352,-7632,24838,53,-123,-457,1401890085.796102
3,226,0,26648,144,-103,164,27089,-656,128,-7648,24838,53,-123,-457,1401890085.814508
3,227,0,28648,66,-48,127,28966,-688,-80,-7952,27418,54,-123,-454,1401890085.814873
3,228,0,30648,-19,-5,80,30843,-688,-272,-8128,29997,54,-120,-456,1401890085.832573
3,229,0,32647,-115,43,38,32721,-608,-368,-8208,32577,55,-123,-458,1401890085.844410
3,230,0,34647,-182,64,-5,34598,-592,-368,-8240,32577,55,-123,-458,1401890085.844690
3,231,0,35647,-204,61,-6,36475,-512,-320,-8192,35158,53,-128,-455,1401890085.862538
3,232,0,37647,-245,52,-16,38351,-448,-144,-8208,37738,54,-124,-457,1401890085.874840
3,233,0,39646,-262,15,-20,40229,-240,208,-8192,37738,54,-124,-457,1401890085.875111
3,234,0,41646,-249,-23,18,42106,-160,368,-8096,40319,54,-125,-457,1401890085.893601
3,235,0,43646,-211,-74,40,43983,-160,256,-7984,42900,56,-126,-457,1401890085.905449
3,236,0,45645,-155,-133,105,45860,-320,-32,-7872,45480,53,-129,-457,1401890085.905960
3,237,0,47645,-80,-206,186,47737,-560,-192,-8016,45480,53,-129,-457,1401890085.923398
3,238,0,49645,-1,-281,260,49614,-880,-192,-8272,48061,60,-128,-458,1401890085.935664
3,239,0,50645,60,-293,293,51491,-912,-272,-8832,50643,58,-127,-455,1401890085.935941
3,240,0,52644,209,-261,340,53369,-416,-544,-9456,53222,62,-122,-454,1401890085.953548
3,241,0,54644,342,-187,318,55247,208,-1136,-9888,53222,62,-122,-454,1401890085.965884
3,242,0,56644,367,-122,250,57124,736,-1712,-9984,55802,62,-121,-457,1401890085.966228
3,243,0,58643,262,-118,156,59001,1056,-2048,-9952,58382,64,-119,-457,1401890085.983930
3,244,0,60643,58,-112,81,60879,1120,-2304,-9952,58382,64,-119,-457,1401890085.996616
3,245,0,62643,-185,-123,59,62756,912,-2240,-9952,60961,64,-122,-456,1401890085.997035
3,246,0,64642,-362,-158,70,64633,480,-2080,-9744,63541,67,-122,-461,1401890086.15654
3,247,0,106,-423,-167,85,974,128,-1760,-9424,585,69,-128,-460,1401890086.15955
3,248,0,2106,-480,-208,91,2851,-112,-1184,-8912,585,69,-128,-460,1401890086.33857
3,249,0,4106,-443,-227,62,4729,-544,-656,-8576,3165,69,-130,-461,1401890086.45515
3,250,0,6105,-433,-241,-1,6606,-848,-144,-8416,5746,72,-137,-460,1401890086.45909
3,251,0,8105,-465,-213,-69,8484,-1008,544,-8656,8326,70,-141,-460,1401890086.64280
3,252,0,10105,-474,-161,-130,10361,-1152,1072,-8880,8326,70,-141,-460,1401890086.70435
3,253,0,12105,-439,-67,-164,12238,-1280,1328,-9152,10906,75,-143,-455,1401890086.82876
3,254,0,14104,-409,32,-165,14115,-1376,1408,-9360,13487,75,-147,-459,1401890086.95163
3,255,0,15104,-384,83,-153,15992,-1040,1216,-9328,13487,75,-147,-459,1401890086.95433
3,0,0,17104,-291,155,-149,17870,-336,784,-9088,16067,75,-146,-459,1401890086.113996
3,1,0,19104,-173,208,-161,19747,432,240,-8912,18647,74,-149,-460,1401890086.120556
3,2,0,21103,-28,268,-190,21624,1184,-336,-8944,21227,77,-148,-458,1401890086.132378
3,3,0,23103,120,347,-213,23502,2176,-512,-9104,21227,77,-148,-458,1401890086.144259
3,4,0,25103,221,430,-217,25379,3264,-736,-9344,23806,72,-145,-462,1401890086.150801
3,5,0,27102,244,495,-200,27256,4000,-912,-9552,26386,72,-142,-461,1401890086.162861
3,6,0,29102,236,471,-145,29134,4208,-784,-9232,28967,70,-139,-463,1401890086.175232
3,7,0,30102,246,433,-102,31012,4160,-640,-8464,28967,70,-139,-463,1401890086.175707
3,8,0,32102,211,335,9,32889,3888,-448,-7536,31547,65,-140,-465,1401890086.194228
3,9,0,34101,100,242,112,34297,3616,-224,-6912,34128,63,-138,-468,1401890086.194575
3,10,0,36101,-62,174,168,36174,3328,144,-6256,34128,63,-138,-468,1401890086.212181
3,11,0,38101,-195,114,137,38051,3056,432,-6000,36709,66,-142,-467,1401890086.224473
3,12,0,40100,-260,53,57,39929,2752,512,-6000,39289,63,-140,-467,1401890086.224782
3,13,0,42100,-252,4,-46,41807,2480,464,-6144,41870,64,-143,-468,1401890086.242558
3,14,0,44100,-208,-18,-134,43686,2176,160,-6560,41870,64,-143,-468,1401890086.254923
3,15,0,45100,-173,-17,-161,45563,1792,-112,-7232,44450,65,-145,-463,1401890086.255317
3,16,0,47099,-99,9,-170,47440,1504,-352,-8016,47030,67,-142,-469,1401890086.273448
3,17,0,49099,0,68,-197,49317,1152,-448,-8800,49611,66,-140,-466,1401890086.285855
3,18,0,51099,144,144,-221,51195,800,-608,-9504,49611,66,-140,-466,1401890086.286314
3,19,0,53098,342,214,-279,53072,592,-784,-9824,52192,65,-138,-464,1401890086.304877
3,20,0,55098,595,251,-403,54948,368,-1056,-9536,54772,64,-136,-472,1401890086.305264
3,21,0,57098,783,238,-556,56825,112,-1168,-9008,54772,64,-136,-472,1401890086.323084
3,22,0,59098,756,221,-654,58702,48,-1184,-8448,57353,67,-134,-471,1401890086.334291
3,23,0,60097,656,223,-656,60580,64,-912,-8240,59933,62,-133,-471,1401890086.334580
3,24,0,62097,327,224,-568,62457,96,-640,-8112,62514,64,-128,-471,1401890086.352077
3,25,0,64097,-42,215,-412,64333,96,-192,-8032,62514,64,-128,-471,1401890086.364698
3,26,0,560,-369,198,-234,674,96,288,-7904,65094,62,-130,-474,1401890086.365091
3,27,0,2560,-570,165,-56,2551,64,592,-7632,2138,59,-133,-475,1401890086.382219
3,28,0,4560,-649,140,87,4428,112,800,-7424,4718,60,-139,-473,1401890086.394628
3,29,0,6560,-617,132,194,6305,256,1040,-7216,4718,60,-139,-473,1401890086.394973
3,30,0,8559,-512,122,289,8183,496,1104,-6992,7297,61,-144,-474,1401890086.412248
3,31,0,9559,-437,130,330,10060,672,912,-6704,9877,61,-142,-472,1401890086.424143
3,32,0,11559,-243,163,390,11938,832,752,-6528,9877,61,-142,-472,1401890086.429764
3,33,0,13559,-23,182,405,13815,896,464,-6384,12456,62,-141,-473,1401890086.440853
3,34,0,15558,161,205,387,15693,912,176,-6384,15037,62,-141,-477,1401890086.451471
3,35,0,17558,319,251,290,17571,800,32,-6512,17617,63,-139,-475,1401890086.463486
3,36,0,19558,447,244,169,19448,800,-256,-6848,17617,63,-139,-475,1401890086.475720
3,37,0,21557,516,203,47,21325,800,-752,-7216,20198,63,-132,-474,1401890086.476111
3,38,0,23557,537,151,-15,23203,736,-1152,-7456,22778,58,-126,-474,1401890086.494222
3,39,0,24557,516,117,-20,25081,608,-1664,-7840,25358,58,-124,-471,1401890086.500797
3,40,0,26557,403,62,24,26958,624,-2160,-8128,25358,58,-124,-471,1401890086.513145
3,41,0,28556,239,15,85,28836,528,-2368,-8320,27939,59,-124,-476,1401890086.525486
3,42,0,30556,52,-23,195,30714,480,-2448,-8256,30519,59,-119,-475,1401890086.525935
3,43,0,32556,-97,-33,255,32592,400,-2304,-8112,30519,59,-119,-475,1401890086.543578
3,44,0,34555,-196,-25,250,34469,336,-1872,-7824,33099,60,-119,-476,1401890086.556078
3,45,0,36555,-226,-1,188,36346,240,-1504,-7472,35679,60,-120,-476,1401890086.556454
3,46,0,38555,-161,17,65,38223,144,-1152,-7280,38259,63,-120,-477,1401890086.574571
3,47,0,39555,-122,22,1,40101,112,-864,-7152,38259,63,-120,-477,1401890086.574912
3,48,0,41554,-19,46,-105,41979,144,-528,-7056,40839,63,-124,-477,1401890086.593442
3,49,0,43554,94,73,-165,43856,112,-368,-6960,43419,59,-121,-476,1401890086.605112
3,50,0,45554,191,86,-186,45733,128,-256,-6976,45999,59,-120,-478,1401890086.605461
3,51,0,47553,280,96,-172,47611,176,-160,-7024,45999,59,-120,-478,1401890086.623223
3,52,0,49553,349,88,-147,49489,208,-208,-7216,48580,61,-115,-480,1401890086.634881
3,53,0,51553,410,62,-121,51367,96,-272,-7488,51160,61,-115,-480,1401890086.635218
3,54,0,53553,467,38,-109,53244,128,-416,-7744,51160,61,-115,-480,1401890086.653060
3,55,0,54552,481,23,-107,55122,128,-496,-8096,53740,58,-106,-480,1401890086.665850
3,56,0,56552,465,-8,-114,56999,144,-704,-8288,56320,58,-104,-479,1401890086.666277
3,57,0,58552,402,-24,-132,58877,192,-928,-8320,58900,58,-102,-477,1401890086.683643
3,58,0,60552,287,-22,-164,60756,272,-1200,-8576,58900,58,-102,-477,1401890086.695390
3,59,0,62551,133,-5,-195,62633,240,-1568,-8688,61480,58,-102,-482,1401890086.695668
3,60,0,64551,-24,11,-218,64510,80,-1872,-9024,64060,62,-97,-480,1401890086.713767
3,61,0,1015,-166,57,-250,852,-320,-2208,-9328,1104,62,-101,-478,1401890086.726312
3,62,0,3014,-272,107,-238,2729,-944,-2432,-9552,1104,62,-101,-478,1401890086.726546
3,63,0,4014,-312,139,-215,4606,-1536,-2736,-9728,3683,58,-105,-478,1401890086.743973
3,64,0,6014,-402,218,-137,6483,-1968,-2816,-9728,6264,58,-109,-478,1401890086.750234
3,65,0,8014,-501,299,-24,8360,-2352,-2816,-9408,6264,58,-109,-478,1401890086.762603
3,66,0,10013,-631,359,106,10237,-2576,-2688,-9168,8844,57,-114,-480,1401890086.774712
3,67,0,12013,-764,412,237,12114,-2768,-2352,-8816,11424,57,-119,-481,1401890086.775063
3,68,0,14013,-842,446,351,13990,-2816,-1824,-8464,14004,54,-117,-485,1401890086.792911
3,69,0,16012,-827,454,431,15868,-2800,-1168,-8256,14004,54,-117,-485,1401890086.805271
3,70,0,18012,-693,451,463,17745,-2656,-400,-8256,16584,54,-127,-488,1401890086.805541
3,71,0,19012,-584,433,461,19622,-2320,320,-8624,19163,51,-129,-487,1401890086.823073
3,72,0,21012,-344,391,378,21499,-1808,784,-9232,21744,51,-131,-485,1401890086.835538
3,73,0,23011,-104,342,238,23376,-1200,1232,-9904,21744,51,-131,-485,1401890086.835847
3,74,0,25011,130,279,79,25253,-560,1536,-10624,24325,46,-135,-484,1401890086.853115
3,75,0,27011,408,211,-124,27130,32,1344,-11472,26905,46,-123,-486,1401890086.865618
3,76,0,29010,713,131,-296,29006,592,544,-11888,26905,46,-123,-486,1401890086.865971
3,77,0,31010,843,98,-355,30883,1056,-544,-11472,29485,41,-119,-485,1401890086.883728
3,78,0,33010,617,95,-274,32760,1552,-1296,-10752,32066,41,-119,-487,1401890086.895565
3,79,0,34010,390,95,-199,34637,1952,-1216,-9872,34646,41,-114,-486,1401890086.895792
3,80,0,36009,-164,78,-49,36513,2176,-752,-9056,34646,41,-114,-486,1401890086.913793
3,81,0,38009,-716,38,131,38391,2112,-416,-8176,37226,41,-122,-489,1401890086.925800
3,82,0,40009,-1186,-19,346,40267,1968,-96,-7280,39807,39,-127,-489,1401890086.926065
3,83,0,42009,-1450,-86,566,42144,1840,160,-6592,42388,39,-140,-487,1401890086.943172
3,84,0,44008,-1437,-150,742,44022,1536,480,-5824,42388,39,-140,-487,1401890086.955061
3,85,0,46008,-1127,-200,824,45899,1056,768,-5248,44969,43,-152,-485,1401890086.955499
3,86,0,48008,-586,-259,797,47776,688,1152,-5152,47548,43,-155,-487,1401890086.973507
3,87,0,49007,-282,-283,739,49653,416,1616,-5312,47548,43,-155,-487,1401890086.985902
3,88,0,51007,326,-301,567,51531,144,1840,-6016,50128,50,-154,-489,1401890086.986126
3,89,0,53007,835,-279,364,53408,16,1888,-7168,52708,50,-148,-487,1401890087.3583
3,90,0,55007,1124,-221,180,55285,-128,1856,-8800,55286,53,-138,-492,1401890087.16083
3,91,0,57006,1195,-146,13,57163,16,1504,-10480,55286,53,-138,-492,1401890087.16535
3,92,0,59006,1145,-85,-94,59039,240,832,-11200,57867,53,-129,-490,1401890087.34248
3,93,0,61006,1095,-69,-145,60917,352,0,-10768,60447,54,-122,-487,1401890087.34487
3,94,0,63005,977,-70,-110,62793,448,-608,-9760,63026,52,-119,-489,1401890087.52631
3,95,0,64005,850,-66,-45,64670,576,-800,-9104,63026,52,-119,-489,1401890087.64865
3,96,0,469,552,-50,124,1012,704,-640,-8608,69,51,-114,-487,1401890087.65176
3,97,0,2469,319,-45,252,2889,1072,-512,-8176,2650,49,-109,-491,1401890087.83022
3,98,0,4468,218,-24,278,4766,1360,-352,-7776,2650,49,-109,-491,1401890087.94304
3,99,0,6468,219,-22,219,6644,1520,-272,-7360,5229,47,-108,-489,1401890087.94563
3,100,0,8468,224,-23,109,8521,1680,-240,-6928,7808,48,-107,-488,1401890087.113161
3,101,0,10467,202,-52,-37,10399,1808,-112,-6752,10388,47,-105,-484,1401890087.125493
3,102,0,12467,131,-105,-186,12276,1904,16,-6576,10388,47,-105,-484,1401890087.125809
3,103,0,13467,89,-131,-251,14153,1888,176,-6576,12968,48,-108,-490,1401890087.143103
3,104,0,15467,-32,-196,-380,16030,1792,304,-6576,15548,47,-109,-486,1401890087.155725
3,105,0,17466,-135,-250,-488,17908,1648,336,-6704,18128,48,-113,-485,1401890087.156150
3,106,0,19466,-237,-304,-544,19785,1360,336,-7040,18128,48,-113,-485,1401890087.174147
3,107,0,21466,-312,-354,-563,21662,992,368,-7408,20709,49,-113,-481,1401890087.180578
3,108,0,23466,-301,-412,-525,23540,592,432,-8032,23290,48,-114,-481,1401890087.192587
3,109,0,25465,-211,-454,-484,25417,272,400,-8368,23290,48,-114,-481,1401890087.204733
3,111,0,28465,-94,-471,-418,29172,-320,0,-8912,28452,54,-123,-476,1401890087.222789
3,112,0,30464,-44,-466,-425,31049,-512,112,-8704,31031,57,-125,-477,1401890087.234124
3,113,0,32464,17,-454,-431,32927,-736,304,-8304,31031,57,-125,-477,1401890087.240564
3,114,0,34464,94,-403,-404,34805,-960,336,-7968,33612,57,-129,-476,1401890087.252952
3,115,0,36464,193,-356,-337,36683,-1120,288,-7680,36192,61,-126,-474,1401890087.264749
3,116,0,38463,256,-301,-245,38560,-1152,208,-7488,36192,61,-126,-474,1401890087.265030
3,117,0,40463,281,-240,-165,40438,-1120,0,-7296,38772,60,-126,-471,1401890087.283468
3,118,0,42463,252,-188,-107,42315,-1136,-96,-7216,41353,64,-124,-473,1401890087.295596
3,119,0,43463,228,-162,-86,44193,-1168,-208,-7232,43933,68,-124,-471,1401890087.295960
3,120,0,45462,158,-122,-87,46071,-1152,-224,-7280,43933,68,-124,-471,1401890087.314609
3,121,0,47462,72,-80,-107,47950,-1024,-272,-7456,46513,64,-124,-473,1401890087.314894
3,122,0,49462,-3,-61,-133,49827,-800,-256,-7600,49093,66,-124,-476,1401890087.332497
3,123,0,51461,-67,-50,-165,51706,-704,-224,-7632,51673,67,-126,-475,1401890087.343798
3,124,0,53461,-137,-62,-217,53584,-560,-240,-7792,51673,67,-126,-475,1401890087.356091
3,125,0,55461,-186,-64,-245,55458,-464,-192,-7840,54253,65,-124,-474,1401890087.356543
3,126,0,57460,-195,-89,-260,57335,-208,16,-7920,56833,66,-130,-472,1401890087.375119
3,127,0,58460,-194,-99,-255,59213,16,80,-7984,56833,66,-130,-472,1401890087.375394
3,128,0,60460,-202,-149,-224,61092,144,-128,-7984,59413,67,-129,-472,1401890087.393318
3,129,0,62460,-190,-237,-155,62970,176,-336,-7936,61993,71,-130,-470,1401890087.405647
3,130,0,64459,-167,-325,-55,64847,0,-560,-7936,64574,73,-133,-471,1401890087.405890
3,131,0,923,-116,-382,65,1189,-432,-688,-8144,64574,73,-133,-471,1401890087.424400
3,132,0,2923,-78,-394,166,3067,-800,-800,-8448,1618,75,-132,-471,1401890087.424867
3,133,0,4922,-31,-337,223,4944,-848,-976,-9056,4199,77,-133,-467,1401890087.442691
3,134,0,6922,40,-233,199,6822,-624,-1248,-9536,6779,78,-133,-470,1401890087.454228
3,135,0,7922,76,-160,166,8701,-48,-1712,-10016,6779,78,-133,-470,1401890087.460191
3,136,0,9922,95,-81,52,10578,208,-2128,-10160,9360,84,-134,-462,1401890087.472231
3,137,0,11921,25,-26,-38,12456,352,-2464,-10096,11941,82,-136,-468,1401890087.484553
3,138,0,13921,-121,7,-90,14333,256,-2608,-9984,11941,82,-136,-468,1401890087.485047
3,139,0,15921,-274,32,-93,16211,96,-2624,-9696,14520,81,-138,-467,1401890087.503008
3,140,0,17921,-346,35,-69,18089,-96,-2416,-9392,17101,84,-141,-469,1401890087.515682
3,141,0,19920,-328,10,-61,19967,-176,-2096,-8880,19682,82,-146,-466,1401890087.516072
3,142,0,21920,-240,-8,-69,21845,-288,-1680,-8400,19682,82,-146,-466,1401890087.534601
3,143,0,22920,-213,-12,-93,23723,-464,-1104,-8240,22261,86,-148,-470,1401890087.535053
3,144,0,24920,-214,-33,-147,25598,-624,-432,-8688,24841,80,-149,-470,1401890087.553493
3,145,0,26919,-290,-33,-186,27476,-832,320,-9392,27421,85,-154,-470,1401890087.565689
3,146,0,28919,-309,-15,-221,29354,-944,928,-9984,27421,85,-154,-470,1401890087.566062
3,147,0,30919,-195,39,-249,31231,-832,1120,-9936,30001,86,-155,-468,1401890087.584058
3,148,0,32918,-92,82,-299,33108,-336,1152,-9648,32580,85,-156,-470,1401890087.590580
3,149,0,34918,-105,106,-353,34985,624,880,-9456,32580,85,-156,-470,1401890087.602934
3,150,0,36918,-138,125,-399,36863,1584,496,-9472,35160,85,-155,-467,1401890087.614927
3,151,0,37918,-117,131,-418,38740,2512,0,-9568,37740,84,-159,-468,1401890087.615203
3,152,0,39917,-59,154,-445,40618,3504,-480,-9584,40320,84,-154,-467,1401890087.633494
3,153,0,41917,39,209,-437,42497,4224,-800,-9472,40320,84,-154,-467,1401890087.644666
3,154,0,43917,166,304,-299,44374,4704,-992,-9104,42900,81,-155,-465,1401890087.644906
3,155,0,45916,270,355,-85,46252,4720,-976,-8416,45482,80,-150,-468,1401890087.662931
3,156,0,47916,288,374,117,48129,4416,-768,-7472,48063,80,-151,-469,1401890087.675448
3,157,0,49916,200,370,195,50006,3872,-352,-6368,48063,80,-151,-469,1401890087.675906
3,158,0,51916,47,364,135,51884,3312,224,-5504,50643,76,-148,-470,1401890087.694192
3,159,0,52915,-23,358,69,53761,2944,688,-5008,53223,73,-148,-471,1401890087.700232
3,160,0,54915,-154,322,-128,55638,2528,1040,-5040,53223,73,-148,-471,1401890087.712841
3,161,0,56915,-215,253,-355,57516,2128,1168,-5664,55803,79,-153,-472,1401890087.725572
3,162,0,58914,-193,126,-537,59393,1632,848,-6640,58383,78,-154,-471,1401890087.726043
3,163,0,60914,-130,-2,-616,61271,1328,560,-7488,60963,75,-157,-469,1401890087.743828
3,164,0,62914,-25,-83,-598,63148,992,352,-8208,60963,75,-157,-469,1401890087.756360
3,165,0,64914,54,-114,-524,65026,496,-48,-8992,63543,76,-157,-470,1401890087.756705
3,166,0,1377,37,-87,-422,1368,112,-368,-10192,589,74,-157,-470,1401890087.775300
3,167,0,2377,36,-59,-366,3245,-304,-608,-11136,3168,72,-155,-467,1401890087.775531
3,168,0,4377,132,21,-247,5123,-624,-928,-10816,3168,72,-155,-467,1401890087.793818
3,169,0,6377,291,107,-219,7001,-592,-1200,-9616,5748,77,-154,-467,1401890087.805311
3,170,0,8376,289,196,-337,8880,-416,-1152,-8624,8328,76,-154,-469,1401890087.805558
3,171,0,10376,139,277,-463,10757,-160,-880,-8128,8328,76,-154,-469,1401890087.822883
3,172,0,12376,-67,323,-531,12635,0,-640,-7888,10908,76,-156,-471,1401890087.835306
3,173,0,14375,-269,332,-489,14513,64,-336,-7712,13487,76,-159,-471,1401890087.835705
3,174,0,16375,-449,321,-323,16390,96,-64,-7632,16068,72,-160,-475,1401890087.853651
3,175,0,17375,-513,299,-212,18267,144,256,-7408,16068,72,-160,-475,1401890087.866042
3,176,0,19375,-596,254,29,20144,160,560,-7312,18647,72,-165,-475,1401890087.866439
3,177,0,21374,-611,210,252,22022,224,592,-7152,21227,72,-170,-473,1401890087.884571
3,178,0,23374,-598,161,402,23899,304,576,-6992,23807,75,-172,-475,1401890087.884949
3,179,0,25374,-550,122,478,25777,368,528,-6752,23807,75,-172,-475,1401890087.903339
3,180,0,27373,-446,103,478,27655,400,384,-6576,26387,75,-176,-473,1401890087.915673
3,181,0,29373,-286,98,438,29532,400,208,-6576,28968,76,-176,-474,1401890087.915939
3,182,0,31373,-111,97,368,31409,416,-16,-6640,28968,76,-176,-474,1401890087.934583
3,183,0,32373,-19,108,323,33286,368,-224,-6800,31547,75,-175,-471,1401890087.934961
3,184,0,34372,164,134,224,35164,416,-560,-7136,34127,76,-175,-473,1401890087.952689
3,185,0,36372,340,145,125,37041,464,-944,-7456,36708,78,-172,-473,1401890087.965149
3,186,0,38372,448,154,64,38918,544,-1328,-7648,36708,78,-172,-473,1401890087.965667
3,187,0,40371,457,143,60,40795,576,-1664,-7792,39286,75,-166,-472,1401890087.983564
3,188,0,42371,372,111,93,42673,688,-2016,-7888,41868,77,-163,-473,1401890087.995212
3,189,0,44371,217,74,159,44551,784,-2080,-7792,44449,75,-161,-472,1401890087.995535
3,190,0,46371,36,37,227,46428,816,-2016,-7776,44449,75,-161,-472,1401890088.13477
3,191,0,47370,-30,17,255,48306,912,-1824,-7760,47029,76,-161,-471,1401890088.26209
3,192,0,49370,-97,10,274,49714,896,-1616,-7712,49609,79,-159,-476,1401890088.26628
3,193,0,51370,-75,8,239,51591,960,-1472,-7568,49609,79,-159,-476,1401890088.45053
3,195,0,55369,135,-3,39,55345,864,-1216,-7184,54768,80,-159,-472,1401890088.63656
3,196,0,57369,238,-9,-67,57222,672,-1168,-7104,57347,80,-159,-471,1401890088.75845
3,197,0,59369,338,-14,-167,59099,608,-1168,-7056,57347,80,-159,-471,1401890088.76299
3,198,0,61368,410,-6,-228,60975,528,-1184,-7152,59928,79,-156,-473,1401890088.94005
3,199,0,62368,445,1,-245,62852,448,-1168,-7184,62508,81,-153,-473,1401890088.100497
3,200,0,64368,499,25,-239,64730,288,-1136,-7296,65088,80,-151,-474,1401890088.112189
3,201,0,832,558,46,-211,1070,160,-1152,-7456,65088,80,-151,-474,1401890088.123751
3,203,0,4831,573,61,-161,4823,48,-1184,-7808,4713,83,-140,-471,1401890088.140872
3,204,0,6831,526,44,-170,6700,0,-1104,-7952,4713,83,-140,-471,1401890088.153269
3,205,0,8830,440,41,-202,8576,80,-1088,-8128,7292,83,-136,-475,1401890088.165756
3,206,0,10830,337,40,-256,10452,112,-1040,-8240,9873,83,-130,-477,1401890088.166076
3,208,0,13830,193,58,-308,14205,144,-1296,-8400,12454,80,-129,-471,1401890088.190546
3,209,0,15829,97,70,-339,16082,320,-1456,-8512,15034,80,-130,-472,1401890088.201848
3,210,0,17829,4,90,-361,17959,240,-1584,-8768,17615,77,-130,-471,1401890088.213722
3,211,0,19829,-69,131,-378,19835,64,-1760,-9104,20195,77,-130,-473,1401890088.225816
3,212,0,21828,-127,178,-330,21713,-320,-1968,-9424,20195,77,-130,-473,1401890088.226241
3,213,0,23828,-184,240,-267,23589,-880,-2176,-9632,22775,79,-134,-472,1401890088.243854
3,214,0,25828,-254,299,-197,25467,-1328,-2224,-9584,25356,77,-132,-472,1401890088.255841
3,215,0,26828,-288,338,-162,27344,-1632,-2336,-9248,25356,77,-132,-472,1401890088.256189
3,216,0,28827,-370,392,-81,29221,-1872,-2336,-8800,27936,78,-135,-477,1401890088.274057
3,217,0,30827,-425,427,-5,31098,-1952,-2048,-8368,30518,77,-138,-476,1401890088.280120
3,218,0,32827,-434,433,86,32975,-2032,-1904,-8112,33097,75,-141,-476,1401890088.292483
3,220,0,36826,-309,399,206,36729,-1712,-1184,-8000,35678,72,-141,-478,1401890088.311097
3,221,0,38826,-203,348,172,38607,-1296,-736,-8288,38258,75,-140,-480,1401890088.322914
3,222,0,40826,-89,275,55,40483,-832,-304,-8912,40838,71,-141,-482,1401890088.334860
3,223,0,41826,-24,239,-25,42361,-240,128,-9680,40838,71,-141,-482,1401890088.335077
3,224,0,43825,165,162,-230,44238,256,448,-10864,43419,71,-142,-483,1401890088.353542
3,225,0,45825,425,98,-456,46115,944,416,-12000,45999,72,-130,-480,1401890088.365787
3,226,0,47825,688,73,-677,47992,1200,-112,-12752,45999,72,-130,-480,1401890088.366058
3,227,0,49824,742,96,-751,49869,1424,-912,-12720,48578,69,-135,-479,1401890088.384663
3,228,0,51824,455,111,-715,51747,1600,-1328,-11728,51158,68,-131,-482,1401890088.385056
3,229,0,53824,-49,70,-579,53625,1920,-1056,-10432,53737,70,-131,-483,1401890088.402909
3,230,0,55823,-597,6,-389,55502,2144,-496,-9328,53737,70,-131,-483,1401890088.415126
3,231,0,56823,-866,-19,-279,57380,2064,32,-8256,56316,67,-140,-485,1401890088.415381
3,232,0,58823,-1304,-59,-59,59256,1856,416,-7248,58896,69,-146,-480,1401890088.434035
3,233,0,60823,-1538,-78,133,61132,1600,864,-6320,61476,70,-158,-479,1401890088.440435
3,234,0,62822,-1489,-103,257,63009,1216,1296,-5552,61476,70,-158,-479,1401890088.451911
3,235,0,64822,-1176,-130,242,64885,1008,1728,-5040,64056,74,-166,-478,1401890088.464399
3,236,0,1286,-656,-149,114,1226,624,2208,-4880,1100,78,-171,-475,1401890088.464628
3,237,0,3286,-64,-137,-106,3103,336,2496,-5216,1100,78,-171,-475,1401890088.482537
3,238,0,5285,436,-112,-365,4979,80,2576,-6080,3680,79,-174,-479,1401890088.495008
3,239,0,6285,643,-100,-480,6857,-112,2448,-7216,6261,81,-167,-477,1401890088.495400
3,240,0,8285,899,-67,-665,8734,-192,2208,-8528,8841,77,-163,-479,1401890088.513546
3,241,0,10284,971,-18,-770,10612,-96,1888,-10128,8841,77,-163,-479,1401890088.525971
3,242,0,12284,946,5,-809,12490,96,1088,-11168,11421,77,-158,-483,1401890088.526426
3,244,0,16284,732,-109,-744,16244,224,-752,-10560,16581,77,-149,-482,1401890088.549920
3,245,0,18283,364,-145,-533,18122,480,-912,-9840,16581,77,-149,-482,1401890088.562414
3,246,0,20283,-23,-162,-333,20000,720,-480,-9088,19161,75,-148,-482,1401890088.574786
3,247,0,21283,-157,-151,-274,21878,960,0,-8480,21742,80,-150,-483,1401890088.575057
3,248,0,23283,-254,-108,-253,23756,1168,368,-7968,21742,80,-150,-483,1401890088.593112
3,249,0,25282,-170,-62,-385,25634,1392,464,-7584,24323,77,-154,-481,1401890088.604893
3,251,0,29282,87,-27,-886,29388,1504,448,-7216,29483,79,-159,-484,1401890088.622899
3,253,0,33281,195,-72,-1306,33142,1536,432,-7360,32063,82,-164,-483,1401890088.641103
3,254,0,35281,180,-87,-1407,35019,1456,400,-7504,34644,79,-161,-488,1401890088.652666
3,255,0,36281,156,-99,-1425,36896,1328,336,-7760,37225,79,-163,-484,1401890088.664415
3,0,0,38280,85,-131,-1430,38774,1136,432,-8048,37225,79,-163,-484,1401890088.664689
3,1,0,40280,7,-174,-1395,40652,912,576,-8272,39806,79,-165,-478,1401890088.682320
3,2,0,42280,-62,-213,-1349,42530,672,688,-8480,42387,77,-172,-482,1401890088.694493
3,3,0,44279,-130,-270,-1339,44407,384,800,-8576,42387,77,-172,-482,1401890088.694802
3,4,0,46279,-179,-311,-1355,46285,272,928,-8528,44967,74,-176,-483,1401890088.713296
3,6,0,50279,-161,-348,-1467,50039,224,1168,-8048,50129,79,-187,-480,1401890088.730773
3,7,0,51278,-146,-351,-1494,51916,112,1360,-7760,50129,79,-187,-480,1401890088.743032
3,8,0,53278,-116,-354,-1549,53793,64,1600,-7552,52710,84,-191,-477,1401890088.755731
3,9,0,55278,-68,-332,-1577,55670,80,1792,-7600,55291,81,-195,-478,1401890088.756006
3,10,0,57277,4,-323,-1586,57547,80,1872,-7680,55291,81,-195,-478,1401890088.774675
3,11,0,59277,80,-299,-1574,59424,112,1792,-7888,57871,82,-199,-478,1401890088.775060
3,12,0,61277,133,-275,-1603,61301,176,1696,-8128,60451,83,-203,-477,1401890088.792656
3,13,0,63277,143,-258,-1635,63180,288,1408,-8208,63030,87,-205,-475,1401890088.804933
3,14,0,65276,100,-227,-1692,65057,320,1264,-8368,63030,87,-205,-475,1401890088.805296
3,15,0,740,62,-210,-1722,1399,256,1072,-8544,74,84,-210,-475,1401890088.823077
3,16,0,2740,-37,-190,-1788,3276,288,816,-8704,2653,80,-213,-474,1401890088.834805
3,17,0,4740,-122,-176,-1846,5153,224,720,-8784,5233,79,-222,-468,1401890088.835274
3,18,0,6739,-200,-182,-1896,7030,256,640,-8768,5233,79,-222,-468,1401890088.852411
3,19,0,8739,-250,-220,-1921,8907,272,576,-8640,7814,83,-226,-467,1401890088.864675
3,20,0,10739,-311,-276,-1929,10784,256,592,-8560,10394,77,-233,-467,1401890088.865020
3,21,0,12738,-345,-342,-1918,12661,256,784,-8352,10394,77,-233,-467,1401890088.883780
3,22,0,14738,-359,-411,-1907,14537,176,1040,-8336,12972,78,-239,-469,1401890088.895927
3,23,0,15738,-354,-435,-1904,16413,96,1248,-8432,15552,79,-248,-468,1401890088.896383
3,24,0,17738,-317,-482,-1915,18290,16,1424,-8560,18132,76,-255,-463,1401890088.914798
3,25,0,19737,-249,-500,-1943,20167,0,1424,-8576,18132,76,-255,-463,1401890088.915155
3,26,0,21737,-167,-503,-1970,22044,96,1280,-8544,20713,75,-3,-462,1401890088.933556
3,27,0,23737,-97,-475,-1993,23922,128,1232,-8384,23292,77,-265,-462,1401890088.945545
3,29,0,27736,-78,-398,-2036,27674,128,1312,-8224,25872,75,-270,-460,1401890088.964048
3,30,0,29736,-88,-374,-2085,29552,48,1408,-8176,28452,69,-279,-455,1401890088.970421
3,31,0,30736,-89,-358,-2120,31428,0,1584,-8160,31032,68,-283,-457,1401890088.982406
3,32,0,32735,-80,-349,-2180,33304,-160,1664,-8192,31032,68,-283,-457,1401890088.994896
3,33,0,34735,-76,-338,-2252,35181,-128,1680,-8112,33612,67,-289,-455,1401890088.995183
3,34,0,36735,-83,-340,-2317,37057,-192,1808,-8080,36192,63,-293,-456,1401890089.13731
3,35,0,38735,-115,-339,-2362,38934,-272,1760,-8128,38772,64,-300,-450,1401890089.26138
3,36,0,40734,-156,-334,-2404,40812,-272,1824,-8160,38772,64,-300,-450,1401890089.26549
3,37,0,42734,-198,-335,-2443,42689,-272,1792,-8112,41352,59,-306,-451,1401890089.43998
3,38,0,44734,-239,-334,-2466,44566,-304,1776,-8096,43932,51,-311,-450,1401890089.49585
3,39,0,45733,-261,-330,-2470,46444,-272,1840,-8064,46513,47,-320,-447,1401890089.61889
3,40,0,47733,-328,-341,-2484,48322,-240,2064,-7952,46513,47,-320,-447,1401890089.72947
3,41,0,49733,-413,-350,-2519,50199,-224,2272,-8048,49092,44,-328,-440,1401890089.85095
3,42,0,51733,-491,-352,-2555,52077,-192,2496,-8208,51671,34,-335,-441,1401890089.85424
3,43,0,53732,-529,-379,-2592,53955,-160,2640,-8496,51671,34,-335,-441,1401890089.103616
3,44,0,55732,-494,-418,-2618,55832,-464,2544,-8816,54251,30,-341,-438,1401890089.115440
3,45,0,57732,-444,-445,-2635,57710,-608,2464,-9152,56831,23,-348,-430,1401890089.115752
3,46,0,59731,-382,-502,-2582,59587,-736,2160,-9520,59411,20,-354,-430,1401890089.134195
3,47,0,60731,-352,-531,-2538,61465,-736,1776,-9920,59411,20,-354,-430,1401890089.140555
3,48,0,62731,-270,-603,-2381,63342,-560,1232,-10112,61992,10,-359,-429,1401890089.152345
3,49,0,64731,-165,-651,-2164,65221,-432,544,-10064,64572,7,-364,-426,1401890089.164065
3,50,0,1194,-105,-674,-1926,1561,-176,-48,-9792,1615,1,-367,-424,1401890089.170078
3,51,0,3194,-112,-665,-1716,3438,-80,-400,-9456,1615,1,-367,-424,1401890089.180998
3,52,0,5194,-123,-650,-1576,5316,-48,-544,-9184,4197,4,-370,-423,1401890089.192568
3,53,0,7193,-91,-654,-1540,7193,64,-640,-8784,6777,1,-373,-419,1401890089.204938
3,54,0,9193,-50,-667,-1568,9071,176,-784,-8480,6777,1,-373,-419,1401890089.205416
3,55,0,10193,-40,-672,-1593,10949,384,-720,-8256,9357,0,-377,-416,1401890089.223084
3,56,0,12193,-56,-678,-1635,12826,512,-832,-8144,11937,-256,-378,-418,1401890089.235081
3,57,0,14192,-150,-663,-1651,14703,656,-832,-7984,14516,0,-383,-416,1401890089.235424
3,58,0,16192,-236,-658,-1653,16580,688,-704,-7744,14516,0,-383,-416,1401890089.253846
3,59,0,18192,-281,-651,-1647,18457,720,-512,-7536,17094,-7,-387,-416,1401890089.265924
3,60,0,20192,-253,-652,-1645,20334,656,-304,-7376,19675,-7,-390,-414,1401890089.266279
3,61,0,22191,-185,-666,-1649,22211,608,-144,-7264,22254,-12,-390,-409,1401890089.284690
3,62,0,24191,-97,-689,-1675,24088,624,0,-7184,22254,-12,-390,-409,1401890089.285044
3,63,0,25191,-54,-694,-1681,25965,720,80,-7184,24835,-12,-395,-407,1401890089.303128
3,64,0,27191,20,-723,-1740,27841,880,224,-7408,27414,-21,-398,-412,1401890089.315415
3,65,0,29190,75,-726,-1815,29719,880,208,-7584,27414,-21,-398,-412,1401890089.315746
3,66,0,31190,124,-742,-1889,31595,1072,64,-7840,29994,-21,-399,-410,1401890089.333505
3,67,0,33190,177,-762,-1956,33471,1184,-80,-8032,32574,-28,-400,-408,1401890089.345822
3,68,0,35189,244,-753,-1985,35349,1168,-208,-8192,35155,-28,-398,-409,1401890089.346166
3,69,0,37189,308,-738,-1980,37227,1216,-544,-8288,35155,-28,-398,-409,1401890089.363585
3,70,0,39189,359,-708,-1946,39104,1136,-768,-8416,37736,-37,-400,-407,1401890089.375532
3,71,0,40189,364,-688,-1917,40981,1040,-976,-8496,40317,-37,-400,-410,1401890089.376002
3,72,0,42188,350,-653,-1881,42858,880,-976,-8464,42898,-46,-401,-415,1401890089.394284
3,73,0,44188,322,-628,-1866,44734,816,-1024,-8400,42898,-46,-401,-415,1401890089.399985
3,74,0,46188,291,-608,-1881,46611,672,-912,-8320,45478,-46,-399,-415,1401890089.412140
3,75,0,48187,270,-603,-1909,48489,464,-848,-8336,48059,-54,-399,-416,1401890089.424650
3,76,0,50187,260,-589,-1903,50367,336,-752,-8400,48059,-54,-399,-416,1401890089.425042
3,77,0,52187,252,-562,-1884,52245,240,-608,-8432,50640,-54,-400,-421,1401890089.442385
3,78,0,54187,220,-534,-1843,54123,112,-528,-8544,53220,-63,-398,-419,1401890089.454663
3,79,0,55186,200,-509,-1813,56001,128,-448,-8528,55800,-63,-396,-419,1401890089.455121
3,80,0,57186,168,-448,-1750,57878,192,-384,-8448,55800,-63,-396,-419,1401890089.472758
3,81,0,59186,123,-385,-1683,59754,304,-240,-8336,58379,-72,-396,-422,1401890089.485012
3,82,0,61185,84,-324,-1630,61632,352,-128,-8272,60960,-72,-395,-422,1401890089.485446
3,83,0,63185,58,-269,-1570,63509,480,-32,-8224,63540,-87,-396,-420,1401890089.504124
3,84,0,65185,50,-236,-1521,65387,576,-128,-8192,63540,-87,-396,-420,1401890089.510260
3,85,0,1649,63,-207,-1476,1728,688,-96,-8080,583,-87,-396,-420,1401890089.522600
3,86,0,3648,76,-195,-1430,3606,800,-128,-7968,3164,-92,-392,-421,1401890089.535129
3,87,0,4648,88,-189,-1412,5483,800,-160,-7840,3164,-92,-392,-421,1401890089.535363
3,88,0,6648,97,-187,-1383,7362,704,-240,-7840,5744,-92,-394,-420,1401890089.552443
3,89,0,8648,113,-191,-1364,9239,624,-240,-7824,8324,-99,-389,-422,1401890089.564644
3,90,0,10647,114,-185,-1347,11115,560,-272,-7776,10904,-99,-387,-422,1401890089.564916
3,91,0,12647,99,-189,-1349,12992,592,-352,-7728,10904,-99,-387,-422,1401890089.583152
3,92,0,14647,68,-186,-1346,14869,576,-400,-7760,13484,-110,-390,-425,1401890089.594796
3,93,0,16646,52,-185,-1326,16746,624,-400,-7808,16064,-110,-389,-425,1401890089.595275
3,94,0,18646,55,-179,-1304,18624,640,-448,-7936,18644,-118,-387,-426,1401890089.613209
3,95,0,19646,63,-174,-1282,20501,656,-544,-8016,18644,-118,-387,-426,1401890089.625468
3,96,0,21646,80,-172,-1243,22378,560,-592,-8080,21224,-118,-386,-427,1401890089.625738
3,97,0,23645,114,-148,-1209,24255,576,-608,-8128,23804,-125,-387,-423,1401890089.644307
3,98,0,25645,133,-139,-1180,26133,480,-688,-8144,23804,-125,-387,-423,1401890089.644653
3,99,0,27645,138,-114,-1154,28010,528,-624,-8160,26385,-125,-383,-429,1401890089.662335
3,100,0,29644,160,-99,-1146,29887,560,-640,-8192,28966,-135,-382,-427,1401890089.674833
3,101,0,31644,168,-86,-1137,31765,528,-672,-8064,31545,-135,-379,-427,1401890089.675116
3,102,0,33644,183,-75,-1131,33642,544,-704,-8000,31545,-135,-379,-427,1401890089.693556
3,103,0,34644,185,-72,-1118,35520,592,-752,-7968,34125,-138,-377,-428,1401890089.706132
3,104,0,36643,170,-59,-1097,37397,560,-800,-7872,36706,-138,-373,-428,1401890089.706551
3,105,0,38643,148,-47,-1082,39274,528,-848,-7872,39285,-149,-371,-428,1401890089.724274
3,106,0,40643,139,-32,-1052,41148,496,-816,-7952,39285,-149,-371,-428,1401890089.724480
3,107,0,42643,129,-14,-1028,43025,464,-880,-8016,41866,-149,-373,-430,1401890089.742643
3,108,0,44642,132,-5,-999,44902,416,-816,-8064,44445,-155,-366,-431,1401890089.754194
3,109,0,46642,135,2,-988,46779,304,-768,-8080,44445,-155,-366,-431,1401890089.754430
3,110,0,48642,121,0,-978,48656,240,-768,-8112,47025,-155,-364,-433,1401890089.772465
3,111,0,49642,115,6,-969,50533,208,-816,-8144,49605,-160,-359,-429,1401890089.784815
3,112,0,51641,103,12,-945,52411,112,-800,-8176,52186,-160,-357,-435,1401890089.785263
3,113,0,53641,101,23,-915,54288,32,-832,-8128,52186,-160,-357,-435,1401890089.803735
3,114,0,55641,82,30,-870,56166,0,-864,-8112,54766,-166,-354,-434,1401890089.815817
3,115,0,57640,66,53,-811,58044,-48,-832,-8048,57346,-166,-354,-433,1401890089.816159
3,116,0,59640,55,75,-757,59921,-32,-784,-8000,57346,-166,-354,-433,1401890089.834390
3,117,0,61640,62,111,-699,61798,16,-832,-7856,59927,-171,-354,-430,1401890089.834568
3,118,0,63639,92,134,-655,63675,16,-880,-7792,62507,-171,-357,-430,1401890089.852352
3,119,0,64639,114,144,-638,17,48,-880,-7696,65086,-176,-350,-429,1401890089.864589
3,120,0,1103,143,164,-619,1894,16,-960,-7744,65086,-176,-350,-429,1401890089.864863
3,121,0,3103,161,178,-616,3772,-32,-928,-7824,2132,-176,-348,-430,1401890089.882660
3,122,0,5102,162,184,-607,5649,-64,-928,-7824,4711,-185,-344,-431,1401890089.894575
3,123,0,7102,166,190,-585,7527,-96,-960,-7824,7293,-185,-343,-431,1401890089.894885
3,124,0,9102,174,204,-557,9404,-96,-944,-7872,7293,-185,-343,-431,1401890089.912535
3,125,0,11102,198,219,-536,11280,-96,-928,-7984,9873,-189,-337,-429,1401890089.924591
3,126,0,13101,227,223,-535,13157,-16,-800,-8224,12453,-189,-337,-430,1401890089.924858
3,127,0,14101,251,221,-536,15033,112,-672,-8704,12453,-189,-337,-430,1401890089.943505
3,128,0,16101,292,218,-577,16910,176,-688,-9136,15034,-196,-332,-429,1401890089.955072
3,129,0,18100,307,218,-630,18787,272,-736,-9632,17613,-196,-328,-429,1401890089.955307
3,130,0,20100,302,212,-683,20664,336,-864,-9728,20194,-198,-324,-430,1401890089.973649
3,131,0,22100,236,198,-686,22542,320,-960,-9536,20194,-198,-324,-430,1401890089.986236
3,132,0,24100,60,186,-628,24418,272,-1008,-9264,22775,-205,-323,-429,1401890089.986494
3,133,0,26099,-169,159,-493,26295,368,-960,-8960,25355,-205,-318,-432,1401890090.4770
3,134,0,28099,-408,126,-309,28171,384,-720,-8544,27936,-205,-325,-429,1401890090.4992
3,135,0,29099,-514,112,-210,30049,480,-496,-8176,27936,-205,-325,-429,1401890090.23283
3,136,0,31099,-655,91,-27,31926,512,-368,-7856,30517,-209,-332,-423,1401890090.35310
3,137,0,33098,-665,80,76,33802,416,-192,-7664,33098,-210,-328,-422,1401890090.35652
3,138,0,35098,-555,67,106,35210,400,-80,-7632,35679,-209,-334,-418,1401890090.54142
3,139,0,37098,-377,36,36,37556,208,-48,-7712,35679,-209,-334,-418,1401890090.60504
3,140,0,39097,-196,6,-99,38964,144,-160,-7776,38259,-204,-337,-413,1401890090.72953
3,141,0,41097,-39,-15,-247,40841,80,-208,-8032,40841,-207,-333,-416,1401890090.85162
3,142,0,43097,65,-28,-406,42718,128,-320,-8240,40841,-207,-333,-416,1401890090.85541
3,143,0,44097,95,-25,-472,44596,128,-384,-8640,43422,-208,-332,-414,1401890090.104117
3,144,0,46096,112,-1,-556,46472,176,-352,-9024,46003,-209,-330,-415,1401890090.110471
3,145,0,48096,129,34,-551,48349,288,-304,-9152,48582,-214,-328,-414,1401890090.122441
3,146,0,50096,155,90,-504,50226,560,-400,-8976,48582,-214,-328,-414,1401890090.134637
3,147,0,52095,169,115,-444,52103,784,-288,-8544,51162,-214,-327,-418,1401890090.134968
3,148,0,54095,141,120,-406,53980,1072,-160,-8112,53742,-213,-323,-419,1401890090.153553
3,149,0,56095,95,96,-393,55857,1120,32,-7712,53742,-213,-323,-419,1401890090.165373
3,150,0,58095,58,71,-408,57734,1136,336,-7456,56322,-219,-320,-416,1401890090.165607
3,151,0,59094,47,53,-408,59611,1136,592,-7296,58903,-221,-319,-414,1401890090.183965
3,152,0,61094,54,29,-437,61488,1024,736,-7264,61483,-218,-322,-418,1401890090.190237
3,153,0,63094,81,12,-454,63365,864,912,-7360,61483,-218,-322,-418,1401890090.201908
3,154,0,65094,118,-2,-457,65242,640,1024,-7440,64063,-222,-318,-416,1401890090.213711
3,155,0,1557,162,-21,-463,1584,432,1088,-7728,1107,-228,-313,-412,1401890090.225467
3,156,0,3557,168,-33,-485,3461,112,1088,-8048,3687,-227,-311,-417,1401890090.225738
3,157,0,5557,169,-41,-526,5338,-80,1136,-8496,3687,-227,-311,-417,1401890090.243524
3,159,0,8556,145,-48,-544,9092,-544,864,-9392,8848,-227,-305,-416,1401890090.261357
3,160,0,10556,143,-60,-539,10969,-736,624,-9424,8848,-227,-305,-416,1401890090.273070
3,161,0,12556,104,-71,-504,12846,-960,512,-9296,11428,-233,-303,-416,1401890090.285519
3,162,0,14555,9,-93,-472,14724,-1136,544,-9088,14009,-234,-300,-417,1401890090.285890
3,163,0,16555,-68,-106,-445,16601,-1296,640,-8848,16589,-236,-298,-418,1401890090.304517
3,164,0,18555,-81,-137,-409,18479,-1360,880,-8464,16589,-236,-298,-418,1401890090.304983
3,165,0,20554,-34,-161,-371,20356,-1328,896,-8144,19169,-237,-301,-417,1401890090.323613
3,166,0,22554,24,-171,-346,22233,-1232,784,-7616,21749,-236,-297,-419,1401890090.335616
3,167,0,23554,57,-164,-331,24109,-1072,768,-7344,24330,-233,-299,-418,1401890090.335868
3,168,0,25554,104,-135,-321,25987,-784,720,-7200,24330,-233,-299,-418,1401890090.354149
3,169,0,27553,140,-90,-331,27864,-560,560,-7152,26909,-236,-298,-414,1401890090.359799
3,170,0,29553,159,-34,-342,29741,-384,448,-7264,29489,-234,-296,-421,1401890090.371485
3,171,0,31553,175,9,-353,31618,-208,320,-7456,29489,-234,-296,-421,1401890090.383986
3,172,0,33553,178,35,-386,33495,-144,272,-7680,32069,-237,-293,-420,1401890090.390410
3,173,0,35552,173,42,-419,35372,-128,48,-7952,34648,-235,-290,-422,1401890090.402762
3,174,0,37552,151,28,-456,37249,-128,-96,-8208,37228,-239,-289,-418,1401890090.414444
3,175,0,38552,143,19,-466,39126,-160,-208,-8400,37228,-239,-289,-418,1401890090.414715
3,176,0,40551,105,-20,-462,41004,-240,-320,-8592,39809,-240,-289,-418,1401890090.433148
3,177,0,42551,65,-73,-456,42882,-256,-352,-8672,42390,-243,-286,-420,1401890090.445109
3,178,0,44551,16,-138,-419,44761,-288,-400,-8608,44970,-242,-284,-424,1401890090.445350
3,179,0,46551,-25,-165,-378,46639,-288,-464,-8592,44970,-242,-284,-424,1401890090.463456
3,180,0,48550,-74,-207,-342,48516,-272,-448,-8416,47550,-242,-285,-421,1401890090.475526
3,181,0,50550,-115,-247,-306,50394,-336,-416,-8320,50130,-247,-285,-422,1401890090.475951
3,182,0,52550,-154,-276,-281,52271,-304,-288,-8272,50130,-247,-285,-422,1401890090.494587
3,183,0,53550,-162,-286,-272,54145,-448,-224,-8144,52710,-243,-286,-421,1401890090.494891
3,184,0,55549,-188,-294,-286,56022,-336,-192,-8096,55289,-241,-288,-422,1401890090.513526
3,185,0,57549,-195,-322,-302,57900,-512,-144,-8080,57870,-238,-289,-421,1401890090.525701
3,186,0,59549,-188,-327,-319,59777,-480,-96,-8048,57870,-238,-289,-421,1401890090.526020
3,187,0,61548,-169,-311,-335,61655,-464,-112,-7920,60450,-238,-290,-424,1401890090.544110
3,188,0,63548,-124,-296,-340,63532,-416,-144,-7808,63030,-237,-289,-425,1401890090.550456
3,189,0,12,-91,-280,-353,65410,-464,-192,-7696,76,-234,-293,-427,1401890090.561808
3,190,0,2011,-74,-263,-359,1751,-560,-192,-7680,76,-234,-293,-427,1401890090.573739
3,191,0,3011,-70,-248,-358,3630,-592,-160,-7712,2657,-234,-293,-429,1401890090.586136
3,192,0,5011,-61,-224,-353,5508,-688,-160,-7648,5236,-232,-291,-429,1401890090.586464
3,193,0,7011,-30,-211,-324,7386,-800,-144,-7616,5236,-232,-291,-429,1401890090.604991
3,194,0,9010,-1,-213,-272,9263,-960,-144,-7600,7816,-232,-292,-429,1401890090.605423
3,195,0,11010,4,-223,-227,11141,-992,-224,-7504,10396,-231,-292,-431,1401890090.623406
3,196,0,13010,-7,-195,-203,13019,-912,-224,-7504,12977,-227,-291,-431,1401890090.635570
3,197,0,15010,-12,-176,-174,14897,-928,-256,-7616,12977,-227,-291,-431,1401890090.635832
3,198,0,17009,-16,-179,-145,16775,-832,-304,-7744,15557,-228,-292,-433,1401890090.653644
3,199,0,18009,-17,-185,-131,18653,-720,-288,-7888,18137,-227,-292,-433,1401890090.666050
3,200,0,20009,-26,-193,-98,20530,-688,-368,-8080,20717,-227,-293,-435,1401890090.666385
3,201,0,22009,-39,-192,-67,22408,-576,-352,-8160,20717,-227,-293,-435,1401890090.684158
3,202,0,24008,-51,-187,-33,24286,-592,-528,-8176,23298,-225,-292,-432,1401890090.690241
3,203,0,26008,-50,-203,-19,26162,-624,-592,-8192,25879,-224,-293,-435,1401890090.702508
3,204,0,28008,-58,-221,-4,28040,-672,-640,-8224,25879,-224,-293,-435,1401890090.714744
3,205,0,30007,-51,-247,15,29918,-672,-608,-8336,28458,-223,-294,-436,1401890090.715020
3,206,0,32007,-4,-258,35,31796,-672,-672,-8576,31040,-220,-294,-440,1401890090.733106
3,207,0,33007,21,-268,44,33673,-624,-880,-8848,33620,-219,-295,-439,1401890090.745071
3,208,0,35007,66,-235,38,35551,-432,-1056,-9056,33620,-219,-295,-439,1401890090.745344
3,209,0,37006,87,-209,26,37428,-208,-1328,-9328,36200,-214,-292,-438,1401890090.762934
3,210,0,39006,45,-197,-3,39306,-112,-1520,-9456,38779,-211,-296,-441,1401890090.774464
3,211,0,41006,-10,-187,-18,41183,-64,-1568,-9488,41360,-212,-296,-442,1401890090.774782
3,214,0,47005,-232,-128,-63,46815,-496,-1024,-9936,46521,-205,-298,-444,1401890090.815811
3,215,0,48005,-286,-113,-73,48693,-880,-752,-10464,46521,-205,-298,-444,1401890090.816109
3,216,0,50004,-364,-72,-87,50571,-1168,-320,-10960,49101,-206,-300,-443,1401890090.834610
3,217,0,52004,-303,-53,-94,52449,-1136,-64,-10816,51682,-206,-298,-443,1401890090.834850
3,218,0,54004,-196,-23,-107,54326,-928,160,-10416,54263,-204,-301,-441,1401890090.852900
3,219,0,56004,-175,-3,-114,56203,-272,160,-10368,54263,-204,-301,-441,1401890090.864557
3,220,0,58003,-181,30,-128,58081,672,-160,-10464,56844,-203,-302,-436,1401890090.864782
3,221,0,60003,-138,44,-165,59958,1456,-768,-10544,59425,-204,-303,-439,1401890090.883052
3,222,0,62003,-104,74,-211,61835,2224,-1216,-10384,62005,-201,-300,-441,1401890090.895487
3,223,0,63002,-107,87,-224,63712,2608,-1280,-10016,62005,-201,-300,-441,1401890090.895720
3,224,0,65002,-145,158,-222,54,3024,-976,-9568,64585,-204,-303,-439,1401890090.913779
3,225,0,1466,-178,215,-144,1931,3312,-448,-8960,1629,-208,-299,-437,1401890090.925605
3,226,0,3466,-152,238,-33,3808,3424,-16,-8256,1629,-208,-299,-437,1401890090.925885
3,227,0,5465,-78,217,75,5682,3328,464,-7488,4209,-206,-306,-437,1401890090.943903
3,228,0,7465,-23,166,133,7559,2976,1008,-6720,6789,-205,-304,-439,1401890090.949833
3,229,0,9465,-19,98,107,9437,2560,1440,-6064,9370,-206,-302,-436,1401890090.962235
3,230,0,11464,-82,43,36,11315,2096,1616,-5584,9370,-206,-302,-436,1401890090.974381
3,231,0,12464,-129,22,-14,13192,1872,1616,-5328,11949,-204,-303,-437,1401890090.974655
3,232,0,14464,-221,-11,-114,15070,1712,1456,-5296,14530,-203,-306,-437,1401890090.992347
3,233,0,16464,-272,-19,-249,16947,1696,1328,-5456,17111,-206,-306,-434,1401890091.4781
3,234,0,18463,-267,-13,-363,18824,1856,1024,-5888,17111,-206,-306,-434,1401890091.5080
3,235,0,20463,-178,33,-438,20702,1968,544,-6448,19690,-203,-302,-433,1401890091.23609
3,236,0,22463,-17,129,-457,22581,2288,48,-7200,22271,-207,-300,-431,1401890091.36111
3,237,0,24463,182,251,-431,24459,2368,-336,-8064,22271,-207,-300,-431,1401890091.36350
3,238,0,26462,370,359,-416,26337,2432,-624,-9008,24851,-209,-300,-427,1401890091.54905
3,239,0,27462,457,390,-409,28214,2096,-832,-9648,27431,-208,-293,-434,1401890091.55218
3,240,0,29462,608,381,-439,30091,1472,-992,-9648,30011,-214,-286,-432,1401890091.72159
