nodeID,seqNumber,status,gyroTick,gyroX,gyroY,gyroZ,accelTick,accelX,accelY,accelZ,magTick,magX,magY,magZ,currentTime
2,50,0,21657,-11,14,-28,21379,336,-2096,-7648,20471,-65,-217,-377,1401715255.751590
2,51,0,23647,-21,10,-13,23260,336,-1984,-7584,23031,-65,-214,-372,1401715255.756257
2,52,0,24642,-24,14,-14,25140,304,-2016,-7632,23031,-65,-214,-372,1401715255.756266
2,53,0,26632,-16,11,-11,27021,368,-2080,-7632,25594,-62,-216,-374,1401715255.756268
2,54,0,28622,-14,-2,-11,28902,368,-2080,-7664,28154,-64,-217,-374,1401715255.756270
2,55,0,30612,-15,5,-3,30782,352,-1968,-7568,30714,-65,-217,-375,1401715255.756272
2,56,0,32602,-33,5,-1,32662,368,-1968,-7552,30714,-65,-217,-375,1401715255.756273
2,57,0,34592,-57,5,-6,34543,368,-1984,-7536,33276,-64,-215,-375,1401715255.756275
2,58,0,36582,-61,-7,-6,36423,304,-2048,-7568,35836,-66,-216,-374,1401715255.756277
2,59,0,38572,-47,-9,-8,38304,256,-2064,-7616,38397,-65,-215,-375,1401715255.756278
2,60,0,39567,-35,-16,-18,40184,288,-2064,-7600,38397,-65,-215,-375,1401715255.756280
2,61,0,41557,-33,-16,-29,42065,288,-2032,-7568,40958,-62,-215,-370,1401715255.756281
2,62,0,43547,-47,-5,-27,43945,240,-2064,-7600,43518,-64,-217,-374,1401715255.756283
2,63,0,45537,-45,-3,-25,45826,272,-2048,-7680,46078,-64,-219,-376,1401715255.756285
2,64,0,47527,-47,6,-21,47706,240,-2160,-7648,46078,-64,-219,-376,1401715255.756286
2,65,0,49517,-36,6,-27,49587,304,-2160,-7648,48639,-66,-218,-372,1401715255.756288
2,66,0,51507,-43,10,-22,51467,288,-2128,-7664,51200,-63,-214,-374,1401715255.756289
2,67,0,53497,-53,12,-9,53347,304,-2128,-7632,51200,-63,-214,-374,1401715255.756291
2,68,0,55487,-60,9,-19,55228,320,-2128,-7584,53762,-63,-221,-375,1401715255.756293
2,69,0,56482,-62,2,-22,57108,304,-2096,-7552,56323,-68,-218,-377,1401715255.756294
2,70,0,58471,-69,-8,-28,58988,336,-2048,-7504,58884,-64,-221,-377,1401715255.756296
2,71,0,60461,-86,-9,-32,60868,304,-2064,-7504,58884,-64,-221,-377,1401715255.756297
2,72,0,62451,-82,4,-30,62748,272,-1952,-7520,61445,-66,-220,-373,1401715255.756299
2,73,0,64441,-73,1,-21,64629,320,-2000,-7488,64007,-65,-222,-377,1401715255.756301
2,74,0,895,-62,2,-16,973,320,-2016,-7520,1032,-64,-221,-373,1401715255.756302
2,75,0,2885,-53,2,-22,2854,272,-2128,-7568,1032,-64,-221,-373,1401715255.756304
2,76,0,4875,-53,-1,-28,4734,256,-2096,-7648,3593,-63,-222,-376,1401715255.756306
2,77,0,6865,-55,3,-23,6615,272,-2256,-7584,6153,-65,-223,-373,1401715255.756307
2,78,0,7860,-64,6,-27,8495,304,-2176,-7632,8716,-65,-225,-374,1401715255.756309
2,79,0,9850,-72,1,-12,10376,224,-2288,-7600,8716,-65,-225,-374,1401715255.756310
2,80,0,11840,-79,8,-17,12256,208,-2224,-7616,11277,-68,-224,-375,1401715255.756312
2,81,0,13830,-84,10,-19,14136,256,-2176,-7632,13838,-65,-224,-371,1401715255.756314
2,82,0,15820,-87,4,-19,16017,240,-2176,-7616,13838,-65,-224,-371,1401715255.756315
2,83,0,17810,-82,-1,-18,17898,160,-2176,-7616,16400,-66,-226,-374,1401715255.756317
2,84,0,19800,-88,10,-21,19779,272,-2192,-7568,18962,-66,-226,-374,1401715255.756318
2,85,0,21790,-91,7,-19,21658,224,-2272,-7568,21523,-67,-228,-373,1401715255.756320
2,86,0,22785,-96,8,-18,23539,304,-2224,-7568,21523,-67,-228,-373,1401715255.756333
2,87,0,24775,-98,4,-22,25420,272,-2240,-7488,24085,-68,-228,-373,1401715255.756334
2,88,0,26765,-95,5,-24,27300,256,-2192,-7552,26647,-69,-228,-373,1401715255.756336
2,89,0,28755,-88,12,-31,29180,272,-2224,-7504,29209,-67,-226,-371,1401715255.756338
2,90,0,30745,-86,11,-31,31061,272,-2256,-7552,29209,-67,-226,-371,1401715255.756339
2,91,0,32734,-82,5,-35,32941,176,-2288,-7552,31769,-67,-229,-374,1401715255.756341
2,92,0,34724,-73,11,-26,34820,160,-2352,-7584,34331,-66,-230,-372,1401715255.756342
2,93,0,36714,-78,11,-25,36701,240,-2336,-7600,36892,-67,-233,-371,1401715255.756344
2,94,0,38704,-76,18,-23,38581,208,-2288,-7648,36892,-67,-233,-371,1401715255.756346
2,95,0,39699,-74,16,-18,40461,176,-2320,-7552,39453,-67,-231,-370,1401715255.756347
2,96,0,41689,-78,18,-21,42341,176,-2288,-7552,42014,-70,-230,-375,1401715255.756349
2,97,0,43679,-80,7,-28,44222,256,-2304,-7504,42014,-70,-230,-375,1401715255.756350
2,98,0,45669,-75,6,-23,46102,272,-2272,-7456,44575,-69,-231,-371,1401715255.756392
2,99,0,47659,-74,9,-30,47982,320,-2320,-7488,47136,-72,-231,-369,1401715255.756394
2,100,0,49649,-81,1,-24,49862,240,-2256,-7424,49697,-69,-232,-375,1401715255.756395
2,101,0,51639,-67,4,-38,51743,304,-2288,-7488,49697,-69,-232,-375,1401715255.756397
2,102,0,53629,-62,2,-29,53623,272,-2320,-7504,52257,-72,-238,-371,1401715255.756399
2,103,0,55619,-58,2,-32,55503,272,-2352,-7472,54817,-72,-235,-372,1401715255.756400
2,104,0,56614,-57,-3,-40,57384,304,-2336,-7456,57377,-72,-233,-369,1401715255.756402
2,105,0,58604,-48,4,-44,59265,208,-2336,-7520,57377,-72,-233,-369,1401715255.756403
2,106,0,60594,-47,-1,-44,61146,208,-2352,-7552,59939,-73,-239,-372,1401715255.756405
2,107,0,62584,-35,-2,-48,63027,208,-2352,-7488,62499,-67,-236,-369,1401715255.756406
2,108,0,64574,-28,-11,-57,64907,240,-2304,-7584,62499,-67,-236,-369,1401715255.756408
2,109,0,1028,-31,-2,-56,1251,208,-2352,-7472,65060,-71,-235,-370,1401715255.756410
2,110,0,3018,-39,-2,-52,3131,112,-2272,-7504,2084,-69,-235,-371,1401715255.756411
2,111,0,5007,-29,3,-43,5011,160,-2320,-7536,4646,-71,-239,-370,1401715255.756413
2,112,0,6002,-25,0,-46,6891,144,-2432,-7504,4646,-71,-239,-370,1401715255.756415
2,113,0,7992,-17,-1,-40,8772,144,-2432,-7536,7206,-69,-237,-368,1401715255.756416
2,114,0,9982,-19,-2,-34,10652,208,-2384,-7504,9766,-69,-235,-368,1401715255.756418
2,115,0,11972,-13,1,-30,12532,128,-2432,-7504,12327,-71,-237,-367,1401715255.756419
2,116,0,13962,-3,2,-27,14413,128,-2416,-7488,12327,-71,-237,-367,1401715255.756421
2,117,0,15952,2,2,-23,16293,80,-2432,-7552,14888,-72,-238,-365,1401715255.756423
2,118,0,17942,-4,5,-17,18173,144,-2352,-7504,17449,-72,-237,-369,1401715255.756424
2,119,0,19932,-1,6,-27,20054,176,-2416,-7488,20009,-69,-235,-370,1401715255.756426
2,120,0,21922,2,4,-33,21934,160,-2384,-7504,20009,-69,-235,-370,1401715255.756428
2,121,0,22917,2,5,-26,23815,192,-2384,-7536,22569,-74,-235,-365,1401715255.756429
2,122,0,24907,10,10,-21,25694,176,-2416,-7520,25131,-68,-236,-373,1401715255.756431
2,123,0,26897,3,10,-26,27574,256,-2480,-7408,25131,-68,-236,-373,1401715255.756432
2,124,0,28887,-2,9,-17,29453,208,-2384,-7472,27691,-71,-234,-370,1401715255.756434
2,125,0,30877,-22,3,-9,31334,176,-2320,-7424,30251,-71,-235,-372,1401715255.756436
2,126,0,32867,-18,0,-15,33214,176,-2384,-7440,32812,-72,-238,-370,1401715255.756437
2,127,0,34857,-25,-1,-14,35094,208,-2288,-7456,32812,-72,-238,-370,1401715255.756439
2,128,0,36847,-21,-7,-19,36973,160,-2336,-7440,35373,-74,-237,-373,1401715255.756440
2,129,0,38837,-19,-14,-26,38383,192,-2304,-7472,37935,-71,-238,-370,1401715255.756442
2,130,0,39832,-21,-6,-25,40264,176,-2240,-7472,40496,-71,-238,-371,1401715255.756444
2,131,0,41822,-17,-5,-33,42144,208,-2336,-7456,40496,-71,-238,-371,1401715255.756445
2,132,0,43811,-19,-5,-28,44024,176,-2384,-7488,43055,-72,-234,-371,1401715255.756447
2,133,0,45801,-14,0,-22,45905,160,-2336,-7552,45616,-74,-236,-368,1401715255.756448
2,134,0,47791,-11,7,-20,47785,144,-2432,-7520,48176,-70,-236,-369,1401715255.756450
2,135,0,49781,-6,-3,-14,49664,176,-2416,-7552,48176,-70,-236,-369,1401715255.756451
2,136,0,51771,-17,3,-10,51545,128,-2384,-7584,50737,-73,-237,-368,1401715255.756453
2,137,0,53761,-34,-4,-7,53425,144,-2384,-7584,53298,-73,-238,-370,1401715255.756455
2,138,0,54756,-26,-9,-16,55305,128,-2352,-7536,53298,-73,-238,-370,1401715255.756456
2,139,0,56746,-32,-4,-18,57184,112,-2352,-7488,55859,-71,-239,-369,1401715255.756458
2,140,0,58736,-24,-2,-24,59064,176,-2352,-7472,58420,-73,-235,-368,1401715255.756459
2,141,0,60726,-14,-4,-26,60944,144,-2368,-7456,60981,-72,-236,-367,1401715255.756461
2,142,0,62716,-5,-5,-29,62824,160,-2384,-7424,60981,-72,-236,-367,1401715255.756463
2,143,0,64706,1,-4,-28,64705,192,-2384,-7440,63541,-72,-241,-367,1401715255.756464
2,144,0,1160,6,-6,-24,1049,160,-2400,-7472,567,-72,-235,-370,1401715255.756466
2,145,0,3150,12,-6,-23,2929,208,-2304,-7408,3127,-75,-239,-372,1401715255.756467
2,146,0,5140,15,-10,-31,4808,192,-2288,-7504,3127,-75,-239,-372,1401715255.756469
2,147,0,6135,9,-12,-28,6688,192,-2400,-7504,5689,-73,-236,-370,1401715255.756482
2,148,0,8125,10,-9,-31,8568,224,-2448,-7472,8250,-75,-236,-372,1401715255.756485
2,149,0,10115,9,-16,-20,10448,208,-2336,-7504,10811,-71,-236,-370,1401715255.756486
2,150,0,12105,18,-14,-20,12328,192,-2480,-7568,10811,-71,-236,-370,1401715255.756509
2,151,0,14095,11,-13,-16,14209,208,-2528,-7520,13371,-71,-236,-368,1401715255.756511
2,152,0,16085,-3,-12,-27,16089,192,-2400,-7552,15932,-70,-238,-373,1401715255.756513
2,153,0,18074,-11,-14,-15,17970,160,-2352,-7456,15932,-70,-238,-373,1401715255.756515
2,154,0,20064,-13,-18,-9,19850,176,-2384,-7504,18494,-75,-237,-369,1401715255.756516
2,155,0,22054,-3,-20,-9,21730,144,-2272,-7488,21056,-72,-236,-371,1401715255.756518
2,156,0,23049,1,-19,-4,23610,144,-2272,-7488,23617,-72,-235,-371,1401715255.756519
2,157,0,25039,19,-17,-7,25491,144,-2336,-7488,23617,-72,-235,-371,1401715255.756521
2,158,0,27029,33,-9,-7,27372,160,-2352,-7488,26177,-72,-240,-368,1401715255.756523
2,159,0,29019,34,-11,-5,29252,112,-2400,-7504,28738,-73,-232,-371,1401715255.756524
2,160,0,31009,25,-15,-4,31133,128,-2320,-7504,31300,-72,-235,-371,1401715255.756526
2,161,0,32999,11,-11,1,33014,176,-2368,-7488,31300,-72,-235,-371,1401715255.756528
2,162,0,34989,7,-14,-10,34894,128,-2384,-7520,33861,-75,-237,-371,1401715255.756529
2,163,0,36979,3,-15,1,36775,176,-2432,-7520,36422,-71,-236,-370,1401715255.756531
2,164,0,37974,1,-12,1,38655,224,-2384,-7488,36422,-71,-236,-370,1401715255.756533
2,165,0,39964,0,-14,-12,40536,240,-2400,-7488,38983,-72,-235,-368,1401715255.756534
2,166,0,41954,-1,-7,-13,42416,224,-2384,-7536,41545,-75,-236,-370,1401715255.756536
2,167,0,43944,2,-8,-17,44297,208,-2416,-7504,44107,-73,-232,-371,1401715255.756539
2,168,0,45934,-1,-6,-24,46177,240,-2352,-7472,44107,-73,-232,-371,1401715255.756540
2,169,0,47924,-5,-6,-18,48057,192,-2384,-7504,46667,-73,-232,-369,1401715255.756542
2,170,0,49914,6,-2,-15,49937,176,-2288,-7456,49228,-73,-234,-369,1401715255.756544
2,171,0,51904,17,-10,-15,51817,224,-2320,-7488,51789,-73,-233,-372,1401715255.756546
2,172,0,53894,29,-10,-23,53698,208,-2272,-7536,51789,-73,-233,-372,1401715255.756547
2,173,0,54889,27,-4,-27,55579,208,-2304,-7472,54350,-70,-233,-367,1401715255.756549
2,174,0,56878,36,-8,-24,57459,192,-2304,-7520,56912,-74,-233,-369,1401715255.756550
2,175,0,58868,41,-10,-29,59340,240,-2336,-7536,59473,-71,-232,-369,1401715255.756552
2,176,0,60858,28,-7,-35,61221,192,-2352,-7568,59473,-71,-232,-369,1401715255.756554
2,177,0,62848,32,-5,-26,63101,224,-2336,-7568,62035,-75,-232,-369,1401715255.756555
2,178,0,64838,32,2,-22,64981,224,-2272,-7536,64596,-68,-232,-371,1401715255.756557
2,222,0,39420,-45,16,-47,39388,-288,-992,-7888,38101,-131,-152,-387,1401715255.756871
2,223,0,41410,-50,22,-55,41268,-208,-1024,-7776,40664,-134,-152,-385,1401715255.775415
2,224,0,43400,-54,20,-54,43148,-272,-1008,-7840,43225,-135,-151,-384,1401715255.781785
2,225,0,45390,-49,17,-58,45028,-240,-1024,-7856,43225,-135,-151,-384,1401715255.794004
2,226,0,46385,-44,19,-59,46909,-320,-960,-7824,45786,-133,-157,-386,1401715255.806382
2,227,0,48375,-38,17,-59,48788,-256,-1024,-7824,48348,-130,-155,-387,1401715255.806628
2,228,0,50365,-29,18,-57,50668,-352,-928,-7824,50910,-130,-156,-385,1401715255.825280
2,229,0,52355,-19,14,-69,52548,-352,-960,-7840,50910,-130,-156,-385,1401715255.831834
2,230,0,54345,-6,20,-71,54428,-368,-976,-7808,53471,-138,-151,-388,1401715255.844143
2,231,0,56335,-11,16,-80,56308,-400,-976,-7808,56031,-134,-153,-387,1401715255.856178
2,232,0,58325,-5,9,-88,58188,-368,-1040,-7904,56031,-134,-153,-387,1401715255.856558
2,233,0,60315,-6,5,-82,60068,-368,-944,-7872,58592,-137,-153,-386,1401715255.874881
2,234,0,62305,-6,5,-83,61949,-368,-1088,-7904,61153,-134,-153,-387,1401715255.887177
2,235,0,63300,-7,0,-75,63829,-336,-1072,-7872,63714,-131,-151,-384,1401715255.887669
2,236,0,65290,-5,-4,-65,172,-384,-1088,-7888,63714,-131,-151,-384,1401715255.906290
2,237,0,1744,-9,-6,-47,2051,-352,-1072,-7904,737,-135,-153,-386,1401715255.906739
2,238,0,3734,-23,-11,-55,3931,-320,-1024,-7840,3299,-136,-153,-386,1401715255.924676
2,239,0,5724,-37,-9,-50,5810,-384,-1008,-7872,5859,-133,-153,-386,1401715255.937275
2,240,0,7714,-49,-2,-46,7690,-400,-1040,-7872,5859,-133,-153,-386,1401715255.937659
2,241,0,9704,-43,-7,-56,9570,-368,-1040,-7840,8420,-133,-156,-386,1401715255.956301
2,242,0,11694,-43,-2,-62,11449,-384,-1072,-7824,10980,-135,-155,-384,1401715255.956750
2,243,0,12689,-37,-4,-64,13329,-400,-1072,-7856,13541,-135,-154,-388,1401715255.975409
2,244,0,14679,-32,-3,-70,15208,-480,-1088,-7792,13541,-135,-154,-388,1401715255.975879
2,245,0,16668,-9,-5,-73,17088,-448,-1120,-7840,16102,-137,-159,-384,1401715255.994509
2,246,0,18658,10,-7,-76,18969,-400,-1136,-7856,18664,-140,-154,-387,1401715256.7170
2,247,0,20648,24,-15,-71,20850,-448,-1088,-7840,18664,-140,-154,-387,1401715256.7586
2,248,0,22638,19,-3,-56,22730,-352,-1056,-7872,21224,-137,-155,-389,1401715256.26287
2,249,0,24628,-13,-8,-65,24611,-368,-1024,-7824,23784,-134,-154,-383,1401715256.26744
2,250,0,26618,-38,-4,-62,26491,-400,-1072,-7840,26345,-136,-154,-389,1401715256.45169
2,251,0,28608,-44,-7,-48,28372,-432,-1072,-7856,26345,-136,-154,-389,1401715256.51525
2,252,0,29603,-41,-7,-40,30252,-432,-1072,-7888,28906,-137,-155,-386,1401715256.63433
2,253,0,31593,-45,-7,-32,32133,-416,-1024,-7824,31467,-137,-157,-386,1401715256.76190
2,254,0,33583,-42,-1,-43,34013,-352,-1104,-7760,34028,-134,-155,-387,1401715256.76531
2,255,0,35573,-45,4,-46,35894,-368,-992,-7776,34028,-134,-155,-387,1401715256.95028
2,0,0,37563,-47,-2,-38,37774,-416,-1088,-7840,36589,-134,-155,-381,1401715256.107627
2,1,0,39553,-21,-6,-45,39655,-464,-1088,-7856,39150,-138,-158,-384,1401715256.108051
2,2,0,41543,1,-6,-43,41535,-432,-1152,-7872,41711,-137,-156,-388,1401715256.125851
2,3,0,43533,21,-9,-39,43416,-480,-1232,-7936,41711,-137,-156,-388,1401715256.126162
2,4,0,45523,18,-11,-57,45297,-512,-1200,-7872,44272,-138,-154,-383,1401715256.144885
2,5,0,46518,12,-12,-51,47176,-480,-1152,-7888,46832,-133,-157,-385,1401715256.156906
2,6,0,48508,0,-15,-52,49057,-512,-1136,-7936,46832,-133,-157,-385,1401715256.157269
2,7,0,50498,-10,-16,-38,50936,-528,-1168,-7888,49393,-137,-158,-384,1401715256.175040
2,8,0,52488,-16,-18,-32,52817,-576,-1168,-7904,51953,-137,-155,-388,1401715256.187739
2,9,0,54478,-26,-12,-22,54697,-480,-1024,-7840,54513,-134,-157,-383,1401715256.187996
2,10,0,56468,-26,-4,-14,56578,-480,-1008,-7856,54513,-134,-157,-383,1401715256.206559
2,11,0,58458,-20,-10,-18,58458,-400,-1024,-7840,57073,-139,-158,-383,1401715256.206863
2,12,0,60448,-12,-15,-14,60339,-384,-1056,-7840,59634,-139,-157,-385,1401715256.225160
2,13,0,61443,-15,-15,-3,62219,-352,-1008,-7808,62195,-140,-157,-388,1401715256.231715
2,14,0,63433,-10,-12,-5,64100,-368,-1024,-7808,62195,-140,-157,-388,1401715256.243833
2,15,0,65423,5,-16,-8,444,-320,-1040,-7808,64754,-136,-153,-385,1401715256.256013
2,16,0,1877,9,-18,-6,2324,-336,-1056,-7840,1779,-139,-158,-382,1401715256.256505
2,17,0,3867,13,-24,-16,4204,-320,-1072,-7904,4340,-137,-154,-385,1401715256.274388
2,18,0,5857,24,-36,-11,6085,-320,-1104,-7888,4340,-137,-154,-385,1401715256.286187
2,19,0,7847,15,-29,-5,7965,-320,-1168,-7920,6900,-138,-157,-383,1401715256.286627
2,20,0,9836,4,-29,8,9845,-288,-1168,-7840,9461,-134,-154,-388,1401715256.305296
2,21,0,11826,-18,-35,9,11726,-352,-1136,-7856,9461,-134,-154,-388,1401715256.311302
2,22,0,12821,-26,-32,10,13606,-304,-1200,-7792,12021,-135,-154,-385,1401715256.324163
2,23,0,14811,-40,-42,12,15488,-256,-1168,-7776,14582,-136,-157,-384,1401715256.336917
2,24,0,16801,-33,-35,21,17369,-320,-1136,-7792,17142,-136,-156,-385,1401715256.337362
2,25,0,18791,-39,-33,8,19249,-272,-1152,-7808,17142,-136,-156,-385,1401715256.355934
2,26,0,20781,-20,-34,3,21129,-352,-1232,-7840,19702,-135,-154,-387,1401715256.356388
2,27,0,22771,-11,-35,-7,23010,-320,-1232,-7856,22264,-131,-157,-384,1401715256.374303
2,28,0,24761,-7,-32,-16,24890,-320,-1168,-7808,24825,-133,-158,-385,1401715256.386738
2,29,0,26751,-4,-33,-13,26771,-336,-1216,-7792,24825,-133,-158,-385,1401715256.386988
2,30,0,28741,6,-38,-13,28651,-400,-1104,-7792,27385,-133,-156,-387,1401715256.405260
2,31,0,29736,6,-37,-13,30530,-352,-1136,-7840,29945,-133,-158,-386,1401715256.411685
2,32,0,31726,2,-43,-17,32412,-336,-1104,-7872,32506,-136,-155,-382,1401715256.423955
2,33,0,33716,1,-37,-15,34292,-368,-1088,-7872,32506,-136,-155,-382,1401715256.436361
2,34,0,35706,1,-38,-11,36172,-352,-1104,-7856,35067,-136,-155,-387,1401715256.436747
2,35,0,37696,3,-30,-8,38052,-336,-1056,-7824,37628,-133,-155,-384,1401715256.455152
2,36,0,39686,4,-29,-9,39933,-352,-1088,-7776,37628,-133,-155,-384,1401715256.461773
2,37,0,41676,13,-36,-5,41813,-288,-1088,-7824,40189,-133,-157,-386,1401715256.473497
2,38,0,43666,22,-30,-11,43693,-224,-1120,-7808,42749,-133,-157,-386,1401715256.485486
2,39,0,44661,20,-36,-9,45574,-240,-1040,-7840,45311,-132,-156,-383,1401715256.491966
2,40,0,46651,19,-34,-12,47455,-192,-1104,-7808,45311,-132,-156,-383,1401715256.504149
2,41,0,48641,35,-42,-17,49336,-192,-1136,-7840,47871,-133,-156,-385,1401715256.516897
2,42,0,50631,35,-39,-24,51216,-208,-1184,-7856,50432,-130,-152,-388,1401715256.517331
2,43,0,52621,33,-38,-24,53096,-208,-1232,-7888,52993,-134,-153,-388,1401715256.535405
2,44,0,54611,23,-45,-30,54975,-288,-1184,-7872,52993,-134,-153,-388,1401715256.541982
2,45,0,56601,15,-38,-31,56855,-304,-1264,-7824,55555,-133,-157,-382,1401715256.554316
2,46,0,58591,4,-43,-42,58735,-256,-1232,-7856,58117,-130,-155,-386,1401715256.566904
2,47,0,60581,-6,-42,-45,60614,-352,-1152,-7840,58117,-130,-155,-386,1401715256.567361
2,48,0,61576,-9,-45,-38,62494,-288,-1168,-7824,60676,-130,-153,-385,1401715256.585827
2,49,0,63566,-20,-44,-35,64375,-336,-1072,-7840,63237,-131,-155,-386,1401715256.586224
2,50,0,20,-31,-33,-32,719,-352,-1104,-7840,263,-129,-154,-387,1401715256.603737
2,51,0,2010,-32,-19,-24,2129,-352,-1120,-7840,263,-129,-154,-387,1401715256.616354
2,52,0,3999,-35,-23,-25,4008,-320,-1136,-7840,2825,-129,-153,-387,1401715256.616614
2,53,0,5989,-42,-18,-19,5888,-320,-1104,-7888,5385,-132,-155,-386,1401715256.634969
2,54,0,7979,-12,-17,-9,7768,-304,-1120,-7824,7946,-128,-153,-387,1401715256.646946
2,55,0,9969,10,-19,-9,9648,-368,-1104,-7904,7946,-128,-153,-387,1401715256.647389
2,56,0,11959,26,-21,3,11529,-320,-1200,-7872,10508,-131,-154,-379,1401715256.665260
2,57,0,12954,22,-19,7,13409,-272,-1168,-7824,13069,-129,-154,-385,1401715256.671684
2,58,0,14944,16,-12,8,15289,-208,-1152,-7792,15629,-131,-155,-384,1401715256.684292
2,59,0,16934,-19,-16,-1,17169,-192,-1072,-7872,15629,-131,-155,-384,1401715256.696873
2,60,0,18924,-42,-17,-2,19050,-224,-1120,-7792,18190,-134,-155,-384,1401715256.697356
2,61,0,20914,-51,-30,-3,20930,-224,-1104,-7872,20751,-128,-155,-385,1401715256.715741
2,62,0,22904,-40,-26,10,22810,-288,-1120,-7824,20751,-128,-155,-385,1401715256.716224
2,63,0,24894,-37,-22,16,24691,-224,-1216,-7792,23311,-131,-153,-384,1401715256.734255
2,64,0,26884,-46,-14,4,26571,-192,-1152,-7776,25871,-131,-154,-388,1401715256.746777
2,65,0,27879,-52,-13,12,28450,-208,-1120,-7712,28432,-132,-153,-388,1401715256.747157
2,66,0,29869,-63,1,-9,30331,-208,-1104,-7808,28432,-132,-153,-388,1401715256.765646
2,67,0,31859,-61,4,-10,32210,-240,-1120,-7840,30993,-130,-155,-387,1401715256.766097
2,68,0,33849,-26,-9,-23,34090,-288,-1184,-7872,33554,-129,-154,-384,1401715256.783883
2,69,0,35839,-5,-18,-19,35970,-288,-1232,-7840,36114,-130,-154,-384,1401715256.796004
2,70,0,37829,8,-18,-13,37850,-320,-1232,-7856,36114,-130,-154,-384,1401715256.796487
2,71,0,39819,-5,-15,-11,39730,-320,-1216,-7936,38675,-128,-157,-386,1401715256.814466
2,72,0,41809,-20,-9,4,41611,-320,-1152,-7872,41236,-131,-157,-384,1401715256.826639
2,73,0,43799,-38,-6,3,43491,-400,-1120,-7856,43795,-134,-157,-387,1401715256.827106
2,74,0,44794,-35,-5,4,45371,-288,-1088,-7840,43795,-134,-157,-387,1401715256.845609
2,75,0,46784,-50,-5,3,47250,-304,-1088,-7840,46355,-129,-156,-386,1401715256.846112
2,76,0,48774,-43,-5,15,49131,-240,-1104,-7824,48915,-129,-155,-386,1401715256.864107
2,77,0,50764,-29,-2,21,51011,-208,-1104,-7888,48915,-129,-155,-386,1401715256.876384
2,78,0,52754,-4,-3,17,52891,-208,-1152,-7824,51476,-132,-157,-384,1401715256.876886
2,79,0,54744,-19,-6,11,54770,-176,-1168,-7824,54038,-130,-154,-384,1401715256.895616
2,80,0,56734,-20,-9,5,56650,-192,-1280,-7808,56599,-130,-155,-389,1401715256.895962
2,81,0,58724,-28,-11,11,58531,-192,-1216,-7824,56599,-130,-155,-389,1401715256.914398
2,82,0,60714,-27,-8,3,60410,-208,-1200,-7856,59159,-131,-156,-385,1401715256.926748
2,83,0,61709,-30,-13,2,62290,-224,-1296,-7904,61720,-129,-156,-386,1401715256.927233
2,84,0,63698,-32,-12,3,64170,-240,-1216,-7856,64280,-129,-155,-386,1401715256.945735
2,85,0,152,-20,-7,-5,513,-240,-1264,-7840,64280,-129,-155,-386,1401715256.946148
2,86,0,2142,-32,-15,8,2393,-208,-1216,-7888,1304,-130,-156,-386,1401715256.963726
2,87,0,4132,-45,-5,8,4273,-240,-1200,-7840,3866,-128,-159,-383,1401715256.976316
2,88,0,6122,-54,-2,6,6153,-224,-1168,-7776,6426,-130,-155,-386,1401715256.976770
2,89,0,8112,-57,-11,10,8034,-224,-1136,-7776,6426,-130,-155,-386,1401715256.994724
2,90,0,10102,-56,-16,2,9913,-208,-1152,-7856,8987,-132,-159,-384,1401715257.6952
2,91,0,11097,-53,-13,-4,11794,-224,-1200,-7872,11549,-132,-154,-385,1401715257.7236
2,92,0,13087,-34,-5,5,13674,-208,-1184,-7888,11549,-132,-154,-385,1401715257.25910
2,93,0,15077,-4,-5,-1,15554,-256,-1184,-7808,14109,-128,-155,-384,1401715257.26205
2,94,0,17067,-3,-11,5,17434,-176,-1168,-7840,16669,-129,-155,-386,1401715257.44728
2,95,0,19057,-6,-8,10,19314,-176,-1232,-7872,19231,-131,-159,-388,1401715257.57376
2,96,0,21047,0,-13,7,21195,-176,-1216,-7856,19231,-131,-159,-388,1401715257.57689
2,97,0,23037,-8,-9,5,23076,-208,-1312,-7792,21790,-129,-163,-388,1401715257.75785
2,98,0,25027,-9,-16,7,24956,-192,-1248,-7776,24352,-131,-156,-385,1401715257.76153
2,99,0,27017,-2,-20,4,26838,-208,-1280,-7792,26912,-132,-157,-384,1401715257.93905
2,100,0,28012,-13,-18,0,28717,-176,-1200,-7840,26912,-132,-157,-384,1401715257.105996
2,101,0,30002,-16,-19,-5,30598,-192,-1168,-7792,29473,-130,-162,-388,1401715257.106395
2,102,0,31992,-11,-22,0,32479,-176,-1216,-7872,32035,-130,-159,-385,1401715257.124548
2,103,0,33982,-7,-20,-19,34360,-224,-1248,-7872,32035,-130,-159,-385,1401715257.137031
2,104,0,35972,-13,-17,-6,36241,-224,-1184,-7856,34597,-130,-157,-385,1401715257.137388
2,105,0,37962,-13,-15,6,38121,-192,-1248,-7888,37158,-130,-158,-385,1401715257.155787
2,106,0,39952,-9,-12,-9,40002,-192,-1232,-7952,39719,-128,-157,-388,1401715257.156227
2,107,0,41942,-9,-14,3,41882,-144,-1248,-7824,39719,-128,-157,-388,1401715257.174841
2,108,0,42937,-10,-13,1,43762,-208,-1216,-7840,42279,-129,-159,-386,1401715257.186665
2,109,0,44927,3,-17,5,45642,-176,-1264,-7792,44840,-130,-158,-385,1401715257.186998
2,110,0,46917,5,-13,7,47522,-192,-1168,-7760,47402,-130,-157,-387,1401715257.205344
2,111,0,48907,8,-14,4,49403,-192,-1152,-7776,47402,-130,-157,-387,1401715257.211909
2,112,0,50897,10,-25,-2,51283,-224,-1152,-7792,49963,-131,-160,-385,1401715257.224284
2,113,0,52887,6,-22,-9,53164,-176,-1152,-7776,52523,-129,-158,-382,1401715257.236499
2,114,0,54877,0,-26,-3,55045,-192,-1184,-7824,55083,-128,-158,-387,1401715257.236902
2,115,0,56866,1,-18,3,56926,-192,-1216,-7824,55083,-128,-158,-387,1401715257.254906
2,116,0,58856,3,-22,-5,58806,-208,-1232,-7808,57643,-128,-158,-381,1401715257.267037
2,117,0,59851,-6,-22,-2,60686,-208,-1152,-7824,60204,-129,-158,-387,1401715257.267479
2,118,0,61841,-12,-23,-7,62567,-192,-1120,-7840,60204,-129,-158,-387,1401715257.285548
2,119,0,63831,11,-28,-14,64447,-176,-1184,-7872,62765,-130,-158,-385,1401715257.285813
2,120,0,285,19,-29,-23,793,-192,-1232,-7920,65326,-129,-156,-384,1401715257.303667
2,121,0,2275,28,-25,-24,2674,-256,-1232,-7904,2351,-126,-155,-384,1401715257.316240
2,122,0,4265,46,-31,-10,4554,-336,-1232,-7920,2351,-126,-155,-384,1401715257.316469
2,123,0,6255,49,-24,-4,6434,-256,-1248,-7872,4912,-127,-157,-386,1401715257.334867
2,124,0,8245,44,-23,-1,8314,-240,-1168,-7792,7472,-130,-159,-386,1401715257.346519
2,125,0,10235,10,-18,-4,10194,-208,-1120,-7872,10033,-129,-155,-385,1401715257.346992
2,126,0,11230,2,-17,-8,12074,-192,-1120,-7808,10033,-129,-155,-385,1401715257.365319
2,127,0,13220,-15,-23,-5,13954,-128,-1104,-7760,12594,-127,-156,-382,1401715257.371712
2,128,0,15210,-17,-29,2,15835,-208,-1072,-7792,15155,-127,-154,-384,1401715257.383864
2,129,0,17200,-4,-28,9,17715,-176,-1104,-7856,15155,-127,-154,-384,1401715257.396238
2,130,0,19190,28,-37,11,19596,-176,-1152,-7776,17716,-129,-155,-386,1401715257.396521
2,131,0,21180,32,-31,8,21477,-128,-1152,-7808,20277,-129,-152,-384,1401715257.414713
2,132,0,23170,20,-29,3,23357,-112,-1152,-7872,22838,-127,-155,-384,1401715257.427153
2,133,0,25160,4,-34,-9,25238,-160,-1056,-7808,22838,-127,-155,-384,1401715257.427613
2,134,0,26155,2,-28,-19,27118,-176,-1168,-7936,25399,-129,-155,-385,1401715257.445957
2,135,0,28145,13,-31,-23,28999,-224,-1168,-7920,27959,-127,-156,-384,1401715257.446273
2,136,0,30135,22,-29,-23,30879,-192,-1152,-7856,30520,-128,-152,-386,1401715257.464689
2,137,0,32125,23,-33,-21,32290,-288,-1232,-7888,30520,-128,-152,-386,1401715257.476779
2,138,0,34115,17,-34,-9,34171,-304,-1264,-7808,33081,-124,-154,-385,1401715257.477191
2,139,0,36105,11,-37,-7,36051,-336,-1200,-7840,35642,-127,-152,-385,1401715257.495255
2,140,0,38095,0,-34,-9,37931,-368,-1184,-7872,38204,-127,-151,-388,1401715257.501388
2,141,0,40085,-1,-36,-12,39811,-240,-1104,-7856,38204,-127,-151,-388,1401715257.513865
2,142,0,42075,4,-33,-13,41693,-240,-1120,-7824,40763,-125,-152,-382,1401715257.526303
2,143,0,43070,5,-31,-11,43572,-192,-1136,-7872,43324,-125,-152,-383,1401715257.526616
2,144,0,45060,11,-33,-7,45452,-176,-1152,-7840,43324,-125,-152,-383,1401715257.544568
2,145,0,47050,7,-30,2,47332,-144,-1168,-7824,45884,-127,-152,-384,1401715257.557046
2,146,0,49040,5,-25,9,49213,-160,-1184,-7888,48444,-127,-156,-385,1401715257.557401
2,147,0,51029,-8,-21,10,51094,-176,-1184,-7856,51005,-124,-152,-386,1401715257.575615
2,148,0,53019,-3,-22,12,52974,-144,-1136,-7888,51005,-124,-152,-386,1401715257.575846
2,149,0,55009,-12,-20,3,54854,-192,-1104,-7872,53567,-122,-153,-386,1401715257.593770
2,150,0,56999,-11,-25,7,56735,-112,-1184,-7840,56128,-127,-153,-388,1401715257.606298
2,151,0,58989,-12,-24,8,58616,-208,-1200,-7840,58688,-129,-155,-388,1401715257.606714
2,152,0,59984,-19,-23,6,60496,-192,-1168,-7904,58688,-129,-155,-388,1401715257.625142
2,153,0,61974,-28,-27,8,62376,-208,-1200,-7856,61248,-124,-158,-384,1401715257.631534
2,154,0,63964,-47,-26,1,64256,-192,-1184,-7856,63809,-125,-154,-386,1401715257.643733
2,155,0,418,-53,-14,-4,599,-208,-1136,-7840,832,-125,-152,-382,1401715257.656284
2,156,0,2408,-57,-18,-19,2480,-208,-1120,-7824,832,-125,-152,-382,1401715257.656742
2,157,0,4398,-39,-5,-26,4360,-224,-1136,-7904,3394,-123,-157,-385,1401715257.675163
2,158,0,6388,-18,-14,-40,6241,-192,-1136,-7824,5956,-124,-153,-386,1401715257.681781
2,159,0,8378,-1,-7,-40,8121,-192,-1120,-7840,5956,-124,-153,-386,1401715257.694046
2,160,0,9373,5,-8,-42,10002,-160,-1072,-7840,8516,-128,-158,-383,1401715257.705757
2,161,0,11363,19,-14,-42,11883,-208,-1104,-7808,11077,-124,-155,-384,1401715257.706239
2,162,0,13353,20,-13,-35,13764,-96,-1072,-7792,13638,-127,-155,-386,1401715257.724742
2,163,0,15343,27,-12,-32,15645,-144,-1072,-7824,13638,-127,-155,-386,1401715257.736677
2,164,0,17333,31,-17,-51,17525,-144,-1088,-7888,16198,-127,-156,-386,1401715257.737018
2,165,0,19323,26,-21,-44,19406,-128,-1072,-7872,18760,-127,-156,-385,1401715257.755289
2,166,0,21313,34,-19,-37,21287,-128,-1088,-7856,21321,-127,-155,-387,1401715257.761829
2,167,0,23303,36,-16,-38,23167,-144,-1072,-7872,21321,-127,-155,-387,1401715257.773818
2,168,0,25293,21,-22,-39,25048,-144,-1104,-7792,23883,-127,-156,-379,1401715257.786264
2,169,0,26288,17,-20,-33,26928,-144,-1120,-7808,26444,-125,-153,-385,1401715257.786741
2,170,0,28278,27,-11,-33,28809,-128,-1088,-7760,29005,-124,-151,-384,1401715257.804568
2,171,0,30268,17,-20,-32,30690,-160,-1056,-7808,29005,-124,-151,-384,1401715257.816250
2,172,0,32258,23,-28,-32,32570,-160,-1072,-7888,31566,-128,-154,-382,1401715257.816521
2,173,0,34248,20,-20,-25,34450,-192,-1104,-7904,34127,-125,-154,-388,1401715257.835064
2,174,0,36238,13,-18,-19,36331,-112,-1168,-7824,34127,-125,-154,-388,1401715257.846913
2,175,0,38228,8,-19,-24,38211,-96,-1120,-7808,36688,-125,-155,-386,1401715257.847361
2,176,0,40218,9,-17,-11,40091,-96,-1072,-7808,39248,-127,-154,-384,1401715257.865875
2,177,0,42208,11,-19,-18,41972,-112,-1168,-7792,41809,-127,-152,-386,1401715257.866066
2,178,0,43203,7,-20,-11,43853,-192,-1152,-7856,41809,-127,-152,-386,1401715257.884762
2,179,0,45192,-1,-20,0,45733,-160,-1104,-7824,44370,-124,-153,-387,1401715257.897160
2,180,0,47182,4,-17,-9,47614,-144,-1088,-7808,46932,-124,-154,-387,1401715257.897496
2,181,0,49172,6,-18,-19,49494,-128,-1168,-7808,49493,-125,-153,-383,1401715257.915004
2,182,0,51162,0,-25,-16,51374,-160,-1056,-7824,49493,-125,-153,-383,1401715257.927357
2,183,0,53152,0,-15,-6,53254,-112,-1088,-7840,52054,-125,-153,-386,1401715257.927582
2,184,0,55142,-20,-20,-6,55134,-160,-1072,-7872,54614,-125,-152,-388,1401715257.945897
2,185,0,57132,-18,-19,-8,57014,-96,-1056,-7872,57175,-123,-153,-384,1401715257.946348
2,186,0,58127,-5,-15,-12,58894,-96,-1072,-7872,57175,-123,-153,-384,1401715257.964628
2,187,0,60117,5,-18,-13,60775,-112,-1088,-7952,59735,-125,-154,-385,1401715257.977137
2,188,0,62107,22,-26,-14,62656,-176,-1168,-7872,62296,-126,-154,-387,1401715257.977562
2,189,0,64097,33,-26,4,64537,-192,-1200,-7872,62296,-126,-154,-387,1401715257.994960
2,190,0,551,41,-24,7,881,-176,-1200,-7904,64858,-124,-154,-386,1401715258.6779
2,191,0,2541,35,-12,11,2762,-96,-1136,-7872,1882,-124,-152,-386,1401715258.7096
2,192,0,4531,0,-8,1,4642,-144,-1120,-7888,4443,-127,-151,-386,1401715258.25660
2,193,0,6521,-35,-7,-21,6523,-176,-1040,-7808,4443,-127,-151,-386,1401715258.26072
2,194,0,8511,-37,-6,-19,8404,-176,-1056,-7808,7004,-122,-153,-386,1401715258.44197
2,195,0,9506,-36,-2,-13,10284,-112,-1072,-7776,9564,-122,-153,-387,1401715258.56520
2,196,0,11496,-29,-10,-12,12164,-128,-992,-7808,12125,-125,-152,-387,1401715258.56972
2,197,0,13486,-18,-13,-3,14045,-160,-1040,-7840,12125,-125,-152,-387,1401715258.75471
2,198,0,15476,-10,-24,-14,15925,-80,-1040,-7856,14687,-125,-150,-385,1401715258.81897
2,199,0,17466,-10,-12,-18,17806,-80,-1104,-7856,17248,-125,-151,-386,1401715258.94269
2,200,0,19456,-12,-17,-23,19686,-48,-1120,-7872,17248,-125,-151,-386,1401715258.106680
2,201,0,21446,-16,-10,-23,21567,-96,-1072,-7936,19808,-123,-151,-385,1401715258.107123
2,202,0,23436,11,-5,-32,23448,-208,-1168,-7936,22370,-124,-151,-389,1401715258.125316
2,203,0,25426,31,-6,-14,25328,-192,-1168,-7968,24931,-124,-153,-382,1401715258.131650
2,204,0,26421,33,1,-25,27210,-144,-1312,-7840,24931,-124,-153,-382,1401715258.143600
2,205,0,28411,26,-2,-25,29091,-192,-1168,-7920,27491,-124,-149,-387,1401715258.155502
2,206,0,30401,5,-5,-28,30972,-144,-1184,-7888,30051,-125,-152,-385,1401715258.155972
2,207,0,32391,-12,-12,-29,32852,-160,-1120,-7872,32611,-125,-150,-386,1401715258.174263
2,208,0,34381,-11,-14,-32,34733,-160,-1056,-7872,32611,-125,-150,-386,1401715258.186884
2,209,0,36371,-11,-15,-23,36614,-128,-1056,-7872,35172,-125,-155,-387,1401715258.187314
2,210,0,38361,-6,-14,-27,38495,-96,-1088,-7856,37734,-125,-149,-387,1401715258.205361
2,211,0,40350,2,-11,-14,40376,-48,-1008,-7856,40296,-124,-148,-386,1401715258.205714
2,212,0,41345,5,-8,-18,42258,-112,-1040,-7824,40296,-124,-148,-386,1401715258.223490
2,213,0,43335,7,-9,-24,44138,-48,-1024,-7840,42857,-125,-154,-387,1401715258.236018
2,214,0,45325,2,-7,-14,46019,-144,-1104,-7888,45419,-126,-150,-387,1401715258.236317
2,215,0,47315,1,-15,-28,47899,-144,-1008,-7872,45419,-126,-150,-387,1401715258.254388
2,216,0,49305,13,-11,-19,49779,-208,-1136,-7888,47979,-123,-151,-386,1401715258.267245
2,217,0,51295,31,-8,-15,51659,-144,-1120,-7840,50541,-124,-151,-385,1401715258.267626
2,218,0,53285,39,-21,-22,53539,-192,-1152,-7872,53102,-124,-152,-383,1401715258.286067
2,219,0,55275,31,-14,-21,55420,-176,-1056,-7904,53102,-124,-152,-383,1401715258.286596
2,220,0,57265,13,-11,-24,56830,-208,-1168,-7872,55664,-124,-150,-385,1401715258.304891
2,221,0,58260,8,-12,-31,58711,-208,-1088,-7840,58226,-125,-149,-384,1401715258.317340
2,222,0,60250,-10,-10,-12,60592,-208,-1056,-7872,60787,-125,-152,-386,1401715258.317567
2,223,0,62240,-17,-7,-16,62473,-112,-1024,-7824,60787,-125,-152,-386,1401715258.335279
2,224,0,64230,-8,-9,-3,64353,-112,-1040,-7856,63348,-124,-152,-383,1401715258.341623
2,225,0,684,-7,-17,1,697,-160,-1072,-7920,375,-125,-153,-387,1401715258.354164
2,226,0,2674,10,-18,-7,2577,-96,-1024,-7872,2936,-125,-152,-386,1401715258.366202
2,227,0,4664,2,-17,9,4456,-144,-1072,-7920,2936,-125,-152,-386,1401715258.366619
2,228,0,6654,-4,-11,11,6336,-112,-1152,-7824,5497,-125,-149,-384,1401715258.384678
2,229,0,7649,11,-8,9,8217,-128,-1184,-7872,8057,-123,-149,-384,1401715258.397199
2,230,0,9639,7,-6,9,10098,-144,-1104,-7808,8057,-123,-149,-384,1401715258.397436
2,231,0,11629,13,0,8,11978,-128,-1104,-7840,10618,-123,-152,-387,1401715258.415202
2,232,0,13619,0,-6,11,13857,-96,-1120,-7856,13179,-123,-149,-386,1401715258.420900
2,233,0,15609,9,-7,-7,15739,-144,-1040,-7856,15742,-122,-148,-387,1401715258.432876
2,234,0,17599,12,-10,-14,17620,-144,-1072,-7888,15742,-122,-148,-387,1401715258.445117
2,235,0,19589,6,-17,-21,19500,-96,-1072,-7904,18303,-122,-151,-388,1401715258.451494
2,236,0,21579,2,-17,-18,21380,-112,-1120,-7872,20864,-125,-149,-387,1401715258.464104
2,237,0,23569,-13,-21,-1,23261,-80,-1072,-7856,23425,-123,-149,-387,1401715258.476422
2,238,0,24564,-10,-18,-3,25141,-64,-1120,-7856,23425,-123,-149,-387,1401715258.476725
2,239,0,26554,-3,-17,7,27022,-48,-1104,-7872,25986,-125,-153,-387,1401715258.495023
2,240,0,28544,1,-14,-2,28903,-16,-1088,-7904,28547,-125,-151,-387,1401715258.507398
2,241,0,30534,9,-7,-20,30783,0,-1104,-7824,31108,-126,-149,-385,1401715258.507845
2,242,0,32524,12,-11,-18,32664,0,-1072,-7840,31108,-126,-149,-385,1401715258.525770
2,243,0,34513,16,-8,-31,34545,-64,-1136,-7840,33669,-125,-149,-388,1401715258.526217
2,244,0,36503,21,-7,-36,36426,-48,-1184,-7840,36229,-125,-148,-385,1401715258.544584
2,245,0,38493,22,-4,-34,38305,-112,-1168,-7888,36229,-125,-148,-385,1401715258.556878
2,246,0,40483,15,4,-37,40185,-96,-1216,-7888,38790,-123,-148,-384,1401715258.557344
2,247,0,41478,20,8,-29,42066,-144,-1232,-7904,41353,-123,-149,-386,1401715258.575848
2,248,0,43468,18,0,-38,43946,-160,-1136,-7856,43914,-123,-146,-385,1401715258.576088
2,249,0,45458,18,2,-42,45826,-176,-1120,-7936,43914,-123,-146,-385,1401715258.593874
2,250,0,47448,23,-14,-48,47706,-224,-1104,-7904,46474,-124,-148,-386,1401715258.605491
2,251,0,49438,16,-9,-44,49587,-160,-1072,-7872,49035,-122,-148,-389,1401715258.611876
2,252,0,51428,9,-8,-32,51468,-112,-1008,-7888,51595,-126,-149,-385,1401715258.623847
2,253,0,53418,2,-3,-34,53348,-128,-1088,-7824,51595,-126,-149,-385,1401715258.636284
2,254,0,55408,-7,1,-25,55230,-160,-1024,-7840,54156,-121,-149,-386,1401715258.636636
2,255,0,56403,-12,7,-24,57110,-176,-1024,-7840,56717,-124,-147,-388,1401715258.655040
2,0,0,58393,2,9,-25,58991,-160,-1072,-7824,56717,-124,-147,-388,1401715258.667517
2,1,0,60383,0,13,-21,60872,-208,-1040,-7856,59279,-124,-150,-385,1401715258.667811
2,2,0,62373,29,5,-19,62752,-224,-1072,-7904,61840,-124,-148,-387,1401715258.686511
2,3,0,64363,42,2,-15,64633,-272,-1072,-7808,64401,-124,-149,-384,1401715258.686937
2,4,0,817,68,1,-25,977,-144,-1056,-7872,64401,-124,-149,-384,1401715258.705140
2,5,0,2807,58,11,-24,2857,-160,-1024,-7888,1426,-123,-149,-386,1401715258.711670
2,6,0,4797,20,10,-13,4737,-144,-1056,-7936,3987,-126,-148,-388,1401715258.723648
2,7,0,6787,-6,14,-4,6617,-160,-1152,-7808,6547,-122,-149,-386,1401715258.735628
2,8,0,7782,-11,11,8,8497,-128,-1104,-7808,6547,-122,-149,-386,1401715258.736002
2,9,0,9772,-4,20,8,10377,-176,-1040,-7840,9106,-127,-148,-386,1401715258.754554
2,10,0,11762,0,16,5,12257,-128,-992,-7856,11667,-126,-145,-388,1401715258.767095
2,11,0,13752,1,20,3,14138,-144,-912,-7872,14230,-124,-150,-386,1401715258.767338
2,12,0,15742,-28,26,4,16018,-112,-944,-7824,14230,-124,-150,-386,1401715258.785392
2,13,0,17732,-32,28,-5,17898,-112,-992,-7920,16791,-126,-150,-383,1401715258.785849
2,14,0,19722,-27,27,-4,19777,-128,-1120,-7888,19351,-128,-149,-386,1401715258.803841
2,15,0,21712,-1,27,1,21657,-160,-1136,-7888,19351,-128,-149,-386,1401715258.816356
2,16,0,23702,28,23,4,23537,-144,-1168,-7936,21910,-128,-148,-387,1401715258.816839
2,17,0,24697,31,27,9,25417,-160,-1104,-7920,24471,-127,-147,-389,1401715258.835588
2,18,0,26687,49,26,14,27297,-288,-1120,-7968,27032,-126,-145,-386,1401715258.835854
2,19,0,28676,30,27,11,29177,-240,-1056,-7952,27032,-126,-145,-386,1401715258.854322
2,20,0,30666,19,35,2,31058,-208,-944,-7984,29593,-127,-148,-386,1401715258.866921
2,21,0,32656,4,33,-8,32938,-224,-928,-7936,32154,-128,-146,-387,1401715258.867221
2,22,0,34646,-4,37,-15,34819,-176,-912,-7856,34714,-128,-148,-385,1401715258.885579
2,23,0,36636,12,34,-18,36699,-112,-928,-7856,34714,-128,-148,-385,1401715258.885807
2,24,0,38626,24,46,-15,38579,-80,-928,-7824,37276,-129,-149,-386,1401715258.903502
2,25,0,39621,32,47,-12,40461,-96,-928,-7760,39836,-130,-147,-386,1401715258.916168
2,26,0,41611,42,40,-8,42342,-48,-864,-7760,42397,-132,-147,-389,1401715258.916429
2,27,0,43601,37,38,-7,44221,-32,-800,-7808,42397,-132,-147,-389,1401715258.934620
2,28,0,45591,36,35,-10,46102,-112,-816,-7856,44957,-130,-145,-385,1401715258.946612
2,29,0,47581,41,27,-21,47982,-128,-896,-7888,47518,-130,-146,-386,1401715258.947076
2,30,0,49571,29,17,-30,49863,-144,-912,-7968,47518,-130,-146,-386,1401715258.965302
2,31,0,51561,12,12,-38,51744,-160,-864,-7968,50079,-130,-146,-387,1401715258.965607
2,32,0,53551,15,6,-49,53625,-272,-976,-7952,52639,-130,-147,-386,1401715258.983919
2,33,0,55541,20,18,-60,55504,-304,-1024,-8016,55201,-129,-144,-387,1401715258.996472
2,34,0,56536,16,24,-56,57385,-304,-976,-8048,55201,-129,-144,-387,1401715258.996859
2,35,0,58526,4,27,-45,59265,-272,-1008,-7968,57762,-129,-144,-389,1401715259.14925
2,36,0,60516,-25,34,-44,61145,-256,-880,-7984,60323,-133,-144,-385,1401715259.27286
2,37,0,62506,-44,40,-47,63025,-320,-864,-7952,62884,-130,-146,-389,1401715259.27551
2,38,0,64496,-38,40,-55,64906,-352,-880,-7952,62884,-130,-146,-389,1401715259.46008
2,39,0,950,-25,41,-60,1251,-368,-896,-7936,65445,-131,-146,-387,1401715259.46356
2,40,0,2940,-19,38,-55,3131,-304,-800,-7856,2471,-133,-144,-388,1401715259.64803
2,41,0,4930,-20,41,-52,5012,-336,-832,-7904,2471,-133,-144,-388,1401715259.77133
2,42,0,6920,-14,32,-42,6893,-304,-816,-7872,5032,-132,-145,-386,1401715259.77404
2,43,0,7915,-14,31,-37,8772,-288,-816,-7888,7592,-132,-146,-385,1401715259.95887
2,44,0,9905,-6,32,-27,10652,-240,-880,-7856,10153,-133,-146,-389,1401715259.96235
2,45,0,11895,-2,33,-11,12532,-256,-912,-7824,10153,-133,-146,-389,1401715259.114749
2,46,0,13885,-15,31,-15,14412,-256,-848,-7808,12714,-132,-149,-385,1401715259.127327
2,47,0,15875,-10,29,-17,16293,-224,-848,-7840,15275,-135,-145,-386,1401715259.127618
2,48,0,17865,-8,36,-23,18173,-256,-864,-7920,17836,-135,-146,-387,1401715259.145563
2,49,0,19855,-7,33,-21,19583,-304,-832,-7920,17836,-135,-146,-387,1401715259.145821
2,50,0,21845,4,40,-24,21464,-256,-864,-7920,20398,-134,-149,-387,1401715259.164261
2,51,0,22839,8,39,-23,23344,-368,-928,-7904,22959,-133,-146,-386,1401715259.176289
2,52,0,24829,6,52,-24,25225,-352,-880,-7936,25520,-135,-144,-389,1401715259.176640
2,53,0,26819,-5,52,-29,27106,-368,-912,-7920,25520,-135,-144,-389,1401715259.194623
2,54,0,28809,-33,61,-38,28986,-368,-912,-7872,28080,-136,-150,-385,1401715259.207249
2,55,0,30799,-53,56,-35,30866,-384,-864,-7888,30640,-136,-145,-387,1401715259.207704
2,56,0,32789,-68,46,-41,32746,-384,-848,-7856,30640,-136,-145,-387,1401715259.226287
2,57,0,34779,-68,49,-34,34627,-384,-832,-7904,33200,-135,-145,-387,1401715259.226560
2,58,0,36769,-55,57,-30,36507,-432,-832,-7888,35761,-135,-146,-388,1401715259.245096
2,59,0,38759,-50,62,-19,38387,-432,-800,-7872,38321,-140,-148,-388,1401715259.251650
2,60,0,39754,-51,64,-27,40267,-512,-784,-7904,38321,-140,-148,-388,1401715259.263601
2,61,0,41744,-31,59,-31,42148,-512,-784,-7904,40882,-136,-146,-387,1401715259.275851
2,62,0,43734,-17,46,-37,44028,-544,-768,-7904,43443,-140,-148,-386,1401715259.276326
2,63,0,45724,-12,54,-32,45908,-608,-768,-7984,46004,-138,-147,-386,1401715259.294503
2,64,0,47714,9,45,-40,47789,-592,-704,-7904,46004,-138,-147,-386,1401715259.306973
2,65,0,49704,6,50,-41,49670,-528,-720,-7920,48565,-139,-148,-384,1401715259.307426
2,66,0,51694,-11,59,-53,51550,-576,-688,-7920,51127,-138,-146,-388,1401715259.325907
2,67,0,53684,-32,66,-50,53431,-496,-752,-7952,53689,-138,-146,-385,1401715259.326189
2,68,0,55674,-33,72,-43,55311,-512,-800,-7984,53689,-138,-146,-385,1401715259.344410
2,69,0,56669,-29,74,-35,57192,-592,-800,-7952,56250,-139,-146,-383,1401715259.356708
2,70,0,58659,-8,71,-30,59072,-544,-880,-7936,58811,-142,-149,-386,1401715259.357201
2,71,0,60649,17,68,-24,60953,-576,-896,-7952,58811,-142,-149,-386,1401715259.374883
2,72,0,62639,37,54,1,62834,-672,-912,-7984,61371,-139,-148,-386,1401715259.387365
2,73,0,64629,53,47,16,64715,-656,-768,-7984,63932,-142,-146,-386,1401715259.387824
2,74,0,1083,52,41,33,1059,-624,-864,-7968,957,-141,-146,-386,1401715259.406372
2,75,0,3073,12,32,42,2940,-496,-784,-7968,957,-141,-146,-386,1401715259.406826
2,76,0,5063,-29,38,53,4820,-480,-736,-7952,3518,-142,-144,-387,1401715259.425076
2,77,0,6058,-44,49,65,6700,-528,-816,-7872,6078,-142,-145,-387,1401715259.431432
2,78,0,8048,-61,38,76,8581,-560,-784,-7920,8640,-144,-147,-385,1401715259.443332
2,79,0,10038,-72,43,71,10462,-560,-816,-7872,8640,-144,-147,-385,1401715259.455506
2,80,0,12028,-63,45,58,12342,-592,-736,-7856,11201,-144,-148,-385,1401715259.455870
2,81,0,14018,-41,61,47,14223,-592,-752,-7824,13762,-143,-147,-385,1401715259.474621
2,82,0,16008,-49,48,38,16103,-560,-768,-7824,16322,-143,-148,-385,1401715259.487178
2,83,0,17997,-51,41,34,17984,-512,-816,-7904,16322,-143,-148,-385,1401715259.487486
2,84,0,19987,-23,31,38,19864,-544,-896,-7952,18883,-141,-147,-386,1401715259.505810
2,85,0,21977,13,22,40,21744,-592,-928,-7952,21443,-143,-149,-387,1401715259.506068
2,86,0,22972,27,25,46,23625,-576,-992,-7920,21443,-143,-149,-387,1401715259.524326
2,87,0,24962,39,27,56,25505,-560,-928,-7920,24004,-147,-149,-389,1401715259.536860
2,88,0,26952,24,22,55,27386,-560,-960,-7904,26565,-142,-147,-387,1401715259.537253
2,89,0,28942,-8,24,57,29266,-432,-912,-7904,29126,-142,-146,-387,1401715259.554873
2,90,0,30932,-31,26,56,31147,-384,-832,-7904,29126,-142,-146,-387,1401715259.567450
2,91,0,32922,-12,38,58,33027,-352,-896,-7872,31688,-145,-150,-393,1401715259.567668
2,92,0,34912,4,46,67,34908,-208,-800,-7936,34248,-146,-152,-395,1401715259.585711
2,93,0,36902,125,72,94,36788,480,16,-8064,36809,-147,-153,-402,1401715259.586067
2,94,0,37897,300,70,177,38669,-608,-1200,-7472,36809,-147,-153,-402,1401715259.604596
2,95,0,39887,263,98,346,40550,-528,-1392,-7840,39369,-147,-154,-400,1401715259.616852
2,96,0,41877,30,79,82,42430,-272,-1216,-7872,41931,-148,-153,-405,1401715259.617327
2,97,0,43867,-26,31,-43,44310,-272,-1008,-7808,44494,-149,-151,-404,1401715259.635689
2,98,0,45857,-3,16,-44,46190,-544,-1024,-7840,44494,-149,-151,-404,1401715259.635963
2,99,0,47847,-15,-1,-83,48071,-672,-1088,-7920,47055,-151,-150,-405,1401715259.654222
2,100,0,49837,-26,-29,-170,49950,-640,-1072,-8000,49615,-148,-151,-402,1401715259.666650
2,101,0,51827,-20,-49,-164,51830,-784,-992,-8016,49615,-148,-151,-402,1401715259.667102
2,102,0,53817,-14,-50,-125,53710,-704,-1008,-7840,52177,-151,-153,-399,1401715259.685490
2,103,0,54812,-24,-51,-109,55591,-624,-944,-7728,54736,-152,-151,-399,1401715259.691952
2,104,0,56802,-40,-44,-60,57471,-608,-880,-7664,57297,-149,-153,-398,1401715259.704156
2,105,0,58792,-53,-55,-30,59352,-528,-864,-7648,57297,-149,-153,-398,1401715259.716446
2,106,0,60782,-55,-55,-19,61233,-576,-784,-7680,59858,-148,-154,-397,1401715259.716819
2,107,0,62772,-36,-53,-18,63114,-592,-816,-7744,62419,-148,-153,-398,1401715259.734940
2,108,0,64762,0,-64,-30,64994,-576,-784,-7824,64979,-150,-153,-400,1401715259.746641
2,109,0,1216,42,-57,-43,1339,-672,-800,-7936,64979,-150,-153,-400,1401715259.746970
2,110,0,3206,67,-52,-58,3219,-624,-880,-7888,2004,-148,-155,-400,1401715259.765451
2,111,0,5196,90,-45,-64,5100,-608,-1040,-7968,4564,-148,-153,-398,1401715259.771604
2,112,0,6191,91,-41,-74,6981,-544,-1120,-7920,4564,-148,-153,-398,1401715259.784073
2,113,0,8181,102,-28,-91,8862,-560,-1008,-7824,7124,-145,-151,-401,1401715259.796261
2,114,0,10171,99,-29,-105,10742,-560,-960,-7856,9685,-149,-148,-400,1401715259.796603
2,115,0,12161,78,-28,-101,12623,-640,-832,-7824,12247,-146,-150,-404,1401715259.814360
2,116,0,14150,83,-23,-102,14505,-656,-672,-7904,12247,-146,-150,-404,1401715259.826801
2,117,0,16140,129,-18,-83,16385,-688,-576,-7888,14808,-146,-150,-405,1401715259.827235
2,118,0,18130,200,-11,-59,18266,-784,-672,-7856,17368,-146,-150,-398,1401715259.845082
2,119,0,20120,259,3,-2,20146,-800,-800,-7856,19930,-146,-147,-400,1401715259.850587
2,120,0,21115,274,7,29,22026,-800,-928,-7744,19930,-146,-147,-400,1401715259.863213
2,121,0,23105,208,5,34,23907,-720,-928,-7808,22491,-148,-149,-401,1401715259.875584
2,122,0,25095,110,9,-2,25788,-736,-880,-7888,25053,-148,-149,-397,1401715259.875792
2,123,0,27085,85,4,-60,27668,-704,-736,-7968,27613,-146,-143,-400,1401715259.894450
2,124,0,29075,90,4,-55,29549,-784,-656,-7984,27613,-146,-143,-400,1401715259.906785
2,125,0,31065,102,12,-49,31429,-752,-480,-8032,30173,-148,-146,-399,1401715259.907180
2,126,0,33055,132,19,-65,33310,-752,-592,-8048,32733,-144,-143,-403,1401715259.925128
2,127,0,35045,171,25,-68,35190,-672,-688,-8064,32733,-144,-143,-403,1401715259.931541
2,128,0,37035,171,35,-26,37070,-672,-784,-8048,35293,-147,-142,-402,1401715259.944088
2,129,0,38030,171,34,-2,38950,-672,-880,-7888,37855,-147,-138,-401,1401715259.956737
2,130,0,40020,157,31,46,40830,-656,-832,-7856,40415,-146,-140,-403,1401715259.957099
2,131,0,42010,145,39,75,42710,-592,-752,-7952,40415,-146,-140,-403,1401715259.975207
2,132,0,44000,111,33,76,44591,-592,-656,-7904,42977,-148,-137,-404,1401715259.981591
2,133,0,45990,43,19,52,46001,-592,-576,-7776,45538,-147,-139,-402,1401715259.993902
2,134,0,47980,-4,14,3,47881,-560,-608,-7904,48100,-147,-141,-398,1401715260.423
2,135,0,49970,-16,6,-33,49762,-512,-704,-8000,48100,-147,-141,-398,1401715260.12242
2,136,0,51960,-30,21,-60,51642,-592,-624,-7984,50661,-145,-138,-399,1401715260.24459
2,137,0,53950,-5,9,-40,53523,-704,-800,-7872,53223,-147,-140,-400,1401715260.36044
2,138,0,54945,24,14,-21,55403,-816,-928,-7744,55782,-150,-139,-403,1401715260.36326
2,139,0,56935,95,12,48,57284,-784,-1008,-7728,55782,-150,-139,-403,1401715260.53726
2,140,0,58925,138,-2,84,59166,-848,-1104,-7808,58342,-146,-135,-399,1401715260.66083
2,141,0,60915,139,-2,101,61047,-848,-1008,-7824,60902,-148,-134,-401,1401715260.66567
2,142,0,62905,114,-4,113,62929,-720,-1024,-7824,60902,-148,-134,-401,1401715260.84628
2,143,0,64895,46,-2,115,64810,-608,-1024,-7936,63463,-149,-135,-403,1401715260.97176
2,144,0,1349,-91,-12,107,1155,-208,-1328,-7920,486,-146,-136,-401,1401715260.97435
2,145,0,3339,-299,-39,66,3035,32,-1920,-7584,3047,-145,-134,-402,1401715260.114936
2,146,0,4334,-378,-61,20,4915,80,-1952,-7200,3047,-145,-134,-402,1401715260.127234
2,147,0,6324,-454,-91,-119,6796,-80,-912,-7040,5607,-145,-137,-403,1401715260.127561
2,148,0,8313,-311,-118,-361,8677,-240,336,-7696,8168,-143,-141,-400,1401715260.145962
2,149,0,10303,-69,-124,-469,10557,-480,704,-8144,10728,-146,-142,-400,1401715260.146412
2,150,0,12293,12,-109,-314,12437,-576,592,-8224,10728,-146,-142,-400,1401715260.165055
2,151,0,14283,34,-74,-121,14318,-688,176,-8240,13289,-144,-136,-402,1401715260.171423
2,152,0,16273,91,-36,13,16198,-736,-304,-8000,15849,-144,-136,-400,1401715260.183759
2,153,0,18263,165,1,67,18079,-672,-624,-7776,18410,-143,-136,-403,1401715260.196359
2,154,0,20253,179,19,74,19959,-704,-912,-7664,18410,-143,-136,-403,1401715260.196721
2,155,0,21248,158,20,56,21840,-800,-1040,-7744,20971,-140,-135,-401,1401715260.215113
2,156,0,23238,86,-7,-3,23721,-928,-1008,-7808,23532,-142,-136,-402,1401715260.221481
2,157,0,25228,20,-31,-55,25601,-1008,-976,-7920,23532,-142,-136,-402,1401715260.234014
2,158,0,27218,-11,-52,-80,27481,-1008,-944,-7936,26093,-142,-134,-403,1401715260.246414
2,159,0,29208,-13,-53,-89,29362,-960,-880,-7952,28653,-142,-134,-403,1401715260.246713
2,160,0,31198,-5,-45,-85,31243,-784,-928,-7952,31215,-142,-135,-401,1401715260.264970
2,161,0,33188,-16,-21,-56,33123,-672,-880,-7872,31215,-142,-135,-401,1401715260.276768
2,162,0,35178,-18,-9,-24,35003,-608,-816,-7856,33777,-142,-139,-401,1401715260.277214
2,163,0,37168,-30,9,10,36883,-512,-944,-7776,36338,-140,-132,-401,1401715260.294553
2,164,0,38163,-28,7,21,38764,-576,-864,-7760,38899,-142,-136,-403,1401715260.306966
2,165,0,40153,-28,17,37,40645,-512,-880,-7760,38899,-142,-136,-403,1401715260.307434
2,166,0,42143,-26,18,44,42525,-448,-848,-7744,41460,-143,-138,-402,1401715260.325777
2,167,0,44133,-3,15,30,44405,-448,-896,-7728,44020,-141,-134,-400,1401715260.326098
2,168,0,46123,16,0,25,46285,-464,-864,-7744,44020,-141,-134,-400,1401715260.344402
2,169,0,48113,31,-16,15,48166,-384,-912,-7808,46580,-141,-134,-400,1401715260.356933
2,170,0,50103,43,-30,33,50046,-320,-864,-7856,49141,-138,-136,-404,1401715260.357188
2,174,0,57068,4052,538,442,57567,-10496,-16224,448,56823,-143,-109,-401,1401715260.404593
2,176,0,61048,-786,147,-1726,61327,-5680,-6256,-7216,59383,-144,-110,-401,1401715260.423010
2,177,0,63038,-245,-16,-1608,63208,-2544,-6176,-5424,61944,-146,-111,-399,1401715260.435129
2,178,0,65028,-215,-162,-2097,65088,576,-4816,-6240,64504,-144,-113,-400,1401715260.441657
2,179,0,1481,-23,-222,-2008,1432,3056,-3552,-7440,1529,-147,-114,-396,1401715260.454211
2,180,0,3471,81,-167,-1573,3312,4560,-2048,-8496,1529,-147,-114,-396,1401715260.465815
2,181,0,4466,91,-107,-1176,5192,4096,-816,-8992,4090,-143,-113,-396,1401715260.466028
2,182,0,6456,142,-1,-253,7072,3104,128,-9008,6650,-145,-113,-401,1401715260.484102
2,183,0,8446,213,78,355,8953,2096,224,-8256,6650,-145,-113,-401,1401715260.496781
2,184,0,10436,139,151,751,10833,784,256,-7760,9211,-145,-114,-398,1401715260.497090
2,185,0,12426,37,182,941,12714,-208,704,-7472,11773,-144,-110,-401,1401715260.514859
2,186,0,14416,4,195,903,14594,-1056,1168,-7696,14334,-145,-114,-403,1401715260.527327
2,187,0,16406,109,148,640,16474,-1584,1376,-8192,14334,-145,-114,-403,1401715260.527600
2,188,0,18396,319,55,312,18355,-1744,1104,-8512,16896,-145,-113,-402,1401715260.545072
2,189,0,19391,441,-7,144,20235,-1696,480,-8464,19457,-147,-110,-403,1401715260.551399
2,190,0,21381,507,-148,-140,22115,-1600,144,-8320,22018,-146,-104,-405,1401715260.563436
2,191,0,23371,378,-239,-286,23996,-1408,-336,-8112,22018,-146,-104,-405,1401715260.576078
2,192,0,25361,291,-273,-374,25877,-1152,-544,-7840,24579,-146,-103,-400,1401715260.576465
2,193,0,27351,237,-282,-446,27757,-1008,-640,-7600,27139,-145,-101,-401,1401715260.594693
2,194,0,29341,179,-244,-445,29638,-880,-448,-7552,29700,-145,-100,-401,1401715260.606978
2,195,0,31331,125,-201,-306,31519,-1008,-192,-7680,29700,-145,-100,-401,1401715260.607434
2,196,0,33321,72,-152,-158,33399,-1024,-112,-7872,32260,-143,-101,-403,1401715260.625458
2,197,0,35311,3,-92,-103,35279,-912,-112,-7952,34821,-139,-100,-398,1401715260.625843
2,198,0,36306,-45,-61,-76,37159,-848,-64,-8096,34821,-139,-100,-398,1401715260.644313
2,199,0,38296,-124,-29,-41,39040,-784,-16,-8000,37382,-139,-101,-399,1401715260.656695
2,200,0,40286,-123,-39,-59,40921,-704,16,-8032,39943,-137,-100,-398,1401715260.657046
2,201,0,42276,-83,-51,-136,42802,-576,64,-8032,42503,-142,-102,-401,1401715260.675186
2,202,0,44266,-75,-59,-154,44683,-608,80,-8080,42503,-142,-102,-401,1401715260.681593
2,203,0,46256,-11,-89,-119,46563,-448,16,-7936,45063,-141,-104,-402,1401715260.694217
2,204,0,48246,26,-66,-78,48443,-464,-208,-7904,47622,-143,-101,-402,1401715260.706515
2,205,0,50236,16,-41,-2,50324,-448,-352,-7872,50183,-140,-102,-401,1401715260.706792
2,206,0,52226,4,-34,48,52204,-448,-368,-7888,50183,-140,-102,-401,1401715260.725141
2,207,0,53221,-2,-28,66,54084,-320,-432,-7936,52744,-141,-102,-401,1401715260.731534
2,208,0,55211,-7,-20,84,55964,-448,-432,-7888,55305,-141,-103,-400,1401715260.743343
2,209,0,57201,-1,-34,93,57845,-384,-400,-7888,55305,-141,-103,-400,1401715260.755864
2,210,0,59191,23,-37,102,59725,-528,-288,-7936,57865,-139,-104,-401,1401715260.756282
2,211,0,61181,47,-50,118,61605,-528,-160,-7872,60426,-139,-101,-402,1401715260.774209
2,212,0,63170,76,-49,112,63485,-560,-224,-7776,62987,-139,-102,-402,1401715260.786231
2,213,0,65160,69,-28,119,65365,-528,-160,-7840,62987,-139,-102,-402,1401715260.786679
2,214,0,1614,53,-5,145,1709,-704,-256,-7856,12,-137,-101,-401,1401715260.805096
2,215,0,2609,58,7,158,3590,-880,-336,-7824,2573,-139,-100,-403,1401715260.811397
2,216,0,4599,71,28,218,5470,-912,-496,-7840,5134,-140,-100,-405,1401715260.823933
2,217,0,6589,76,45,270,6880,-992,-800,-7760,5134,-140,-100,-405,1401715260.836268
2,218,0,8579,46,67,333,8760,-928,-1200,-7792,7695,-138,-103,-406,1401715260.836537
2,219,0,10569,80,72,483,10641,-1136,-1456,-7920,10256,-140,-101,-401,1401715260.854479
2,220,0,12559,386,75,649,12522,-1120,-1728,-8112,12817,-141,-101,-405,1401715260.866653
2,221,0,14549,850,6,780,14403,-512,-2048,-8304,12817,-141,-101,-405,1401715260.867090
2,222,0,16539,1344,-73,953,16284,656,-2016,-8336,15379,-143,-100,-402,1401715260.884840
2,223,0,18529,1416,-156,1207,18164,1504,-2128,-7872,17939,-143,-87,-406,1401715260.897095
2,224,0,19524,1160,-156,1361,20044,1488,-2192,-6976,17939,-143,-87,-406,1401715260.897589
2,225,0,21514,-329,-129,1714,21925,448,-336,-6800,20500,-141,-88,-405,1401715260.915533
2,226,0,23504,-2549,-129,1689,23805,-560,2288,-7712,23060,-141,-99,-405,1401715260.915794
2,227,0,25494,-3480,-157,1022,25685,-400,3168,-8416,25622,-138,-123,-405,1401715260.933553
2,228,0,27484,-2834,-181,796,27567,-1040,4480,-9328,25622,-138,-123,-405,1401715260.946088
2,229,0,29474,-1124,-98,134,29447,-1408,2928,-9056,28182,-135,-131,-403,1401715260.946454
2,230,0,31464,-91,-31,-166,31327,-1344,1216,-8384,30743,-135,-134,-406,1401715260.965098
2,231,0,33454,304,11,-219,33206,-1216,224,-7904,33304,-139,-131,-405,1401715260.971662
2,232,0,35444,386,13,-155,35087,-928,-512,-7600,33304,-139,-131,-405,1401715260.984155
2,233,0,36439,361,-6,-82,36967,-768,-1056,-7520,35865,-139,-132,-401,1401715260.996667
2,234,0,38429,263,-37,-57,38846,-608,-1264,-7488,38426,-136,-131,-405,1401715260.997105
2,235,0,40419,107,-71,-15,40726,-544,-1248,-7552,40988,-136,-129,-404,1401715261.15664
2,236,0,42409,-12,-83,26,42607,-592,-1216,-7680,40988,-136,-129,-404,1401715261.16166
2,237,0,44399,-90,-101,54,44488,-592,-1216,-7920,43549,-133,-128,-403,1401715261.33689
2,238,0,46389,-131,-90,61,46367,-656,-1200,-8016,46109,-133,-130,-405,1401715261.46123
2,239,0,48379,-126,-73,48,48247,-624,-1168,-8112,46109,-133,-130,-405,1401715261.46394
2,240,0,50369,-92,-51,24,50127,-544,-1232,-8176,48671,-133,-132,-402,1401715261.64382
2,241,0,51364,-71,-43,7,52008,-448,-1168,-8080,51231,-133,-131,-404,1401715261.76962
2,242,0,53354,-38,-20,-25,53887,-352,-1184,-8016,53792,-136,-132,-405,1401715261.77288
2,243,0,55344,-41,-10,-68,55768,-416,-1088,-7968,53792,-136,-132,-405,1401715261.95408
2,244,0,57334,-82,-11,-59,57647,-448,-960,-7920,56351,-135,-134,-405,1401715261.95706
2,245,0,59323,-113,-18,-65,59528,-416,-832,-7888,58912,-134,-135,-404,1401715261.114065
2,246,0,61313,-118,-27,-63,61408,-448,-768,-7824,61472,-135,-136,-405,1401715261.126408
2,247,0,63303,-102,-34,-39,63288,-368,-672,-7888,61472,-135,-136,-405,1401715261.126670
2,248,0,65293,-49,-48,-31,65168,-384,-656,-7872,64032,-136,-136,-404,1401715261.145179
2,249,0,1747,13,-52,-21,1512,-448,-752,-7888,1057,-137,-139,-408,1401715261.151703
2,250,0,2742,39,-55,-22,3393,-432,-752,-7840,3618,-137,-135,-404,1401715261.163587
2,251,0,4732,90,-66,-17,5274,-448,-736,-7776,3618,-137,-135,-404,1401715261.176206
2,252,0,6722,112,-60,-6,7154,-400,-736,-7760,6179,-134,-134,-401,1401715261.176699
2,253,0,8712,97,-62,21,9035,-384,-768,-7760,8740,-133,-135,-406,1401715261.195315
2,254,0,10702,53,-65,39,10915,-336,-752,-7728,8740,-133,-135,-406,1401715261.201189
2,255,0,12692,9,-56,45,12795,-336,-880,-7824,11300,-133,-134,-403,1401715261.213502
2,0,0,14682,-13,-48,43,14676,-336,-960,-7824,13861,-135,-136,-406,1401715261.225820
2,1,0,16672,-14,-38,32,16556,-320,-992,-7856,16422,-133,-136,-404,1401715261.226287
2,2,0,18662,17,-39,3,18437,-352,-1024,-7920,16422,-133,-136,-404,1401715261.244663
2,3,0,19657,19,-40,3,20318,-432,-1088,-7936,18984,-136,-136,-404,1401715261.257102
2,4,0,21647,27,-29,-17,22198,-480,-1056,-7952,21546,-132,-133,-405,1401715261.257533
2,5,0,23637,39,-18,-26,24078,-512,-1056,-7968,24107,-130,-135,-404,1401715261.276186
2,6,0,25627,28,-11,-26,25959,-496,-976,-7920,24107,-130,-135,-404,1401715261.276564
2,7,0,27617,6,-12,-31,27839,-432,-992,-7824,26668,-130,-137,-407,1401715261.294219
2,8,0,29607,-20,-23,-25,29720,-432,-944,-7728,29230,-131,-135,-404,1401715261.306745
2,9,0,31597,-24,-35,-10,31600,-368,-896,-7728,31791,-133,-136,-403,1401715261.307021
2,10,0,33587,-10,-46,-2,33481,-384,-800,-7680,31791,-133,-136,-403,1401715261.325465
2,11,0,34582,5,-50,9,35362,-368,-800,-7632,34351,-133,-137,-405,1401715261.325943
2,12,0,36572,28,-48,9,37242,-336,-736,-7600,36912,-130,-135,-403,1401715261.344337
2,13,0,38562,48,-55,11,39122,-288,-624,-7536,36912,-130,-135,-403,1401715261.356841
2,14,0,40552,54,-49,8,41002,-288,-592,-7488,39473,-128,-137,-403,1401715261.357293
2,15,0,42542,55,-59,-8,42882,-240,-544,-7504,42034,-132,-135,-402,1401715261.375641
2,16,0,44532,41,-64,-14,44763,-176,-480,-7616,44594,-132,-136,-405,1401715261.375930
2,17,0,46522,28,-71,-35,46644,-192,-480,-7664,44594,-132,-136,-405,1401715261.394075
2,18,0,48512,23,-75,-48,48525,-240,-464,-7920,47154,-129,-138,-401,1401715261.406662
2,19,0,50502,52,-71,-60,50405,-336,-480,-8112,49715,-129,-134,-400,1401715261.407058
2,20,0,51497,74,-62,-60,52286,-336,-432,-8320,52276,-132,-132,-402,1401715261.425298
2,21,0,53486,106,-60,-58,54166,-416,-544,-8464,52276,-132,-132,-402,1401715261.431734
2,22,0,55476,111,-43,-35,56046,-464,-592,-8416,54837,-130,-135,-399,1401715261.444388
2,23,0,57466,113,-42,-17,57926,-400,-656,-8400,57398,-129,-131,-400,1401715261.456707
2,24,0,59456,111,-43,3,59806,-448,-704,-8336,57398,-129,-131,-400,1401715261.457188
2,25,0,61446,112,-51,26,61687,-336,-752,-8272,59960,-130,-130,-401,1401715261.474875
2,26,0,63436,115,-55,43,63567,-256,-752,-8096,62521,-129,-132,-401,1401715261.487023
2,27,0,65426,87,-54,54,65447,-208,-800,-7888,65082,-130,-130,-399,1401715261.487278
2,28,0,1880,50,-61,60,1791,-208,-832,-7744,65082,-130,-130,-399,1401715261.505202
2,29,0,2875,32,-55,56,3672,-144,-720,-7584,2107,-130,-128,-397,1401715261.511623
2,30,0,4865,-1,-63,21,5552,-192,-640,-7584,4668,-130,-129,-397,1401715261.523613
2,31,0,6855,1,-58,-19,7432,-192,-656,-7616,7229,-128,-128,-399,1401715261.535922
2,32,0,8845,0,-61,-72,9312,-240,-560,-7744,7229,-128,-128,-399,1401715261.536183
2,33,0,10835,13,-51,-127,11192,-272,-432,-7808,9791,-127,-126,-397,1401715261.554348
2,34,0,12825,21,-29,-174,13072,-336,-400,-8000,12351,-127,-126,-400,1401715261.566311
2,35,0,14815,13,-5,-228,14952,-448,-320,-8144,14913,-126,-127,-397,1401715261.566584
2,36,0,16805,1,7,-254,16833,-576,-352,-8320,14913,-126,-127,-397,1401715261.584853
2,37,0,17800,4,10,-259,18714,-816,-416,-8336,17474,-129,-124,-392,1401715261.596603
2,38,0,19790,14,9,-252,20594,-896,-400,-8256,20035,-134,-125,-395,1401715261.597014
2,39,0,21780,32,-3,-215,22475,-1024,-496,-8224,20035,-134,-125,-395,1401715261.614415
2,40,0,23770,10,-31,-172,24356,-1104,-480,-8144,22596,-130,-126,-396,1401715261.622240
2,41,0,25760,-44,-42,-95,26236,-1056,-448,-8048,25157,-123,-128,-397,1401715261.634590
2,42,0,27750,-91,-52,-52,28116,-944,-384,-7936,27719,-130,-125,-396,1401715261.647330
2,43,0,29740,-96,-48,-19,29997,-800,-384,-7840,27719,-130,-125,-396,1401715261.647730
2,44,0,31730,-75,-40,-9,31877,-704,-416,-7760,30280,-127,-124,-395,1401715261.666179
2,45,0,33720,-29,-35,-6,33758,-560,-384,-7680,32841,-124,-128,-396,1401715261.666669
2,46,0,34715,-2,-31,-13,35169,-512,-368,-7632,35403,-124,-127,-393,1401715261.685053
2,47,0,36705,52,-15,-19,37050,-432,-464,-7664,35403,-124,-127,-393,1401715261.691299
2,48,0,38695,88,-16,-42,38930,-464,-528,-7744,37965,-128,-126,-396,1401715261.703886
2,49,0,40685,102,-22,-59,40810,-496,-656,-7696,40525,-129,-125,-393,1401715261.716205
2,50,0,42675,99,-31,-59,42690,-528,-672,-7728,43087,-127,-125,-393,1401715261.716565
2,51,0,44665,66,-39,-71,44571,-640,-720,-7792,43087,-127,-125,-393,1401715261.734316
2,52,0,46655,32,-46,-83,46452,-672,-672,-7728,45646,-124,-127,-393,1401715261.746596
2,53,0,48644,-11,-56,-92,48332,-800,-704,-7696,48207,-127,-124,-393,1401715261.746937
2,54,0,50634,-60,-54,-100,50213,-800,-576,-7760,48207,-127,-124,-393,1401715261.765334
2,55,0,51629,-78,-56,-97,52094,-912,-496,-7744,50768,-122,-125,-394,1401715261.765791
2,56,0,53619,-105,-50,-95,53975,-944,-528,-7824,53329,-124,-128,-393,1401715261.783956
2,57,0,55609,-111,-46,-68,55856,-976,-432,-7840,55888,-125,-128,-389,1401715261.795927
2,58,0,57599,-88,-50,-44,57737,-976,-352,-7936,55888,-125,-128,-389,1401715261.796257
2,59,0,59589,-56,-40,-17,59618,-1008,-448,-7904,58450,-125,-125,-391,1401715261.814046
2,60,0,61579,-31,-46,14,61498,-1024,-496,-7888,61010,-123,-129,-392,1401715261.825878
2,61,0,63569,-6,-56,37,63380,-896,-608,-7888,63571,-123,-126,-391,1401715261.826199
2,62,0,23,-8,-64,52,65260,-896,-704,-8000,63571,-123,-126,-391,1401715261.844687
2,63,0,1018,-12,-63,43,1605,-848,-784,-8032,596,-126,-129,-392,1401715261.857255
2,64,0,3008,-29,-65,36,3485,-848,-912,-8016,3157,-124,-127,-391,1401715261.857574
2,65,0,4998,-40,-63,24,5367,-672,-960,-7984,5718,-121,-130,-392,1401715261.876178
2,66,0,6988,-69,-60,12,7248,-576,-992,-7968,5718,-121,-130,-392,1401715261.876520
2,67,0,8978,-94,-67,-1,9128,-496,-1072,-7920,8279,-123,-128,-390,1401715261.895163
2,68,0,10968,-125,-64,-11,11010,-464,-1008,-7888,10839,-117,-130,-392,1401715261.901518
2,69,0,12958,-141,-71,-15,12890,-368,-1024,-7872,10839,-117,-130,-392,1401715261.912942
2,70,0,14948,-155,-79,-28,14771,-448,-1024,-7936,13401,-120,-130,-390,1401715261.925226
2,71,0,16938,-147,-91,-34,16651,-512,-912,-7936,15962,-120,-131,-392,1401715261.931631
2,72,0,17933,-145,-89,-43,18532,-656,-912,-7936,18524,-117,-134,-391,1401715261.943676
2,73,0,19923,-125,-92,-51,20413,-720,-928,-7936,18524,-117,-134,-391,1401715261.956323
2,74,0,21913,-100,-86,-57,22294,-832,-944,-7904,21084,-116,-139,-390,1401715261.956671
2,75,0,23903,-85,-79,-65,24175,-816,-1040,-7824,23645,-116,-134,-390,1401715261.975243
2,76,0,25893,-82,-68,-62,26056,-880,-1024,-7792,26205,-113,-136,-390,1401715261.981367
2,77,0,27883,-88,-68,-52,27938,-992,-992,-7744,26205,-113,-136,-390,1401715261.993734
2,78,0,29873,-109,-59,-41,29819,-1040,-960,-7728,28766,-115,-140,-391,1401715262.5764
2,79,0,31863,-129,-57,-31,31700,-1056,-1040,-7696,31327,-111,-137,-390,1401715262.6052
2,80,0,32858,-141,-55,-25,33580,-1040,-912,-7744,31327,-111,-137,-390,1401715262.24147
2,81,0,34848,-146,-64,-22,35461,-976,-896,-7712,33889,-111,-139,-388,1401715262.36437
2,82,0,36838,-135,-62,-24,37341,-1008,-928,-7824,36450,-108,-140,-390,1401715262.36734
2,83,0,38828,-135,-51,-27,39221,-944,-1056,-7808,39010,-108,-140,-391,1401715262.55224
2,84,0,40818,-123,-52,-14,41102,-928,-1168,-7840,39010,-108,-140,-391,1401715262.61567
2,85,0,42808,-124,-56,-23,42983,-896,-1200,-7840,41571,-110,-142,-393,1401715262.74092
2,86,0,44797,-138,-43,-37,44863,-960,-1216,-7840,44133,-108,-143,-390,1401715262.86640
2,87,0,46787,-164,-31,-70,46744,-1072,-1136,-7840,46694,-104,-143,-390,1401715262.87148
2,88,0,48777,-173,-26,-102,48625,-1136,-1152,-7904,46694,-104,-143,-390,1401715262.103821
2,89,0,49772,-177,-19,-113,50506,-1232,-1072,-8000,49254,-104,-144,-387,1401715262.116430
2,90,0,51762,-175,-21,-130,52386,-1328,-928,-8160,51815,-104,-148,-392,1401715262.116895
2,91,0,53752,-169,-19,-126,54266,-1472,-768,-8240,54376,-104,-146,-390,1401715262.135176
2,92,0,55742,-148,-22,-100,56146,-1568,-832,-8368,54376,-104,-146,-390,1401715262.141437
2,93,0,57732,-117,-12,-89,58027,-1600,-832,-8352,56937,-102,-149,-385,1401715262.154023
2,94,0,59722,-100,1,-41,59906,-1552,-928,-8224,59498,-103,-147,-393,1401715262.166522
2,95,0,61712,-97,23,10,61786,-1376,-944,-8016,59498,-103,-147,-393,1401715262.166936
2,96,0,63702,-114,28,52,63666,-1232,-816,-7920,62060,-99,-150,-392,1401715262.185201
2,97,0,156,-156,8,78,10,-1136,-832,-7936,64621,-101,-154,-394,1401715262.191539
2,98,0,1151,-154,2,93,1890,-1072,-784,-8064,1646,-101,-152,-391,1401715262.203943
2,99,0,3141,-130,-29,112,3771,-976,-848,-8192,1646,-101,-152,-391,1401715262.216453
2,100,0,5131,-66,-24,130,5651,-848,-960,-8288,4208,-99,-150,-394,1401715262.216809
2,101,0,7121,-22,-11,124,7531,-720,-1136,-8368,6769,-97,-152,-396,1401715262.235173
2,102,0,9111,-30,8,112,9412,-672,-1296,-8416,9330,-96,-151,-396,1401715262.241787
2,103,0,11101,-77,19,132,11293,-656,-1440,-8416,9330,-96,-151,-396,1401715262.253448
2,104,0,13091,-139,27,158,13173,-688,-1664,-8320,11891,-96,-150,-393,1401715262.265794
2,105,0,15081,-175,26,183,15054,-768,-1808,-8208,14452,-96,-151,-394,1401715262.266275
2,106,0,16076,-188,30,199,16935,-752,-1856,-8064,17013,-94,-153,-395,1401715262.284627
2,107,0,18066,-198,24,210,18815,-848,-1776,-8016,17013,-94,-153,-395,1401715262.297106
2,108,0,20056,-198,22,201,20696,-992,-1680,-8064,19573,-92,-153,-394,1401715262.297550
2,109,0,22046,-175,47,163,22575,-1120,-1536,-8016,22134,-95,-158,-395,1401715262.316177
2,110,0,24036,-133,74,99,24456,-1088,-1264,-7968,22134,-95,-158,-395,1401715262.316613
2,111,0,26026,-148,114,16,26337,-1168,-960,-8048,24694,-95,-157,-394,1401715262.334909
2,112,0,28016,-137,153,-61,28217,-1152,-624,-8096,27254,-94,-156,-393,1401715262.347068
2,113,0,30006,-114,167,-105,30097,-1024,-624,-8176,29816,-93,-158,-393,1401715262.347327
2,114,0,31996,-59,183,-125,31977,-880,-480,-8256,29816,-93,-158,-393,1401715262.366033
2,115,0,32991,-26,183,-139,33858,-576,-560,-8176,32377,-94,-155,-397,1401715262.366432
2,116,0,34981,57,178,-138,35738,-288,-784,-8112,34939,-95,-155,-395,1401715262.384541
2,117,0,36971,133,158,-105,37619,16,-976,-8096,37500,-94,-157,-400,1401715262.396790
2,118,0,38961,160,138,-55,39500,304,-1088,-7968,37500,-94,-157,-400,1401715262.397066
2,119,0,40950,146,130,-12,41380,608,-1200,-7808,40060,-96,-153,-399,1401715262.415407
2,120,0,42940,135,106,25,43261,848,-1216,-7776,42622,-94,-153,-402,1401715262.415898
2,121,0,44930,122,87,43,45141,992,-1104,-7568,42622,-94,-153,-402,1401715262.434517
2,122,0,46920,113,73,42,47021,1136,-944,-7376,45183,-94,-151,-399,1401715262.447060
2,123,0,48910,106,65,22,48901,1344,-800,-7264,47744,-94,-151,-400,1401715262.447501
2,124,0,49905,100,41,6,50782,1344,-512,-7104,50306,-94,-148,-402,1401715262.465549
2,125,0,51895,73,14,-29,52663,1440,-352,-7056,50306,-94,-148,-402,1401715262.465919
2,126,0,53885,47,-24,-91,54543,1584,-304,-7072,52867,-92,-145,-400,1401715262.484094
2,127,0,55875,34,-73,-133,56423,1536,-336,-7040,55427,-93,-147,-404,1401715262.496635
2,128,0,57865,18,-97,-152,57833,1568,-512,-7120,57989,-93,-145,-399,1401715262.497022
2,129,0,59855,6,-124,-152,59714,1456,-656,-7184,57989,-93,-145,-399,1401715262.514845
2,130,0,61845,-9,-145,-127,61594,1424,-864,-7184,60550,-93,-146,-398,1401715262.527261
2,131,0,63835,-26,-144,-108,63475,1184,-1104,-7360,63111,-90,-143,-400,1401715262.527652
2,132,0,64830,-37,-130,-93,65355,928,-1456,-7648,137,-89,-144,-399,1401715262.546034
2,133,0,1284,-65,-96,-54,1698,592,-1664,-7920,137,-89,-144,-399,1401715262.546309
2,134,0,3274,-93,-42,-27,3578,352,-1968,-8128,2698,-90,-144,-399,1401715262.564895
2,135,0,5264,-153,9,-8,5459,96,-2080,-8352,5259,-87,-145,-401,1401715262.577314
2,136,0,7254,-191,46,-33,7340,-144,-2112,-8528,5259,-87,-145,-401,1401715262.577790
2,137,0,9244,-220,95,-79,9220,-432,-2064,-8736,7820,-85,-147,-399,1401715262.595570
2,138,0,11234,-226,115,-132,11100,-832,-2064,-8864,10381,-85,-148,-399,1401715262.595896
2,139,0,13224,-244,145,-179,12979,-1088,-1840,-8768,12942,-85,-149,-399,1401715262.613560
2,140,0,15214,-278,158,-232,14860,-1248,-1664,-8480,12942,-85,-149,-399,1401715262.626036
2,141,0,16209,-302,157,-252,16741,-1296,-1456,-8256,15502,-87,-154,-400,1401715262.626312
2,142,0,18199,-366,161,-260,18621,-1264,-1280,-7760,18062,-85,-158,-395,1401715262.643868
2,143,0,20189,-457,181,-216,20502,-1072,-1072,-7392,20623,-90,-157,-397,1401715262.656400
2,144,0,22179,-540,204,-114,22381,-928,-768,-7136,20623,-90,-157,-397,1401715262.656626
2,145,0,24169,-530,247,21,24261,-848,-592,-6896,23184,-87,-167,-390,1401715262.675217
2,146,0,26159,-475,287,176,26140,-624,-496,-6688,25746,-93,-168,-391,1401715262.681545
2,147,0,28149,-415,303,316,28020,-416,-512,-6560,28306,-95,-173,-392,1401715262.693818
2,148,0,30139,-350,286,430,29900,-384,-544,-6656,28306,-95,-173,-392,1401715262.706476
2,149,0,32129,-213,268,541,31780,-544,-448,-6592,30867,-98,-176,-393,1401715262.707023
2,150,0,33124,-80,262,571,33661,-512,-336,-6512,33429,-98,-176,-392,1401715262.724972
2,151,0,35114,213,222,579,35540,-400,-752,-6928,33429,-98,-176,-392,1401715262.737529
2,152,0,37103,413,157,519,37421,-512,-976,-7088,35990,-98,-174,-393,1401715262.737792
2,153,0,39093,579,92,473,39301,-528,-1344,-7136,38550,-99,-172,-396,1401715262.756178
2,154,0,41083,672,50,408,41181,-464,-1600,-7312,41111,-101,-167,-400,1401715262.756647
2,155,0,43073,683,5,345,43061,-368,-1984,-7488,41111,-101,-167,-400,1401715262.775272
2,156,0,45063,641,-21,272,44941,-128,-2224,-7600,43672,-100,-163,-400,1401715262.781215
2,157,0,47053,515,-42,245,46821,16,-2496,-7776,46232,-99,-158,-402,1401715262.793527
2,158,0,48048,422,-51,235,48701,192,-2736,-7808,48794,-98,-158,-403,1401715262.806052
2,159,0,50038,199,-65,221,50582,304,-2752,-7760,48794,-98,-158,-403,1401715262.806506
2,160,0,52028,-29,-69,220,52462,384,-2656,-7680,51355,-97,-154,-405,1401715262.824296
2,161,0,54018,-187,-60,234,54342,192,-2448,-7392,53917,-99,-159,-405,1401715262.836116
2,162,0,56008,-207,-46,220,56223,80,-2144,-7152,56479,-99,-161,-403,1401715262.836424
2,163,0,57998,-126,-17,171,58104,0,-1856,-7072,56479,-99,-161,-403,1401715262.853738
2,164,0,59988,0,-7,92,59984,-16,-1568,-6928,59039,-97,-162,-402,1401715262.866249
2,165,0,61978,125,-1,6,61864,-176,-1360,-6928,61601,-97,-159,-405,1401715262.866554
2,166,0,63968,224,-21,-60,63745,-352,-1216,-6880,61601,-97,-159,-405,1401715262.885147
2,167,0,64963,263,-31,-77,88,-384,-1040,-6992,64163,-100,-158,-405,1401715262.891396
2,168,0,1417,328,-40,-83,1969,-512,-1008,-7120,1187,-95,-155,-405,1401715262.903251
2,169,0,3407,378,-52,-66,3850,-576,-1056,-7248,3748,-98,-153,-409,1401715262.915634
2,170,0,5397,424,-49,-26,5730,-496,-1168,-7360,3748,-98,-153,-409,1401715262.916131
2,171,0,7387,465,-47,23,7610,-512,-1200,-7424,6311,-97,-153,-408,1401715262.933602
2,172,0,9377,496,-43,66,9489,-432,-1120,-7536,8873,-95,-149,-406,1401715262.946097
2,173,0,11367,504,-44,96,11370,-384,-1248,-7488,11434,-96,-146,-406,1401715262.946535
2,174,0,13357,512,-50,91,13251,-240,-1440,-7520,11434,-96,-146,-406,1401715262.965142
2,175,0,14352,512,-53,79,15132,-112,-1648,-7520,13994,-98,-138,-408,1401715262.971481
2,176,0,16342,466,-70,39,17011,0,-1792,-7488,16555,-94,-139,-408,1401715262.983841
2,177,0,18332,350,-95,-13,18891,64,-2016,-7584,16555,-94,-139,-408,1401715262.996154
2,178,0,20322,161,-120,-52,20771,-16,-2256,-7696,19116,-94,-138,-403,1401715262.996502
2,179,0,22312,-59,-132,-59,22650,-96,-2416,-7840,21678,-92,-136,-406,1401715263.14543
2,180,0,24302,-285,-115,-40,24531,-432,-2624,-7968,24239,-92,-136,-407,1401715263.27109
2,181,0,26292,-461,-57,-2,26412,-944,-2784,-8128,24239,-92,-136,-407,1401715263.27348
2,182,0,28282,-551,21,45,28292,-1536,-2784,-8320,26801,-93,-143,-402,1401715263.45959
2,183,0,30272,-596,110,81,30172,-2016,-2880,-8352,29361,-94,-147,-405,1401715263.46237
2,184,0,31267,-613,156,102,32053,-2416,-2976,-8432,31923,-93,-152,-406,1401715263.64840
2,185,0,33256,-662,245,145,33934,-2768,-2848,-8368,31923,-93,-152,-406,1401715263.77300
2,186,0,35246,-729,333,210,35816,-2928,-2736,-8256,34483,-94,-157,-400,1401715263.77755
2,187,0,37236,-771,381,296,37696,-3040,-2592,-8096,37044,-99,-163,-407,1401715263.95566
2,188,0,39226,-712,396,388,39576,-2976,-2192,-7776,39606,-102,-170,-406,1401715263.96004
2,189,0,41216,-514,396,449,41457,-2416,-1632,-7504,39606,-102,-170,-406,1401715263.114385
2,190,0,43206,-237,343,494,43338,-1936,-1088,-7600,42166,-102,-176,-403,1401715263.126124
2,191,0,45196,135,205,466,45218,-1136,-576,-8144,44726,-105,-175,-408,1401715263.126371
2,192,0,47186,503,48,355,47098,-848,-512,-8624,44726,-105,-175,-408,1401715263.144560
2,193,0,48181,659,-17,294,48979,-544,-736,-9152,47287,-109,-175,-411,1401715263.157084
2,194,0,50171,910,-112,194,50859,-176,-1248,-9520,49848,-109,-169,-413,1401715263.157530
2,195,0,52161,1051,-149,142,52740,256,-1984,-9776,52409,-106,-161,-414,1401715263.175918
2,196,0,54151,1074,-148,98,54620,496,-2480,-9936,52409,-106,-161,-414,1401715263.176340
2,197,0,56141,945,-120,48,56500,640,-2960,-10080,54970,-106,-156,-412,1401715263.195012
2,198,0,58131,624,-77,-55,58379,672,-3136,-9984,57530,-103,-148,-415,1401715263.201603
2,199,0,60121,108,-28,-161,60259,704,-3184,-9664,60091,-104,-146,-413,1401715263.213747
2,200,0,62111,-528,18,-228,62139,640,-3040,-9168,60091,-104,-146,-413,1401715263.225799
2,201,0,63106,-845,34,-225,64019,400,-2864,-8608,62652,-106,-155,-414,1401715263.226153
2,202,0,65096,-1404,63,-177,363,112,-2608,-8144,65213,-106,-163,-411,1401715263.244630
2,203,0,1550,-1726,125,-110,1773,-128,-2416,-7808,2238,-104,-176,-409,1401715263.257231
2,204,0,3540,-1785,184,-52,4124,-576,-1808,-7264,2238,-104,-176,-409,1401715263.257532
2,205,0,5530,-1618,231,-15,6004,-816,-1152,-6864,4798,-108,-190,-407,1401715263.275754
2,206,0,7520,-1290,233,-16,7884,-1008,-416,-6560,7358,-114,-201,-408,1401715263.275991
2,207,0,9510,-859,192,-42,9764,-1216,256,-6576,7358,-114,-201,-408,1401715263.294480
2,208,0,11500,-383,96,-93,11645,-1408,960,-6928,9918,-117,-208,-404,1401715263.306715
2,209,0,13490,111,12,-205,13526,-1456,1216,-7456,12478,-120,-207,-405,1401715263.307069
2,210,0,14485,347,-15,-259,15406,-1344,1008,-7776,15038,-119,-202,-406,1401715263.325463
2,211,0,16475,738,-37,-341,17286,-1040,592,-8000,15038,-119,-202,-406,1401715263.325734
2,212,0,18465,979,-23,-334,19166,-768,240,-8096,17598,-121,-195,-409,1401715263.343328
2,213,0,20455,1033,-10,-236,21047,-400,-64,-8064,20158,-118,-189,-408,1401715263.355345
2,214,0,22445,928,16,-88,22457,-160,-224,-8080,22718,-118,-180,-411,1401715263.355620
2,215,0,24435,761,43,71,24338,112,-464,-7984,22718,-118,-180,-411,1401715263.374304
2,216,0,26425,504,59,178,26217,448,-656,-7872,25279,-120,-177,-412,1401715263.386179
2,217,0,28414,176,52,275,28098,800,-640,-7792,27839,-120,-177,-410,1401715263.386631
2,218,0,30404,-152,20,346,29978,1008,-464,-7728,30399,-122,-174,-410,1401715263.405502
2,219,0,31399,-296,0,371,31858,960,-176,-7664,30399,-122,-174,-410,1401715263.405742
2,220,0,33389,-492,-70,399,33739,768,-32,-7760,32960,-121,-180,-410,1401715263.424157
2,221,0,35379,-518,-131,419,35619,576,112,-7872,35521,-121,-180,-410,1401715263.435773
2,222,0,37369,-375,-183,454,37499,224,112,-7936,35521,-121,-180,-410,1401715263.436136
2,223,0,39359,-127,-210,481,39379,32,-16,-8016,38081,-123,-184,-407,1401715263.454289
2,224,0,41349,199,-224,476,41260,-176,-224,-8096,40641,-122,-178,-408,1401715263.466180
2,225,0,43339,505,-225,425,43141,-320,-496,-8096,43203,-119,-175,-409,1401715263.466630
2,226,0,45329,706,-235,339,45022,-272,-928,-7984,43203,-119,-175,-409,1401715263.484465
2,227,0,46324,764,-241,294,46904,-224,-1264,-7808,45763,-116,-168,-410,1401715263.496886
2,228,0,48314,800,-253,200,48784,-144,-1504,-7632,48325,-113,-161,-414,1401715263.497190
2,229,0,50304,761,-237,92,50664,-128,-1616,-7616,50886,-113,-155,-409,1401715263.515624
2,230,0,52294,682,-221,-26,52544,80,-1616,-7552,50886,-113,-155,-409,1401715263.516129
2,231,0,54284,577,-192,-145,54425,192,-1520,-7520,53446,-110,-149,-412,1401715263.534686
2,232,0,56274,418,-167,-256,56304,432,-1392,-7408,56008,-111,-145,-410,1401715263.546849
2,233,0,58264,245,-163,-355,58184,688,-1328,-7312,56008,-111,-145,-410,1401715263.547153
2,234,0,60254,45,-179,-435,60064,880,-1136,-7296,58567,-109,-142,-407,1401715263.565137
2,235,0,62244,-148,-209,-477,61944,896,-944,-7360,61128,-109,-142,-406,1401715263.571427
2,236,0,63239,-229,-218,-481,63823,816,-656,-7600,63689,-106,-141,-402,1401715263.583711
2,237,0,65229,-288,-250,-492,168,656,-496,-7552,63689,-106,-141,-402,1401715263.596231
2,238,0,1683,-276,-262,-480,2048,432,-480,-7568,714,-105,-139,-399,1401715263.596543
2,239,0,3673,-226,-275,-446,3929,192,-480,-7680,3273,-106,-141,-398,1401715263.615062
2,240,0,5663,-179,-284,-405,5809,-80,-464,-7584,5835,-99,-141,-395,1401715263.620879
2,241,0,7653,-132,-265,-382,7689,-464,-544,-7552,5835,-99,-141,-395,1401715263.633279
2,242,0,9643,-101,-250,-391,9570,-784,-560,-7536,8396,-99,-141,-392,1401715263.644986
2,243,0,11633,-52,-237,-407,11450,-1136,-592,-7472,10957,-95,-138,-395,1401715263.651424
2,244,0,13623,-44,-225,-373,13331,-1424,-608,-7488,13519,-94,-139,-389,1401715263.663972
2,245,0,14618,-38,-215,-338,15211,-1728,-608,-7312,13519,-94,-139,-389,1401715263.675838
2,246,0,16608,-37,-220,-251,17092,-1808,-528,-7232,16080,-92,-137,-388,1401715263.676190
2,247,0,18598,-22,-214,-167,18972,-1936,-448,-7056,18641,-91,-143,-389,1401715263.693580
2,248,0,20588,-12,-195,-119,20852,-1952,-480,-6896,18641,-91,-143,-389,1401715263.706162
2,249,0,22578,-12,-179,-95,22732,-1792,-464,-6880,21202,-88,-139,-388,1401715263.706528
2,250,0,24567,-33,-151,-104,24613,-1728,-432,-6816,23763,-89,-141,-386,1401715263.724524
2,251,0,26557,-67,-101,-124,26493,-1664,-528,-6944,26325,-86,-142,-389,1401715263.737018
2,252,0,28547,-117,-79,-156,28375,-1600,-656,-7104,26325,-86,-142,-389,1401715263.737388
2,253,0,29542,-135,-61,-155,30255,-1568,-736,-7376,28886,-86,-141,-385,1401715263.755401
2,254,0,31532,-177,-18,-145,32135,-1584,-720,-7520,31447,-86,-144,-385,1401715263.755676
2,255,0,33522,-215,1,-112,34015,-1504,-800,-7664,34009,-85,-146,-386,1401715263.774249
2,0,0,35512,-261,4,-31,35896,-1440,-1024,-7680,34009,-85,-146,-386,1401715263.786545
2,1,0,37502,-274,-12,74,37776,-1408,-1296,-7664,36571,-86,-150,-386,1401715263.787020
2,2,0,39492,-259,-58,177,39658,-1344,-1584,-7632,39132,-88,-152,-386,1401715263.805455
2,3,0,41482,-199,-128,259,41539,-1248,-1712,-7536,41694,-86,-155,-385,1401715263.805865
2,4,0,43472,-122,-213,315,43420,-1328,-1632,-7536,41694,-86,-155,-385,1401715263.824452
2,5,0,45462,-79,-264,329,45300,-1248,-1616,-7712,44254,-87,-158,-385,1401715263.836711
2,6,0,46457,-68,-265,326,47181,-1024,-1664,-8032,46815,-88,-158,-385,1401715263.837032
2,7,0,48447,-72,-223,315,49061,-656,-1824,-8304,46815,-88,-158,-385,1401715263.855480
2,8,0,50437,-87,-179,298,50942,-288,-2096,-8368,49375,-82,-157,-384,1401715263.855784
2,9,0,52427,-127,-146,268,52823,-64,-2368,-8320,51935,-81,-161,-386,1401715263.874032
2,10,0,54417,-146,-131,245,54703,-64,-2592,-8176,54496,-81,-164,-384,1401715263.886276
2,11,0,56407,-153,-98,208,56584,-128,-2656,-8048,54496,-81,-164,-384,1401715263.886548
2,12,0,58397,-134,-87,161,58465,-288,-2608,-8080,57057,-78,-164,-385,1401715263.905198
2,13,0,60387,-98,-76,117,60346,-368,-2528,-8224,59618,-78,-165,-379,1401715263.911549
2,14,0,62377,-42,-85,51,62226,-512,-2464,-8176,62180,-74,-166,-381,1401715263.924147
2,15,0,63372,-39,-94,31,64108,-624,-2288,-8240,62180,-74,-166,-381,1401715263.936561
2,16,0,65362,-3,-115,-37,453,-640,-2016,-8368,64741,-75,-163,-378,1401715263.936961
2,17,0,1816,12,-165,-124,2334,-816,-1776,-8496,1767,-74,-165,-379,1401715263.954902
2,18,0,3806,-31,-209,-205,4216,-960,-1600,-8912,4327,-71,-163,-381,1401715263.967264
2,19,0,5796,-93,-207,-273,6096,-1296,-1520,-9584,4327,-71,-163,-381,1401715263.967730
2,20,0,7786,-54,-150,-308,7977,-1552,-1232,-9872,6889,-68,-165,-382,1401715263.986077
2,21,0,9776,-1,-85,-330,9857,-1616,-1088,-9904,9449,-69,-164,-383,1401715263.986342
2,22,0,11766,-116,-39,-330,11738,-1472,-816,-9744,9449,-69,-164,-383,1401715264.4592
2,23,0,12761,-198,-29,-302,13618,-1056,-848,-9840,12011,-67,-165,-381,1401715264.17108
2,24,0,14751,-244,-27,-224,15499,-448,-1216,-9872,14572,-66,-169,-382,1401715264.17346
2,25,0,16741,-149,-23,-134,17380,112,-1936,-9648,17132,-66,-168,-383,1401715264.35045
2,26,0,18731,-73,22,-61,19260,480,-2400,-9472,17132,-66,-168,-383,1401715264.41380
2,27,0,20721,-40,105,10,21140,816,-2496,-9216,19693,-61,-173,-387,1401715264.53101
2,28,0,22710,-36,202,0,23020,1088,-2240,-8816,22255,-62,-170,-389,1401715264.65372
2,29,0,24700,-61,255,-92,24900,1360,-1744,-8400,24816,-65,-173,-389,1401715264.71839
2,30,0,26690,-72,264,-190,26781,1664,-1248,-8032,24816,-65,-173,-389,1401715264.83785
2,31,0,28680,-50,241,-247,28661,1840,-672,-7632,27378,-66,-182,-393,1401715264.96445
2,32,0,29675,-13,222,-259,30541,1856,-160,-7232,29938,-68,-176,-388,1401715264.96746
2,33,0,31665,69,164,-315,32422,1728,96,-6736,29938,-68,-176,-388,1401715264.115071
2,34,0,33655,144,114,-394,34302,1520,208,-6432,32498,-68,-175,-392,1401715264.121399
2,35,0,35645,182,54,-487,36184,1248,160,-6000,35059,-70,-176,-395,1401715264.133802
2,36,0,37635,174,7,-524,38064,1072,48,-5760,37619,-71,-176,-395,1401715264.146357
2,37,0,39625,137,-19,-495,39944,1136,-112,-5680,37619,-71,-176,-395,1401715264.146679
2,38,0,41615,114,-53,-359,41824,1456,-336,-5648,40180,-71,-174,-393,1401715264.165359
2,39,0,43605,103,-68,-191,43704,1840,-576,-5888,42742,-70,-176,-396,1401715264.171147
2,40,0,44600,107,-79,-113,45584,2304,-928,-6368,45303,-70,-174,-397,1401715264.183357
2,41,0,46590,118,-89,6,47464,2768,-1248,-6944,45303,-70,-174,-397,1401715264.195895
2,42,0,48580,133,-93,45,48875,2960,-1536,-7328,47863,-66,-173,-392,1401715264.196378
2,43,0,50570,162,-58,-17,50756,2928,-1680,-7872,50423,-69,-173,-400,1401715264.213889
2,44,0,52560,205,14,-173,52636,2448,-1760,-8064,52984,-62,-173,-402,1401715264.226327
2,45,0,54550,263,78,-423,54517,1936,-1680,-8192,52984,-62,-173,-402,1401715264.226770
2,46,0,56540,287,101,-699,56398,1248,-1600,-8496,55544,-66,-171,-401,1401715264.244245
2,47,0,58530,262,64,-880,58279,384,-1744,-8976,58105,-66,-173,-406,1401715264.256732
2,48,0,60520,138,23,-924,60159,-432,-1776,-9296,58105,-66,-173,-406,1401715264.256972
2,49,0,61515,59,8,-903,62039,-1056,-1632,-9360,60666,-62,-174,-405,1401715264.274984
2,50,0,63505,-132,-12,-855,63921,-1536,-1520,-9104,63226,-62,-173,-406,1401715264.281246
2,51,0,65495,-326,-5,-746,265,-1744,-1360,-8832,251,-66,-176,-402,1401715264.293493
2,52,0,1949,-505,40,-613,2145,-1904,-1168,-8400,251,-66,-176,-402,1401715264.306014
2,53,0,3939,-661,116,-457,4026,-1936,-800,-8016,2812,-66,-182,-400,1401715264.306451
2,54,0,5929,-750,229,-322,5907,-1808,-432,-7520,5371,-64,-189,-395,1401715264.324818
2,55,0,7919,-748,332,-163,7787,-1600,-80,-7072,7931,-67,-193,-397,1401715264.337204
2,56,0,9909,-655,435,30,9667,-1232,32,-6608,7931,-67,-193,-397,1401715264.337510
2,57,0,11899,-574,499,239,11547,-944,16,-6512,10491,-71,-200,-396,1401715264.355300
2,58,0,12894,-553,505,345,13428,-736,-32,-6464,13051,-74,-206,-390,1401715264.361660
2,59,0,14884,-396,478,552,15309,-720,-192,-6384,15612,-75,-209,-390,1401715264.374022
2,60,0,16874,-121,421,655,17189,-736,-384,-6400,15612,-75,-209,-390,1401715264.386534
2,61,0,18863,236,355,668,19069,-704,-704,-6368,18172,-81,-211,-391,1401715264.386890
2,62,0,20853,566,265,610,20949,-736,-1104,-6464,20733,-81,-210,-391,1401715264.405148
2,63,0,22843,824,140,501,22829,-576,-1568,-6496,20733,-81,-210,-391,1401715264.411571
2,64,0,24833,980,30,388,24710,-256,-2112,-6704,23292,-82,-204,-394,1401715264.424123
2,65,0,26823,948,-57,291,26590,-176,-2512,-6928,25853,-84,-198,-400,1401715264.436380
2,66,0,27818,886,-104,259,28470,0,-2784,-7280,28412,-81,-197,-400,1401715264.436757
2,67,0,29808,679,-150,236,30349,112,-2960,-7536,28412,-81,-197,-400,1401715264.454721
2,68,0,31798,404,-185,265,32230,320,-3120,-7648,30974,-81,-194,-400,1401715264.467167
2,69,0,33788,121,-178,318,34110,416,-3088,-7712,33533,-79,-194,-407,1401715264.467519
2,70,0,35778,-139,-139,365,35990,432,-2880,-7504,36093,-78,-195,-405,1401715264.485736
2,71,0,37768,-317,-70,375,37870,256,-2496,-7184,36093,-78,-195,-405,1401715264.485974
2,72,0,39758,-379,-8,304,39750,16,-2080,-6976,38654,-79,-198,-407,1401715264.504387
2,73,0,41748,-330,21,186,41630,-48,-1616,-6864,41214,-76,-199,-408,1401715264.516792
2,74,0,43738,-222,38,55,43510,-192,-1344,-6896,43774,-77,-201,-408,1401715264.517136
2,75,0,44733,-143,35,-15,45391,-336,-1200,-6960,43774,-77,-201,-408,1401715264.535618
2,76,0,46723,37,22,-128,47272,-400,-976,-7024,46335,-77,-202,-409,1401715264.536025
2,77,0,48713,230,4,-186,49152,-528,-944,-7120,48895,-77,-198,-412,1401715264.554409
2,78,0,50703,415,-15,-211,51032,-624,-848,-7184,48895,-77,-198,-412,1401715264.566257
2,79,0,52693,568,-38,-173,52913,-624,-864,-7184,51456,-75,-195,-412,1401715264.566730
2,80,0,54683,660,-50,-98,54794,-576,-752,-7248,54017,-76,-190,-413,1401715264.585229
2,81,0,56673,725,-62,-11,56674,-464,-864,-7296,56577,-73,-186,-415,1401715264.591603
2,82,0,58663,766,-66,45,58554,-272,-1024,-7312,56577,-73,-186,-415,1401715264.604083
2,83,0,60653,767,-79,81,60434,-112,-1280,-7328,59138,-75,-178,-417,1401715264.616847
2,84,0,61648,741,-88,94,62314,-48,-1680,-7344,61697,-70,-173,-417,1401715264.617109
2,85,0,63638,649,-87,88,64194,64,-2064,-7376,64257,-72,-168,-416,1401715264.635104
2,86,0,92,462,-93,48,538,0,-2400,-7424,64257,-72,-168,-416,1401715264.641448
2,87,0,2082,222,-87,-15,2419,-240,-2576,-7616,1282,-69,-167,-420,1401715264.653527
2,88,0,4072,-29,-46,-72,4300,-640,-2688,-7776,3844,-67,-163,-418,1401715264.665556
2,89,0,6062,-239,19,-108,6180,-1056,-2672,-8016,3844,-67,-163,-418,1401715264.665840
2,90,0,8052,-379,89,-99,8060,-1648,-2640,-8256,6405,-67,-166,-421,1401715264.684032
2,91,0,10042,-466,167,-52,9941,-2144,-2544,-8384,8966,-69,-169,-423,1401715264.696587
2,92,0,11037,-502,199,-13,11822,-2560,-2480,-8400,11527,-69,-174,-423,1401715264.697005
2,93,0,13027,-558,273,89,13702,-2736,-2368,-8368,11527,-69,-174,-423,1401715264.715150
2,94,0,15016,-617,329,195,15582,-2800,-2224,-8176,14087,-70,-182,-424,1401715264.721524
2,95,0,17006,-642,357,303,17462,-2736,-1952,-7920,16647,-73,-186,-421,1401715264.734064
2,96,0,18996,-630,389,403,19343,-2544,-1760,-7600,19208,-75,-194,-421,1401715264.745332
2,97,0,20986,-556,387,454,21224,-2256,-1488,-7472,19208,-75,-194,-421,1401715264.751653
2,98,0,22976,-418,376,483,23104,-2016,-1312,-7392,21769,-78,-197,-421,1401715264.763637
2,99,0,24966,-239,347,512,24985,-1600,-1360,-7392,24328,-78,-205,-426,1401715264.776066
2,100,0,26956,1,290,518,26866,-1376,-1296,-7568,26889,-82,-206,-428,1401715264.776342
2,101,0,27951,142,254,519,28747,-1184,-1104,-7904,26889,-82,-206,-428,1401715264.794665
2,102,0,29941,462,147,452,30627,-1104,-1008,-8496,29450,-82,-207,-432,1401715264.806877
2,103,0,31931,838,-4,328,32507,-976,-1280,-9200,32009,-81,-199,-433,1401715264.807090
2,104,0,33921,1163,-144,203,34388,-640,-1584,-10048,32009,-81,-199,-433,1401715264.825393
2,105,0,35911,1328,-230,114,36268,-96,-2128,-10768,34570,-82,-185,-437,1401715264.825860
2,106,0,37901,1228,-220,-9,38148,528,-2816,-11232,37130,-76,-180,-435,1401715264.844091
2,107,0,39891,827,-143,-183,40028,832,-3232,-11216,39689,-79,-173,-436,1401715264.856615
2,108,0,41881,195,-53,-321,41908,784,-3392,-10864,39689,-79,-173,-436,1401715264.857110
2,109,0,43871,-560,28,-382,43788,448,-3184,-10192,42249,-78,-177,-438,1401715264.875271
2,110,0,44866,-944,89,-361,45668,256,-2768,-9376,44808,-78,-181,-434,1401715264.875732
2,111,0,46856,-1635,210,-235,47548,240,-2432,-8544,47367,-75,-194,-429,1401715264.892998
2,112,0,48846,-2131,315,-45,49429,224,-2048,-7984,47367,-75,-194,-429,1401715264.904621
2,113,0,50836,-2312,374,124,51309,80,-1408,-7440,49927,-82,-209,-424,1401715264.917360
2,114,0,52826,-2125,368,158,53189,-384,-528,-6944,52486,-82,-227,-422,1401715264.917599
2,115,0,54816,-1585,318,147,55070,-816,400,-6464,55046,-86,-240,-419,1401715264.935784
2,116,0,56806,-889,232,85,56951,-1120,992,-6080,55046,-86,-240,-419,1401715264.936131
2,117,0,58796,-249,112,7,58830,-1184,1440,-6016,57606,-89,-245,-416,1401715264.954127
2,118,0,59791,51,59,-25,60711,-944,1568,-6000,60166,-91,-245,-416,1401715264.966513
2,119,0,61781,561,-55,-88,62591,-800,1648,-6080,60166,-91,-245,-416,1401715264.966963
2,120,0,63771,1028,-166,-136,64471,-608,1568,-6224,62726,-93,-240,-420,1401715264.985217
2,121,0,225,1466,-251,-223,816,-528,1264,-6624,65286,-91,-227,-422,1401715264.991601
2,122,0,2215,1767,-297,-313,2695,-304,816,-7424,2311,-89,-212,-424,1401715265.3597
2,123,0,4205,1809,-295,-288,4576,-112,288,-8304,2311,-89,-212,-424,1401715265.15507
2,124,0,6195,1558,-248,-119,6457,352,-480,-9472,4871,-87,-198,-429,1401715265.15963
2,125,0,8185,1159,-196,124,8336,1056,-960,-10208,7432,-83,-188,-431,1401715265.34429
2,126,0,10175,732,-168,329,10216,1568,-1392,-10400,9993,-83,-177,-436,1401715265.46827
2,127,0,11169,537,-161,392,11625,1696,-1520,-10064,9993,-83,-177,-436,1401715265.47319
2,128,0,13159,174,-160,451,13505,1696,-1520,-9424,12553,-81,-176,-431,1401715265.65769
2,129,0,15149,-136,-160,473,15385,1360,-1312,-8848,15114,-81,-174,-435,1401715265.66052
2,130,0,17139,-366,-149,472,17265,1040,-1168,-8368,17675,-78,-180,-432,1401715265.83583
2,131,0,19129,-432,-141,426,19146,688,-848,-7888,17675,-78,-180,-432,1401715265.96125
2,132,0,21119,-326,-146,300,21026,608,-544,-7552,20235,-76,-183,-430,1401715265.96585
2,133,0,23109,-99,-175,146,22906,576,-336,-7264,22796,-77,-181,-432,1401715265.114009
2,134,0,25099,191,-220,-39,24786,464,-224,-6992,22796,-77,-181,-432,1401715265.126606
2,135,0,27089,458,-257,-233,26666,240,-224,-6848,25357,-74,-176,-429,1401715265.126998
2,136,0,28084,554,-271,-325,28546,128,-352,-6720,27916,-73,-171,-425,1401715265.144680
2,137,0,30074,642,-274,-468,30426,80,-624,-6768,30475,-69,-165,-421,1401715265.157026
2,138,0,32064,599,-261,-552,32305,160,-816,-6928,30475,-69,-165,-421,1401715265.157379
2,139,0,34054,455,-245,-548,34185,304,-960,-7200,33035,-69,-160,-424,1401715265.175420
2,140,0,36044,245,-233,-509,36066,368,-1120,-7504,35595,-70,-154,-421,1401715265.175680
2,141,0,38034,30,-237,-456,37945,368,-1120,-7776,38155,-65,-151,-421,1401715265.194220
2,142,0,40024,-146,-244,-432,39824,272,-912,-8000,38155,-65,-151,-421,1401715265.205667
2,143,0,42014,-285,-233,-435,41704,160,-688,-7984,40716,-64,-154,-420,1401715265.205966
2,144,0,43009,-340,-231,-449,43584,48,-416,-7728,43276,-61,-154,-416,1401715265.224481
2,145,0,44999,-406,-237,-504,45464,-64,-96,-7440,45837,-62,-155,-413,1401715265.237076
2,146,0,46989,-405,-257,-564,47344,-176,160,-7088,45837,-62,-155,-413,1401715265.237364
2,147,0,48979,-353,-255,-622,49224,-400,288,-6912,48398,-61,-160,-409,1401715265.255833
2,148,0,50969,-256,-260,-641,51105,-544,256,-6880,50960,-59,-158,-409,1401715265.256060
2,149,0,52959,-130,-252,-600,52986,-736,160,-6880,50960,-59,-158,-409,1401715265.274525
2,150,0,54949,-33,-233,-502,54866,-848,0,-6976,53521,-52,-160,-405,1401715265.286982
2,151,0,56939,25,-216,-352,56746,-1008,-144,-6976,56083,-56,-159,-405,1401715265.287201
2,152,0,58929,40,-195,-185,58626,-1136,-224,-7120,58643,-46,-158,-406,1401715265.304520
2,153,0,59924,36,-190,-99,60506,-1312,-336,-7280,58643,-46,-158,-406,1401715265.316405
2,154,0,61914,10,-177,63,62386,-1408,-384,-7424,61204,-46,-163,-406,1401715265.316733
2,155,0,63904,-27,-163,180,64267,-1504,-464,-7504,63765,-46,-155,-403,1401715265.335177
2,156,0,358,-57,-153,225,611,-1616,-560,-7568,790,-46,-157,-404,1401715265.341567
2,157,0,2348,-76,-135,208,2490,-1664,-608,-7632,790,-46,-157,-404,1401715265.353123
2,158,0,4338,-93,-119,133,4371,-1648,-784,-7616,3352,-46,-159,-404,1401715265.365307
2,159,0,6328,-142,-88,43,6251,-1632,-864,-7632,5913,-42,-158,-404,1401715265.365750
2,160,0,8317,-176,-71,-25,8131,-1536,-976,-7680,5913,-42,-158,-404,1401715265.384157
2,161,0,9312,-205,-59,-51,10012,-1424,-1136,-7696,8473,-42,-160,-404,1401715265.396441
2,162,0,11302,-270,-36,-58,11892,-1200,-1280,-7632,11034,-43,-162,-404,1401715265.396746
2,163,0,13292,-315,-36,-11,13772,-1072,-1424,-7584,13595,-42,-168,-403,1401715265.414983
2,164,0,15282,-307,-65,63,15653,-896,-1472,-7584,13595,-42,-168,-403,1401715265.421283
2,165,0,17272,-277,-121,156,17534,-848,-1472,-7744,16156,-44,-165,-402,1401715265.433946
2,166,0,19262,-202,-169,217,19415,-752,-1440,-8112,18716,-44,-169,-399,1401715265.446444
2,167,0,21252,-108,-183,244,21294,-496,-1568,-8544,21276,-40,-173,-399,1401715265.446751
2,168,0,23242,13,-172,239,23176,-144,-1904,-8944,21276,-40,-173,-399,1401715265.465121
2,169,0,25232,92,-116,208,25056,208,-2400,-9008,23836,-42,-173,-398,1401715265.471716
2,170,0,26227,107,-97,190,26937,272,-2768,-8800,26398,-38,-173,-401,1401715265.483766
2,171,0,28217,37,-52,132,28817,80,-2992,-8496,28958,-41,-177,-402,1401715265.496370
2,172,0,30207,-142,-22,45,30697,-176,-2896,-8352,28958,-41,-177,-402,1401715265.496838
2,173,0,32197,-320,-13,-59,32576,-592,-2688,-8336,31519,-42,-178,-395,1401715265.514440
2,174,0,34187,-465,-6,-126,34456,-976,-2064,-8496,34078,-42,-181,-400,1401715265.526971
2,175,0,36177,-501,-21,-172,36337,-1168,-1408,-8688,34078,-42,-181,-400,1401715265.527257
2,176,0,38167,-442,-69,-252,38217,-1408,-1040,-8992,36639,-40,-185,-396,1401715265.545340
2,177,0,40157,-304,-100,-329,40097,-1712,-832,-9456,39200,-42,-190,-396,1401715265.551985
2,178,0,42147,-102,-99,-350,41978,-1904,-816,-9824,41759,-42,-189,-394,1401715265.564461
2,179,0,43142,9,-83,-350,43859,-1840,-944,-9696,41759,-42,-189,-394,1401715265.577039
2,180,0,45132,93,-71,-369,45740,-1536,-1008,-9296,44320,-41,-189,-399,1401715265.577388
2,181,0,47122,-41,-70,-350,47620,-848,-1008,-9248,46881,-38,-190,-396,1401715265.595293
2,182,0,49112,-130,-95,-289,49500,-64,-1264,-9392,49441,-39,-193,-397,1401715265.595591
2,183,0,51102,-11,-124,-262,51380,720,-1968,-9392,49441,-39,-193,-397,1401715265.613726
2,184,0,53092,167,-110,-251,53260,1376,-2464,-9072,52000,-40,-193,-399,1401715265.626124
2,185,0,55082,253,-66,-258,55141,1808,-2672,-8896,54560,-38,-194,-403,1401715265.626497
2,186,0,57072,192,-17,-282,57021,2256,-2448,-8864,57121,-36,-194,-402,1401715265.644059
2,187,0,58067,122,10,-308,58902,2464,-2000,-8896,57121,-36,-194,-402,1401715265.655886
2,188,0,60057,1,40,-322,60782,2576,-1472,-8608,59681,-39,-195,-407,1401715265.656297
2,189,0,62047,-26,55,-352,62662,2448,-960,-8080,62242,-36,-195,-401,1401715265.673970
2,190,0,64037,15,51,-414,64543,2304,-432,-7280,62242,-36,-195,-401,1401715265.685772
2,191,0,491,72,51,-494,888,2128,16,-6416,64803,-36,-196,-404,1401715265.686101
2,192,0,2481,88,28,-569,2768,1840,272,-5856,1828,-37,-197,-404,1401715265.704571
2,193,0,4471,64,-16,-610,4648,1632,256,-5568,4389,-37,-197,-405,1401715265.717095
2,194,0,6460,51,-61,-601,6529,1520,224,-5456,4389,-37,-197,-405,1401715265.717370
2,195,0,8450,68,-113,-555,8410,1344,96,-5568,6951,-35,-195,-405,1401715265.735141
2,196,0,9445,84,-124,-508,10290,1424,-144,-5632,9512,-35,-195,-406,1401715265.740959
2,197,0,11435,133,-166,-401,12171,1488,-256,-5856,12072,-37,-196,-408,1401715265.753388
2,198,0,13425,179,-162,-310,14051,1552,-496,-6288,12072,-37,-196,-408,1401715265.765996
2,199,0,15415,221,-136,-284,15932,1360,-656,-6864,14633,-35,-193,-408,1401715265.766378
2,200,0,17405,263,-75,-313,17812,1344,-928,-7632,17193,-30,-194,-415,1401715265.784393
2,201,0,19395,292,-18,-372,19693,1008,-1120,-8208,19755,-34,-193,-415,1401715265.796250
2,202,0,21385,257,32,-441,21572,624,-1296,-8576,19755,-34,-193,-415,1401715265.796682
2,203,0,23375,195,76,-495,23453,144,-1440,-8864,22315,-32,-191,-415,1401715265.814983
2,204,0,25365,124,93,-564,25334,-384,-1504,-8912,24875,-30,-194,-415,1401715265.821224
2,205,0,26360,83,104,-596,27214,-816,-1504,-8832,24875,-30,-194,-415,1401715265.833718
2,206,0,28350,0,116,-630,29094,-1072,-1536,-8688,27435,-30,-195,-412,1401715265.846127
2,207,0,30340,-125,128,-630,30974,-1184,-1440,-8400,29995,-30,-198,-412,1401715265.846584
2,208,0,32330,-319,139,-554,32854,-1136,-1216,-8192,32555,-33,-206,-413,1401715265.864821
2,209,0,34320,-521,142,-421,34735,-1024,-912,-7984,32555,-33,-206,-413,1401715265.876542
2,210,0,36310,-656,155,-269,36615,-800,-768,-7776,35116,-38,-214,-410,1401715265.876865
2,211,0,38300,-742,181,-132,38495,-576,-512,-7632,37677,-37,-216,-405,1401715265.894731
2,212,0,40290,-776,211,18,40375,-272,-448,-7520,40237,-43,-225,-404,1401715265.907092
2,213,0,41285,-771,214,109,42255,-80,-384,-7312,40237,-43,-225,-404,1401715265.907329
2,214,0,43275,-745,246,280,43665,64,-352,-7232,42798,-42,-240,-401,1401715265.925546
2,215,0,45265,-664,270,405,45546,272,-368,-7072,45358,-45,-240,-397,1401715265.925995
2,216,0,47255,-479,271,493,47426,176,-464,-6992,45358,-45,-240,-397,1401715265.943979
2,217,0,49245,-219,269,520,49306,48,-544,-6800,47919,-49,-244,-395,1401715265.956000
2,218,0,51235,80,260,480,51186,-64,-768,-6816,50480,-49,-250,-395,1401715265.956326
2,219,0,53225,317,220,375,53066,-256,-1120,-6864,53040,-49,-250,-396,1401715265.974328
2,220,0,55215,462,169,250,54946,-240,-1504,-7040,53040,-49,-250,-396,1401715265.986078
2,221,0,57205,502,111,144,56827,-224,-1840,-7184,55601,-54,-246,-398,1401715265.986508
2,222,0,58200,482,81,103,58708,-128,-2192,-7328,58161,-51,-244,-395,1401715266.4501
2,223,0,60190,369,25,83,60589,-128,-2368,-7488,60721,-52,-241,-395,1401715266.16730
2,224,0,62180,185,-41,127,62470,0,-2592,-7568,60721,-52,-241,-395,1401715266.17087
2,225,0,64170,-30,-95,213,64351,64,-2656,-7472,63282,-50,-240,-392,1401715266.35363
2,226,0,624,-206,-119,306,696,192,-2640,-7408,306,-51,-242,-391,1401715266.35836
2,227,0,2613,-289,-108,385,2576,288,-2544,-7232,2867,-48,-249,-393,1401715266.54472
2,228,0,4603,-264,-73,385,4457,336,-2352,-7072,2867,-48,-249,-393,1401715266.66547
2,229,0,6593,-191,-43,314,6337,256,-2160,-6976,5427,-51,-250,-389,1401715266.66970
2,230,0,8583,-77,-23,199,8217,144,-1952,-6896,7987,-51,-254,-390,1401715266.84432
2,231,0,9578,-12,-21,140,10097,80,-1872,-6960,7987,-51,-254,-390,1401715266.96229
2,232,0,11568,102,-8,25,11977,-16,-1824,-7040,10548,-51,-254,-389,1401715266.96552
2,233,0,13558,222,3,-36,13857,-64,-1824,-7072,13109,-50,-254,-392,1401715266.114746
2,234,0,15548,299,3,-66,15738,-96,-1824,-7152,15669,-48,-251,-393,1401715266.127240
2,235,0,17538,360,1,-66,17619,-128,-1760,-7232,15669,-48,-251,-393,1401715266.127719
2,236,0,19528,427,3,-64,19499,-112,-1712,-7248,18229,-50,-246,-397,1401715266.146026
2,237,0,21518,510,-10,-56,21380,-176,-1792,-7328,20790,-50,-244,-396,1401715266.146325
2,238,0,23508,577,-11,-40,23261,-128,-1888,-7312,23350,-50,-239,-400,1401715266.164728
2,239,0,24503,607,-17,-17,25142,-112,-1808,-7232,23350,-50,-239,-400,1401715266.177165
2,240,0,26493,606,-19,4,27022,-80,-1824,-7264,25911,-50,-236,-398,1401715266.177421
2,241,0,28483,580,-18,3,28901,-80,-1776,-7216,28471,-49,-229,-401,1401715266.195079
2,242,0,30473,545,-16,-28,30782,-16,-1824,-7280,31031,-49,-226,-400,1401715266.200996
2,243,0,32463,494,-29,-66,32662,16,-1872,-7232,31031,-49,-226,-400,1401715266.213416
2,244,0,34453,424,-31,-101,34542,80,-1984,-7312,33593,-47,-221,-402,1401715266.225722
2,245,0,36443,344,-43,-126,36424,112,-2032,-7328,36153,-49,-220,-403,1401715266.226196
2,246,0,38433,247,-59,-135,38304,32,-2144,-7312,36153,-49,-220,-403,1401715266.244503
2,247,0,40423,110,-65,-102,40185,-128,-2288,-7392,38713,-47,-220,-406,1401715266.257071
2,248,0,41418,34,-56,-87,42065,-416,-2336,-7520,41274,-46,-218,-404,1401715266.257309
2,249,0,43408,-105,-39,-53,43946,-896,-2416,-7760,43833,-48,-218,-405,1401715266.275713
2,250,0,45398,-220,25,-31,45827,-1376,-2512,-8064,43833,-48,-218,-405,1401715266.276105
2,251,0,47388,-295,105,23,47707,-1792,-2464,-8304,46393,-43,-219,-406,1401715266.294213
2,252,0,49378,-312,197,86,49588,-2208,-2480,-8368,48955,-45,-222,-407,1401715266.305959
2,253,0,51368,-327,284,142,51468,-2400,-2432,-8368,51515,-46,-223,-404,1401715266.306194
2,254,0,53358,-321,353,192,53349,-2368,-2480,-8240,51515,-46,-223,-404,1401715266.324482
2,255,0,55348,-293,400,235,55229,-2320,-2592,-8096,54074,-46,-225,-408,1401715266.336953
2,0,0,57338,-220,417,281,57110,-2128,-2464,-7936,56634,-48,-228,-408,1401715266.337179
2,1,0,58333,-157,415,298,58990,-1920,-2048,-7984,59194,-49,-231,-408,1401715266.355089
2,2,0,60323,27,367,345,60871,-1536,-1536,-8208,59194,-49,-231,-408,1401715266.361308
2,3,0,62313,299,253,340,62750,-1072,-1168,-8576,61755,-52,-230,-408,1401715266.373829
2,4,0,64303,534,105,272,64630,-800,-1120,-9120,64316,-55,-226,-414,1401715266.385574
2,5,0,756,694,5,192,974,-448,-1184,-9600,64316,-55,-226,-414,1401715266.386050
2,6,0,2746,829,-55,136,2854,16,-1424,-10144,1339,-54,-222,-414,1401715266.403726
2,7,0,4736,941,-106,112,4733,512,-1680,-10464,3899,-54,-216,-419,1401715266.415600
2,8,0,6726,951,-137,67,6613,704,-2144,-10800,6458,-50,-211,-417,1401715266.415947
2,9,0,7721,862,-153,32,8494,816,-2416,-10832,6458,-50,-211,-417,1401715266.434167
2,10,0,9711,509,-109,-55,10375,1024,-2624,-10352,9018,-48,-204,-418,1401715266.446485
2,11,0,11701,-56,-63,-132,12255,1232,-2640,-9808,11578,-49,-205,-419,1401715266.446935
2,12,0,13691,-663,-36,-196,14135,1168,-2480,-9120,14138,-49,-211,-413,1401715266.464934
2,13,0,15681,-1181,-10,-236,16016,896,-2224,-8672,14138,-49,-211,-413,1401715266.471206
2,14,0,17671,-1506,10,-251,17896,592,-2032,-8272,16699,-49,-220,-407,1401715266.483561
2,15,0,19661,-1646,44,-233,19775,208,-1728,-7888,19259,-50,-231,-407,1401715266.496055
2,16,0,21651,-1583,108,-221,21655,-48,-1296,-7440,19259,-50,-231,-407,1401715266.496282
2,17,0,23641,-1336,140,-236,23535,-240,-480,-6992,21819,-48,-244,-400,1401715266.514842
2,18,0,24636,-1181,145,-250,25415,-576,448,-6640,24379,-51,-253,-399,1401715266.526662
2,19,0,26626,-836,123,-290,27296,-816,1344,-6608,26940,-52,-3,-398,1401715266.526962
2,20,0,28616,-495,100,-340,29175,-896,1824,-6736,26940,-52,-3,-398,1401715266.544779
2,21,0,30606,-75,48,-389,31055,-1040,2000,-6944,29500,-53,-261,-397,1401715266.557306
2,22,0,32596,475,-1,-425,32935,-1168,1872,-7264,32061,-56,-509,-394,1401715266.557532
2,23,0,34586,992,-33,-410,34816,-1344,1392,-7616,34622,-57,-246,-397,1401715266.575583
2,24,0,36576,1300,-36,-254,36695,-1408,752,-7920,34622,-57,-246,-397,1401715266.576050
2,25,0,38566,1278,-44,34,38576,-1072,400,-8064,37183,-57,-238,-398,1401715266.593698
2,26,0,39561,1140,-61,182,40455,-288,352,-8288,39744,-57,-227,-401,1401715266.606325
2,27,0,41551,661,-128,475,42335,816,496,-8816,42303,-57,-220,-400,1401715266.606722
2,28,0,43541,60,-193,604,44215,1696,624,-9072,42303,-57,-220,-400,1401715266.625175
2,29,0,45531,-444,-213,559,46096,2048,656,-9040,44863,-52,-224,-398,1401715266.631553
2,30,0,47521,-618,-170,466,47976,1840,448,-8784,47423,-51,-224,-397,1401715266.644094
2,31,0,49511,-503,-97,411,49856,1440,144,-8464,47423,-51,-224,-397,1401715266.656427
2,32,0,51501,-267,-22,366,51736,1184,-224,-8112,49984,-49,-227,-394,1401715266.656667
2,33,0,53491,-49,37,327,53616,880,-544,-7680,52544,-50,-229,-393,1401715266.674974
2,34,0,55481,134,33,303,55496,560,-720,-7376,55105,-47,-229,-392,1401715266.681464
2,35,0,56476,223,23,290,57376,384,-768,-7248,55105,-47,-229,-392,1401715266.693982
2,36,0,58466,383,-4,223,59256,160,-896,-7216,57664,-47,-224,-392,1401715266.706357
2,37,0,60456,493,-51,65,61136,112,-1040,-7296,60225,-44,-222,-391,1401715266.706766
2,38,0,62445,512,-89,-142,63016,176,-1104,-7376,62786,-44,-217,-390,1401715266.725099
2,39,0,64435,415,-118,-359,64896,304,-1152,-7536,62786,-44,-217,-390,1401715266.731603
2,40,0,889,256,-151,-528,1241,368,-1152,-7536,65347,-40,-214,-386,1401715266.744003
2,41,0,2879,14,-158,-666,3121,544,-992,-7504,2372,-46,-210,-386,1401715266.756320
2,42,0,4869,-235,-156,-756,5002,624,-752,-7440,4932,-40,-208,-381,1401715266.756598
2,43,0,6859,-448,-163,-784,6882,576,-256,-7504,4932,-40,-208,-381,1401715266.774522
2,44,0,7854,-492,-168,-766,8293,528,-144,-7424,7491,-43,-209,-376,1401715266.786889
2,45,0,9844,-523,-162,-760,10173,528,128,-7440,10051,-37,-212,-377,1401715266.787217
2,46,0,11834,-477,-141,-728,12053,400,128,-7408,10051,-37,-212,-377,1401715266.805678
2,47,0,13824,-338,-108,-697,13934,320,48,-7408,12611,-41,-213,-373,1401715266.805916
2,48,0,15814,-179,-89,-683,15814,112,-48,-7392,15172,-38,-212,-369,1401715266.823610
2,49,0,17804,-53,-82,-680,17694,-128,-160,-7376,17732,-37,-214,-369,1401715266.835757
2,50,0,19794,37,-90,-655,19574,-480,-272,-7280,17732,-37,-214,-369,1401715266.836038
2,51,0,21784,63,-97,-577,21455,-720,-336,-7296,20293,-37,-212,-370,1401715266.854217
2,52,0,22779,66,-96,-515,23335,-992,-320,-7360,22852,-35,-214,-368,1401715266.866693
2,53,0,24769,86,-115,-388,25215,-1136,-288,-7424,25414,-37,-212,-373,1401715266.866975
2,54,0,26759,120,-125,-282,27095,-1248,-448,-7600,25414,-37,-212,-373,1401715266.885209
2,55,0,28749,141,-156,-226,28975,-1392,-592,-7744,27975,-36,-213,-371,1401715266.891602
2,56,0,30739,118,-169,-211,30855,-1472,-768,-7936,30535,-34,-215,-370,1401715266.904223
2,57,0,32729,48,-166,-242,32736,-1424,-1008,-8080,33096,-32,-215,-370,1401715266.916021
2,58,0,34719,-32,-137,-307,34615,-1392,-1120,-8208,33096,-32,-215,-370,1401715266.916251
2,59,0,36709,-136,-109,-403,36496,-1184,-1328,-8224,35657,-31,-215,-373,1401715266.934601
2,60,0,38699,-246,-93,-486,38376,-1088,-1312,-8336,38218,-33,-223,-370,1401715266.946515
2,61,0,39694,-306,-85,-520,40257,-1024,-1344,-8400,38218,-33,-223,-370,1401715266.946766
2,62,0,41684,-404,-83,-573,42136,-832,-1408,-8496,40779,-31,-221,-370,1401715266.965180
2,63,0,43674,-446,-103,-570,44016,-592,-1408,-8400,43339,-31,-228,-367,1401715266.971430
2,64,0,45664,-451,-150,-501,45896,-480,-1536,-8240,45901,-32,-231,-368,1401715266.983766
2,65,0,47654,-429,-203,-401,47777,-352,-1600,-7952,45901,-32,-231,-368,1401715266.996220
2,66,0,49644,-393,-243,-311,49657,-352,-1552,-7664,48461,-32,-238,-362,1401715266.996579
2,67,0,51634,-341,-278,-241,51537,-400,-1376,-7408,51022,-29,-243,-363,1401715267.15112
2,68,0,53624,-283,-291,-234,53417,-448,-1168,-7136,53583,-29,-246,-360,1401715267.21495
2,69,0,55614,-242,-294,-247,55297,-480,-1072,-7040,53583,-29,-246,-360,1401715267.33923
2,70,0,56609,-219,-288,-275,57177,-480,-976,-6928,56144,-28,-248,-357,1401715267.46470
2,71,0,58599,-201,-277,-344,59057,-592,-1024,-6928,58704,-26,-251,-357,1401715267.46846
2,72,0,60588,-205,-244,-421,60938,-624,-976,-7024,58704,-26,-251,-357,1401715267.65380
2,73,0,62578,-206,-232,-484,62818,-784,-1056,-7184,61265,-25,-1,-355,1401715267.65681
2,74,0,64568,-196,-216,-525,64698,-880,-1120,-7408,63825,-24,-260,-354,1401715267.84125
2,75,0,1022,-166,-211,-543,1042,-976,-1248,-7648,850,-22,-262,-355,1401715267.96427
2,76,0,3012,-130,-222,-533,2922,-944,-1408,-7904,850,-22,-262,-355,1401715267.96674
2,77,0,5002,-97,-224,-522,4803,-832,-1552,-8080,3412,-22,-264,-355,1401715267.115215
2,78,0,5997,-84,-231,-511,6683,-688,-1856,-8256,5972,-22,-267,-355,1401715267.121414
2,79,0,7987,-80,-239,-477,8564,-624,-1968,-8304,8532,-19,-268,-355,1401715267.133830
2,80,0,9977,-99,-246,-436,10444,-672,-2160,-8208,8532,-19,-268,-355,1401715267.146531
2,81,0,11967,-150,-227,-401,12324,-800,-2224,-8064,11092,-18,-276,-353,1401715267.146837
2,82,0,13957,-219,-212,-393,14205,-928,-2160,-7920,13652,-19,-275,-353,1401715267.165146
2,83,0,15947,-278,-184,-412,16085,-1072,-2048,-7776,16213,-19,-279,-354,1401715267.171453
2,84,0,17937,-303,-165,-485,17965,-1136,-1776,-7552,16213,-19,-279,-354,1401715267.183684
2,85,0,19927,-289,-150,-561,19845,-1296,-1488,-7424,18775,-18,-290,-354,1401715267.196199
2,86,0,21917,-254,-146,-664,21725,-1296,-1232,-7488,21336,-16,-288,-353,1401715267.196585
2,87,0,22912,-233,-146,-710,23606,-1440,-944,-7808,21336,-16,-288,-353,1401715267.215136
2,88,0,24902,-172,-149,-799,25487,-1520,-640,-8272,23896,-15,-291,-351,1401715267.221273
2,89,0,26892,-49,-147,-866,27367,-1552,-608,-8640,26457,-14,-294,-354,1401715267.233068
2,90,0,28882,122,-157,-873,29246,-1392,-928,-8752,29018,-14,-297,-357,1401715267.245466
2,91,0,30872,229,-176,-833,31126,-1104,-1296,-8512,29018,-14,-297,-357,1401715267.245928
2,92,0,32862,174,-200,-698,33006,-704,-1616,-8416,31578,-13,-301,-358,1401715267.264020
2,93,0,34852,37,-231,-496,34886,-416,-1696,-8448,34139,-14,-299,-359,1401715267.276524
2,94,0,36842,21,-267,-335,36766,-64,-1840,-8432,36700,-16,-304,-357,1401715267.276832
2,95,0,38832,130,-272,-299,38646,224,-1920,-8288,36700,-16,-304,-357,1401715267.294799
2,96,0,39827,194,-258,-335,40526,400,-1968,-8160,39262,-13,-305,-357,1401715267.307325
2,97,0,41817,258,-207,-465,42406,592,-1968,-8128,41823,-9,-304,-361,1401715267.307774
2,98,0,43807,208,-159,-631,44285,608,-1888,-8288,44384,-11,-309,-364,1401715267.325608
2,99,0,45797,96,-133,-744,46165,624,-1744,-8384,44384,-11,-309,-364,1401715267.325909
2,100,0,47787,26,-134,-805,48046,672,-1536,-8432,46945,-10,-311,-362,1401715267.344436
2,101,0,49777,69,-131,-826,49927,768,-1504,-8304,49506,-12,-310,-364,1401715267.356399
2,102,0,51767,141,-143,-831,51807,688,-1536,-8128,49506,-12,-310,-364,1401715267.356834
2,103,0,53757,175,-166,-821,53688,624,-1376,-7936,52066,-12,-311,-368,1401715267.375309
2,104,0,54752,171,-184,-806,55568,496,-1088,-7744,54626,-11,-311,-370,1401715267.375581
2,105,0,56742,165,-219,-800,57448,496,-944,-7584,57186,-11,-314,-372,1401715267.393700
2,106,0,58731,162,-254,-816,59328,544,-784,-7488,57186,-11,-314,-372,1401715267.406060
2,107,0,60721,199,-274,-831,61209,704,-704,-7312,59747,-10,-312,-372,1401715267.406393
2,108,0,62711,244,-303,-846,63090,1040,-688,-7312,62307,-8,-314,-374,1401715267.423823
2,109,0,64701,302,-310,-877,64971,1312,-688,-7280,64867,-10,-316,-379,1401715267.436139
2,110,0,1155,356,-321,-906,1315,1424,-832,-7408,64867,-10,-316,-379,1401715267.436579
2,111,0,3145,376,-331,-944,3195,1664,-944,-7408,1892,-10,-318,-382,1401715267.454682
2,112,0,5135,383,-335,-988,5075,1808,-976,-7392,4452,-8,-318,-380,1401715267.467318
2,113,0,6130,373,-342,-1000,6955,1936,-1120,-7344,7014,-11,-318,-383,1401715267.467627
2,114,0,8120,350,-346,-1058,8836,2016,-1248,-7312,7014,-11,-318,-383,1401715267.486199
2,115,0,10110,291,-356,-1107,10716,2240,-1456,-7280,9575,-10,-318,-385,1401715267.486557
2,116,0,12100,185,-378,-1140,12596,2256,-1648,-7232,12136,-11,-321,-385,1401715267.504464
2,117,0,14090,59,-420,-1168,14476,2240,-1712,-7264,12136,-11,-321,-385,1401715267.516966
2,118,0,16080,-66,-462,-1188,16356,2224,-1728,-7312,14697,-11,-325,-382,1401715267.517455
2,119,0,18070,-145,-516,-1185,18236,1984,-1776,-7424,17258,-10,-325,-386,1401715267.535031
2,120,0,20060,-170,-548,-1193,20117,1792,-1856,-7616,19819,-12,-330,-382,1401715267.540726
2,121,0,22050,-187,-558,-1194,21997,1456,-1936,-7792,19819,-12,-330,-382,1401715267.552805
2,122,0,23045,-197,-551,-1206,23878,944,-1760,-8048,22380,-11,-333,-381,1401715267.565292
2,123,0,25035,-206,-527,-1248,25758,560,-1616,-8112,24941,-6,-339,-383,1401715267.571660
2,125,0,29015,-177,-419,-1406,29518,-320,-1280,-8464,27502,-8,-339,-378,1401715267.596179
2,126,0,31005,-157,-356,-1469,31398,-816,-1312,-8672,30063,-12,-345,-376,1401715267.596455
2,127,0,32995,-137,-292,-1479,33278,-1088,-1360,-8720,32625,-11,-346,-379,1401715267.614937
2,128,0,34985,-144,-236,-1431,35159,-1216,-1344,-8592,32625,-11,-346,-379,1401715267.621237
2,129,0,36975,-168,-195,-1307,37039,-1264,-1408,-8320,35187,-17,-352,-372,1401715267.633013
2,130,0,37970,-185,-177,-1218,38920,-1088,-1440,-8000,37747,-17,-353,-370,1401715267.645232
2,131,0,39960,-226,-154,-1020,40331,-896,-1328,-7792,40308,-19,-359,-369,1401715267.645532
2,132,0,41950,-240,-158,-838,42211,-576,-1200,-7376,40308,-19,-359,-369,1401715267.663916
2,133,0,43940,-225,-173,-686,44092,-144,-1072,-7200,42868,-21,-363,-369,1401715267.676244
2,134,0,45930,-174,-189,-580,45972,176,-800,-6992,45429,-26,-369,-365,1401715267.676515
2,135,0,47920,-72,-218,-521,47852,464,-736,-6976,47991,-27,-374,-367,1401715267.694748
2,136,0,49910,90,-235,-536,49732,496,-800,-7040,47991,-27,-374,-367,1401715267.707331
2,137,0,51900,252,-263,-575,51612,464,-944,-7104,50551,-24,-379,-365,1401715267.707658
2,138,0,53890,361,-274,-603,53491,400,-1248,-7184,53112,-26,-375,-370,1401715267.725501
2,139,0,54885,401,-282,-621,55372,256,-1440,-7280,55674,-27,-377,-371,1401715267.725868
2,140,0,56874,406,-293,-641,57252,176,-1872,-7264,55674,-27,-377,-371,1401715267.743838
2,141,0,58864,331,-307,-647,59131,176,-2096,-7344,58235,-28,-378,-376,1401715267.755393
2,142,0,60854,228,-320,-657,61011,160,-2384,-7488,60796,-28,-379,-375,1401715267.755652
2,143,0,62844,114,-322,-669,62892,192,-2512,-7584,60796,-28,-379,-375,1401715267.773719
2,144,0,64834,25,-325,-689,64774,320,-2576,-7648,63357,-25,-377,-377,1401715267.785634
2,145,0,1288,-67,-315,-738,1118,336,-2544,-7712,382,-27,-380,-377,1401715267.785945
2,146,0,3278,-116,-295,-798,2999,448,-2352,-7744,2942,-27,-381,-376,1401715267.804375
2,147,0,4273,-118,-285,-833,4879,640,-2192,-7856,2942,-27,-381,-376,1401715267.816670
2,148,0,6263,-93,-254,-891,6760,800,-1920,-7824,5502,-27,-384,-373,1401715267.816946
2,149,0,8253,-26,-228,-942,8641,928,-1696,-7840,8064,-27,-387,-377,1401715267.835507
2,150,0,10243,66,-210,-974,10522,1040,-1616,-7904,10625,-30,-388,-378,1401715267.835828
2,151,0,12233,124,-192,-1014,12402,1296,-1568,-7904,10625,-30,-388,-378,1401715267.853928
2,152,0,14223,145,-174,-1053,14283,1424,-1552,-7744,13187,-34,-387,-376,1401715267.866386
2,153,0,16213,129,-170,-1058,16163,1552,-1600,-7600,15748,-37,-390,-379,1401715267.866692
2,154,0,18203,95,-143,-1036,18043,1536,-1600,-7472,18309,-39,-394,-381,1401715267.884674
2,155,0,20193,63,-117,-1007,19923,1312,-1616,-7424,18309,-39,-394,-381,1401715267.896419
2,156,0,21188,47,-94,-1009,21803,1088,-1648,-7408,20870,-43,-392,-376,1401715267.896695
2,157,0,23178,19,-54,-1023,23684,864,-1440,-7456,23431,-43,-394,-380,1401715267.915317
2,158,0,25168,-21,-1,-1075,25565,688,-1200,-7488,23431,-43,-394,-380,1401715267.921912
2,159,0,27158,-39,40,-1151,27446,384,-928,-7728,25992,-49,-395,-377,1401715267.934692
2,160,0,29148,-30,67,-1235,29326,128,-672,-7968,28554,-52,-394,-376,1401715267.946908
2,161,0,31138,5,81,-1307,31206,-64,-448,-8288,31115,-62,-393,-377,1401715267.947142
2,162,0,33128,58,85,-1375,33086,-288,-272,-8608,31115,-62,-393,-377,1401715267.965718
2,163,0,35118,134,52,-1394,34966,-416,-240,-8864,33676,-67,-397,-373,1401715267.966071
2,164,0,37108,190,20,-1341,36846,-528,-352,-9008,36238,-71,-392,-373,1401715267.983930
2,165,0,38103,196,-2,-1297,38726,-400,-544,-9008,38798,-78,-391,-378,1401715267.996397
2,166,0,40093,151,-37,-1174,40606,-176,-688,-8736,38798,-78,-391,-378,1401715267.996654
2,167,0,42083,24,-61,-1053,42486,64,-640,-8400,41359,-83,-392,-375,1401715268.14737
2,168,0,44073,-139,-76,-926,44366,352,-608,-8160,43919,-89,-397,-372,1401715268.27252
2,169,0,46063,-306,-87,-799,46246,496,-432,-7840,46480,-89,-398,-370,1401715268.27520
2,170,0,48053,-389,-96,-705,48125,528,-304,-7552,46480,-89,-398,-370,1401715268.45912
2,171,0,50043,-375,-91,-618,50005,384,-368,-7264,49041,-93,-402,-368,1401715268.46192
2,172,0,52033,-257,-80,-595,51885,240,-368,-7088,51602,-96,-407,-365,1401715268.64638
2,173,0,53028,-170,-77,-604,53766,128,-416,-6944,51602,-96,-407,-365,1401715268.76954
2,174,0,55017,17,-98,-677,55646,256,-416,-6800,54163,-96,-410,-366,1401715268.77455
2,175,0,57007,155,-138,-818,57527,448,-400,-6768,56723,-98,-410,-366,1401715268.96056
2,176,0,58997,213,-202,-998,59408,688,-368,-6848,59284,-101,-409,-365,1401715268.96328
2,177,0,60987,182,-283,-1174,61289,848,-240,-7152,59284,-101,-409,-365,1401715268.114786
2,178,0,62977,86,-367,-1325,63170,1024,-144,-7616,61846,-106,-407,-366,1401715268.127092
2,179,0,64967,-38,-437,-1418,65050,1168,-80,-8112,64406,-108,-404,-364,1401715268.127530
2,180,0,1421,-124,-471,-1436,1394,1232,80,-8592,1432,-116,-405,-362,1401715268.145954
2,181,0,3411,-169,-485,-1376,3275,1120,208,-9136,1432,-116,-405,-362,1401715268.146341
2,182,0,4406,-180,-466,-1335,5155,816,352,-9600,3994,-116,-405,-358,1401715268.165084
2,183,0,6396,-196,-414,-1286,7037,448,336,-9744,6554,-118,-408,-354,1401715268.171431
2,184,0,8386,-222,-335,-1282,8917,208,464,-9792,6554,-118,-408,-354,1401715268.183717
2,185,0,10376,-275,-292,-1306,10798,0,336,-9568,9115,-127,-409,-351,1401715268.196069
2,186,0,12366,-343,-293,-1339,12678,-112,352,-9360,11675,-128,-412,-348,1401715268.196533
2,187,0,14356,-391,-316,-1350,14559,-288,304,-9216,14237,-131,-414,-347,1401715268.215160
2,188,0,16346,-397,-349,-1350,16439,-416,224,-8896,14237,-131,-414,-347,1401715268.220972
2,189,0,18336,-356,-376,-1317,18318,-528,112,-8608,16798,-134,-418,-341,1401715268.233450
2,190,0,20326,-265,-383,-1285,20198,-592,32,-8368,19359,-138,-424,-338,1401715268.245715
2,191,0,21321,-210,-383,-1283,22079,-576,-96,-8144,21920,-143,-423,-339,1401715268.246061
2,192,0,23311,-89,-359,-1296,23959,-512,-112,-7856,21920,-143,-423,-339,1401715268.264199
2,193,0,25301,27,-333,-1328,25840,-480,-96,-7632,24481,-151,-426,-332,1401715268.276822
2,194,0,27291,113,-298,-1387,27720,-464,16,-7472,27042,-151,-425,-335,1401715268.277185
2,195,0,29281,173,-273,-1465,29601,-368,-64,-7360,29603,-159,-422,-336,1401715268.295428
2,196,0,31271,195,-270,-1536,31481,-384,-112,-7296,29603,-159,-422,-336,1401715268.295883
2,197,0,33261,193,-283,-1575,33362,-384,-112,-7312,32165,-159,-421,-332,1401715268.313962
2,198,0,35251,170,-300,-1584,35242,-432,-32,-7296,34725,-166,-419,-334,1401715268.326435
2,199,0,36246,149,-315,-1572,37123,-432,-96,-7312,34725,-166,-419,-334,1401715268.326825
2,200,0,38236,122,-345,-1526,39003,-432,-48,-7504,37286,-171,-417,-335,1401715268.345177
2,201,0,40226,98,-365,-1474,40882,-432,-32,-7696,39847,-172,-416,-338,1401715268.351353
2,202,0,42216,83,-383,-1427,42762,-336,-64,-7872,42409,-180,-414,-335,1401715268.363612
2,203,0,44206,68,-377,-1389,44643,-304,64,-7968,42409,-180,-414,-335,1401715268.376087
2,204,0,46196,48,-370,-1361,46523,-240,96,-7984,44971,-181,-410,-335,1401715268.376526
2,205,0,48186,2,-354,-1351,48403,-352,32,-8000,47533,-184,-416,-337,1401715268.395012
2,206,0,50176,-55,-357,-1352,50283,-480,176,-8096,50093,-189,-414,-337,1401715268.401350
2,207,0,52165,-78,-350,-1345,52163,-560,224,-8240,50093,-189,-414,-337,1401715268.413832
2,208,0,53160,-85,-351,-1349,54043,-576,192,-8352,52653,-198,-414,-337,1401715268.426050
2,209,0,55150,-82,-352,-1338,55924,-672,112,-8464,55215,-198,-418,-337,1401715268.426324
2,210,0,57140,-84,-349,-1326,57334,-672,-16,-8560,57776,-201,-415,-335,1401715268.444784
2,211,0,59130,-99,-354,-1309,59684,-576,-64,-8464,57776,-201,-415,-335,1401715268.456658
2,212,0,61120,-119,-362,-1295,61564,-560,-224,-8432,60336,-206,-416,-337,1401715268.456954
2,213,0,63110,-148,-360,-1274,63444,-448,-304,-8368,62897,-211,-418,-334,1401715268.474963
2,214,0,65100,-183,-356,-1252,65324,-448,-320,-8320,62897,-211,-418,-334,1401715268.481297
2,215,0,1554,-207,-352,-1232,1668,-368,-336,-8320,65458,-211,-418,-333,1401715268.493622
2,216,0,3544,-218,-343,-1208,3549,-336,-304,-8368,2482,-220,-421,-334,1401715268.505929
2,217,0,4539,-214,-335,-1207,4959,-352,-288,-8320,5044,-221,-421,-330,1401715268.506139
