TOTAL_TIME,0m16s
TOTAL_FRAMES,805
SELECTED_FRAMES,805
NO_OF_JOINTS,7
FREQUENCY,51.2
DESCRIPTION,east 1
TIME_STAMP,Jun 24, 2009

Time,Frame,Pelvis_gyroX_26,Pelvis_gyroY_26,Pelvis_gyroZ_26,RFEP_gyroX_53,RFEP_gyroY_53,RFEP_gyroZ_53,RFEO_gyroX_33,RFEO_gyroY_33,RFEO_gyroZ_33,RTIO_gyroX_41,RTIO_gyroY_41,RTIO_gyroZ_41,LFEP_gyroX_72,LFEP_gyroY_72,LFEP_gyroZ_72,LFEO_gyroX_44,LFEO_gyroY_44,LFEO_gyroZ_44,LTIO_gyroX_28,LTIO_gyroY_28,LTIO_gyroZ_28
0.0,0,0.0,0.0,0.0,0.0,0.0,0.0,0.0,0.0,0.0,0.0,0.0,0.0,0.0,0.0,0.0,0.0,0.0,0.0,0.0,0.0,0.0
0.0195312497089617,1,0.0,0.0,0.0,0.0,0.0,0.0,0.0,0.0,0.0,0.0,0.0,0.0,0.0,0.0,0.0,0.0,0.0,0.0,0.0,0.0,0.0
0.0390624994179234,2,0.0,0.0,0.0,0.0,0.0,0.0,0.0,0.0,0.0,0.0,0.0,0.0,0.0,0.0,0.0,0.0,0.0,0.0,0.0,0.0,0.0
0.0585937491268851,3,-0.03125,0.0,-0.03125,-0.03125,0.40625,-0.03125,-0.03125,-0.03125,0.0,-0.03125,0.0,0.0,-0.1875,0.34375,0.875,-0.15625,0.09375,0.21875,-0.03125,0.0,0.0
0.0781249988358468,4,0.0,0.0,-0.03125,-0.03125,0.25,-0.09375,-0.03125,-0.03125,0.0,-0.03125,-0.03125,-0.03125,0.0,0.03125,0.0,-0.03125,0.0,-0.03125,0.0,-0.03125,0.0
0.09765624854480849,5,0.0,0.0,-0.03125,-0.03125,0.0625,-0.09375,-0.03125,-0.03125,0.0,-0.03125,-0.03125,-0.03125,0.0,0.03125,0.0,-0.03125,-0.03125,-0.03125,-0.03125,0.0,0.0
0.11718749825377019,6,0.0,0.0,-0.03125,0.0,0.0,0.0,-0.03125,0.0,0.0,-0.03125,-0.03125,0.0,0.0625,0.03125,0.0,-0.03125,-0.03125,-0.03125,-0.03125,-0.03125,-0.03125
0.1367187479627319,7,-0.03125,0.0,-0.03125,-0.03125,0.0,0.0,0.0,0.0,0.0,0.0,-0.03125,0.0,0.0625,0.03125,0.0,0.0,-0.03125,0.0,-0.03125,-0.03125,0.0
0.1562499976716936,8,0.0,-0.03125,-0.03125,0.0,-0.03125,0.0,-0.03125,0.0,-0.03125,-0.03125,-0.03125,-0.03125,0.0,-0.03125,0.0,0.0,-0.03125,-0.03125,-0.03125,-0.03125,0.0
0.1757812473806553,9,0.0,-0.03125,-0.03125,-0.03125,0.03125,0.0,-0.03125,0.0,0.0,0.0,-0.03125,0.0,0.0625,0.03125,0.0,0.0,0.0,-0.03125,0.0,-0.03125,0.0
0.19531249708961698,10,-0.03125,0.0,0.0,-0.03125,0.0,0.0,-0.03125,-0.03125,0.0,0.0,-0.03125,0.0,0.0,-0.03125,0.0,0.0,-0.03125,-0.03125,-0.03125,0.0,0.0
0.21484374679857868,11,0.0,0.0,-0.03125,0.0,0.0,0.0,-0.03125,0.0,0.0,0.0,-0.03125,0.0,0.0625,0.03125,0.0,0.0,0.0,-0.03125,-0.03125,0.0,0.0
0.23437499650754037,12,-0.03125,0.0,0.0,-0.03125,0.0,0.0,-0.03125,0.0,0.0,0.0,-0.03125,-0.03125,0.0,0.03125,0.0,0.0,-0.03125,-0.03125,0.0,0.0,0.0
0.2539062462165021,13,0.0,0.0,-0.03125,0.0,-0.03125,-0.03125,-0.03125,0.0,0.0,0.0,0.0,0.0,0.09375,0.03125,0.0,0.0,0.0,-0.03125,0.0,-0.03125,0.0
0.2734374959254638,14,0.0,0.0,-0.03125,-0.03125,-0.03125,0.0,-0.03125,0.0,0.0,0.0,0.0,0.0,0.0,0.03125,0.0,-0.03125,-0.03125,-0.03125,0.0,0.0,0.0
0.2929687456344255,15,-0.03125,0.0,-0.03125,0.0,0.0,0.0,-0.03125,-0.0625,0.0,0.0,-0.03125,-0.03125,0.0625,0.03125,0.0,0.0,0.0,0.0,0.0,-0.03125,-0.03125
0.3124999953433872,16,-0.03125,0.0,0.0,0.0,0.0,0.0,-0.0625,0.0,0.0,0.0,0.0,-0.03125,0.0,-0.03125,0.0,0.0,0.0,-0.03125,0.0,0.0,-0.03125
0.3320312450523489,17,0.0,-0.03125,-0.03125,0.0,0.0,0.0,0.0,-0.03125,0.0,0.0,-0.03125,-0.03125,0.0625,-0.03125,0.0,0.0,0.0,0.0,-0.03125,0.0,0.0
0.3515624947613106,18,-0.03125,0.0,-0.03125,-0.03125,-0.03125,0.0,-0.03125,-0.03125,0.0,0.0,-0.03125,0.0,-0.0625,-0.0625,0.0,0.0,0.0,-0.03125,0.0,0.0,-0.03125
0.37109374447027227,19,-0.03125,0.0,0.0,-0.03125,-0.03125,0.0,0.0,0.0,0.0,0.0,-0.03125,-0.03125,0.0625,0.03125,0.0,-0.03125,0.0,0.0,0.0,0.0,0.0
0.39062499417923396,20,-0.03125,0.03125,-0.03125,0.0,-0.03125,0.0,0.0,0.0,0.0,0.0,-0.03125,0.0,0.0625,0.03125,0.0,0.0,0.0,-0.03125,0.0,-0.03125,0.0
0.41015624388819566,21,0.0,0.0,-0.03125,0.0,-0.03125,0.0,-0.03125,0.0,0.0,-0.03125,-0.03125,0.0,0.0625,0.03125,0.0,0.0,0.0,0.0,0.0,0.0,0.0
0.42968749359715736,22,0.0,0.0,-0.03125,-0.03125,0.0,0.0,0.0,-0.03125,0.0,0.0,-0.03125,-0.03125,0.0,-0.03125,-0.03125,0.0,-0.03125,-0.03125,0.0,-0.03125,0.0
0.44921874330611905,23,-0.03125,0.0,-0.03125,-0.03125,0.0,-0.03125,-0.03125,-0.03125,0.0,0.0,0.0,-0.03125,0.0,0.03125,0.0,0.0,0.0,-0.03125,-0.03125,0.0,0.0
0.46874999301508075,24,-0.03125,0.0,0.0,-0.0625,0.0,-0.03125,0.0,-0.03125,0.0,0.0,-0.03125,-0.03125,0.03125,0.03125,0.0,-0.03125,-0.03125,-0.03125,-0.03125,0.0,0.0
0.48828124272404244,25,-0.03125,0.0,-0.03125,0.0,-0.03125,0.0,0.0,0.0,0.0,0.0,-0.03125,-0.03125,0.0,0.03125,0.0,0.0,-0.03125,-0.03125,-0.03125,-0.03125,-0.03125
0.5078124924330042,26,-0.0625,0.0,-0.03125,-0.03125,0.0,-0.03125,-0.03125,-0.03125,0.0,0.0,-0.03125,-0.03125,0.0,-0.03125,0.0,0.0,-0.03125,-0.03125,-0.03125,-0.03125,0.0
0.5273437421419659,27,-0.0625,0.0,-0.03125,-0.03125,-0.03125,0.0,0.0,0.0,0.0,-0.03125,-0.03125,0.0,0.03125,0.03125,0.0,0.0,-0.03125,0.03125,0.0,0.0,0.0
0.5468749918509276,28,-0.03125,0.0,0.0,0.0,-0.03125,0.0,-0.03125,0.0,0.0,-0.03125,-0.03125,0.0,0.0625,0.03125,-0.03125,-0.03125,0.0,-0.03125,-0.03125,-0.03125,0.0
0.5664062415598893,29,-0.0625,0.0,-0.03125,-0.03125,0.0,0.0,-0.03125,0.0,0.0,0.0,-0.03125,-0.03125,0.03125,0.03125,0.0,-0.03125,-0.03125,-0.03125,0.0,-0.03125,0.0
0.585937491268851,30,-0.03125,0.0,-0.03125,-0.03125,0.0,0.0,0.0,-0.03125,0.0,-0.03125,-0.03125,-0.03125,0.0625,0.03125,-0.03125,-0.03125,-0.03125,-0.03125,0.0,0.0,-0.03125
0.6054687409778127,31,-0.03125,-0.03125,0.0,-0.03125,0.0,0.0,-0.03125,-0.03125,0.0,0.03125,-0.03125,-0.03125,0.0,0.03125,0.0,0.0,-0.03125,0.0,-0.03125,0.0,0.0
0.6249999906867744,32,0.0,0.0,-0.03125,-0.03125,0.0,0.0,-0.03125,0.0,0.0,-0.03125,-0.03125,-0.03125,0.0,-0.03125,-0.03125,0.0,0.0,-0.03125,0.0,-0.03125,-0.03125
0.6445312403957361,33,-0.03125,0.0,-0.03125,0.0,-0.03125,0.0,0.0,-0.03125,0.0,0.0,-0.03125,-0.03125,0.0,0.03125,0.0,0.0,-0.03125,-0.0625,0.0,-0.03125,-0.03125
0.6640624901046978,34,-0.03125,0.0,-0.03125,0.0,-0.03125,-0.03125,-0.03125,-0.03125,-0.03125,0.0,-0.03125,-0.03125,0.0,-0.03125,0.0,-0.03125,0.0,-0.03125,-0.03125,-0.03125,0.0
0.6835937398136595,35,-0.03125,0.0,-0.03125,0.0,0.0,-0.03125,0.0,0.0,0.0,0.0,-0.03125,-0.03125,0.03125,0.0,-0.03125,0.0,0.0,0.0,-0.03125,-0.03125,0.0
0.7031249895226211,36,-0.03125,0.0,-0.03125,-0.03125,0.0,-0.03125,-0.03125,0.0,0.0,0.0,0.03125,-0.03125,0.03125,-0.03125,-0.03125,0.0,-0.03125,-0.03125,-0.03125,0.0,0.0
0.7226562392315828,37,0.0,0.0,-0.03125,0.0,0.0,0.0,-0.03125,0.0,0.0,0.0,-0.03125,-0.03125,0.0625,0.03125,0.0,0.0,0.0,-0.03125,-0.03125,-0.03125,0.0
0.7421874889405445,38,-0.03125,-0.03125,-0.03125,-0.03125,-0.03125,-0.03125,-0.03125,0.0,0.0,-0.03125,-0.03125,0.0,0.0625,0.03125,0.0,0.0,-0.03125,-0.03125,-0.03125,-0.03125,-0.03125
0.7617187386495062,39,-0.03125,0.0,-0.03125,0.0,0.0,-0.03125,-0.03125,-0.03125,0.0,-0.03125,-0.0625,-0.03125,0.03125,0.03125,0.0,-0.03125,0.0,-0.03125,0.0,-0.03125,-0.03125
0.7812499883584679,40,-0.03125,0.0,-0.03125,0.0,0.0,-0.03125,0.0,0.0,-0.03125,0.0,-0.03125,-0.03125,0.03125,0.03125,0.0,-0.03125,-0.03125,0.0,-0.03125,-0.03125,0.0
0.8007812380674296,41,-0.03125,0.0,-0.03125,-0.03125,0.0,0.0,-0.03125,0.0,0.0,0.0,-0.03125,-0.03125,0.0625,0.03125,0.0,0.0,0.0,-0.03125,-0.03125,-0.03125,0.0
0.8203124877763913,42,-0.0625,0.0,-0.03125,0.0,0.0,0.0,0.0,-0.03125,0.0,-0.03125,0.0,0.0,0.03125,0.03125,0.0,0.0,-0.03125,-0.03125,-0.03125,0.0,0.0
0.839843737485353,43,-0.03125,-0.03125,0.0,0.0,-0.03125,-0.03125,-0.03125,-0.03125,0.0,0.0,-0.03125,-0.03125,0.0625,0.03125,0.0,-0.03125,0.0,0.0,0.0,0.0,-0.03125
0.8593749871943147,44,-0.0625,0.0,0.0,0.0,0.0,-0.03125,-0.03125,-0.03125,0.0,-0.03125,-0.03125,-0.03125,0.0625,0.03125,-0.03125,0.0,-0.03125,0.0,-0.03125,0.0,-0.03125
0.8789062369032764,45,-0.03125,0.0,0.0,-0.03125,-0.03125,-0.03125,-0.03125,0.0,0.0,0.0,-0.03125,0.0,0.0625,0.03125,-0.03125,0.0,-0.03125,0.0,-0.03125,0.0,0.0
0.8984374866122381,46,-0.03125,0.0,-0.03125,-0.03125,0.0,0.0,-0.03125,-0.03125,0.0,-0.03125,-0.03125,-0.03125,0.0625,0.03125,0.0,0.0,0.0,-0.03125,-0.03125,0.0,0.0
0.9179687363211998,47,0.0,0.0,0.0,0.0,0.0,-0.03125,-0.03125,0.0,0.0,0.0,-0.03125,0.0,0.0,0.03125,0.0,0.0,0.0,-0.03125,0.0,0.0,0.0
0.9374999860301615,48,-0.03125,0.0,-0.03125,-0.03125,0.0,0.0,-0.03125,0.0,0.03125,-0.03125,0.0,0.0,0.0625,0.03125,0.0,0.0,-0.03125,0.0,-0.03125,-0.03125,0.0
0.9570312357391232,49,-0.03125,0.0,-0.03125,-0.03125,0.0,0.0,-0.03125,0.0,0.0,-0.03125,-0.03125,0.0,0.0,0.03125,0.0,0.0,0.0,-0.03125,0.0,0.0,0.0
0.9765624854480849,50,-0.03125,-0.03125,0.0,0.0,0.0,0.0,-0.03125,0.0,0.0,0.0,-0.03125,-0.03125,0.03125,0.03125,-0.03125,0.0,-0.03125,-0.03125,0.0,-0.0625,0.0
0.9960937351570466,51,-0.03125,-0.03125,-0.03125,0.0,0.0,0.0,0.0,-0.03125,0.0,-0.03125,-0.03125,-0.03125,0.0,0.03125,0.0,0.0,-0.03125,0.0,0.0,0.0,0.0
1.0156249848660084,52,-0.03125,-0.03125,-0.03125,0.0,0.0,0.0,-0.03125,0.0,0.0,0.0,0.0,-0.03125,0.0,0.03125,0.0,0.0,0.0,-0.03125,-0.03125,0.0,0.0
1.03515623457497,53,-0.03125,0.0,-0.03125,0.0,-0.03125,0.0,-0.03125,0.0,0.0,0.0,-0.03125,-0.03125,0.0625,0.03125,0.0,0.0,-0.03125,-0.03125,0.0,-0.03125,0.0
1.0546874842839318,54,-0.03125,-0.03125,-0.03125,0.0,-0.03125,0.0,-0.03125,0.0,0.0,0.0,0.0,-0.03125,0.0,-0.03125,-0.03125,0.0,0.0,0.0,-0.03125,0.0,0.0
1.0742187339928935,55,-0.03125,0.0,-0.03125,-0.03125,-0.03125,0.0,-0.03125,-0.03125,0.0,-0.03125,0.0,-0.03125,0.0,-0.03125,-0.03125,0.0,-0.03125,0.0,0.0,-0.03125,0.0
1.0937499837018552,56,-0.03125,0.0,-0.03125,0.0,-0.03125,0.0,-0.03125,0.0,0.03125,0.0,-0.03125,0.0,0.0,0.03125,-0.03125,0.0,-0.03125,-0.03125,0.0,-0.03125,0.0
1.1132812334108169,57,-0.0625,0.0,-0.03125,0.0,0.0,0.0,-0.03125,0.0,0.0,0.0,-0.03125,-0.03125,0.0625,0.03125,0.0,0.0,-0.03125,0.0,-0.03125,-0.03125,-0.03125
1.1328124831197786,58,0.0,0.0,0.0,0.0,0.0,0.0,-0.03125,0.0,0.0,0.0,0.0,-0.03125,0.0,0.03125,0.0,0.0,-0.03125,-0.03125,-0.03125,-0.03125,0.0
1.1523437328287403,59,-0.03125,0.0,-0.03125,0.0,0.0,-0.03125,-0.03125,-0.03125,0.0,0.0,-0.03125,-0.03125,0.0625,0.0625,0.0,0.0,0.0,0.0,-0.03125,0.0,-0.03125
1.171874982537702,60,-0.03125,-0.03125,-0.03125,0.0,-0.03125,0.0,-0.03125,0.0,0.0,-0.03125,-0.03125,0.0,0.0,0.03125,-0.03125,0.0,-0.03125,-0.03125,-0.03125,0.0,-0.03125
1.1914062322466636,61,-0.03125,-0.03125,0.0,0.0,-0.03125,0.0,-0.03125,0.0,0.0,-0.03125,-0.03125,-0.03125,0.0,0.03125,0.0,0.0,0.0,0.0,-0.03125,0.0,-0.03125
1.2109374819556253,62,-0.03125,0.0,-0.03125,0.0,-0.03125,0.0,-0.03125,-0.03125,0.0,-0.03125,-0.03125,0.0,0.0,0.0,0.0,0.0,0.0,-0.03125,-0.03125,0.0,0.0
1.230468731664587,63,-0.0625,0.0,-0.03125,-0.03125,0.0,0.0,-0.03125,-0.03125,0.0,0.0,-0.03125,-0.03125,0.0625,0.03125,0.0,0.0,0.0,-0.03125,-0.03125,0.03125,-0.03125
1.2499999813735487,64,0.0,0.0,0.0,-0.03125,-0.03125,0.0,-0.03125,0.0,0.0,0.0,0.0,0.0,0.03125,0.03125,0.0,0.0,0.0,0.0,-0.03125,0.0,0.0
1.2695312310825104,65,-0.03125,-0.03125,0.0,-0.03125,-0.03125,0.0,0.0,0.0,0.0,0.0,-0.03125,-0.03125,0.0625,0.03125,0.0,0.0,0.0,-0.03125,-0.03125,0.0,0.0
1.2890624807914721,66,-0.03125,0.0,-0.03125,-0.03125,-0.03125,-0.03125,-0.03125,0.0,0.0,0.0,-0.03125,0.0,0.0625,0.03125,0.0,-0.03125,-0.03125,-0.03125,0.0,0.0,0.0
1.3085937305004338,67,-0.0625,0.0,0.0,-0.03125,0.0,0.0,-0.03125,0.0,0.0,-0.03125,-0.03125,0.0,0.0625,0.03125,0.0,0.0,-0.03125,-0.03125,-0.03125,-0.03125,0.0
1.3281249802093955,68,-0.0625,-0.03125,0.0,0.0,-0.03125,0.0,-0.03125,-0.03125,0.0,0.0,-0.03125,0.0,0.0625,0.03125,0.0,0.0,0.0,-0.03125,-0.03125,-0.03125,0.0
1.3476562299183572,69,-0.03125,-0.03125,0.0,0.0,-0.03125,0.0,0.0,0.0,0.0,0.0,-0.03125,0.0,0.0625,0.03125,0.0,0.0,-0.03125,0.0,0.0,-0.03125,0.0
1.367187479627319,70,-0.03125,0.0,-0.03125,0.0,-0.03125,-0.03125,-0.03125,0.0,0.0,0.0,0.0,-0.03125,0.0625,0.03125,0.0,0.0,0.0,-0.03125,0.0,0.0,0.0
1.3867187293362806,71,-0.03125,-0.03125,0.0,0.0,-0.03125,0.0,-0.0625,-0.03125,0.0,0.0,-0.03125,0.0,0.0625,0.03125,0.03125,0.0,0.0,-0.03125,0.0,0.0,-0.03125
1.4062499790452423,72,0.0,0.0,-0.03125,0.0,-0.03125,0.0,-0.03125,-0.03125,0.0,0.0,-0.03125,-0.03125,0.0625,0.03125,0.0,0.0,-0.03125,0.0,0.0,0.0,-0.03125
1.425781228754204,73,0.0,0.0,-0.03125,-0.03125,-0.03125,0.0,0.0,0.0,0.0,0.0,-0.03125,0.0,0.03125,0.03125,0.0,0.0,-0.03125,-0.03125,0.0,-0.03125,0.0
1.4453124784631657,74,-0.03125,0.0,0.0,0.0,0.0,0.0,-0.03125,-0.03125,0.0,-0.03125,-0.03125,0.0,0.0,0.0,0.0,-0.03125,0.0,-0.03125,0.0,0.0,0.0
1.4648437281721274,75,-0.03125,0.0,-0.03125,-0.03125,0.0,0.0,-0.03125,-0.03125,0.0,-0.03125,-0.03125,-0.03125,0.0625,0.03125,-0.03125,0.0,-0.03125,0.0,-0.03125,0.0,0.0
1.484374977881089,76,-0.03125,0.0,-0.03125,-0.03125,0.0,0.0,-0.03125,0.0,0.0,-0.03125,-0.03125,-0.03125,0.0,-0.03125,0.0,-0.03125,0.0,0.0,0.0,0.0,0.0
1.5039062275900508,77,-0.03125,-0.03125,0.0,-0.03125,-0.03125,-0.03125,0.0,0.0,0.0,-0.03125,-0.03125,-0.03125,0.0625,0.03125,0.0,-0.03125,-0.03125,-0.03125,0.0,0.0,0.0
1.5234374772990125,78,-0.03125,-0.03125,0.0,0.0,-0.03125,0.0,-0.03125,-0.03125,0.03125,0.0,0.0,0.0,0.0,-0.03125,-0.03125,0.0,-0.03125,0.0,-0.03125,-0.03125,-0.03125
1.5429687270079742,79,-0.03125,0.0,-0.03125,-0.03125,-0.03125,0.0,-0.03125,-0.03125,0.0,-0.03125,-0.03125,-0.03125,0.0,0.03125,0.0,0.0,0.0,0.0,0.0,0.0,-0.03125
1.5624999767169359,80,-0.03125,0.0,-0.03125,-0.03125,-0.03125,0.0,-0.03125,0.0,0.0,-0.03125,-0.03125,0.0,0.0625,0.03125,0.0,0.0,0.0,-0.03125,-0.03125,-0.03125,0.0
1.5820312264258976,81,-0.0625,0.0,-0.03125,-0.03125,0.0,0.0,-0.03125,-0.03125,0.0,0.0,-0.03125,0.0,0.0625,0.03125,0.0,0.0,-0.03125,-0.03125,-0.03125,0.0,0.0
1.6015624761348592,82,-0.0625,-0.03125,-0.03125,-0.03125,0.0,0.0,0.0,-0.03125,0.0,0.03125,-0.03125,0.0,0.03125,0.03125,0.0,0.0,0.0,0.0,-0.03125,-0.03125,0.0
1.621093725843821,83,-0.03125,0.0,-0.03125,0.0,0.0,0.0,-0.03125,-0.03125,0.0,-0.03125,-0.03125,-0.03125,0.0625,0.03125,0.0,-0.03125,0.0,-0.03125,-0.03125,-0.03125,-0.03125
1.6406249755527826,84,-0.0625,0.0,-0.03125,-0.03125,0.0,0.0,-0.03125,-0.03125,0.0,0.0,0.0,0.0,0.0,-0.03125,-0.03125,0.0,0.0,-0.03125,0.0,-0.03125,0.0
1.6601562252617443,85,-0.03125,0.0,0.0,0.0,0.0,0.0,-0.03125,0.0,0.0,0.0,-0.03125,-0.03125,0.0625,0.03125,0.0,0.0,0.0,-0.03125,-0.03125,0.0,0.0
1.679687474970706,86,-0.03125,-0.03125,-0.03125,0.0,0.0,0.0,-0.0625,0.0,0.0,0.0,-0.03125,-0.03125,0.0,0.0,0.0,0.0,-0.03125,0.0,0.0,0.0,0.0
1.6992187246796677,87,-0.03125,-0.03125,-0.03125,-0.03125,0.0,0.0,-0.03125,-0.03125,0.0,-0.03125,-0.03125,0.0,0.0625,0.03125,0.0,0.0,0.0,0.0,-0.03125,0.0,0.0
1.7187499743886294,88,0.0,-0.03125,-0.03125,-0.03125,0.0,0.0,-0.03125,0.0,0.0,0.0,-0.03125,-0.03125,0.0,-0.03125,-0.03125,0.0,-0.03125,0.0,-0.03125,0.0,-0.03125
1.7382812240975911,89,0.0,-0.03125,0.0,0.0,0.0,0.0,-0.03125,0.0,0.0,0.0,-0.03125,-0.03125,0.03125,0.03125,0.03125,-0.03125,-0.03125,-0.03125,0.0,-0.0625,0.0
1.7578124738065528,90,-0.03125,0.0,-0.03125,-0.03125,0.0,0.0,-0.03125,-0.0625,0.0,0.0,0.03125,-0.03125,0.0625,0.03125,-0.03125,0.0,-0.03125,-0.03125,0.0,-0.03125,0.0
1.7773437235155145,91,-0.03125,0.0,-0.03125,-0.03125,-0.03125,0.0,-0.03125,-0.03125,0.0,0.0,-0.03125,-0.03125,0.03125,0.03125,0.03125,-0.03125,-0.03125,0.0,0.0,0.0,0.0
1.7968749732244762,92,-0.03125,-0.03125,-0.03125,0.0,0.0,0.0,-0.03125,-0.03125,0.0,-0.03125,-0.03125,-0.03125,0.0,0.03125,0.0,0.0,-0.03125,0.0,0.03125,-0.03125,-0.03125
1.816406222933438,93,-0.03125,-0.03125,-0.03125,-0.03125,0.0,0.0,-0.03125,-0.03125,-0.03125,0.0,-0.0625,-0.03125,0.03125,0.03125,0.0,0.0,-0.03125,-0.03125,0.0,0.0,0.0
1.8359374726423996,94,-0.03125,-0.03125,0.0,0.0,-0.03125,0.0,-0.03125,0.0,0.0,0.0,-0.03125,-0.03125,0.03125,-0.0625,-0.03125,0.0,0.0,-0.03125,0.0,0.0,0.0
1.8554687223513613,95,-0.03125,-0.03125,0.0,0.0,0.0,0.0,-0.03125,-0.03125,0.0,0.0,0.0,-0.03125,0.03125,0.03125,0.0,-0.03125,-0.03125,0.0,-0.03125,-0.03125,-0.03125
1.874999972060323,96,-0.03125,-0.03125,0.0,0.0,0.03125,0.0,-0.03125,-0.03125,0.0,-0.03125,-0.03125,-0.03125,0.0,0.0,0.0,0.0,-0.03125,0.0,0.0,-0.03125,0.0
1.8945312217692847,97,-0.03125,-0.03125,-0.03125,-0.03125,0.03125,0.0,-0.0625,-0.03125,0.0,0.0,-0.03125,-0.03125,0.0,0.03125,0.0,0.0,0.0,0.0,-0.03125,0.0,0.0
1.9140624714782464,98,-0.03125,-0.03125,-0.03125,0.0,0.0,0.0,-0.03125,0.0,0.0,0.0,-0.03125,-0.03125,0.0,0.0,0.0,-0.03125,-0.03125,0.0,0.0,0.0,0.0
1.933593721187208,99,-0.03125,0.0,0.0,0.0,0.0,-0.03125,0.0,-0.0625,-0.03125,0.0,-0.03125,-0.03125,0.0,0.03125,0.0,-0.03125,-0.03125,0.0,-0.03125,-0.03125,0.0
1.9531249708961698,100,-0.03125,-0.03125,-0.03125,0.0,-0.03125,0.0,-0.03125,-0.03125,0.0,-0.03125,-0.03125,0.0,0.0,-0.03125,-0.03125,0.0,-0.03125,-0.03125,-0.03125,-0.03125,0.0
1.9726562206051315,101,-0.03125,-0.03125,-0.03125,0.0,0.0,-0.03125,-0.03125,0.0,0.0,0.0,-0.03125,0.0,0.0625,0.03125,0.0,-0.03125,0.0,-0.03125,0.0,-0.03125,0.0
1.9921874703140932,102,-0.03125,-0.03125,-0.03125,-0.03125,0.03125,0.0,-0.03125,-0.03125,-0.03125,0.0,0.0,-0.03125,0.0,0.03125,-0.03125,0.0,-0.03125,-0.03125,-0.03125,-0.03125,0.0
2.011718720023055,103,-0.03125,-0.03125,0.0,0.0,0.0,0.0,-0.03125,-0.03125,0.0,0.0,-0.03125,-0.03125,0.0,0.03125,0.0,0.0,0.0,0.0,0.0,0.0,0.0
2.0312499697320168,104,-0.03125,-0.03125,-0.03125,0.0,-0.03125,0.0,0.0,-0.03125,0.0,-0.03125,-0.03125,-0.03125,0.0,0.03125,-0.03125,0.0,-0.03125,-0.03125,0.0,-0.03125,-0.03125
2.0507812194409785,105,-0.03125,-0.03125,0.0,0.0,0.0,-0.03125,-0.03125,-0.03125,0.0,0.0,-0.03125,0.0,0.0,0.0,0.0,-0.03125,-0.03125,-0.03125,-0.03125,0.0,0.0
2.07031246914994,106,-0.03125,-0.03125,0.0,0.0,-0.03125,-0.03125,0.0,-0.03125,0.0,0.0,-0.03125,-0.03125,0.0,0.03125,0.0,0.0,0.0,0.0,0.0,-0.03125,0.0
2.089843718858902,107,-0.03125,-0.03125,-0.03125,0.0,0.0,0.0,-0.03125,-0.03125,-0.03125,0.0,-0.03125,-0.03125,0.0625,0.0,0.0,-0.03125,0.0,-0.03125,-0.03125,0.0,0.0
2.1093749685678636,108,0.0,-0.03125,-0.03125,0.0,0.0,0.0,-0.03125,0.0,0.0,0.0,-0.03125,-0.03125,0.0,-0.03125,0.0,-0.03125,-0.03125,0.0,0.0,-0.03125,-0.03125
2.1289062182768252,109,-0.03125,0.0,-0.03125,-0.03125,0.0,-0.03125,-0.03125,-0.03125,0.0,-0.03125,-0.03125,-0.03125,0.0625,0.03125,0.0,0.0,0.0,0.0,-0.03125,-0.03125,0.0
2.148437467985787,110,-0.03125,0.0,0.0,-0.03125,0.0,0.0,0.0,0.0,0.0,-0.03125,-0.03125,-0.03125,0.0,0.03125,-0.03125,0.0,0.0,-0.03125,-0.03125,-0.03125,0.0
2.1679687176947486,111,-0.03125,0.0,-0.03125,-0.03125,0.0,0.0,0.0,-0.03125,-0.03125,0.0,0.0,-0.03125,0.0625,0.03125,0.03125,-0.03125,-0.03125,0.0,0.0,0.0,0.0
2.1874999674037103,112,-0.03125,0.0,-0.03125,-0.03125,-0.03125,0.0,0.0,-0.03125,0.0,0.0,-0.03125,0.0,0.0,0.03125,0.0,-0.03125,0.0,-0.03125,-0.03125,0.0,0.0
2.207031217112672,113,-0.03125,-0.03125,-0.03125,0.0,-0.03125,0.0,-0.03125,-0.03125,0.0,-0.03125,-0.03125,-0.03125,0.0,0.0,0.0,0.0,-0.03125,0.0,0.0,0.0,0.0
2.2265624668216337,114,-0.03125,0.0,0.0,0.0,-0.03125,-0.03125,0.0,0.0,0.0,-0.03125,-0.03125,0.0,0.0,-0.03125,0.0,0.0,0.0,-0.03125,0.0,-0.03125,0.0
2.2460937165305954,115,-0.03125,-0.03125,0.0,0.0,0.0,-0.03125,0.0,0.0,0.0,-0.03125,-0.03125,0.0,0.0,0.03125,0.0,0.0,-0.03125,-0.03125,0.0,-0.03125,0.0
2.265624966239557,116,-0.03125,-0.03125,-0.03125,0.0,-0.03125,0.0,-0.03125,-0.03125,0.0,0.0,-0.03125,-0.03125,0.0,-0.03125,-0.03125,0.0,-0.03125,-0.03125,0.0,0.0,-0.03125
2.285156215948519,117,-0.03125,-0.03125,0.0,-0.03125,-0.03125,-0.03125,-0.03125,-0.03125,0.0,0.0,0.0,0.0,0.0,0.03125,0.03125,0.0,0.0,0.0,0.0,0.0,-0.03125
2.3046874656574805,118,-0.03125,-0.03125,0.0,-0.03125,0.0,0.0,-0.03125,0.0,0.0,-0.03125,-0.03125,-0.03125,0.0625,0.03125,0.0,0.0,-0.03125,0.0,0.0,-0.03125,0.0
2.324218715366442,119,-0.03125,0.0,0.0,-0.03125,0.0,0.0,-0.03125,0.0,0.0,0.0,-0.03125,0.0,0.0625,0.03125,0.0,0.0,-0.03125,-0.03125,0.0,0.0,0.0
2.343749965075404,120,-0.03125,-0.03125,-0.03125,0.0,0.0,0.0,-0.03125,0.0,0.03125,-0.03125,-0.03125,0.0,0.0,0.0,0.0,0.0,-0.03125,-0.03125,0.0,-0.03125,0.0
2.3632812147843656,121,-0.03125,0.0,-0.03125,-0.03125,0.0,0.0,-0.03125,-0.03125,0.0,0.0,-0.03125,-0.03125,0.0,0.0,0.0,0.0,0.0,-0.03125,0.0,0.0,-0.03125
2.3828124644933273,122,-0.03125,-0.03125,-0.03125,0.0,-0.03125,-0.03125,-0.03125,-0.03125,0.0,-0.03125,-0.03125,-0.03125,0.0,-0.03125,0.0,0.0,0.0,-0.03125,0.0,-0.03125,0.0
2.402343714202289,123,-0.03125,-0.03125,-0.03125,0.0,-0.03125,-0.03125,-0.03125,0.0,0.0,0.0,-0.03125,-0.03125,0.0,0.0,0.0,0.0,0.0,-0.03125,0.0,0.0,0.0
2.4218749639112507,124,-0.03125,-0.03125,-0.03125,0.0,-0.0625,0.0,-0.03125,0.0,0.0,-0.03125,-0.03125,0.0,0.0625,0.03125,-0.03125,0.0,0.0,-0.03125,0.0,0.0,0.0
2.4414062136202124,125,-0.0625,0.0,0.0,0.0,0.0,0.0,-0.03125,0.0,0.0,-0.03125,0.0,-0.03125,0.09375,0.03125,0.0,0.0,-0.03125,-0.03125,-0.03125,-0.03125,-0.03125
2.460937463329174,126,-0.03125,0.0,-0.03125,-0.03125,0.0,0.0,0.0,0.0,0.0,0.0,-0.03125,-0.03125,0.0625,0.03125,0.0,0.0,0.0,-0.03125,-0.03125,0.0,-0.03125
2.4804687130381358,127,-0.03125,0.0,-0.03125,-0.03125,0.0,0.0,-0.03125,0.0,0.0,0.0,-0.03125,-0.03125,0.0625,0.03125,-0.03125,0.0,0.0,-0.03125,0.0,0.0,0.0
2.4999999627470975,128,-0.0625,0.0,-0.03125,-0.03125,0.0,0.0,-0.03125,0.0,0.0,0.0,0.0,-0.03125,0.0625,0.03125,0.0,0.0,-0.03125,-0.03125,0.0,0.0,0.0
2.519531212456059,129,-0.03125,0.0,-0.03125,0.0,0.0,0.0,-0.03125,-0.03125,0.0,0.0,-0.03125,-0.03125,0.0625,0.03125,0.0,0.0,0.0,-0.03125,-0.03125,0.0,-0.03125
2.539062462165021,130,-0.0625,0.0,-0.03125,0.0,0.0,0.0,-0.03125,0.0,0.0,-0.03125,-0.03125,-0.03125,0.03125,0.03125,0.0,-0.03125,0.0,-0.03125,-0.03125,0.0,0.0
2.5585937118739825,131,0.0,-0.03125,-0.03125,0.0,-0.03125,-0.03125,-0.03125,0.0,0.0,-0.03125,0.0,-0.03125,0.0,0.03125,0.0,0.0,-0.03125,0.0,-0.03125,0.0,-0.03125
2.5781249615829442,132,-0.03125,0.0,-0.03125,-0.03125,0.0,-0.03125,-0.03125,0.0,0.0,0.0,-0.03125,-0.03125,0.03125,-0.0625,-0.03125,0.0,0.0,-0.03125,0.0,0.0,0.0
2.597656211291906,133,-0.03125,0.0,0.0,0.0,0.0,-0.03125,-0.03125,-0.03125,0.03125,0.0,0.0,-0.03125,0.0625,0.03125,-0.03125,0.0,0.0,-0.03125,0.0,0.0,0.0
2.6171874610008676,134,-0.0625,0.0,-0.03125,-0.03125,0.0,-0.03125,0.0,-0.0625,0.0,0.0,0.0,0.0,0.0625,0.03125,-0.03125,0.0,0.0,-0.03125,-0.03125,-0.03125,0.0
2.6367187107098293,135,0.0,-0.03125,-0.03125,-0.03125,-0.03125,0.0,-0.03125,0.0,0.03125,-0.03125,-0.03125,0.0,0.0625,0.03125,0.0,0.0,0.0,0.0,-0.03125,0.0,0.0
2.656249960418791,136,-0.03125,0.0,0.0,0.0,0.0,-0.03125,-0.03125,0.0,0.0,0.0,-0.03125,-0.03125,0.0,0.03125,0.0,0.0,0.0,-0.03125,0.0,-0.03125,0.0
2.6757812101277527,137,-0.03125,0.0,0.0,0.0,0.0,0.0,-0.03125,0.0,0.0,0.0,-0.03125,0.0,0.0,0.03125,0.0,0.0,0.0,0.0,-0.03125,-0.03125,0.0
2.6953124598367144,138,-0.03125,-0.03125,0.0,0.0,-0.03125,0.0,-0.03125,0.0,0.0,0.0,-0.03125,-0.03125,0.03125,0.03125,0.0,0.0,0.0,-0.03125,-0.03125,-0.03125,-0.03125
2.714843709545676,139,-0.03125,-0.03125,-0.03125,-0.03125,-0.03125,0.0,-0.03125,0.0,0.0,0.0,-0.03125,-0.03125,0.0625,0.03125,0.03125,0.0,0.0,-0.03125,-0.03125,0.0,-0.03125
2.734374959254638,140,-0.03125,-0.03125,0.0,0.0,0.0,0.0,-0.03125,-0.03125,0.0,0.0,-0.03125,-0.03125,0.0625,0.03125,0.0,0.0,0.0,-0.03125,0.0,0.0,-0.03125
2.7539062089635995,141,-0.03125,0.0,0.0,-0.03125,-0.03125,0.0,0.0,0.0,0.0,-0.03125,0.0,-0.03125,0.0,0.03125,0.0,0.0,-0.03125,-0.03125,0.0,0.0,0.0
2.773437458672561,142,-0.03125,-0.03125,-0.03125,0.0,0.03125,0.0,-0.03125,-0.03125,0.0,-0.03125,-0.03125,0.0,0.0,-0.03125,0.0,0.0,0.0,-0.03125,0.0,-0.03125,0.0
2.792968708381523,143,0.0,0.0,-0.03125,0.0,0.0,0.0,-0.03125,0.0,0.0,-0.03125,-0.03125,-0.03125,0.0,0.03125,0.0,-0.03125,0.0,0.0,0.0,0.0,0.0
2.8124999580904846,144,0.0,0.0,-0.03125,0.0,0.03125,0.0,-0.03125,-0.03125,0.0,-0.03125,-0.03125,-0.03125,0.0625,0.03125,0.0,0.0,0.0,-0.03125,0.0,0.0,-0.03125
2.8320312077994463,145,-0.03125,-0.03125,0.0,0.0,0.0,-0.03125,0.0,0.0,0.0,-0.03125,0.0,-0.03125,0.0,0.03125,0.0,0.0,-0.03125,0.0,0.0,-0.03125,0.0
2.851562457508408,146,0.0,-0.0625,-0.03125,0.0,0.0,0.0,-0.03125,-0.03125,0.0,0.0,-0.03125,-0.03125,0.0,-0.03125,0.0,0.0,-0.03125,0.0,0.0,-0.03125,0.0
2.8710937072173697,147,-0.03125,-0.0625,0.0,0.0,-0.03125,-0.03125,-0.03125,0.0,0.0,0.0,-0.03125,-0.03125,0.0,-0.0625,-0.03125,0.0,-0.03125,-0.03125,0.0,-0.03125,-0.03125
2.8906249569263314,148,-0.03125,-0.03125,0.0,0.0,0.0,0.0,-0.03125,-0.03125,0.0,0.0,0.0,0.0,0.0,-0.03125,-0.03125,0.0,-0.03125,0.0,-0.03125,0.0,0.0
2.910156206635293,149,-0.03125,0.0,0.0,0.0,-0.03125,-0.03125,0.0,-0.03125,0.0,0.0,-0.03125,-0.03125,0.0625,0.03125,0.0,-0.03125,0.0,-0.03125,0.0,-0.03125,0.0
2.9296874563442548,150,-0.0625,-0.03125,0.0,-0.03125,-0.03125,0.0,-0.03125,-0.03125,0.0,-0.03125,0.0,-0.03125,0.03125,-0.0625,-0.03125,0.0,-0.03125,-0.03125,-0.03125,0.0,-0.03125
2.9492187060532165,151,0.0,-0.03125,0.0,-0.03125,0.0,0.0,-0.03125,0.0,0.0,0.0,-0.03125,-0.03125,0.0625,0.03125,0.0,0.0,-0.03125,-0.03125,0.0,0.0,-0.03125
2.968749955762178,152,-0.03125,0.0,-0.03125,-0.03125,0.03125,-0.03125,-0.03125,0.0,-0.03125,0.0,-0.03125,-0.03125,0.0625,0.03125,-0.03125,0.0,0.0,0.0,0.0,0.0,-0.03125
2.98828120547114,153,-0.03125,-0.03125,-0.03125,-0.03125,0.03125,0.0,-0.03125,-0.03125,-0.03125,0.0,-0.03125,-0.03125,0.0625,0.03125,-0.03125,-0.03125,-0.03125,0.0,-0.03125,0.0,0.0
3.0078124551801015,154,-0.03125,-0.03125,-0.03125,0.0,0.03125,0.0,-0.03125,0.0,-0.03125,0.0,-0.03125,-0.03125,0.03125,0.03125,-0.03125,0.0,-0.03125,0.0,-0.03125,0.0,0.0
3.0273437048890632,155,-0.03125,-0.03125,-0.03125,0.0,0.03125,0.0,-0.03125,-0.03125,0.0,0.0,-0.03125,-0.03125,0.0625,0.0625,-0.03125,-0.03125,-0.03125,0.03125,-0.03125,-0.03125,0.0
3.046874954598025,156,-0.03125,-0.03125,-0.03125,0.0,0.0,0.0,-0.03125,0.0,-0.03125,0.0,-0.03125,-0.03125,0.0,0.0,-0.03125,-0.03125,-0.03125,0.0,0.0,-0.03125,0.0
3.0664062043069866,157,-0.03125,-0.09375,0.0,0.03125,0.03125,0.0,-0.03125,-0.0625,-0.03125,0.0,-0.03125,-0.03125,0.0,0.03125,0.0,-0.03125,-0.0625,0.0,0.0,-0.03125,0.0
3.0859374540159483,158,-0.0625,-0.09375,0.0,0.03125,0.03125,0.0,0.0,-0.0625,-0.03125,0.0,-0.03125,-0.03125,0.0,0.03125,0.0,0.0,-0.03125,0.0,0.0,-0.03125,0.0
3.10546870372491,159,0.0,-0.09375,0.0,0.03125,0.0625,-0.03125,0.0,-0.0625,-0.03125,0.03125,-0.03125,-0.03125,0.0,0.03125,0.0,-0.03125,-0.0625,0.0,0.0,-0.0625,0.0
3.1249999534338717,160,-0.03125,-0.09375,0.0,0.03125,0.0625,-0.0625,0.0,-0.09375,-0.03125,0.0,-0.03125,-0.03125,-0.0625,0.09375,-0.0625,-0.03125,-0.09375,0.0,0.0,-0.0625,0.0
3.1445312031428334,161,0.0,-0.09375,-0.03125,0.03125,0.0625,-0.03125,0.0,-0.0625,-0.03125,0.03125,-0.03125,-0.03125,0.0,0.09375,-0.03125,-0.03125,-0.09375,0.0,0.03125,-0.0625,0.0
3.164062452851795,162,0.0,-0.09375,-0.03125,0.03125,0.0625,-0.03125,0.0,-0.09375,-0.0625,0.0,0.0,-0.03125,0.0,0.09375,-0.0625,-0.03125,-0.0625,0.0,0.0,-0.03125,0.0
3.183593702560757,163,-0.03125,-0.09375,-0.03125,0.03125,0.0625,-0.03125,0.0,-0.09375,-0.03125,0.0,-0.03125,-0.03125,0.0,0.09375,-0.0625,-0.03125,-0.0625,0.03125,0.0,-0.0625,0.0
3.2031249522697185,164,-0.0625,-0.0625,0.0,-0.03125,0.09375,-0.03125,0.0,-0.09375,-0.0625,0.0,-0.03125,-0.03125,-0.0625,0.125,-0.0625,0.0,-0.0625,0.0,0.03125,-0.03125,0.0
3.22265620197868,165,-0.09375,-0.09375,-0.03125,0.0,0.09375,-0.03125,0.0,-0.09375,-0.0625,-0.03125,-0.03125,0.0,0.0,0.21875,-0.03125,-0.03125,-0.09375,0.0,0.0,-0.03125,0.0
3.242187451687642,166,-0.125,-0.09375,0.0,0.0,0.0625,-0.0625,0.0,-0.0625,-0.0625,-0.03125,-0.03125,-0.03125,0.0,0.1875,-0.03125,0.0,-0.09375,-0.03125,-0.03125,-0.0625,0.0
3.2617187013966036,167,-0.15625,-0.125,0.03125,0.0,0.09375,-0.0625,0.0,-0.0625,-0.0625,-0.03125,0.0,-0.03125,-0.03125,0.1875,-0.0625,-0.03125,-0.09375,-0.0625,-0.03125,-0.03125,0.0
3.2812499511055653,168,-0.1875,-0.125,0.03125,0.0,0.09375,-0.03125,0.0,-0.09375,-0.0625,-0.03125,-0.03125,-0.03125,-0.0625,0.125,-0.0625,0.0,-0.0625,-0.0625,-0.03125,-0.03125,0.0
3.300781200814527,169,-0.1875,-0.15625,0.03125,-0.03125,0.09375,-0.03125,0.0,-0.0625,-0.09375,-0.03125,-0.03125,-0.03125,0.0,0.09375,-0.03125,0.0,-0.03125,-0.0625,-0.0625,-0.03125,0.0
3.3203124505234887,170,-0.21875,-0.15625,0.03125,-0.03125,0.09375,-0.0625,0.0,-0.0625,-0.09375,-0.03125,-0.03125,0.0,0.0,0.125,-0.0625,0.0,-0.03125,-0.0625,-0.03125,0.0,0.0
3.3398437002324504,171,-0.25,-0.15625,0.03125,-0.03125,0.03125,-0.0625,0.0,-0.03125,-0.09375,-0.0625,-0.03125,-0.03125,-0.03125,0.1875,-0.0625,0.0,-0.03125,-0.09375,-0.0625,-0.03125,0.0
3.359374949941412,172,-0.28125,-0.15625,0.0625,-0.03125,0.03125,-0.0625,-0.03125,-0.03125,-0.09375,-0.0625,-0.03125,-0.03125,0.0,0.1875,-0.09375,-0.03125,0.0,-0.09375,-0.0625,0.0,-0.03125
3.3789061996503738,173,-0.3125,-0.125,0.0625,-0.0625,0.09375,-0.0625,-0.03125,-0.03125,-0.09375,-0.0625,-0.03125,-0.03125,0.0,0.125,-0.09375,0.0,0.0,-0.09375,-0.0625,0.0,-0.03125
3.3984374493593354,174,-0.34375,-0.125,0.09375,-0.0625,0.09375,-0.09375,0.0,0.0,-0.09375,-0.0625,-0.03125,-0.03125,-0.0625,0.0625,-0.125,-0.03125,0.03125,-0.09375,-0.0625,-0.03125,-0.03125
3.417968699068297,175,-0.34375,-0.09375,0.09375,-0.0625,0.09375,-0.0625,-0.03125,0.0,-0.09375,-0.09375,-0.0625,-0.03125,-0.0625,0.03125,-0.125,-0.03125,0.03125,-0.125,-0.0625,0.0,0.0
3.437499948777259,176,-0.34375,-0.0625,0.09375,-0.0625,0.09375,-0.0625,-0.03125,0.0,-0.125,-0.125,-0.03125,-0.03125,-0.0625,-0.03125,-0.1875,-0.03125,0.09375,-0.125,-0.0625,0.0,-0.03125
3.4570311984862205,177,-0.34375,-0.03125,0.09375,-0.09375,0.1875,-0.0625,-0.03125,0.0,-0.125,-0.09375,-0.03125,-0.03125,-0.03125,0.0,-0.15625,0.0,0.125,-0.15625,-0.0625,0.0,-0.03125
3.4765624481951822,178,-0.34375,-0.0625,0.09375,-0.125,0.21875,-0.0625,-0.03125,0.0,-0.125,-0.09375,-0.03125,-0.03125,0.03125,-0.0625,-0.1875,0.0,0.15625,-0.15625,-0.0625,0.03125,-0.03125
3.496093697904144,179,-0.375,-0.0625,0.09375,-0.15625,0.28125,-0.03125,-0.03125,0.0,-0.125,-0.09375,-0.03125,-0.03125,0.0,-0.125,-0.125,0.0,0.1875,-0.21875,-0.09375,0.0,-0.03125
3.5156249476131056,180,-0.40625,-0.09375,0.15625,-0.15625,0.28125,0.0,-0.0625,0.0,-0.15625,-0.09375,-0.03125,-0.03125,-0.15625,-0.1875,-0.1875,-0.03125,0.21875,-0.21875,-0.09375,0.09375,-0.03125
3.5351561973220673,181,-0.34375,-0.125,0.21875,-0.15625,0.3125,0.03125,-0.0625,0.0,-0.1875,-0.09375,-0.03125,-0.03125,0.0,-0.375,-0.28125,0.0,0.34375,-0.21875,-0.125,0.1875,-0.09375
3.554687447031029,182,-0.34375,-0.15625,0.21875,-0.15625,0.3125,0.03125,-0.0625,0.03125,-0.1875,-0.09375,-0.03125,-0.03125,-0.25,-0.65625,-0.21875,-0.53125,0.46875,-0.375,-0.15625,0.4375,0.40625
3.5742186967399907,183,-0.21875,-0.15625,0.28125,-0.125,0.25,0.0625,-0.0625,0.0,-0.1875,-0.1875,-0.0625,-0.03125,-0.53125,-1.0,-0.28125,-0.53125,0.75,-0.40625,-0.1875,0.75,0.34375
3.5937499464489524,184,-0.125,-0.0625,0.34375,0.0625,0.21875,0.0625,-0.0625,0.0,-0.1875,-0.15625,-0.0625,-0.03125,-0.21875,-1.34375,-0.375,-0.0625,1.09375,-0.3125,-0.25,1.0625,-0.0625
3.613281196157914,185,0.03125,-0.0625,0.34375,0.25,0.28125,0.0,0.0,-0.03125,-0.15625,-0.125,-0.0625,-0.03125,0.0,-1.75,-0.28125,-0.09375,1.34375,-0.28125,-0.3125,1.375,-0.0625
3.632812445866876,186,0.1875,-0.125,0.3125,0.4375,0.1875,-0.125,0.0,-0.0625,-0.09375,-0.0625,-0.03125,-0.03125,0.15625,-2.03125,-0.21875,-0.1875,1.5625,-0.28125,-0.46875,1.78125,0.0
3.6523436955758375,187,0.375,-0.1875,0.1875,0.46875,0.125,-0.1875,0.0,-0.0625,-0.09375,-0.09375,-0.0625,-0.03125,-0.03125,-2.375,-0.1875,-0.28125,1.71875,-0.28125,-0.75,2.34375,0.0625
3.671874945284799,188,0.53125,-0.28125,0.09375,0.375,0.125,-0.15625,0.0,-0.03125,-0.09375,-0.125,-0.0625,-0.03125,-0.5,-2.34375,-0.21875,-0.46875,1.78125,-0.28125,-1.21875,2.78125,0.15625
3.691406194993761,189,0.5,-0.34375,0.0,0.3125,0.15625,-0.125,-0.03125,0.0,-0.09375,-0.09375,-0.0625,-0.03125,-0.6875,-1.96875,-0.375,-0.5,1.75,-0.28125,-1.375,2.59375,0.34375
3.7109374447027226,190,0.375,-0.40625,-0.0625,0.21875,0.25,-0.03125,-0.03125,0.0625,-0.0625,-0.125,-0.0625,-0.03125,-0.375,-1.59375,-0.625,-0.40625,1.6875,-0.3125,-1.5625,2.78125,0.28125
3.7304686944116843,191,0.25,-0.25,-0.125,0.15625,0.34375,0.0,-0.03125,0.0625,-0.0625,-0.09375,-0.03125,-0.03125,0.28125,-0.90625,-0.4375,-0.6875,1.34375,-0.28125,-0.5,1.5,0.5625
3.749999944120646,192,0.15625,-0.0625,-0.09375,0.125,0.40625,0.0,-0.0625,0.09375,-0.0625,-0.0625,-0.03125,0.0,0.28125,-0.96875,0.125,-0.5625,0.9375,-0.21875,-0.3125,1.03125,0.46875
3.7695311938296077,193,0.125,0.09375,0.0,0.125,0.375,0.03125,-0.0625,0.15625,-0.0625,-0.0625,0.0,0.0,-0.0625,-1.5,0.4375,-0.375,0.5625,-0.09375,-0.15625,0.625,0.3125
3.7890624435385694,194,0.09375,0.0625,0.09375,0.0625,0.375,0.09375,-0.0625,0.15625,-0.03125,-0.0625,0.0,0.0,-0.25,-1.9375,0.21875,-0.09375,0.21875,0.09375,0.03125,0.25,0.0625
3.808593693247531,195,0.09375,0.0,0.15625,0.0625,0.4375,0.125,-0.09375,0.15625,-0.03125,-0.03125,0.0,-0.03125,-0.0625,-1.875,0.0,0.21875,-0.34375,0.25,0.1875,-0.28125,-0.21875
3.8281249429564927,196,0.15625,0.0,0.15625,0.0625,0.5,0.09375,-0.0625,0.125,0.03125,-0.03125,-0.03125,-0.03125,-0.1875,-1.5,-0.15625,0.5,-0.96875,0.375,0.375,-1.0,-0.46875
3.8476561926654544,197,0.1875,0.0,0.125,0.0,0.5,0.09375,-0.0625,0.1875,0.03125,-0.03125,0.0,-0.03125,0.0,-1.0625,-0.0625,0.46875,-1.53125,0.4375,0.46875,-1.59375,-0.375
3.867187442374416,198,0.25,-0.03125,0.09375,0.03125,0.5,0.09375,-0.09375,0.21875,0.0625,-0.03125,0.0,-0.03125,0.0625,-0.65625,0.15625,0.15625,-2.0,0.5,0.53125,-2.0,-0.03125
3.886718692083378,199,0.25,-0.09375,0.0625,0.0625,0.46875,0.09375,-0.09375,0.25,0.0625,-0.03125,0.0,-0.03125,-0.15625,-0.59375,0.3125,-0.0625,-2.375,0.53125,0.59375,-2.375,0.25
3.9062499417923395,200,0.21875,-0.09375,0.0,0.03125,0.5,0.125,-0.09375,0.25,0.09375,0.0,0.0,-0.03125,-0.3125,-0.59375,0.28125,-0.1875,-2.6875,0.59375,0.6875,-2.6875,0.34375
3.9257811915013012,201,0.15625,-0.125,-0.03125,-0.03125,0.5625,0.0625,-0.125,0.3125,0.125,0.0,-0.03125,0.0,-0.3125,-0.5625,0.21875,-0.125,-2.90625,0.6875,0.75,-2.9375,0.34375
3.945312441210263,202,0.09375,-0.15625,-0.0625,-0.0625,0.5625,0.0625,-0.125,0.3125,0.15625,0.0,0.0,0.0,-0.0625,-0.40625,0.125,0.0,-3.125,0.71875,0.78125,-3.125,0.21875
3.9648436909192246,203,0.09375,-0.1875,-0.125,0.03125,0.5625,0.03125,-0.125,0.34375,0.15625,0.0,0.0,-0.03125,0.21875,-0.375,0.125,0.1875,-3.21875,0.78125,0.84375,-3.25,0.0
3.9843749406281863,204,0.09375,-0.09375,-0.15625,0.09375,0.5625,0.0625,-0.09375,0.40625,0.1875,-0.03125,0.03125,-0.03125,0.375,-0.28125,0.15625,0.40625,-3.21875,0.8125,0.90625,-3.21875,-0.1875
4.0039061903371485,205,0.09375,-0.03125,-0.1875,0.03125,0.53125,0.125,-0.0625,0.4375,0.1875,-0.03125,0.0625,-0.0625,0.25,-0.125,0.21875,0.53125,-3.03125,0.84375,0.90625,-3.09375,-0.34375
4.02343744004611,206,0.0625,0.0,-0.1875,-0.03125,0.5625,0.125,-0.0625,0.46875,0.21875,-0.03125,0.15625,-0.0625,-0.0625,-0.0625,0.21875,0.5625,-2.6875,0.8125,0.875,-2.8125,-0.375
4.042968689755072,207,0.0625,0.03125,-0.1875,-0.09375,0.5625,0.125,-0.09375,0.53125,0.25,-0.03125,0.25,-0.03125,-0.0625,-0.0625,0.34375,0.53125,-2.21875,0.65625,0.71875,-2.28125,-0.375
4.0624999394640335,208,0.0625,0.03125,-0.1875,-0.15625,0.59375,0.15625,-0.125,0.625,0.25,-0.03125,0.375,0.0,0.21875,0.1875,0.46875,0.5,-1.5625,0.4375,0.5,-1.65625,-0.40625
4.082031189172995,209,0.0625,0.0625,-0.28125,-0.1875,0.5625,0.09375,-0.09375,0.6875,0.28125,0.0,0.4375,-0.03125,0.59375,0.5,0.4375,0.5,-0.8125,0.21875,-0.4375,-0.4375,-0.15625
4.101562438881957,210,0.03125,0.0625,-0.3125,-0.125,0.53125,0.0625,-0.125,0.75,0.3125,0.03125,0.5,0.0,0.03125,0.34375,0.46875,-0.71875,0.65625,-0.21875,-0.40625,0.6875,0.4375
4.121093688590919,211,0.03125,0.0625,-0.34375,-0.1875,0.46875,0.125,-0.15625,0.78125,0.25,0.03125,0.53125,0.0625,-0.1875,0.1875,0.3125,-0.09375,0.6875,-0.1875,-0.1875,0.8125,-0.03125
4.14062493829988,212,-0.03125,0.0625,-0.28125,-0.3125,0.46875,0.09375,-0.25,0.78125,0.1875,0.0,0.59375,0.09375,0.15625,1.09375,0.03125,0.09375,0.84375,-0.09375,-0.125,1.09375,-0.1875
4.160156188008842,213,-0.0625,0.03125,-0.21875,-0.28125,0.46875,0.0625,-0.1875,0.78125,0.1875,0.0625,0.59375,0.0625,0.40625,0.53125,0.09375,0.15625,1.03125,-0.03125,-0.03125,1.21875,-0.21875
4.179687437717804,214,-0.0625,0.0625,-0.21875,-0.25,0.5,0.0,-0.21875,0.84375,0.21875,0.0625,0.65625,0.09375,0.59375,0.28125,0.125,0.125,1.125,0.03125,0.03125,1.40625,-0.1875
4.199218687426765,215,0.0,0.0,-0.1875,-0.21875,0.40625,-0.03125,-0.1875,0.9375,0.28125,0.0625,0.71875,0.0625,0.53125,0.28125,0.09375,0.09375,1.21875,0.03125,0.0625,1.75,-0.1875
4.218749937135727,216,0.15625,0.03125,-0.125,-0.21875,0.21875,-0.03125,-0.1875,1.09375,0.3125,0.15625,0.78125,0.03125,0.65625,0.5625,0.15625,0.21875,1.25,0.03125,0.09375,1.40625,-0.21875
4.238281186844689,217,0.4375,0.0625,-0.09375,-0.25,-0.03125,0.0625,-0.1875,1.21875,0.34375,0.21875,1.0,0.03125,0.96875,0.84375,0.3125,0.21875,1.28125,-0.0625,0.09375,0.9375,-0.21875
4.2578124365536505,218,0.65625,0.3125,-0.03125,-0.34375,-0.34375,0.15625,-0.21875,1.40625,0.34375,0.375,1.25,0.03125,0.53125,0.9375,0.4375,-0.03125,1.21875,-0.125,-0.09375,1.25,-0.125
4.277343686262612,219,0.5625,0.4375,-0.03125,-0.4375,-0.625,0.25,-0.25,1.65625,0.3125,0.34375,1.40625,0.0625,-0.1875,0.84375,0.21875,-0.21875,1.15625,-0.0625,-0.59375,0.59375,0.03125
4.296874935971574,220,0.3125,0.34375,0.0,-0.5,-0.90625,0.28125,-0.25,1.875,0.28125,0.40625,1.6875,0.0625,-0.3125,1.03125,-0.0625,-0.09375,1.125,0.03125,0.09375,0.3125,-0.0625
4.316406185680536,221,0.125,0.25,0.0,-0.4375,-1.21875,0.3125,-0.28125,2.125,0.25,0.40625,2.03125,0.03125,0.09375,1.25,0.03125,-0.0625,1.125,0.21875,0.0625,-0.25,0.0
4.335937435389497,222,0.0,0.1875,0.0,-0.375,-1.53125,0.375,-0.40625,2.34375,0.28125,0.6875,2.34375,-0.0625,0.28125,1.1875,0.15625,-0.0625,1.03125,0.25,0.0625,-0.0625,0.0
4.355468685098459,223,-0.15625,0.09375,-0.09375,-0.40625,-1.78125,0.5,-0.4375,2.59375,0.28125,1.4375,3.0625,0.0625,0.25,1.0625,0.34375,-0.0625,0.84375,0.21875,0.03125,-0.03125,0.0
4.374999934807421,224,-0.25,0.0,-0.15625,-0.5,-1.8125,0.6875,-0.40625,2.75,0.3125,1.34375,4.0,0.34375,0.4375,1.25,0.21875,-0.0625,0.65625,0.09375,-0.03125,-0.09375,0.0
4.394531184516382,225,-0.3125,-0.0625,-0.1875,-0.65625,-1.28125,0.6875,-0.3125,2.75,0.34375,1.15625,4.71875,0.5625,0.28125,1.21875,0.15625,-0.03125,0.5,0.03125,0.0,-0.125,0.0
4.414062434225344,226,-0.4375,-0.15625,-0.15625,-0.65625,-1.21875,0.4375,-0.28125,2.5625,0.25,1.25,6.0,0.78125,0.0625,1.21875,0.09375,0.0,0.34375,0.0625,-0.03125,-0.125,0.0
4.433593683934306,227,-0.5,-0.25,-0.0625,-0.21875,-1.78125,0.0625,-0.40625,2.34375,0.125,0.78125,3.625,0.375,0.21875,1.3125,0.125,0.0,0.25,0.09375,0.0,-0.0625,0.0
4.4531249336432674,228,-0.4375,-0.25,-0.03125,-0.125,-2.375,0.0625,-0.78125,1.8125,0.03125,0.1875,2.34375,0.65625,0.28125,1.34375,0.21875,0.03125,0.125,0.09375,0.0,-0.0625,0.0
4.472656183352229,229,-0.3125,-0.46875,0.0,0.21875,-2.5,0.03125,-1.09375,1.0625,-0.0625,0.125,1.34375,1.0625,0.25,1.46875,0.21875,0.0,0.0,0.09375,0.0,0.0,0.0
4.492187433061191,230,-0.25,-0.3125,-0.03125,0.34375,-2.0,-0.15625,-1.09375,0.40625,-0.15625,0.0,0.59375,1.03125,0.0625,1.40625,0.15625,0.0,-0.03125,0.09375,0.03125,0.0,0.0
4.5117186827701525,231,-0.15625,-0.15625,-0.09375,-0.3125,-2.28125,-0.15625,-0.71875,-0.15625,-0.28125,-0.15625,-0.03125,0.71875,-0.03125,1.25,0.1875,0.0,0.0,0.03125,0.03125,-0.03125,0.0
4.531249932479114,232,-0.0625,-0.0625,-0.25,0.0,-2.65625,-0.3125,-0.15625,-0.71875,-0.375,-0.3125,-0.65625,0.25,-0.15625,1.09375,0.09375,0.0,0.0625,-0.0625,-0.03125,-0.03125,-0.03125
4.550781182188076,233,-0.03125,0.0625,-0.4375,0.375,-2.59375,-0.53125,0.34375,-1.28125,-0.46875,-0.5,-1.25,-0.28125,-0.0625,1.09375,0.0,0.0,0.09375,-0.125,-0.03125,-0.03125,-0.03125
4.570312431897038,234,-0.03125,0.15625,-0.59375,0.1875,-2.21875,-0.5625,0.71875,-1.78125,-0.53125,-0.59375,-1.8125,-0.5625,-0.15625,1.0625,-0.0625,0.0,0.09375,-0.1875,-0.0625,-0.03125,-0.03125
4.589843681605999,235,-0.0625,0.09375,-0.71875,0.0625,-2.0,-0.65625,0.84375,-2.28125,-0.625,-0.6875,-2.34375,-0.59375,-0.15625,1.09375,-0.09375,0.0,0.09375,-0.1875,-0.0625,-0.0625,-0.03125
4.609374931314961,236,-0.125,0.34375,-0.6875,-0.0625,-2.0625,-0.65625,0.8125,-2.71875,-0.71875,-0.78125,-2.78125,-0.46875,0.0,1.03125,-0.09375,0.0,0.09375,-0.1875,-0.03125,-0.0625,-0.03125
4.628906181023923,237,-0.28125,-0.8125,-0.5,-0.125,-1.96875,-0.625,0.6875,-3.125,-0.84375,-0.90625,-3.15625,-0.375,0.0,1.125,0.0,0.0,0.0625,-0.25,-0.03125,-0.0625,0.0
4.648437430732884,238,-0.21875,-0.53125,-0.34375,0.15625,-1.90625,-0.625,0.6875,-3.53125,-0.9375,-0.96875,-3.5625,-0.28125,0.15625,1.03125,0.09375,0.0,0.15625,-0.25,-0.03125,-0.09375,0.0
4.667968680441846,239,-0.125,-0.1875,-0.25,-0.0625,-1.75,-0.625,0.78125,-3.84375,-0.96875,-1.0,-3.9375,-0.34375,0.125,0.84375,0.0625,-0.03125,0.25,-0.3125,-0.125,0.0,0.0
4.687499930150808,240,-0.03125,-0.125,-0.15625,0.03125,-1.4375,-0.5625,0.90625,-4.125,-0.9375,-1.03125,-4.21875,-0.4375,0.28125,0.9375,0.0625,-0.03125,0.28125,-0.3125,-0.03125,-0.09375,-0.03125
4.7070311798597695,241,0.0,-0.15625,-0.09375,0.15625,-1.25,-0.5625,1.0,-4.46875,-0.96875,-1.03125,-4.5625,-0.5,0.28125,0.96875,0.03125,0.0,0.3125,-0.34375,0.0,-0.125,-0.03125
4.726562429568731,242,0.03125,-0.125,-0.03125,0.0,-1.0625,-0.59375,0.96875,-4.6875,-0.96875,-1.0625,-4.8125,-0.40625,0.1875,1.0625,0.09375,-0.03125,0.375,-0.375,-0.03125,-0.125,0.0
4.746093679277693,243,0.0625,-0.125,0.09375,-0.375,-0.90625,-0.65625,0.78125,-4.78125,-0.96875,-1.0625,-4.84375,-0.25,0.25,1.09375,0.0625,-0.09375,0.40625,-0.375,0.03125,-0.125,0.0
4.765624928986655,244,0.125,-0.09375,0.1875,-0.46875,-0.78125,-0.4375,0.53125,-4.78125,-1.0,-1.0625,-4.84375,0.03125,0.28125,1.03125,-0.03125,-0.09375,0.5,-0.34375,0.03125,-0.15625,0.0
4.785156178695616,245,0.25,-0.0625,0.25,-0.28125,-0.875,-0.34375,0.0625,-4.6875,-1.03125,-1.03125,-4.71875,0.4375,0.28125,0.90625,-0.0625,-0.0625,0.65625,-0.3125,0.0625,-0.21875,0.0
4.804687428404578,246,0.40625,-0.03125,0.28125,-0.3125,-0.4375,-0.53125,-0.34375,-4.40625,-1.03125,-1.0625,-4.40625,0.8125,0.4375,1.03125,-0.0625,-0.03125,0.75,-0.28125,0.0625,-0.21875,-0.03125
4.82421867811354,247,0.5625,0.0625,0.21875,-0.375,0.46875,-0.625,-0.46875,-3.9375,-0.96875,-1.0,-3.9375,0.84375,0.59375,1.03125,-0.09375,-0.03125,0.84375,-0.25,0.0625,-0.21875,-0.03125
4.843749927822501,248,0.65625,0.25,0.1875,-0.3125,0.8125,-0.5625,-0.1875,-3.25,-0.75,-0.78125,-3.3125,0.5,0.59375,1.03125,-0.09375,0.0,0.9375,-0.28125,0.09375,-0.125,-0.0625
4.863281177531463,249,0.5625,0.15625,0.1875,-0.125,1.46875,-0.34375,0.5625,-2.1875,-0.3125,-0.375,-2.3125,-0.375,0.59375,0.96875,-0.125,0.0,1.0,-0.25,0.0625,0.0,-0.09375
4.882812427240425,250,0.5,0.15625,0.21875,0.9375,1.3125,-0.34375,1.34375,-0.84375,0.25,0.625,-0.15625,-1.28125,0.59375,0.875,-0.125,0.03125,1.15625,-0.25,0.0625,0.09375,-0.09375
4.902343676949386,251,0.46875,0.21875,0.25,1.34375,0.65625,-0.375,0.59375,1.3125,0.1875,0.9375,2.625,-0.6875,0.71875,0.75,-0.09375,0.03125,1.28125,-0.28125,0.03125,0.25,-0.125
4.921874926658348,252,0.40625,0.4375,0.21875,1.03125,2.0,-0.375,0.53125,1.03125,0.34375,0.53125,2.40625,-0.5625,0.71875,0.59375,-0.125,0.0,1.40625,-0.28125,0.03125,0.5,-0.125
4.94140617636731,253,0.0625,0.4375,0.0,0.40625,1.59375,-0.34375,0.09375,1.125,0.3125,0.46875,3.15625,-0.09375,0.8125,0.34375,-0.21875,0.03125,1.59375,-0.28125,0.0,0.6875,-0.15625
4.9609374260762715,254,-0.34375,0.21875,-0.0625,-0.34375,0.96875,-0.34375,-0.28125,1.28125,0.25,0.25,3.3125,0.25,0.90625,0.03125,-0.375,0.0,1.8125,-0.28125,0.0625,0.78125,-0.15625
4.980468675785233,255,-0.5,0.0625,-0.03125,-0.5625,0.59375,0.0,-0.5,1.4375,0.09375,0.09375,3.59375,0.375,0.71875,-0.4375,-0.40625,-0.0625,2.0625,-0.28125,0.0625,1.0,-0.15625
4.999999925494195,256,-0.40625,0.0625,-0.03125,-0.65625,0.3125,-0.03125,-0.6875,1.71875,-0.03125,0.15625,3.28125,0.5,0.375,-0.96875,-0.46875,-0.15625,2.4375,-0.25,0.0,1.5625,-0.1875
5.019531175203157,257,-0.1875,0.375,-0.15625,-1.34375,0.03125,0.03125,-0.71875,2.0625,0.0625,-0.15625,1.3125,0.28125,-0.03125,-1.59375,-0.40625,-0.21875,2.84375,-0.25,-0.09375,2.34375,-0.21875
5.039062424912118,258,-0.34375,0.125,-0.21875,-1.4375,0.125,0.125,-0.5625,2.125,0.0625,0.59375,2.1875,0.15625,-0.25,-2.34375,-0.34375,-0.125,3.28125,-0.25,-0.78125,3.78125,-0.3125
5.05859367462108,259,-0.5625,-0.15625,0.0625,-1.21875,0.21875,0.15625,-0.46875,1.9375,0.09375,0.09375,0.03125,-0.03125,0.4375,-2.875,-0.4375,0.28125,3.5625,-0.1875,-1.6875,4.375,-0.375
5.078124924330042,260,-0.40625,0.15625,0.125,-0.78125,0.5625,0.125,-0.3125,1.6875,0.0625,0.0,0.0,-0.03125,1.25,-2.71875,-0.90625,0.53125,3.59375,-0.09375,-2.71875,6.53125,-0.875
5.097656174039003,261,-0.15625,0.125,0.09375,-0.25,0.6875,0.0625,-0.3125,1.40625,0.0,-0.0625,-0.03125,-0.03125,1.625,-1.59375,-1.46875,0.71875,3.3125,0.0,-2.125,10.03125,-1.15625
5.117187423747965,262,0.15625,0.0,0.03125,-0.09375,0.75,0.09375,-0.28125,1.21875,-0.09375,-0.0625,-0.0625,-0.03125,2.375,-1.65625,-0.71875,0.90625,2.9375,0.0625,-0.9375,11.21875,-2.0625
5.136718673456927,263,0.125,-0.0625,0.0,-0.1875,0.75,0.03125,-0.28125,1.09375,-0.09375,-0.0625,-0.0625,-0.03125,1.3125,-2.8125,0.6875,1.96875,2.21875,0.1875,0.0,2.25,-2.21875
5.1562499231658885,264,-0.0625,-0.09375,0.125,-0.3125,0.78125,0.09375,-0.28125,0.96875,-0.03125,-0.0625,-0.0625,-0.03125,0.0,-3.125,0.625,2.28125,1.125,0.28125,0.03125,1.21875,-2.5
5.17578117287485,265,-0.15625,-0.03125,0.25,-0.375,0.8125,0.125,-0.25,0.90625,0.0625,-0.03125,-0.0625,-0.03125,-0.15625,-2.71875,0.0,1.59375,0.21875,0.375,0.21875,0.28125,-1.71875
5.195312422583812,266,-0.0625,0.0,0.3125,-0.34375,0.84375,0.15625,-0.25,0.8125,0.125,0.0,-0.0625,0.0,0.0,-2.5,0.0,0.40625,-0.625,0.375,0.34375,-0.53125,-0.4375
5.214843672292774,267,0.15625,0.0,0.28125,-0.25,1.0,0.09375,-0.25,0.65625,0.125,-0.03125,-0.03125,-0.03125,-0.3125,-2.1875,0.46875,-0.65625,-1.46875,0.34375,0.40625,-1.3125,0.71875
5.234374922001735,268,0.46875,-0.03125,0.1875,-0.375,1.25,0.03125,-0.1875,0.5,0.15625,0.0,-0.03125,0.0,-0.59375,-1.8125,0.9375,-1.28125,-2.1875,0.25,0.375,-2.0,1.375
5.253906171710697,269,0.6875,-0.0625,0.03125,-0.15625,1.3125,-0.03125,-0.15625,0.40625,0.125,0.0,-0.03125,0.0,-0.8125,-1.875,1.03125,-1.34375,-2.84375,0.25,0.40625,-2.65625,1.46875
5.273437421419659,270,0.6875,-0.09375,-0.09375,0.09375,1.25,0.0,-0.09375,0.375,0.15625,-0.03125,-0.03125,0.0,-0.78125,-1.9375,0.90625,-1.09375,-3.375,0.3125,0.4375,-3.28125,1.28125
5.29296867112862,271,0.625,-0.125,-0.15625,0.3125,1.1875,0.09375,-0.09375,0.28125,0.125,0.0,-0.03125,-0.03125,-0.8125,-1.96875,0.71875,-0.78125,-3.84375,0.40625,0.53125,-3.78125,0.96875
5.312499920837582,272,0.5,0.0,-0.125,0.34375,1.25,0.1875,-0.09375,0.21875,0.125,0.0,-0.03125,0.0,-0.78125,-1.875,0.5,-0.4375,-4.25,0.5,0.59375,-4.21875,0.65625
5.332031170546544,273,0.34375,0.0,-0.09375,0.28125,1.3125,0.15625,-0.09375,0.15625,0.125,0.0,-0.03125,-0.03125,-0.75,-1.65625,0.375,-0.1875,-4.625,0.5625,0.6875,-4.59375,0.4375
5.351562420255505,274,0.28125,-0.0625,-0.0625,0.21875,1.34375,0.125,-0.0625,0.15625,0.15625,0.0,-0.03125,-0.03125,-0.75,-1.40625,0.4375,-0.125,-4.9375,0.625,0.75,-4.90625,0.40625
5.371093669964467,275,0.25,-0.09375,-0.0625,0.40625,1.34375,0.15625,-0.0625,0.15625,0.09375,0.0,-0.03125,-0.03125,-0.78125,-1.1875,0.34375,-0.125,-4.875,0.71875,0.8125,-4.84375,0.40625
5.390624919673429,276,0.21875,-0.125,-0.0625,0.5,1.28125,0.21875,-0.09375,0.1875,0.125,0.0,-0.03125,0.0,-0.59375,-1.34375,0.3125,-0.0625,-4.6875,0.71875,0.84375,-4.6875,0.3125
5.4101561693823905,277,0.09375,-0.15625,-0.03125,0.375,1.25,0.21875,-0.125,0.28125,0.15625,0.0,-0.03125,-0.03125,-0.53125,-1.25,0.1875,0.09375,-4.46875,0.71875,0.875,-4.46875,0.1875
5.429687419091352,278,-0.09375,-0.15625,-0.03125,0.21875,1.25,0.1875,-0.125,0.28125,0.1875,0.0,-0.03125,-0.03125,-0.59375,-1.0625,-0.03125,0.15625,-4.3125,0.75,0.84375,-4.28125,0.0625
5.449218668800314,279,-0.25,-0.0625,-0.03125,0.03125,1.3125,0.25,-0.15625,0.25,0.21875,0.0,-0.03125,0.0,-0.3125,-0.65625,0.0,0.25,-4.125,0.65625,0.75,-4.15625,0.0
5.468749918509276,280,-0.25,0.0,-0.09375,-0.03125,1.28125,0.28125,-0.15625,0.34375,0.1875,0.0,-0.03125,0.0,0.0,0.15625,0.125,0.375,-3.90625,0.59375,0.6875,-3.90625,-0.1875
5.488281168218237,281,-0.21875,0.03125,-0.125,-0.125,1.25,0.28125,-0.1875,0.40625,0.21875,-0.03125,-0.03125,-0.03125,0.125,0.84375,0.21875,0.65625,-3.53125,0.5625,0.6875,-3.625,-0.4375
5.507812417927199,282,-0.25,0.0,-0.1875,-0.375,1.28125,0.28125,-0.21875,0.53125,0.21875,0.0,0.03125,0.0,0.21875,1.03125,0.21875,1.09375,-3.0,0.46875,0.5625,-3.09375,-0.90625
5.527343667636161,283,-0.28125,0.0,-0.28125,-0.53125,1.3125,0.25,-0.1875,0.625,0.28125,0.0,0.125,0.0,0.65625,1.1875,0.21875,1.8125,-2.15625,0.3125,0.28125,-2.3125,-1.71875
5.546874917345122,284,-0.28125,0.03125,-0.34375,-0.53125,1.25,0.34375,-0.1875,0.75,0.375,0.03125,0.1875,0.0,1.21875,0.875,0.40625,2.09375,-1.15625,0.0625,0.0,-1.375,-2.0625
5.566406167054084,285,-0.25,0.125,-0.46875,-0.4375,1.125,0.375,-0.21875,0.875,0.375,0.0,0.25,0.0,1.5625,0.96875,0.4375,1.1875,-0.15625,-0.15625,-0.21875,-0.21875,-1.21875
5.585937416763046,286,-0.1875,0.0,-0.5625,-0.4375,0.875,0.40625,-0.25,1.09375,0.3125,-0.03125,0.375,0.03125,0.34375,1.03125,0.40625,-1.4375,0.59375,-0.5,-1.40625,2.4375,1.09375
5.6054686664720075,287,0.03125,-0.0625,-0.625,-0.4375,0.5625,0.40625,-0.1875,1.3125,0.28125,-0.0625,0.53125,0.03125,-1.375,0.75,0.75,-1.875,0.84375,-0.46875,-0.53125,1.75,1.75
5.624999916180969,288,0.15625,0.03125,-0.625,-0.4375,0.15625,0.53125,-0.1875,1.5625,0.15625,-0.09375,0.8125,0.0,-2.6875,1.03125,0.96875,-2.3125,0.84375,-0.3125,-0.59375,3.46875,1.9375
5.644531165889931,289,0.1875,0.03125,-0.53125,-0.375,-0.28125,0.40625,-0.21875,1.875,0.09375,-0.03125,1.0625,-0.03125,-2.5625,0.84375,0.4375,-2.53125,1.0,-0.0625,-0.5,4.125,2.1875
5.664062415598893,290,0.34375,0.0,-0.4375,-0.5,-0.75,0.25,-0.3125,2.21875,0.0625,0.0,1.375,-0.03125,-2.09375,0.5625,-0.375,-2.0,1.34375,-0.0625,-0.71875,3.53125,1.46875
5.683593665307854,291,0.375,0.21875,-0.375,-0.53125,-1.21875,0.25,-0.3125,2.59375,0.09375,0.125,1.875,-0.03125,-0.6875,-0.125,-0.4375,-0.28125,1.875,-0.1875,-0.34375,2.21875,0.03125
5.703124915016816,292,0.3125,0.25,-0.15625,-0.40625,-1.875,0.125,-0.40625,2.96875,0.125,0.25,2.6875,0.0625,0.28125,-0.21875,0.0625,-0.3125,2.1875,0.0,-0.4375,1.21875,0.21875
5.722656164725778,293,0.3125,0.0625,0.09375,-0.3125,-2.1875,-0.0625,-0.4375,3.25,0.1875,0.3125,3.90625,0.15625,1.71875,0.03125,-0.09375,0.25,2.1875,0.125,0.84375,2.0,-0.5
5.742187414434739,294,0.3125,0.15625,0.03125,-0.1875,-2.90625,0.0,-0.46875,3.375,0.28125,0.59375,4.28125,0.03125,2.125,0.125,-0.09375,0.21875,2.15625,0.15625,0.5625,0.78125,-0.0625
5.761718664143701,295,0.25,0.1875,-0.0625,-0.09375,-2.59375,0.25,-0.65625,3.4375,0.5,1.625,5.28125,0.3125,1.03125,0.34375,0.09375,0.0625,1.9375,0.125,0.25,-0.03125,-0.03125
5.781249913852663,296,0.15625,0.15625,-0.0625,0.15625,-0.09375,0.375,-0.34375,3.3125,0.78125,1.375,6.3125,0.5,0.65625,0.4375,-0.09375,0.0,1.6875,0.03125,0.125,-0.03125,-0.03125
5.800781163561624,297,0.0,0.21875,-0.0625,0.03125,-1.40625,-0.34375,-0.34375,2.96875,0.78125,1.46875,7.125,0.5,-0.15625,0.5,-0.25,-0.03125,1.46875,-0.03125,0.03125,-0.0625,0.0
5.820312413270586,298,-0.09375,0.09375,-0.03125,0.71875,-3.71875,-0.8125,-0.5625,2.28125,0.5625,1.0,3.5,0.5,-0.15625,0.5625,-0.21875,-0.03125,1.34375,-0.125,0.0,-0.0625,0.0
5.839843662979548,299,-0.15625,0.0625,-0.09375,1.25,-2.59375,-0.40625,-0.6875,1.15625,0.375,0.5,1.71875,0.5625,0.0625,0.53125,-0.3125,0.0,1.28125,-0.15625,-0.03125,-0.09375,-0.03125
5.8593749126885095,300,-0.1875,0.0625,-0.125,0.625,-2.46875,0.125,-0.1875,0.28125,0.3125,0.3125,0.40625,0.09375,0.28125,0.46875,-0.28125,0.0625,1.125,-0.15625,0.03125,-0.15625,-0.03125
5.878906162397471,301,-0.1875,0.0,-0.1875,0.09375,-3.03125,0.09375,0.4375,-0.53125,0.25,0.25,-0.46875,-0.40625,0.71875,0.78125,-0.21875,0.125,0.96875,-0.1875,0.03125,-0.15625,-0.03125
5.898437412106433,302,-0.09375,0.09375,-0.15625,0.75,-2.15625,-0.40625,0.90625,-1.375,0.28125,0.1875,-1.40625,-0.8125,0.8125,1.03125,-0.21875,0.125,0.71875,-0.1875,0.0,-0.21875,-0.03125
5.917968661815395,303,-0.03125,0.0625,-0.0625,0.71875,-1.6875,-0.5625,1.0,-2.28125,0.21875,0.15625,-2.375,-0.8125,0.4375,1.15625,-0.125,0.125,0.46875,-0.1875,0.03125,-0.15625,-0.03125
5.937499911524356,304,-0.03125,0.28125,-0.09375,0.53125,-1.75,-0.3125,0.75,-3.15625,0.125,0.0625,-3.21875,-0.4375,0.28125,1.25,-0.1875,0.0625,0.28125,-0.1875,0.03125,-0.125,-0.03125
5.957031161233318,305,-0.1875,-0.1875,-0.125,0.375,-1.78125,-0.125,0.46875,-3.875,0.0625,0.03125,-3.90625,-0.0625,0.0625,1.25,-0.21875,0.0625,0.1875,-0.21875,-0.03125,-0.0625,0.0
5.97656241094228,306,-0.15625,-0.28125,-0.09375,0.40625,-1.1875,-0.125,0.375,-4.46875,0.09375,0.03125,-4.53125,0.09375,0.0,1.1875,-0.1875,0.0625,0.09375,-0.25,-0.03125,0.0,-0.03125
5.996093660651241,307,0.0625,0.03125,-0.09375,0.75,-0.96875,-0.28125,0.5625,-4.84375,0.1875,0.09375,-4.9375,-0.03125,0.125,1.3125,-0.09375,0.03125,-0.03125,-0.34375,-0.09375,0.03125,-0.0625
6.015624910360203,308,0.1875,0.09375,-0.125,0.96875,-0.8125,-0.25,0.875,-5.0,0.28125,0.15625,-5.125,-0.34375,0.15625,1.46875,-0.09375,0.03125,-0.15625,-0.46875,-0.125,0.03125,-0.0625
6.035156160069165,309,0.25,0.0625,-0.0625,1.0625,-0.5625,-0.28125,1.21875,-5.125,0.3125,0.1875,-5.3125,-0.6875,0.09375,1.40625,-0.09375,0.0,-0.21875,-0.5,-0.1875,0.03125,-0.0625
6.0546874097781265,310,0.3125,0.03125,0.0,1.375,-0.09375,-0.15625,1.375,-4.9375,0.28125,0.1875,-5.125,-0.8125,0.09375,1.3125,-0.125,0.0,-0.125,-0.46875,-0.125,0.0,-0.0625
6.074218659487088,311,0.375,0.03125,0.09375,1.0625,0.65625,-0.125,1.1875,-4.6875,0.34375,0.25,-4.90625,-0.71875,0.25,1.125,-0.25,0.0625,0.03125,-0.40625,-0.09375,-0.0625,-0.0625
6.09374990919605,312,0.53125,0.09375,0.1875,1.1875,0.65625,0.03125,1.125,-4.25,0.5,0.40625,-4.46875,-0.6875,0.71875,1.09375,-0.3125,0.125,0.21875,-0.375,-0.03125,-0.125,-0.0625
6.113281158905012,313,0.78125,0.21875,0.21875,1.1875,1.46875,0.15625,1.1875,-3.65625,0.6875,0.625,-3.8125,-0.8125,1.125,1.03125,-0.28125,0.15625,0.375,-0.34375,-0.03125,-0.1875,-0.09375
6.132812408613973,314,0.96875,0.40625,0.21875,0.9375,1.53125,0.09375,2.125,-1.84375,0.90625,0.625,-1.375,-2.21875,1.0625,1.03125,-0.1875,0.1875,0.53125,-0.40625,0.0625,-0.28125,-0.15625
6.152343658322935,315,1.03125,0.53125,0.1875,2.09375,0.75,-0.34375,1.5,0.40625,0.21875,-0.90625,0.375,-1.0625,0.875,0.84375,-0.3125,0.21875,0.6875,-0.4375,0.03125,-0.1875,-0.21875
6.171874908031897,316,0.84375,0.625,0.15625,0.625,2.75,-0.28125,0.3125,0.15625,-0.03125,-0.4375,0.21875,-0.40625,0.65625,0.59375,-0.4375,0.15625,0.8125,-0.4375,0.0625,-0.21875,-0.1875
6.191406157740858,317,0.6875,0.375,0.1875,-0.28125,2.34375,-0.53125,-0.21875,0.40625,0.09375,-0.53125,0.59375,0.25,0.53125,0.53125,-0.46875,0.0,0.96875,-0.40625,0.15625,-0.03125,-0.125
6.21093740744982,318,0.5,0.28125,0.0625,-1.0,0.9375,-0.6875,-0.71875,0.59375,0.125,-0.25,1.71875,0.8125,0.28125,0.34375,-0.46875,0.03125,1.09375,-0.34375,0.15625,0.09375,-0.125
6.230468657158782,319,0.25,0.25,0.0,-0.3125,0.75,-0.375,-0.15625,1.125,0.0,-0.125,0.90625,0.03125,0.28125,0.09375,-0.375,-0.03125,1.15625,-0.28125,0.1875,0.21875,-0.15625
6.249999906867743,320,0.0,0.40625,-0.0625,-0.28125,0.4375,-0.25,0.40625,1.40625,-0.125,-0.0625,1.375,-0.46875,0.09375,-0.15625,-0.28125,-0.125,1.25,-0.25,0.125,0.375,-0.125
6.269531156576705,321,-0.125,0.28125,-0.0625,0.1875,0.5,-0.15625,0.3125,1.375,-0.21875,-0.65625,1.3125,0.0,-0.15625,-0.59375,-0.375,-0.15625,1.40625,-0.21875,0.09375,0.5625,-0.125
6.289062406285667,322,-0.15625,0.0,-0.03125,-0.28125,0.75,0.0,-0.1875,1.125,-0.375,-0.9375,0.34375,0.0,-0.21875,-1.09375,-0.53125,-0.0625,1.625,-0.1875,0.0625,0.8125,-0.21875
6.3085936559946285,323,0.03125,-0.09375,-0.03125,-0.71875,1.28125,-0.03125,-0.15625,0.75,-0.53125,-0.875,0.09375,0.03125,0.0,-1.5,-0.625,0.125,1.90625,-0.1875,-0.0625,1.21875,-0.40625
6.32812490570359,324,0.1875,-0.0625,-0.15625,-0.59375,1.59375,-0.15625,-0.0625,0.46875,-0.59375,-0.75,-0.0625,-0.03125,0.71875,-1.65625,-0.625,0.53125,2.15625,-0.15625,-0.40625,1.8125,-0.75
6.347656155412552,325,0.28125,0.03125,-0.375,0.15625,1.5625,-0.09375,0.0,0.3125,-0.59375,-0.625,-0.09375,-0.03125,1.125,-1.0,-0.53125,0.9375,2.1875,-0.21875,-0.8125,2.15625,-1.0625
6.367187405121514,326,0.25,0.0625,-0.5625,0.59375,1.3125,-0.125,-0.0625,0.28125,-0.53125,-0.53125,-0.0625,-0.03125,1.5625,-0.4375,-0.6875,1.25,2.15625,-0.21875,-1.25,2.59375,-1.3125
6.386718654830475,327,0.125,-0.0625,-0.53125,0.5,1.15625,-0.21875,-0.15625,0.3125,-0.46875,-0.46875,-0.0625,-0.03125,1.71875,-0.5625,-0.6875,1.4375,2.0625,-0.1875,-1.78125,2.96875,-1.46875
6.406249904539437,328,0.0625,-0.25,-0.28125,0.3125,1.0,-0.28125,-0.15625,0.375,-0.375,-0.375,-0.0625,-0.0625,1.40625,-0.5625,-0.53125,1.4375,1.90625,-0.15625,-2.84375,4.375,-1.84375
6.425781154248399,329,0.03125,-0.375,0.0625,0.3125,0.90625,-0.21875,-0.125,0.34375,-0.25,-0.25,-0.0625,-0.0625,1.03125,-0.96875,-0.28125,1.625,1.8125,-0.15625,-2.375,5.625,-2.1875
6.44531240395736,330,0.03125,-0.46875,0.3125,0.5,0.84375,-0.125,-0.0625,0.28125,-0.15625,-0.15625,-0.0625,-0.0625,0.4375,-1.53125,-0.21875,1.59375,1.78125,-0.1875,-1.71875,5.34375,-2.3125
6.464843653666322,331,0.09375,-0.625,0.46875,0.5625,0.84375,-0.15625,-0.0625,0.15625,-0.09375,-0.09375,-0.03125,-0.03125,-0.03125,-1.4375,0.21875,0.53125,1.46875,0.03125,-0.3125,2.0,-0.6875
6.484374903375284,332,0.1875,-0.5625,0.53125,0.34375,0.90625,-0.0625,-0.0625,0.09375,-0.0625,-0.0625,-0.03125,-0.03125,-0.96875,-2.0,0.5625,-0.71875,0.71875,0.3125,0.21875,0.9375,0.625
6.5039061530842455,333,0.1875,-0.46875,0.59375,0.09375,0.9375,-0.09375,-0.03125,0.09375,-0.0625,-0.03125,-0.03125,-0.03125,-1.5625,-2.53125,0.84375,-1.3125,0.0,0.59375,0.59375,0.21875,1.25
6.523437402793207,334,0.125,-0.53125,0.65625,0.03125,0.90625,-0.125,-0.0625,0.15625,-0.0625,-0.03125,-0.03125,0.0,-0.75,-1.875,1.09375,-1.1875,-0.78125,0.75,0.8125,-0.59375,1.1875
6.542968652502169,335,0.09375,-0.59375,0.625,0.03125,0.78125,-0.125,-0.0625,0.1875,0.0,-0.03125,-0.03125,-0.03125,-0.03125,-1.59375,0.6875,-0.5,-1.53125,0.9375,1.0,-1.4375,0.53125
6.5624999022111306,336,0.0625,-0.53125,0.625,0.0,0.8125,-0.09375,-0.0625,0.21875,0.0625,-0.03125,-0.0625,-0.03125,0.59375,-1.59375,0.40625,0.1875,-2.15625,1.03125,1.03125,-2.15625,-0.125
6.582031151920092,337,-0.03125,-0.4375,0.5625,0.0625,0.84375,-0.09375,-0.0625,0.25,0.09375,-0.03125,-0.03125,-0.03125,0.53125,-1.5,0.3125,0.46875,-2.78125,1.0,1.0625,-2.75,-0.375
6.601562401629054,338,-0.0625,-0.34375,0.46875,0.0625,0.84375,-0.09375,-0.0625,0.28125,0.15625,0.0,-0.03125,-0.03125,0.1875,-1.34375,0.34375,0.40625,-3.25,1.0,1.0625,-3.28125,-0.25
6.621093651338016,339,-0.09375,-0.3125,0.375,0.03125,0.78125,-0.0625,-0.0625,0.28125,0.15625,0.0,-0.03125,0.0,0.0,-1.03125,0.40625,0.15625,-3.75,1.03125,1.125,-3.6875,0.0
6.640624901046977,340,-0.0625,-0.34375,0.3125,0.03125,0.84375,0.03125,-0.0625,0.3125,0.125,-0.03125,-0.0625,-0.03125,-0.3125,-0.90625,0.40625,-0.09375,-4.125,1.0625,1.15625,-4.09375,0.3125
6.660156150755939,341,-0.0625,-0.40625,0.21875,0.0,0.875,0.0625,-0.09375,0.375,0.0625,-0.0625,-0.03125,-0.03125,-0.625,-0.84375,0.4375,-0.3125,-4.4375,0.96875,1.125,-4.40625,0.53125
6.679687400464901,342,-0.09375,-0.375,0.1875,-0.125,0.90625,0.0625,-0.09375,0.4375,0.0625,-0.0625,-0.03125,-0.03125,-1.0625,-0.65625,0.4375,-0.5,-4.6875,0.84375,1.0,-4.625,0.78125
6.699218650173862,343,-0.1875,-0.40625,0.1875,-0.125,0.9375,0.09375,-0.09375,0.53125,0.125,-0.09375,0.0,-0.0625,-1.34375,-0.59375,0.4375,-0.6875,-4.8125,0.6875,0.8125,-4.75,0.96875
6.718749899882824,344,-0.1875,-0.40625,0.15625,-0.09375,0.90625,0.0625,-0.125,0.53125,0.15625,-0.03125,0.09375,0.0,-1.71875,-0.59375,0.375,-0.84375,-4.65625,0.53125,0.71875,-4.5625,1.09375
6.738281149591786,345,-0.1875,-0.34375,0.09375,-0.0625,0.90625,0.0,-0.0625,0.625,0.28125,-0.03125,0.15625,-0.03125,-1.0625,-0.28125,0.59375,-0.65625,-4.28125,0.4375,0.5625,-4.28125,0.90625
6.7578123993007475,346,-0.1875,-0.28125,-0.03125,-0.03125,0.90625,0.03125,-0.09375,0.71875,0.3125,-0.03125,0.21875,-0.03125,-0.875,-0.03125,0.40625,-0.25,-3.78125,0.3125,0.40625,-3.8125,0.5
6.777343649009709,347,-0.15625,-0.21875,-0.125,-0.09375,0.9375,0.0625,-0.125,0.8125,0.3125,-0.03125,0.28125,-0.0625,-0.46875,0.125,0.3125,0.21875,-2.9375,0.09375,0.21875,-3.0625,0.03125
6.796874898718671,348,-0.1875,-0.1875,-0.125,-0.15625,0.96875,0.15625,-0.125,0.90625,0.3125,-0.03125,0.375,-0.03125,0.40625,0.9375,0.53125,0.625,-1.8125,-0.03125,-0.03125,-1.90625,-0.46875
6.816406148427633,349,-0.28125,-0.09375,-0.15625,-0.25,0.875,0.21875,-0.1875,1.03125,0.25,-0.0625,0.4375,0.0,1.3125,0.71875,0.84375,0.21875,-0.5,-0.15625,-0.375,0.53125,-0.125
6.835937398136594,350,-0.34375,-0.09375,-0.09375,-0.375,0.71875,0.21875,-0.21875,1.1875,0.28125,-0.03125,0.5625,0.0,-0.4375,0.5625,0.9375,-1.71875,1.03125,-0.46875,-0.375,3.0,0.96875
6.855468647845556,351,-0.34375,0.0,0.0625,-0.53125,0.65625,0.15625,-0.25,1.3125,0.3125,0.0,0.75,0.03125,-0.375,1.25,0.625,-0.90625,1.1875,-0.34375,-0.34375,2.34375,0.625
6.874999897554518,352,-0.40625,0.09375,0.34375,-0.65625,0.40625,0.03125,-0.28125,1.4375,0.34375,0.0625,0.90625,0.03125,-0.75,0.71875,0.09375,-0.71875,1.34375,-0.15625,-0.21875,3.6875,0.4375
6.894531147263479,353,-0.4375,0.0,0.46875,-0.71875,0.25,-0.125,-0.34375,1.59375,0.40625,0.09375,1.0,0.0625,-0.53125,0.5625,-0.1875,-0.46875,1.625,0.03125,0.125,2.90625,0.21875
6.914062396972441,354,-0.1875,-0.1875,0.53125,-0.71875,-0.125,-0.09375,-0.375,1.78125,0.5,0.0625,1.125,0.125,-0.15625,0.5625,-0.03125,-0.28125,1.8125,0.1875,0.28125,2.25,0.09375
6.933593646681403,355,0.1875,-0.15625,0.5,-0.59375,-0.6875,0.0,-0.46875,2.0625,0.53125,0.125,1.53125,0.15625,-1.0625,0.75,0.5,-0.4375,1.90625,0.34375,0.125,2.5625,0.09375
6.9531248963903645,356,0.5625,0.15625,0.34375,-0.3125,-1.0625,0.03125,-0.59375,2.53125,0.65625,0.3125,2.40625,0.40625,-0.59375,1.03125,0.3125,-0.125,2.0,0.40625,0.21875,1.8125,-0.09375
6.972656146099326,357,0.65625,0.34375,0.15625,-0.15625,-1.625,0.15625,-0.90625,3.03125,0.6875,0.71875,3.40625,0.65625,0.65625,0.34375,-0.125,0.25,2.125,0.40625,-0.25,-0.1875,-0.0625
6.992187395808288,358,0.53125,0.21875,-0.0625,-0.09375,-2.34375,0.53125,-1.0625,3.53125,0.625,2.03125,4.21875,0.84375,1.03125,0.4375,-0.21875,0.0625,2.15625,0.3125,0.21875,-0.4375,0.0
7.0117186455172495,359,0.1875,0.21875,-0.28125,-0.28125,-3.03125,0.90625,-1.375,3.875,0.375,3.40625,6.09375,1.5625,1.875,0.875,-0.09375,0.0,2.03125,0.25,0.1875,0.0,0.0
7.031249895226211,360,-0.28125,0.15625,-0.375,-0.84375,-2.28125,1.375,-1.40625,3.8125,0.125,2.4375,7.25,2.3125,0.96875,0.875,0.15625,-0.0625,1.8125,0.15625,0.0625,-0.09375,0.0
7.050781144935173,361,-0.59375,-0.03125,-0.3125,-1.15625,-1.625,0.90625,-1.25,3.46875,-0.03125,2.09375,10.21875,2.1875,0.59375,1.09375,0.21875,0.0,1.46875,0.0625,0.03125,-0.09375,0.0
7.070312394644135,362,-0.75,-0.09375,-0.09375,-0.8125,-3.15625,-1.03125,0.21875,3.375,-0.21875,-0.03125,3.21875,-0.6875,0.59375,1.53125,0.0,0.0,1.03125,-0.03125,0.03125,-0.21875,0.0
7.089843644353096,363,-0.5625,-0.0625,0.1875,1.15625,-3.84375,-1.53125,1.5625,2.09375,-0.40625,-0.375,2.34375,-1.71875,0.4375,1.71875,-0.0625,0.0,0.71875,-0.0625,0.0625,-0.21875,-0.03125
7.109374894062058,364,-0.40625,0.0,0.21875,0.59375,-2.34375,-0.8125,1.9375,0.71875,-0.5625,-0.6875,0.625,-2.03125,0.0625,1.71875,0.0,0.0625,0.5,-0.03125,0.03125,-0.15625,0.0
7.12890614377102,365,-0.28125,0.125,0.0,-0.625,-2.4375,-0.46875,1.3125,-0.4375,-0.75,-0.84375,-0.4375,-1.21875,-0.03125,1.875,0.09375,0.0625,0.34375,0.0,0.03125,-0.0625,0.0
7.148437393479981,366,-0.15625,0.1875,-0.28125,-0.65625,-2.90625,-0.53125,0.28125,-1.4375,-1.0,-1.03125,-1.375,-0.0625,0.125,1.9375,0.09375,0.03125,0.21875,-0.0625,0.03125,0.0,0.0
7.167968643188943,367,-0.125,0.3125,-0.5625,-1.21875,-3.15625,-0.125,-0.5625,-2.46875,-1.25,-1.1875,-2.34375,0.875,0.0,1.8125,0.09375,-0.03125,0.1875,-0.0625,-0.03125,0.0,0.0
7.187499892897905,368,-0.28125,-0.15625,-0.71875,-1.25,-3.59375,0.15625,-0.9375,-3.3125,-1.46875,-1.40625,-3.15625,1.3125,-0.1875,1.625,0.0625,-0.0625,0.1875,-0.125,0.0,0.0,0.0
7.2070311426068665,369,-0.5625,-1.0,-0.5625,-1.1875,-2.9375,0.15625,-0.5625,-4.125,-1.59375,-1.53125,-4.0,1.03125,0.0625,1.5625,0.0,-0.03125,0.21875,-0.21875,0.0,-0.0625,-0.03125
7.226562392315828,370,-0.625,-0.5,-0.59375,-0.65625,-2.3125,-0.375,0.0,-4.875,-1.625,-1.65625,-4.84375,0.53125,0.15625,1.625,0.0,0.0,0.25,-0.3125,-0.03125,-0.03125,-0.03125
7.24609364202479,371,-0.6875,-0.21875,-0.5,-0.46875,-1.71875,-0.65625,0.4375,-5.4375,-1.5625,-1.65625,-5.4375,0.125,0.125,1.71875,0.0625,-0.03125,0.25,-0.375,-0.03125,-0.03125,-0.0625
7.265624891733752,372,-0.6875,-0.28125,-0.3125,0.1875,-1.34375,-0.96875,0.75,-5.78125,-1.4375,-1.53125,-5.875,-0.15625,0.09375,1.625,-0.09375,-0.03125,0.3125,-0.40625,-0.03125,-0.0625,-0.03125
7.285156141442713,373,-0.65625,-0.21875,-0.125,0.53125,-1.21875,-1.0625,1.125,-5.96875,-1.1875,-1.34375,-6.0625,-0.5625,0.09375,1.625,-0.0625,0.0,0.40625,-0.4375,0.0,-0.03125,-0.0625
7.304687391151675,374,-0.59375,0.0625,0.03125,0.625,-1.21875,-0.90625,1.5625,-5.9375,-1.0,-1.1875,-6.09375,-0.96875,0.125,1.5625,0.0,-0.0625,0.5,-0.46875,0.03125,-0.09375,-0.0625
7.324218640860637,375,-0.5625,0.125,0.15625,0.5625,-1.34375,-0.65625,1.8125,-5.78125,-0.90625,-1.0625,-6.0625,-1.21875,0.28125,1.59375,-0.03125,0.0,0.65625,-0.5,0.03125,-0.21875,-0.0625
7.343749890569598,376,-0.46875,0.1875,0.25,0.25,-1.1875,-0.59375,1.5,-5.65625,-0.96875,-1.125,-5.84375,-0.9375,0.28125,1.46875,-0.03125,0.0625,0.78125,-0.5,0.0625,-0.25,-0.0625
7.36328114027856,377,-0.15625,0.28125,0.3125,0.21875,-0.96875,-0.1875,0.78125,-5.1875,-1.0625,-1.125,-5.375,-0.25,0.4375,1.5625,-0.09375,0.03125,0.9375,-0.53125,0.09375,-0.28125,-0.09375
7.382812389987522,378,0.1875,0.28125,0.28125,0.6875,-0.90625,0.0625,0.09375,-4.40625,-0.9375,-1.0625,-4.46875,0.34375,0.53125,1.5625,-0.125,0.0625,1.0625,-0.5625,0.0625,-0.21875,-0.09375
7.4023436396964835,379,0.4375,0.4375,0.15625,0.5625,-0.78125,-0.28125,-0.4375,-3.5625,-0.6875,-0.71875,-3.53125,0.75,0.59375,1.46875,-0.1875,0.0625,1.15625,-0.59375,0.03125,-0.03125,-0.125
7.421874889405445,380,0.46875,0.4375,0.0625,-0.53125,0.53125,-0.125,-0.4375,-2.65625,-0.28125,-0.34375,-2.65625,0.65625,0.59375,1.46875,-0.28125,0.0625,1.28125,-0.5625,0.03125,0.15625,-0.125
7.441406139114407,381,0.125,0.3125,0.03125,-1.09375,2.625,-0.125,0.1875,-1.65625,0.28125,0.21875,-1.71875,-0.15625,0.65625,1.28125,-0.375,0.0625,1.46875,-0.53125,-0.03125,0.375,-0.15625
7.4609373888233685,382,-0.1875,0.15625,0.09375,0.34375,2.375,-0.15625,0.71875,-0.46875,0.65625,2.28125,3.125,-0.125,0.71875,1.03125,-0.375,0.09375,1.6875,-0.53125,0.0,0.59375,-0.21875
7.48046863853233,383,-0.21875,0.28125,0.09375,-0.25,1.5625,-0.25,-0.1875,0.625,0.53125,0.84375,4.90625,0.53125,0.8125,0.78125,-0.4375,0.03125,2.0,-0.5625,0.0,0.78125,-0.21875
7.499999888241292,384,-0.15625,1.0,-0.25,0.4375,1.96875,-0.78125,0.34375,1.125,0.28125,0.875,5.625,-0.125,0.71875,0.40625,-0.6875,-0.0625,2.375,-0.59375,-0.03125,1.09375,-0.1875
7.519531137950254,385,-0.4375,0.59375,-0.5625,0.78125,1.125,-0.59375,0.75,1.84375,0.3125,0.78125,3.84375,-0.46875,0.5625,-0.25,-0.84375,-0.09375,2.8125,-0.5625,-0.03125,1.40625,-0.25
7.539062387659215,386,-0.46875,0.84375,-0.875,1.0,0.59375,-0.40625,0.375,2.375,0.28125,0.625,3.125,-0.21875,0.28125,-1.28125,-0.9375,-0.1875,3.3125,-0.5625,-0.03125,2.125,-0.28125
7.558593637368177,387,-0.71875,0.25,-1.03125,0.40625,-0.21875,-0.21875,0.03125,2.8125,-0.0625,0.4375,2.3125,-0.28125,-0.15625,-2.40625,-1.0,-0.1875,3.84375,-0.625,-1.0625,3.65625,-0.21875
7.578124887077139,388,-1.125,-0.46875,-0.78125,-1.46875,-0.4375,0.4375,-1.125,2.65625,-0.5,-0.5,2.34375,0.125,0.15625,-3.125,-1.0625,0.125,4.1875,-0.71875,-3.21875,6.375,-0.28125
7.5976561367861,389,-1.375,-0.46875,-0.4375,-3.03125,0.0,0.375,-0.9375,2.34375,-0.5625,-0.75,0.59375,0.03125,0.71875,-2.53125,-1.5,0.21875,4.21875,-0.84375,-4.65625,9.25,-0.6875
7.617187386495062,390,-1.3125,-0.3125,-0.1875,-2.6875,1.0,-0.09375,-0.59375,1.875,-0.40625,-0.25,-0.0625,-0.0625,1.5,-1.5625,-1.03125,0.375,3.75,-0.75,-4.1875,14.28125,-1.0625
7.636718636204024,391,-1.15625,-0.28125,0.0625,-1.65625,1.125,-0.03125,-0.375,1.4375,-0.15625,-0.09375,-0.0625,-0.03125,2.21875,-2.6875,0.53125,1.03125,3.0625,-0.5,-1.34375,4.34375,-1.3125
7.6562498859129855,392,-0.84375,-0.34375,0.21875,-0.28125,1.09375,0.0625,-0.1875,1.03125,0.0,-0.03125,-0.0625,0.0,0.0,-3.1875,1.3125,1.78125,1.6875,-0.09375,-0.40625,2.0,-2.03125
7.675781135621947,393,-0.5625,-0.28125,0.28125,0.125,1.1875,0.03125,-0.15625,0.78125,0.0625,0.0,-0.0625,-0.03125,-0.6875,-3.0625,0.6875,1.15625,0.4375,0.15625,0.0,0.46875,-1.28125
7.695312385330909,394,-0.4375,-0.53125,0.375,0.03125,1.28125,0.125,-0.15625,0.625,0.0,-0.03125,-0.0625,-0.03125,-1.375,-3.8125,0.65625,0.0,-0.46875,0.3125,0.25,-0.25,-0.03125
7.714843635039871,395,-0.40625,-0.625,0.4375,-0.09375,1.4375,0.15625,-0.1875,0.5,-0.03125,-0.0625,-0.0625,-0.03125,-0.90625,-2.71875,1.0625,-1.25,-1.5,0.375,0.46875,-1.3125,1.3125
7.734374884748832,396,-0.4375,-0.4375,0.46875,-0.0625,1.5625,-0.125,-0.21875,0.46875,0.0,-0.0625,-0.0625,0.0,-0.59375,-2.15625,1.28125,-1.875,-2.375,0.40625,0.53125,-2.15625,2.0
7.753906134457794,397,-0.46875,-0.3125,0.5,0.1875,1.46875,-0.09375,-0.21875,0.46875,0.0625,-0.03125,-0.0625,-0.03125,-0.625,-2.15625,1.53125,-1.90625,-3.09375,0.40625,0.5625,-2.875,2.09375
7.773437384166756,398,-0.34375,-0.1875,0.53125,0.1875,1.40625,0.03125,-0.21875,0.5625,0.15625,-0.03125,-0.09375,-0.03125,-0.75,-2.28125,1.4375,-1.59375,-3.8125,0.40625,0.5625,-3.625,1.84375
7.792968633875717,399,-0.1875,-0.15625,0.5625,0.15625,1.34375,0.03125,-0.21875,0.65625,0.25,0.0625,-0.0625,0.0,-0.96875,-2.15625,1.34375,-1.3125,-4.28125,0.4375,0.5625,-4.1875,1.5625
7.812499883584679,400,0.0625,-0.0625,0.625,0.09375,1.25,0.125,-0.25,0.78125,0.34375,0.0625,-0.09375,0.03125,-1.5,-2.125,1.28125,-1.09375,-4.6875,0.4375,0.59375,-4.5625,1.375
7.832031133293641,401,0.25,0.03125,0.625,-0.125,1.28125,0.125,-0.25,0.75,0.375,0.0625,0.0,0.03125,-1.5,-2.09375,1.0,-0.96875,-5.0,0.4375,0.625,-4.90625,1.25
7.8515623830026025,402,0.40625,0.0,0.5625,-0.28125,1.53125,0.125,-0.1875,0.59375,0.375,0.0625,-0.03125,0.0,-1.375,-2.0,0.8125,-0.9375,-5.25,0.46875,0.65625,-5.125,1.25
7.871093632711564,403,0.46875,-0.0625,0.375,-0.21875,1.6875,0.1875,-0.1875,0.4375,0.3125,0.03125,-0.03125,0.0,-1.375,-1.59375,0.65625,-0.90625,-5.5625,0.5,0.6875,-5.4375,1.21875
7.890624882420526,404,0.4375,-0.125,0.1875,0.125,1.71875,0.1875,-0.15625,0.375,0.21875,0.03125,-0.03125,-0.03125,-1.5,-1.1875,0.40625,-0.875,-5.78125,0.5625,0.75,-5.84375,1.1875
7.9101561321294875,405,0.3125,-0.0625,-0.0625,0.25,1.75,0.1875,-0.09375,0.3125,0.15625,0.03125,-0.03125,0.0,-1.28125,-1.34375,0.40625,-0.75,-5.625,0.625,0.8125,-5.625,1.09375
7.929687381838449,406,0.0625,0.0,-0.21875,0.25,1.75,0.09375,-0.09375,0.375,0.125,0.0,-0.03125,-0.03125,-0.75,-1.125,0.40625,-0.65625,-5.5,0.625,0.8125,-5.4375,1.0
7.949218631547411,407,-0.1875,0.03125,-0.28125,0.1875,1.78125,0.09375,-0.0625,0.4375,0.125,0.0,-0.03125,-0.03125,-1.46875,-0.6875,0.1875,-0.28125,-5.3125,0.65625,0.84375,-5.25,0.59375
7.968749881256373,408,-0.4375,0.15625,-0.34375,0.28125,1.78125,0.1875,-0.09375,0.5,0.09375,0.0,-0.03125,-0.0625,-1.28125,0.09375,-0.03125,0.5,-4.96875,0.65625,0.8125,-5.0,-0.15625
7.988281130965334,409,-0.65625,0.09375,-0.34375,0.4375,1.6875,0.25,-0.125,0.59375,0.09375,-0.03125,-0.0625,-0.03125,-0.1875,0.21875,0.03125,1.34375,-4.3125,0.5625,0.6875,-4.5,-1.0625
8.007812380674297,410,-0.78125,0.0,-0.25,0.25,1.625,0.21875,-0.15625,0.71875,0.125,-0.03125,-0.0625,-0.0625,1.5,0.71875,0.46875,2.15625,-3.21875,0.3125,0.375,-3.46875,-1.875
8.027343630383259,411,-0.75,0.0,-0.125,-0.1875,1.625,0.15625,-0.15625,0.84375,0.1875,-0.03125,0.03125,-0.03125,2.65625,0.96875,0.96875,2.6875,-1.8125,0.09375,0.03125,-2.0625,-2.625
8.04687488009222,412,-0.71875,0.0,0.03125,-0.40625,1.46875,0.25,-0.1875,1.0,0.25,-0.03125,0.1875,-0.03125,2.5625,0.59375,0.71875,2.0625,-0.34375,0.0,-0.09375,-0.46875,-2.09375
8.066406129801182,413,-0.65625,0.125,0.15625,-0.59375,1.21875,0.1875,-0.3125,1.15625,0.1875,-0.03125,0.28125,-0.03125,1.875,0.40625,0.09375,1.09375,1.0,0.03125,-0.09375,1.0,-1.1875
8.085937379510144,414,-0.59375,0.3125,0.28125,-0.71875,1.03125,0.25,-0.375,1.375,0.1875,-0.03125,0.40625,-0.03125,0.59375,1.25,-0.125,0.25,1.84375,0.0625,0.15625,1.0,-0.375
8.105468629219105,415,-0.3125,0.15625,0.3125,-0.84375,0.78125,0.21875,-0.40625,1.625,0.1875,-0.03125,0.5625,-0.03125,-0.375,2.09375,0.3125,-2.53125,1.0625,-0.34375,-0.71875,2.78125,2.25
8.124999878928067,416,0.21875,0.21875,0.40625,-1.03125,0.5625,0.25,-0.375,1.875,0.28125,-0.03125,0.90625,0.03125,-2.6875,0.40625,1.0,-2.375,1.21875,-0.28125,-0.5625,2.625,2.03125
8.144531128637029,417,0.5625,0.4375,0.5625,-1.28125,0.21875,0.125,-0.4375,2.21875,0.375,0.03125,1.5,0.0625,-4.375,1.625,1.59375,-2.46875,1.125,-0.0625,-0.5,4.21875,1.9375
8.16406237834599,418,0.75,0.3125,0.5625,-1.21875,-0.34375,-0.28125,-0.5625,2.65625,0.4375,0.125,1.96875,0.125,-2.90625,1.78125,-0.09375,-2.28125,1.25,0.125,-0.5,3.8125,1.6875
8.183593628054952,419,0.71875,-0.4375,0.34375,-0.875,-1.125,-0.375,-0.65625,3.1875,0.4375,0.15625,2.4375,0.15625,-1.34375,1.09375,-0.75,-0.4375,1.5625,0.09375,-0.28125,3.625,0.21875
8.203124877763914,420,0.78125,0.1875,0.125,-0.25,-1.90625,-0.21875,-0.6875,3.75,0.375,0.34375,3.625,0.25,-0.15625,0.5,-0.125,-0.375,2.03125,0.21875,-0.5,1.09375,0.25
8.222656127472876,421,0.8125,0.46875,0.15625,0.0625,-2.9375,0.03125,-0.71875,4.125,0.3125,0.65625,4.71875,0.15625,0.71875,0.84375,0.125,0.3125,2.21875,0.3125,0.40625,2.6875,0.125
8.242187377181837,422,0.78125,0.40625,0.0,0.34375,-3.34375,0.4375,-1.0625,4.5625,0.15625,1.625,6.25,0.5625,2.59375,0.71875,-0.09375,0.375,2.28125,0.34375,0.5,0.59375,-0.03125
8.261718626890799,423,0.6875,0.28125,-0.03125,-0.59375,-1.9375,1.5,-1.0625,4.34375,-0.03125,1.03125,7.6875,1.0625,2.0625,0.71875,0.15625,0.125,2.28125,0.21875,0.15625,-0.0625,-0.03125
8.28124987659976,424,0.5625,-0.0625,-0.15625,-1.90625,-1.75,1.09375,-1.0625,3.65625,-0.21875,0.59375,8.5625,1.5,1.71875,0.71875,0.09375,0.0,2.0625,0.03125,0.03125,-0.03125,-0.03125
8.300781126308722,425,0.15625,0.0625,-0.3125,-0.65625,-2.625,-0.59375,-1.34375,2.78125,-0.5625,0.15625,5.8125,1.53125,0.875,0.625,-0.15625,0.0,1.875,-0.09375,-0.03125,-0.0625,-0.03125
8.320312376017684,426,-0.0625,0.03125,-0.375,-0.25,-2.96875,-0.78125,-1.375,1.3125,-0.625,-0.5,2.28125,1.3125,0.71875,0.71875,-0.125,0.0,1.65625,-0.1875,-0.03125,-0.09375,-0.03125
8.339843625726646,427,-0.0625,0.0,-0.375,-0.46875,-3.9375,0.5,-1.0,0.375,-0.65625,-0.5625,0.65625,1.0,0.71875,1.25,0.03125,0.0,1.28125,-0.21875,-0.09375,-0.15625,-0.03125
8.359374875435607,428,0.0,0.0,-0.28125,-0.40625,-3.25,0.125,-0.5625,-0.46875,-0.71875,-0.65625,-0.25,0.65625,0.8125,1.875,0.0,0.0,0.875,-0.25,-0.0625,-0.21875,-0.03125
8.37890612514457,429,-0.03125,-0.125,-0.09375,0.09375,-2.34375,-0.4375,-0.15625,-1.5,-0.6875,-0.6875,-1.4375,0.34375,-0.0625,1.71875,0.03125,0.0,0.59375,-0.21875,-0.03125,-0.1875,0.0
8.39843737485353,430,-0.09375,-0.15625,0.0,-0.125,-2.1875,-0.4375,0.3125,-2.5,-0.71875,-0.71875,-2.5,0.03125,-0.59375,1.78125,0.09375,0.03125,0.46875,-0.21875,0.0,-0.125,0.0
8.417968624562493,431,-0.125,0.09375,-0.15625,-0.3125,-2.28125,-0.40625,0.65625,-3.34375,-0.6875,-0.78125,-3.34375,-0.1875,-0.625,1.6875,0.0625,0.0,0.375,-0.21875,0.0,-0.09375,0.0
8.437499874271454,432,-0.15625,-0.09375,-0.3125,-0.6875,-2.34375,-0.28125,0.8125,-4.03125,-0.6875,-0.78125,-4.09375,-0.28125,-0.46875,1.625,-0.0625,-0.03125,0.34375,-0.25,-0.03125,-0.125,0.0
8.457031123980416,433,-0.28125,-0.34375,-0.34375,-0.6875,-1.6875,-0.125,0.78125,-4.625,-0.71875,-0.875,-4.6875,-0.15625,-0.15625,1.5625,-0.15625,-0.03125,0.3125,-0.28125,-0.03125,-0.0625,-0.03125
8.476562373689378,434,-0.3125,-0.1875,-0.3125,-0.40625,-1.78125,-0.28125,0.65625,-5.125,-0.8125,-0.90625,-5.1875,0.03125,0.15625,1.5,-0.21875,0.0625,0.34375,-0.3125,-0.03125,-0.0625,-0.0625
8.49609362339834,435,-0.21875,-0.25,-0.28125,-0.21875,-1.5,-0.34375,0.5,-5.53125,-0.84375,-0.9375,-5.5625,0.21875,0.40625,1.59375,-0.15625,0.03125,0.34375,-0.3125,0.0,-0.09375,-0.0625
8.515624873107301,436,-0.09375,-0.28125,-0.1875,-0.0625,-1.15625,-0.40625,0.5625,-5.75,-0.8125,-0.90625,-5.8125,0.1875,0.375,1.625,-0.125,0.0625,0.34375,-0.34375,-0.03125,-0.15625,-0.0625
8.535156122816263,437,-0.0625,-0.15625,-0.125,0.0,-1.09375,-0.46875,0.90625,-5.78125,-0.71875,-0.84375,-5.875,-0.15625,0.40625,1.625,-0.0625,0.0625,0.40625,-0.375,0.0,-0.125,-0.0625
8.554687372525224,438,-0.0625,-0.0625,-0.03125,0.125,-1.0625,-0.46875,1.40625,-5.75,-0.625,-0.75,-5.875,-0.65625,0.4375,1.65625,-0.0625,0.0625,0.4375,-0.4375,-0.03125,-0.15625,-0.09375
8.574218622234186,439,0.03125,0.09375,0.0625,0.90625,-1.09375,-0.71875,1.875,-5.65625,-0.5625,-0.71875,-5.9375,-1.1875,0.5625,1.75,-0.09375,0.09375,0.5,-0.5,-0.03125,-0.1875,-0.09375
8.593749871943148,440,0.125,0.25,0.09375,1.6875,-0.90625,-0.96875,2.1875,-5.28125,-0.5,-0.71875,-5.65625,-1.5625,0.5625,1.71875,-0.1875,0.125,0.65625,-0.53125,0.03125,-0.21875,-0.125
8.61328112165211,441,0.28125,0.25,0.1875,2.65625,-0.40625,-0.78125,2.5625,-4.65625,-0.3125,-0.53125,-5.09375,-2.0625,0.59375,1.46875,-0.25,0.21875,0.8125,-0.53125,0.03125,-0.25,-0.125
8.632812371361071,442,0.375,0.28125,0.21875,3.375,-0.21875,-0.375,2.8125,-3.9375,0.0625,-0.1875,-4.34375,-2.375,0.53125,1.25,-0.28125,0.21875,1.0,-0.46875,0.0,-0.1875,-0.1875
8.652343621070033,443,0.46875,0.4375,0.25,3.71875,-0.03125,-0.21875,2.78125,-3.125,0.5625,0.28125,-3.59375,-2.5,0.5625,1.125,-0.21875,0.1875,1.1875,-0.5,0.0625,-0.0625,-0.21875
8.671874870778995,444,0.375,0.46875,0.21875,2.53125,1.5,0.21875,2.15625,-2.0,1.03125,0.84375,-2.46875,-2.03125,0.59375,1.25,-0.21875,0.15625,1.375,-0.5,0.0625,0.0625,-0.21875
8.691406120487956,445,0.1875,0.4375,0.1875,0.8125,1.625,0.1875,0.46875,-0.78125,1.0625,0.75,1.09375,-0.28125,0.71875,1.25,-0.28125,0.125,1.5,-0.5,0.0625,0.21875,-0.21875
8.710937370196918,446,0.125,0.46875,0.09375,-1.8125,0.71875,0.34375,-2.53125,0.34375,0.28125,0.65625,5.90625,2.625,0.8125,1.1875,-0.40625,0.03125,1.71875,-0.53125,0.0625,0.46875,-0.1875
8.73046861990588,447,-0.0625,0.625,-0.15625,-1.84375,2.46875,-0.84375,-1.375,0.84375,0.3125,0.125,4.53125,1.40625,0.90625,1.03125,-0.46875,-0.03125,1.96875,-0.53125,0.03125,0.875,-0.1875
8.749999869614841,448,-0.375,0.125,-0.25,-1.5,1.5,-0.8125,-0.25,1.375,0.09375,-0.21875,4.625,0.25,0.96875,0.28125,-0.59375,0.0,2.28125,-0.5,0.0,1.25,-0.28125
8.769531119323803,449,-0.53125,-0.3125,-0.15625,-0.46875,0.84375,-0.03125,-0.1875,1.84375,-0.0625,-0.4375,3.09375,0.0625,0.96875,-0.5,-0.65625,0.0625,2.71875,-0.4375,-0.09375,1.75,-0.375
8.789062369032765,450,-0.53125,0.15625,-0.375,-0.125,0.09375,-0.09375,-0.5,2.28125,-0.1875,-0.6875,2.3125,0.15625,0.4375,-1.59375,-0.65625,0.125,3.1875,-0.375,-0.34375,2.8125,-0.625
8.808593618741726,451,-0.84375,0.0625,-0.625,-1.0,-0.15625,0.125,-0.875,2.5,-0.34375,-0.34375,1.875,0.3125,-0.0625,-2.71875,-0.5,0.40625,3.71875,-0.375,-1.15625,3.71875,-0.71875
8.828124868450688,452,-1.4375,-0.5,-0.375,-2.21875,0.0,0.125,-1.0,2.28125,-0.4375,-0.375,1.96875,0.5,0.28125,-3.25,-0.53125,1.0,4.03125,-0.375,-2.90625,5.65625,-0.96875
8.84765611815965,453,-1.5625,-0.40625,-0.03125,-2.125,0.40625,-0.125,-0.59375,2.09375,-0.375,-0.3125,0.1875,0.0,1.1875,-2.59375,-1.15625,1.21875,4.0,-0.34375,-4.15625,8.0,-1.5625
8.867187367868612,454,-1.0625,-0.03125,0.125,-1.15625,0.78125,-0.1875,-0.375,1.75,-0.25,-0.3125,0.0625,0.0,2.0625,-1.28125,-1.15625,1.25,3.4375,-0.21875,-3.28125,13.125,-1.84375
8.886718617577573,455,-0.46875,0.15625,0.09375,-0.21875,0.78125,0.0,-0.3125,1.4375,-0.1875,-0.1875,-0.03125,0.0,2.21875,-1.6875,-0.15625,1.21875,3.0,-0.09375,-0.53125,3.65625,-1.53125
8.906249867286535,456,-0.09375,-0.09375,0.0,0.15625,0.90625,0.0,-0.25,1.1875,-0.125,-0.125,-0.0625,-0.03125,0.15625,-3.40625,1.4375,0.875,2.1875,0.09375,-0.09375,3.1875,-1.0625
8.925781116995497,457,0.0625,-0.1875,0.0,-0.0625,1.03125,-0.09375,-0.25,0.96875,-0.09375,-0.125,-0.0625,-0.03125,-1.78125,-3.65625,1.09375,0.375,1.0,0.3125,0.21875,1.1875,-0.5
8.945312366704458,458,0.0,-0.28125,0.0625,-0.1875,1.09375,-0.09375,-0.21875,0.84375,-0.0625,-0.0625,-0.0625,-0.03125,-0.53125,-2.5,0.46875,-0.28125,-0.0625,0.5,0.46875,0.0,0.21875
8.96484361641342,459,-0.125,-0.34375,0.15625,-0.25,1.1875,0.0,-0.1875,0.78125,0.0,-0.03125,-0.0625,-0.03125,0.25,-2.21875,0.53125,-0.8125,-0.875,0.59375,0.625,-0.71875,0.8125
8.984374866122382,460,-0.25,-0.375,0.28125,-0.25,1.3125,-0.03125,-0.15625,0.78125,0.03125,0.0,-0.03125,-0.03125,0.09375,-1.875,0.96875,-1.03125,-1.6875,0.65625,0.75,-1.5,1.09375
9.003906115831343,461,-0.125,-0.25,0.34375,-0.1875,1.34375,-0.09375,-0.1875,0.75,0.09375,0.0,-0.03125,0.0,-0.0625,-1.96875,1.03125,-0.96875,-2.40625,0.6875,0.8125,-2.3125,1.0625
9.023437365540305,462,0.03125,-0.125,0.34375,-0.09375,1.3125,-0.03125,-0.21875,0.75,0.15625,0.0,-0.03125,0.0,-0.0625,-2.1875,1.0,-0.8125,-3.03125,0.75,0.875,-2.9375,0.9375
9.042968615249267,463,0.1875,-0.03125,0.3125,-0.15625,1.28125,0.0,-0.25,0.75,0.1875,0.03125,-0.0625,0.0,-0.1875,-2.125,0.9375,-0.6875,-3.5625,0.84375,0.96875,-3.46875,0.84375
9.062499864958228,464,0.3125,-0.09375,0.25,-0.21875,1.3125,0.03125,-0.25,0.71875,0.1875,-0.03125,0.03125,-0.03125,-0.4375,-2.0,0.90625,-0.59375,-4.03125,0.96875,1.0625,-3.96875,0.78125
9.08203111466719,465,0.40625,-0.09375,0.1875,-0.15625,1.46875,0.15625,-0.21875,0.625,0.15625,-0.03125,0.0,0.0,-0.34375,-1.8125,0.84375,-0.5,-4.4375,1.09375,1.21875,-4.375,0.6875
9.101562364376152,466,0.4375,-0.0625,0.09375,-0.0625,1.53125,0.1875,-0.1875,0.5625,0.15625,-0.03125,0.03125,-0.03125,-0.21875,-1.75,0.78125,-0.375,-4.71875,1.1875,1.375,-4.65625,0.5625
9.121093614085114,467,0.40625,-0.0625,0.0,-0.0625,1.625,0.125,-0.15625,0.4375,0.1875,-0.03125,0.0,0.0,-0.3125,-1.5,0.71875,-0.3125,-5.0,1.25,1.40625,-4.9375,0.53125
9.140624863794075,468,0.3125,-0.03125,-0.09375,0.03125,1.75,0.15625,-0.09375,0.375,0.21875,0.0,0.0,0.0,-0.59375,-1.28125,0.65625,-0.3125,-5.1875,1.3125,1.4375,-5.21875,0.5
9.160156113503037,469,0.25,-0.0625,-0.21875,0.3125,1.6875,0.25,-0.09375,0.34375,0.1875,0.0,0.0,0.0,-0.625,-1.28125,0.53125,-0.15625,-5.15625,1.3125,1.5,-5.1875,0.375
9.179687363211999,470,0.21875,-0.03125,-0.28125,0.65625,1.46875,0.28125,-0.125,0.40625,0.15625,-0.03125,0.0,-0.03125,-0.25,-0.96875,0.40625,0.0,-5.125,1.34375,1.5,-5.09375,0.21875
9.19921861292096,471,0.1875,-0.03125,-0.28125,0.5,1.34375,0.1875,-0.09375,0.5,0.15625,-0.03125,0.03125,-0.03125,-0.625,-0.6875,0.1875,0.25,-5.0,1.28125,1.4375,-5.0,0.0
9.218749862629922,472,-0.0625,-0.03125,-0.28125,0.25,1.40625,0.1875,-0.15625,0.53125,0.09375,-0.0625,0.03125,-0.03125,-1.0625,-0.09375,0.1875,0.5625,-4.78125,1.21875,1.34375,-4.8125,-0.34375
9.238281112338884,473,-0.375,-0.0625,-0.21875,-0.0625,1.625,0.15625,-0.1875,0.53125,0.125,-0.0625,0.0625,0.0,-0.46875,0.03125,0.34375,0.8125,-4.3125,1.03125,1.125,-4.4375,-0.59375
9.257812362047845,474,-0.5,0.0,-0.15625,-0.25,1.8125,0.125,-0.1875,0.5,0.125,-0.03125,0.0625,0.0,0.34375,0.21875,0.4375,0.875,-3.59375,0.6875,0.78125,-3.6875,-0.6875
9.277343611756807,475,-0.4375,0.125,-0.125,-0.09375,1.75,0.15625,-0.125,0.59375,0.15625,-0.03125,0.0625,0.0,0.40625,0.71875,0.59375,1.125,-2.5625,0.28125,0.34375,-2.71875,-0.96875
9.296874861465769,476,-0.15625,0.125,-0.125,0.09375,1.53125,0.25,-0.0625,0.78125,0.15625,-0.0625,0.1875,-0.03125,-0.0625,0.75,0.40625,0.875,-1.34375,-0.09375,-0.125,-1.5,-0.84375
9.31640611117473,477,-0.0625,0.0,-0.125,-0.03125,1.21875,0.21875,-0.1875,0.96875,0.09375,-0.09375,0.3125,-0.03125,0.0,0.84375,0.125,-0.03125,-0.125,-0.53125,-0.53125,-0.15625,0.0
9.335937360883692,478,-0.125,-0.09375,-0.1875,-0.21875,0.90625,0.15625,-0.21875,1.21875,0.125,-0.0625,0.40625,-0.03125,-0.15625,0.78125,-0.21875,0.0625,1.0625,-0.5,-1.34375,3.03125,-0.3125
9.355468610592654,479,0.03125,-0.125,-0.125,-0.40625,0.75,0.34375,-0.15625,1.40625,0.21875,-0.09375,0.59375,-0.03125,0.375,0.6875,0.15625,-0.40625,1.375,-0.6875,-0.875,2.15625,0.28125
9.374999860301616,480,0.25,0.1875,0.09375,-0.75,0.71875,0.53125,-0.1875,1.65625,0.34375,-0.03125,0.8125,0.0,-0.53125,0.71875,0.96875,-0.96875,1.34375,-0.625,-0.875,2.84375,0.78125
9.394531110010577,481,0.5,0.28125,0.4375,-1.09375,0.75,0.28125,-0.34375,1.8125,0.40625,0.0625,0.96875,0.03125,-1.5,1.40625,1.125,-1.71875,1.375,-0.3125,-0.75,3.1875,1.4375
9.414062359719539,482,0.5625,0.09375,0.625,-1.09375,0.40625,-0.0625,-0.5,2.03125,0.46875,0.0625,1.1875,0.09375,-2.09375,1.25,0.03125,-1.90625,1.46875,0.0,-0.71875,3.65625,1.5
9.4335936094285,483,0.53125,-0.46875,0.5,-0.90625,-0.40625,-0.28125,-0.5625,2.375,0.5,0.125,1.5,0.09375,-1.78125,0.71875,-0.4375,-0.75,1.65625,0.0625,-0.90625,2.96875,0.40625
9.453124859137462,484,0.9375,-0.1875,0.25,-0.46875,-1.40625,-0.28125,-0.65625,2.84375,0.53125,0.21875,1.90625,0.15625,-0.75,0.3125,-0.21875,-0.1875,2.0,0.09375,-0.25,1.9375,0.125
9.472656108846424,485,1.25,0.34375,0.125,0.3125,-2.3125,-0.1875,-0.71875,3.375,0.59375,0.5625,3.21875,0.28125,0.59375,0.71875,-0.1875,0.0,2.15625,0.15625,-0.4375,0.375,0.15625
9.492187358555386,486,1.21875,0.3125,-0.03125,0.90625,-2.75,-0.0625,-0.75,3.8125,0.5625,1.09375,4.375,0.28125,2.53125,0.8125,-0.21875,-0.09375,2.15625,0.03125,-0.40625,-0.1875,-0.0625
9.511718608264347,487,0.90625,0.1875,-0.15625,0.6875,-2.96875,0.375,-0.96875,4.03125,0.4375,2.125,6.125,0.8125,1.875,0.84375,0.21875,-0.09375,1.875,-0.09375,-0.25,0.0625,-0.0625
9.53124985797331,488,0.5625,0.0,-0.1875,-0.1875,-1.6875,1.40625,-1.0,4.0625,0.25,1.40625,7.5,1.34375,0.65625,0.84375,-0.0625,-0.03125,1.53125,-0.15625,-0.15625,-0.03125,-0.03125
9.55078110768227,489,0.0625,0.0,-0.125,-1.46875,-1.34375,0.96875,-0.875,3.71875,0.125,1.21875,7.96875,1.59375,0.0625,0.78125,-0.25,0.0,1.40625,-0.125,-0.0625,-0.0625,-0.03125
9.570312357391233,490,-0.125,-0.125,0.03125,-0.375,-2.8125,-0.71875,-0.6875,3.03125,-0.125,1.1875,9.0625,1.59375,0.125,0.84375,-0.28125,0.09375,1.28125,-0.0625,0.0,-0.0625,-0.03125
9.589843607100194,491,-0.125,0.0,0.0,1.09375,-3.28125,-0.875,0.3125,1.59375,-0.28125,-0.25,1.9375,-0.46875,0.9375,0.96875,-0.03125,0.125,1.25,-0.0625,-0.09375,-0.03125,-0.03125
9.609374856809156,492,0.03125,0.125,-0.15625,0.15625,-3.125,-0.125,0.6875,0.40625,-0.28125,-0.3125,0.28125,-0.75,1.125,1.1875,0.21875,0.09375,1.09375,-0.15625,-0.15625,-0.03125,-0.0625
9.628906106518118,493,0.125,0.09375,-0.3125,0.4375,-2.53125,-0.3125,0.53125,-0.34375,-0.28125,-0.34375,-0.3125,-0.5,1.125,1.4375,0.09375,0.09375,0.875,-0.28125,-0.125,-0.15625,-0.09375
9.64843735622708,494,0.0625,-0.125,-0.34375,0.40625,-2.25,-0.5,0.1875,-1.25,-0.3125,-0.34375,-1.15625,-0.0625,0.65625,1.5625,-0.0625,0.0625,0.6875,-0.3125,-0.09375,-0.1875,-0.0625
9.667968605936041,495,-0.09375,-0.15625,-0.34375,-0.0625,-2.25,-0.21875,-0.0625,-2.15625,-0.40625,-0.40625,-2.125,0.3125,0.0,1.53125,-0.09375,0.0625,0.53125,-0.3125,0.0,-0.15625,-0.03125
9.687499855645003,496,-0.1875,-0.15625,-0.34375,-0.59375,-3.03125,0.125,-0.09375,-3.0,-0.53125,-0.59375,-2.9375,0.40625,-0.3125,1.46875,-0.125,0.09375,0.40625,-0.25,-0.03125,-0.125,-0.0625
9.707031105353964,497,-0.1875,0.0,-0.375,-0.5625,-2.96875,0.1875,0.09375,-3.6875,-0.6875,-0.71875,-3.65625,0.34375,-0.15625,1.46875,-0.21875,0.0,0.28125,-0.21875,0.0,-0.0625,-0.03125
9.726562355062926,498,-0.1875,-0.03125,-0.46875,-0.46875,-2.65625,-0.03125,0.34375,-4.34375,-0.75,-0.84375,-4.3125,0.125,0.0,1.625,-0.1875,0.03125,0.1875,-0.21875,-0.03125,-0.03125,-0.03125
9.746093604771888,499,-0.25,-0.375,-0.3125,-0.28125,-1.96875,-0.1875,0.59375,-4.90625,-0.78125,-0.90625,-4.9375,-0.03125,0.0625,1.71875,-0.125,0.0625,0.15625,-0.28125,-0.0625,-0.03125,-0.03125
9.76562485448085,500,-0.25,-0.15625,-0.15625,0.21875,-1.46875,-0.5,0.75,-5.375,-0.8125,-0.875,-5.40625,-0.15625,0.0,1.625,-0.09375,0.0625,0.15625,-0.3125,-0.03125,-0.0625,-0.03125
9.785156104189811,501,-0.1875,-0.09375,-0.0625,0.125,-1.0,-0.53125,0.96875,-5.65625,-0.75,-0.84375,-5.78125,-0.3125,0.09375,1.625,-0.0625,0.0625,0.15625,-0.375,-0.0625,-0.09375,-0.0625
9.804687353898773,502,-0.09375,-0.09375,-0.03125,0.15625,-0.84375,-0.53125,1.3125,-5.75,-0.6875,-0.78125,-5.90625,-0.65625,0.0625,1.5625,-0.125,0.03125,0.21875,-0.4375,-0.0625,-0.125,-0.0625
9.824218603607735,503,0.03125,-0.0625,0.0,0.125,-0.875,-0.5625,1.65625,-5.5625,-0.59375,-0.78125,-5.78125,-1.0625,0.21875,1.46875,-0.125,0.0625,0.25,-0.5,-0.0625,-0.15625,-0.0625
9.843749853316696,504,0.03125,0.03125,-0.03125,0.28125,-0.78125,-0.90625,1.96875,-5.25,-0.53125,-0.71875,-5.5,-1.40625,0.375,1.46875,-0.125,0.0625,0.375,-0.5,-0.03125,-0.1875,-0.09375
9.863281103025658,505,-0.0625,-0.03125,0.0625,1.34375,-0.6875,-0.65625,2.375,-5.03125,-0.3125,-0.53125,-5.3125,-1.84375,0.59375,1.5625,-0.09375,0.0625,0.46875,-0.5,0.0,-0.21875,-0.09375
9.88281235273462,506,-0.0625,0.09375,0.125,2.78125,-1.03125,-0.53125,2.71875,-4.6875,0.0625,-0.1875,-5.0625,-2.21875,0.53125,1.46875,-0.125,0.0625,0.59375,-0.5,0.03125,-0.25,-0.09375
9.902343602443581,507,-0.0625,0.3125,0.21875,3.09375,-0.53125,-0.40625,2.75,-4.25,0.4375,0.21875,-4.65625,-2.34375,0.4375,1.4375,-0.125,0.0625,0.71875,-0.5,0.03125,-0.25,-0.09375
9.921874852152543,508,0.0,0.34375,0.25,2.78125,0.4375,-0.25,2.25,-3.59375,0.75,0.625,-4.0,-1.96875,0.4375,1.46875,-0.28125,0.0,0.875,-0.5,0.0625,-0.25,-0.09375
9.941406101861505,509,0.0625,0.40625,0.25,1.65625,1.0625,0.125,1.15625,-2.6875,0.875,0.8125,-3.0,-0.9375,0.4375,1.3125,-0.375,0.0,1.03125,-0.53125,0.0625,-0.1875,-0.09375
9.960937351570466,510,0.1875,0.5,0.1875,0.34375,1.53125,0.3125,-0.21875,-1.59375,0.78125,0.78125,-1.71875,0.34375,0.375,1.09375,-0.375,0.03125,1.21875,-0.53125,0.0625,-0.03125,-0.125
9.980468601279428,511,0.25,0.46875,0.15625,-1.3125,1.65625,-0.125,-1.34375,-0.25,0.53125,0.03125,1.15625,0.875,0.59375,1.09375,-0.40625,0.0625,1.40625,-0.5,0.03125,0.15625,-0.125
9.99999985098839,512,0.28125,0.21875,0.125,-1.5,0.90625,-0.0625,-1.5,0.59375,0.28125,0.25,3.5,1.25,0.75,1.1875,-0.4375,0.03125,1.53125,-0.5,-0.03125,0.375,-0.125
10.019531100697352,513,0.21875,0.46875,-0.125,-0.90625,1.9375,-0.75,-0.5,0.96875,0.34375,0.03125,3.84375,0.5,0.875,1.09375,-0.375,0.03125,1.65625,-0.53125,-0.03125,0.65625,-0.125
10.039062350406313,514,-0.25,0.21875,-0.375,0.0625,1.78125,-0.75,0.46875,1.375,0.0625,-0.1875,3.9375,-0.375,0.65625,0.71875,-0.4375,0.0,1.8125,-0.53125,0.03125,0.84375,-0.15625
10.058593600115275,515,-0.5625,-0.28125,-0.3125,0.5625,1.0,-0.03125,0.78125,1.71875,-0.1875,-0.375,3.40625,-0.6875,0.5625,0.03125,-0.5625,0.0625,2.0625,-0.46875,0.03125,1.09375,-0.1875
10.078124849824237,516,-0.625,-0.125,-0.375,0.71875,0.34375,0.25,-0.1875,1.875,-0.3125,-0.90625,2.15625,0.0,0.4375,-0.8125,-0.71875,0.0625,2.4375,-0.5,0.03125,1.5,-0.21875
10.097656099533198,517,-0.59375,0.0,-0.5,0.0625,0.15625,0.25,-0.5625,2.09375,-0.59375,-0.3125,2.84375,0.25,0.125,-1.75,-0.6875,0.0,2.90625,-0.59375,-0.46875,2.59375,-0.21875
10.11718734924216,518,-0.90625,-0.21875,-0.5,-1.71875,0.03125,0.1875,-1.21875,2.03125,-0.59375,-0.75,1.59375,0.5625,-0.03125,-2.53125,-0.34375,0.09375,3.375,-0.6875,-1.0,3.40625,-0.125
10.136718598951122,519,-1.125,-0.40625,-0.28125,-2.53125,0.34375,-0.125,-0.9375,1.8125,-0.5,-0.75,0.46875,0.125,0.53125,-2.875,-0.25,0.625,3.78125,-0.5625,-3.46875,4.34375,-0.5
10.156249848660083,520,-0.78125,-0.15625,-0.03125,-1.6875,0.71875,-0.15625,-0.34375,1.65625,-0.25,-0.375,0.0,0.0,1.25,-2.5625,-1.0625,1.09375,3.71875,-0.375,-3.375,7.65625,-1.34375
10.175781098369045,521,-0.3125,0.09375,0.0,-0.46875,0.96875,-0.0625,-0.1875,1.28125,-0.0625,-0.09375,-0.03125,0.0,1.625,-1.25,-1.1875,1.25,3.3125,-0.21875,-2.90625,11.71875,-1.625
10.195312348078007,522,0.15625,-0.125,-0.0625,0.59375,0.90625,0.03125,-0.125,0.96875,0.0,-0.03125,-0.0625,-0.03125,2.3125,-2.03125,-0.40625,1.46875,2.90625,-0.03125,-0.28125,7.90625,-1.28125
10.214843597786968,523,0.53125,-0.28125,-0.09375,0.65625,0.90625,0.0,-0.15625,0.8125,-0.03125,-0.03125,-0.0625,-0.03125,0.53125,-3.0625,1.375,0.4375,2.125,0.25,0.09375,2.78125,-0.625
10.23437484749593,524,0.46875,-0.4375,0.0,0.1875,1.0,-0.03125,-0.21875,0.6875,-0.0625,-0.0625,-0.0625,-0.03125,-1.40625,-3.5,1.3125,-0.28125,0.78125,0.46875,0.40625,0.84375,0.1875
10.253906097204892,525,0.09375,-0.4375,0.1875,-0.15625,1.0625,0.0,-0.21875,0.625,0.0,-0.0625,-0.0625,-0.03125,-0.8125,-2.84375,0.90625,-0.8125,-0.25,0.59375,0.59375,-0.15625,0.75
10.273437346913854,526,-0.1875,-0.34375,0.375,-0.21875,1.09375,0.03125,-0.21875,0.625,0.0,0.0,-0.0625,0.0,-0.1875,-2.28125,0.8125,-1.03125,-1.125,0.65625,0.71875,-0.9375,1.0625
10.292968596622815,527,-0.25,-0.28125,0.4375,-0.125,1.0625,-0.09375,-0.1875,0.65625,0.09375,-0.03125,-0.09375,0.0,0.0625,-2.1875,0.84375,-0.90625,-1.9375,0.6875,0.78125,-1.78125,0.96875
10.312499846331777,528,-0.03125,-0.1875,0.5,-0.15625,1.0625,-0.03125,-0.21875,0.6875,0.15625,0.0,-0.0625,0.0,-0.15625,-2.28125,0.84375,-0.53125,-2.65625,0.75,0.84375,-2.5625,0.625
10.332031096040739,529,0.1875,-0.15625,0.4375,-0.21875,1.09375,0.125,-0.1875,0.71875,0.15625,0.03125,-0.0625,0.0,-0.1875,-2.34375,0.71875,-0.28125,-3.28125,0.8125,0.90625,-3.21875,0.40625
10.3515623457497,530,0.40625,-0.15625,0.34375,-0.21875,1.03125,0.1875,-0.25,0.75,0.1875,0.0,-0.0625,0.0,-0.3125,-2.1875,0.5,-0.1875,-3.84375,0.84375,0.96875,-3.75,0.3125
10.371093595458662,531,0.5,-0.125,0.21875,-0.28125,1.0625,0.15625,-0.25,0.6875,0.25,-0.125,-0.03125,-0.03125,-0.46875,-2.21875,0.46875,-0.09375,-4.3125,0.84375,0.96875,-4.25,0.3125
10.390624845167624,532,0.5625,-0.15625,0.125,-0.375,1.1875,0.125,-0.25,0.5625,0.21875,-0.125,-0.03125,0.0,-0.59375,-2.03125,0.4375,-0.125,-4.71875,0.8125,0.90625,-4.6875,0.34375
10.410156094876585,533,0.53125,-0.125,0.0,-0.3125,1.28125,0.125,-0.1875,0.4375,0.28125,-0.0625,-0.03125,0.0,-0.90625,-1.84375,0.4375,-0.25,-5.0625,0.71875,0.875,-5.03125,0.5
10.429687344585547,534,0.4375,-0.125,-0.125,0.0,1.34375,0.15625,-0.15625,0.3125,0.3125,-0.03125,-0.03125,0.0,-1.09375,-1.53125,0.34375,-0.375,-5.375,0.625,0.78125,-5.3125,0.59375
10.449218594294509,535,0.3125,-0.09375,-0.21875,0.125,1.46875,0.125,-0.125,0.28125,0.3125,0.0625,-0.0625,0.0,-1.1875,-1.125,0.125,-0.28125,-5.6875,0.5625,0.75,-5.65625,0.59375
10.46874984400347,536,0.1875,-0.125,-0.28125,0.375,1.46875,0.25,-0.09375,0.28125,0.28125,0.0,-0.03125,-0.03125,-1.71875,-0.90625,-0.0625,-0.375,-5.625,0.625,0.78125,-5.59375,0.625
10.488281093712432,537,0.125,-0.125,-0.25,0.4375,1.3125,0.25,-0.09375,0.34375,0.28125,-0.03125,0.0,-0.03125,-1.34375,-0.375,-0.21875,-0.25,-5.28125,0.5625,0.75,-5.3125,0.53125
10.507812343421394,538,-0.03125,-0.15625,-0.25,0.40625,1.15625,0.25,-0.15625,0.4375,0.28125,-0.125,0.03125,0.0,-0.53125,-0.0625,-0.09375,-0.03125,-4.84375,0.40625,0.5625,-4.875,0.28125
10.527343593130356,539,-0.15625,-0.125,-0.1875,0.125,1.1875,0.21875,-0.15625,0.59375,0.28125,-0.15625,0.0625,0.0,-1.125,-0.4375,-0.21875,0.125,-4.28125,0.09375,0.25,-4.3125,0.125
10.546874842839317,540,-0.25,0.0,-0.25,-0.125,1.25,0.1875,-0.09375,0.59375,0.375,-0.15625,0.0625,0.03125,-1.125,0.03125,0.125,0.125,-3.46875,-0.3125,-0.21875,-3.53125,0.09375
10.566406092548279,541,-0.21875,0.15625,-0.21875,-0.125,1.40625,0.21875,-0.0625,0.59375,0.46875,-0.0625,0.0625,0.03125,0.65625,1.46875,0.4375,0.34375,-2.3125,-0.625,-0.65625,-2.46875,-0.21875
10.58593734225724,542,-0.21875,0.1875,-0.1875,-0.03125,1.4375,0.21875,-0.21875,0.59375,0.5,0.0625,0.15625,0.09375,1.0,1.3125,0.21875,0.625,-1.03125,-0.75,-0.8125,-1.125,-0.59375
10.605468591966202,543,-0.125,0.25,-0.25,-0.125,1.34375,0.25,-0.34375,0.6875,0.53125,0.0625,0.125,0.15625,1.3125,1.09375,-0.375,1.09375,0.25,-0.65625,-0.71875,0.4375,-1.28125
10.624999841675164,544,0.03125,0.09375,-0.34375,-0.125,1.09375,0.4375,-0.40625,0.875,0.5,-0.03125,0.21875,0.15625,1.59375,0.25,-0.71875,1.71875,0.875,-0.40625,-0.375,2.59375,-1.71875
10.644531091384126,545,0.34375,0.09375,-0.375,-0.15625,0.75,0.53125,-0.0625,1.125,0.59375,-0.125,0.53125,-0.03125,1.125,0.5,0.15625,0.9375,1.125,-0.3125,-0.34375,3.25,-1.03125
10.664062341093087,546,0.46875,0.1875,-0.25,-0.4375,0.34375,0.65625,-0.1875,1.34375,0.5625,-0.125,0.78125,0.03125,0.0,1.03125,0.78125,-0.5,1.28125,-0.0625,-0.28125,4.0,0.28125
10.68359359080205,547,0.625,-0.03125,0.0,-0.75,0.09375,0.53125,-0.25,1.59375,0.59375,0.0,1.03125,0.0625,-0.3125,0.71875,0.375,-0.6875,1.53125,0.0,-0.1875,2.5625,0.375
10.70312484051101,548,0.5,0.21875,0.0625,-0.6875,-0.0625,0.40625,-0.1875,1.84375,0.6875,0.1875,1.375,0.0625,-0.78125,0.78125,0.15625,-0.46875,1.71875,0.09375,0.0,3.25,0.1875
10.722656090219973,549,0.4375,0.21875,0.09375,-0.5625,-0.53125,0.25,-0.28125,2.09375,0.75,0.53125,1.75,0.09375,-0.15625,0.5,-0.09375,0.0,1.96875,0.25,0.125,1.625,-0.0625
10.742187339928934,550,0.53125,0.5625,0.15625,-0.21875,-0.90625,0.0625,-0.40625,2.4375,0.84375,0.9375,2.375,0.21875,0.90625,0.40625,-0.125,0.3125,2.0,0.375,0.40625,1.59375,-0.21875
10.761718589637896,551,0.65625,0.3125,0.0625,0.0625,-1.5625,-0.03125,-0.6875,2.8125,0.8125,1.46875,3.0,0.5625,1.5,0.625,0.0625,0.15625,1.84375,0.375,0.125,0.5625,-0.0625
10.781249839346858,552,0.65625,0.40625,-0.0625,0.1875,-2.28125,0.1875,-0.84375,3.0625,0.84375,1.71875,3.59375,0.65625,1.125,0.9375,0.1875,-0.0625,1.5625,0.21875,0.1875,0.09375,0.0
10.80078108905582,553,0.5,0.34375,-0.09375,0.0625,-2.84375,0.65625,-1.09375,3.21875,0.75,2.875,4.125,0.90625,0.375,1.09375,0.21875,-0.125,1.28125,0.125,0.0625,0.03125,0.0
10.820312338764781,554,0.125,-0.03125,0.0,-0.125,-2.40625,1.0625,-0.96875,3.125,0.65625,3.0625,5.125,1.59375,-0.3125,1.03125,0.125,-0.125,1.0625,0.0625,0.03125,0.0,0.0
10.839843588473743,555,-0.15625,-0.0625,0.125,-0.75,-0.15625,0.5625,-0.96875,3.03125,0.5,2.625,6.96875,2.0,-0.21875,0.9375,0.0625,-0.03125,0.96875,0.0625,0.03125,-0.03125,0.0
10.859374838182704,556,-0.1875,-0.125,0.125,-0.03125,-2.09375,-0.6875,0.3125,2.9375,0.25,1.34375,4.1875,-0.3125,0.15625,0.875,0.0,0.0625,0.9375,0.09375,0.0625,-0.0625,0.0
10.878906087891666,557,-0.125,-0.03125,0.0625,2.28125,-4.125,-1.53125,2.03125,1.96875,0.0625,0.0625,2.25,-2.1875,0.4375,0.84375,0.0,0.0625,0.875,0.09375,0.03125,-0.03125,-0.03125
10.898437337600628,558,0.0,0.0,-0.125,1.8125,-1.875,-1.125,2.84375,0.84375,-0.15625,-0.34375,0.65625,-2.96875,0.4375,0.84375,0.0,0.0625,0.96875,0.03125,0.03125,-0.0625,-0.03125
10.91796858730959,559,0.0625,0.09375,-0.3125,0.8125,-1.6875,-0.59375,2.3125,0.0,-0.3125,-0.46875,-0.15625,-2.3125,0.5625,0.75,0.0,0.09375,0.9375,-0.03125,-0.03125,0.0,-0.03125
10.937499837018551,560,0.0,0.0,-0.46875,0.34375,-2.1875,-0.53125,1.125,-0.75,-0.5625,-0.59375,-0.78125,-1.03125,0.71875,0.9375,0.0625,0.0625,0.84375,-0.125,-0.03125,-0.0625,-0.03125
10.957031086727513,561,-0.09375,0.0,-0.46875,-0.375,-2.0,-0.34375,-0.1875,-1.59375,-0.8125,-0.78125,-1.5,0.375,0.71875,1.21875,0.0,0.0625,0.6875,-0.1875,-0.0625,-0.09375,-0.03125
10.976562336436475,562,-0.28125,-0.0625,-0.34375,-1.3125,-2.125,0.15625,-1.0625,-2.28125,-1.09375,-1.0,-2.125,1.3125,0.59375,1.3125,-0.125,0.0625,0.5625,-0.15625,-0.03125,-0.0625,-0.03125
10.996093586145436,563,-0.40625,-0.09375,-0.1875,-1.53125,-2.5,0.21875,-1.21875,-2.75,-1.34375,-1.25,-2.65625,1.5625,0.28125,1.3125,-0.09375,0.0625,0.40625,-0.09375,0.0,-0.09375,0.0
11.015624835854398,564,-0.40625,-0.0625,-0.0625,-1.3125,-2.21875,-0.03125,-0.84375,-3.21875,-1.5,-1.4375,-3.09375,1.25,0.15625,1.3125,-0.09375,0.0625,0.25,-0.125,0.0,-0.0625,-0.03125
11.03515608556336,565,-0.375,-0.03125,-0.03125,-1.0,-1.8125,-0.28125,-0.15625,-3.5,-1.53125,-1.53125,-3.46875,0.5625,-0.15625,1.375,0.03125,-0.03125,0.15625,-0.15625,-0.03125,-0.03125,-0.03125
11.054687335272321,566,-0.34375,0.03125,0.0,-0.78125,-1.5625,-0.53125,0.4375,-3.84375,-1.5625,-1.625,-3.875,-0.03125,-0.3125,1.3125,0.0,0.0,0.125,-0.21875,-0.0625,-0.03125,-0.03125
11.074218584981283,567,-0.3125,0.03125,0.0,-0.375,-1.125,-0.65625,0.75,-4.1875,-1.53125,-1.625,-4.25,-0.34375,-0.1875,1.25,0.0,-0.03125,0.125,-0.28125,-0.0625,-0.03125,-0.03125
11.093749834690245,568,-0.25,-0.09375,0.03125,0.03125,-0.71875,-0.90625,0.875,-4.5,-1.5,-1.625,-4.25,-0.34375,-0.15625,1.1875,-0.0625,0.0,0.125,-0.3125,-0.0625,-0.03125,-0.03125
11.113281084399206,569,-0.15625,-0.1875,0.0625,0.5,-0.5,-1.15625,1.03125,-4.65625,-1.375,-1.5,-4.71875,-0.59375,-0.0625,1.1875,-0.09375,0.0,0.15625,-0.3125,0.0,-0.0625,-0.03125
11.132812334108168,570,-0.125,-0.25,0.09375,1.125,-0.53125,-0.90625,1.59375,-4.375,-1.03125,-1.15625,-4.59375,-1.1875,0.0,1.1875,-0.03125,0.03125,0.1875,-0.28125,-0.03125,-0.09375,-0.03125
11.15234358381713,571,-0.15625,-0.1875,0.09375,1.53125,-0.96875,-0.53125,2.1875,-3.90625,-0.59375,-0.78125,-4.125,-1.84375,0.0625,1.25,0.0,0.0,0.1875,-0.25,-0.03125,-0.09375,-0.03125
11.171874833526092,572,-0.09375,0.0,0.09375,1.5,-1.21875,-0.625,2.125,-3.59375,-0.25,-0.40625,-3.8125,-1.75,0.125,1.3125,0.0625,-0.03125,0.21875,-0.28125,0.0,-0.09375,-0.03125
11.191406083235053,573,-0.0625,0.0625,0.125,1.625,-0.9375,-0.3125,1.5,-3.46875,0.03125,-0.125,-3.65625,-1.21875,0.125,1.3125,0.03125,-0.03125,0.28125,-0.3125,-0.03125,-0.125,-0.03125
11.210937332944015,574,-0.03125,0.1875,0.15625,1.15625,-0.21875,-0.0625,0.90625,-3.21875,0.21875,0.125,-3.40625,-0.6875,0.09375,1.25,-0.0625,-0.03125,0.40625,-0.34375,0.03125,-0.15625,-0.03125
11.230468582652977,575,-0.03125,0.25,0.21875,0.75,0.75,0.03125,0.59375,-2.84375,0.375,0.3125,-2.96875,-0.375,0.375,1.15625,-0.15625,-0.03125,0.53125,-0.34375,0.03125,-0.15625,-0.03125
11.249999832361938,576,0.03125,0.21875,0.3125,0.21875,1.03125,0.15625,0.1875,-2.21875,0.5,0.46875,-2.34375,-0.0625,0.53125,1.03125,-0.1875,-0.03125,0.625,-0.375,0.0625,-0.21875,-0.03125
11.2695310820709,577,0.09375,0.15625,0.375,-0.0625,1.15625,0.1875,-0.15625,-1.15625,0.5625,1.15625,0.375,0.34375,0.59375,0.875,-0.21875,0.0,0.78125,-0.40625,0.0625,-0.1875,-0.0625
11.289062331779862,578,0.21875,0.09375,0.40625,-0.5,0.53125,-0.0625,-1.15625,0.84375,0.34375,0.8125,1.375,0.90625,0.4375,0.8125,-0.21875,0.0,0.875,-0.4375,0.0625,-0.125,-0.0625
11.308593581488823,579,0.21875,0.15625,0.3125,-1.09375,1.71875,-0.53125,-0.625,0.625,0.5,0.5,1.1875,0.5625,0.40625,0.75,-0.25,-0.0625,0.96875,-0.40625,0.09375,0.0,-0.0625
11.328124831197785,580,0.0,0.28125,0.1875,-0.84375,1.90625,-0.78125,-0.09375,0.71875,0.40625,0.40625,2.125,0.09375,0.4375,0.5625,-0.4375,-0.125,1.15625,-0.375,0.09375,0.125,-0.0625
11.347656080906747,581,-0.28125,0.21875,0.09375,0.03125,1.4375,-0.875,0.53125,0.90625,0.28125,0.34375,2.84375,-0.5,0.5,0.25,-0.5,-0.15625,1.375,-0.34375,0.09375,0.34375,-0.0625
11.367187330615709,582,-0.34375,0.0,0.125,0.71875,1.0,-0.09375,0.5,1.125,0.21875,0.15625,2.25,-0.375,0.53125,-0.0625,-0.53125,-0.125,1.5625,-0.34375,0.0625,0.53125,-0.09375
11.38671858032467,583,-0.1875,0.03125,0.125,0.8125,0.84375,0.3125,0.5,1.25,0.0625,-0.125,2.5625,-0.34375,0.4375,-0.4375,-0.53125,-0.1875,1.84375,-0.34375,0.0625,0.8125,-0.09375
11.406249830033632,584,-0.09375,0.03125,0.0625,0.59375,0.5625,0.25,0.28125,1.40625,-0.25,-0.28125,2.46875,-0.21875,0.28125,-0.96875,-0.46875,-0.125,2.15625,-0.34375,0.09375,1.15625,-0.15625
11.425781079742594,585,-0.15625,-0.0625,-0.03125,-0.65625,0.46875,0.375,-0.6875,1.4375,-0.375,-0.4375,1.65625,0.3125,0.125,-1.625,-0.46875,-0.1875,2.46875,-0.375,0.125,1.65625,-0.1875
11.445312329451555,586,-0.34375,-0.125,-0.15625,-1.71875,0.5,0.0,-0.8125,1.4375,-0.40625,-0.40625,1.3125,0.375,0.09375,-2.4375,-0.40625,-0.09375,2.8125,-0.375,-0.78125,2.6875,-0.1875
11.464843579160517,587,-0.4375,-0.09375,-0.1875,-2.03125,0.46875,-0.03125,-0.46875,1.4375,-0.28125,-0.1875,-0.03125,-0.09375,0.4375,-2.8125,-0.375,0.125,3.0625,-0.375,-1.375,4.09375,-0.34375
11.484374828869479,588,-0.28125,0.0,-0.125,-1.1875,0.625,0.03125,-0.375,1.3125,-0.125,-0.15625,-0.1875,-0.0625,1.03125,-2.28125,-0.5625,0.4375,3.15625,-0.375,-2.375,4.0625,-0.4375
11.50390607857844,589,-0.03125,0.03125,-0.0625,-0.46875,0.5625,0.21875,-0.21875,1.15625,0.0625,-0.09375,0.0,-0.03125,1.1875,-1.59375,-1.09375,0.6875,3.0,-0.28125,-3.03125,6.5,-1.03125
11.523437328287402,590,0.1875,-0.125,-0.0625,0.34375,0.59375,0.03125,-0.15625,0.96875,0.15625,-0.03125,-0.03125,-0.0625,1.90625,-1.03125,-0.90625,0.9375,2.5625,-0.15625,-2.21875,9.46875,-1.4375
11.542968577996364,591,0.40625,-0.15625,-0.0625,0.4375,0.59375,0.0625,-0.1875,0.78125,0.09375,-0.03125,-0.03125,-0.03125,2.0625,-1.59375,0.15625,1.3125,2.21875,-0.0625,-0.75,4.09375,-1.8125
11.562499827705325,592,0.375,-0.3125,0.0,0.0,0.71875,0.03125,-0.15625,0.625,0.0625,-0.03125,-0.0625,0.0,0.59375,-2.59375,1.0,1.65625,1.5625,0.03125,-0.21875,2.125,-1.875
11.582031077414287,593,0.125,-0.375,0.125,-0.15625,0.875,0.0,-0.125,0.46875,0.03125,-0.03125,-0.0625,-0.03125,-1.0625,-2.28125,0.65625,1.1875,0.6875,0.09375,-0.09375,0.8125,-1.3125
11.601562327123249,594,-0.0625,-0.28125,0.25,0.03125,0.84375,0.0,-0.125,0.4375,0.0625,-0.03125,-0.0625,-0.03125,-0.6875,-1.96875,0.5,0.09375,-0.125,0.1875,0.125,-0.0625,-0.125
11.62109357683221,595,-0.125,-0.25,0.28125,0.15625,0.78125,0.0,-0.09375,0.4375,0.0625,-0.03125,-0.0625,0.0,-0.625,-2.09375,0.78125,-0.96875,-0.9375,0.28125,0.3125,-0.78125,0.96875
11.640624826541172,596,-0.0625,-0.1875,0.3125,0.0,0.75,0.0625,-0.125,0.4375,0.09375,0.0,-0.03125,0.0,-0.75,-1.96875,0.96875,-1.5,-1.65625,0.375,0.5,-1.5,1.5625
11.660156076250134,597,0.03125,-0.1875,0.28125,-0.0625,0.78125,0.03125,-0.15625,0.40625,0.125,0.0,-0.03125,0.0,-0.53125,-1.75,0.8125,-1.375,-2.34375,0.46875,0.59375,-2.21875,1.46875
11.679687325959096,598,0.1875,-0.1875,0.21875,-0.125,0.8125,0.0625,-0.125,0.40625,0.15625,0.0,-0.0625,0.0,-0.59375,-1.6875,0.6875,-0.90625,-3.0,0.53125,0.65625,-2.90625,1.0625
11.699218575668057,599,0.3125,-0.1875,0.1875,-0.0625,0.84375,0.09375,-0.15625,0.40625,0.1875,0.03125,-0.03125,-0.03125,-0.75,-1.46875,0.6875,-0.5,-3.53125,0.5625,0.6875,-3.4375,0.6875
11.718749825377019,600,0.375,-0.1875,0.09375,0.03125,0.84375,0.09375,-0.125,0.40625,0.1875,0.0,-0.0625,0.0,-0.90625,-1.46875,0.625,-0.34375,-3.96875,0.5625,0.65625,-3.9375,0.53125
11.73828107508598,601,0.34375,-0.15625,0.0625,0.03125,0.875,0.09375,-0.15625,0.34375,0.25,-0.03125,-0.03125,0.0,-0.96875,-1.28125,0.5,-0.40625,-4.3125,0.5625,0.65625,-4.28125,0.59375
11.757812324794942,602,0.28125,-0.09375,-0.03125,-0.09375,0.96875,0.09375,-0.15625,0.28125,0.25,-0.03125,-0.03125,-0.03125,-1.0625,-1.125,0.3125,-0.46875,-4.59375,0.5625,0.71875,-4.53125,0.71875
11.777343574503904,603,0.21875,-0.09375,-0.09375,-0.03125,1.09375,0.09375,-0.09375,0.21875,0.28125,0.0,-0.03125,-0.03125,-1.09375,-0.84375,0.15625,-0.4375,-4.96875,0.5625,0.71875,-4.875,0.75
11.796874824212866,604,0.1875,-0.15625,-0.15625,0.09375,1.09375,0.125,-0.125,0.1875,0.28125,0.03125,-0.03125,-0.03125,-1.65625,-0.28125,0.125,-0.65625,-5.09375,0.46875,0.65625,-5.1875,0.96875
11.816406073921828,605,0.15625,-0.1875,-0.25,0.1875,1.03125,0.125,-0.125,0.21875,0.25,0.0,-0.03125,-0.03125,-1.96875,0.03125,0.0,-1.1875,-4.84375,0.28125,0.46875,-4.84375,1.5
11.83593732363079,606,0.0625,-0.15625,-0.28125,0.09375,1.03125,0.125,-0.125,0.28125,0.25,-0.03125,-0.03125,-0.03125,-1.71875,0.21875,0.15625,-1.40625,-4.34375,0.0,0.1875,-4.34375,1.6875
11.855468573339751,607,-0.03125,-0.09375,-0.3125,0.0625,1.0625,0.125,-0.125,0.28125,0.28125,0.0,-0.03125,0.0,-2.3125,-0.375,0.15625,-0.90625,-3.59375,-0.28125,-0.1875,-3.5625,1.125
11.874999823048713,608,-0.1875,-0.03125,-0.34375,0.09375,1.0,0.09375,-0.09375,0.34375,0.375,0.0625,-0.03125,0.0,-0.75,0.09375,0.1875,0.0,-2.8125,-0.46875,-0.40625,-2.78125,0.15625
11.894531072757674,609,-0.1875,0.03125,-0.4375,0.0,0.9375,0.0625,-0.125,0.375,0.46875,0.0625,-0.03125,-0.03125,0.8125,1.03125,0.0,0.8125,-1.90625,-0.59375,-0.59375,-1.96875,-0.65625
11.914062322466636,610,-0.15625,0.0625,-0.5625,-0.09375,0.84375,0.1875,-0.15625,0.46875,0.40625,0.03125,-0.03125,-0.03125,1.9375,1.40625,-0.1875,1.21875,-0.8125,-0.53125,-0.4375,0.3125,-1.1875
11.933593572175598,611,0.0,0.0,-0.5625,-0.0625,0.71875,0.40625,-0.1875,0.625,0.34375,-0.03125,0.03125,0.0,1.3125,0.5,-0.03125,1.09375,0.96875,-0.375,-0.3125,1.46875,-1.46875
11.95312482188456,612,0.0,0.0625,-0.59375,-0.21875,0.625,0.46875,-0.21875,0.6875,0.375,-0.03125,0.09375,0.0625,1.125,0.78125,0.5,0.75,0.875,-0.28125,-0.1875,1.125,-0.84375
11.972656071593521,613,-0.15625,0.15625,-0.5,-0.34375,0.6875,0.40625,-0.21875,0.6875,0.4375,0.03125,0.1875,0.125,0.5625,1.125,0.53125,-0.53125,0.84375,-0.0625,0.03125,2.625,0.25
11.992187321302483,614,-0.25,0.0625,-0.375,-0.375,0.59375,0.3125,-0.3125,0.75,0.5,0.0625,0.28125,0.15625,-1.0625,0.71875,0.40625,-0.75,0.96875,0.09375,0.09375,2.875,0.40625
12.011718571011444,615,-0.0625,0.03125,-0.3125,-0.25,0.4375,0.34375,-0.15625,0.875,0.625,0.125,0.40625,0.03125,-0.9375,0.4375,-0.15625,-0.21875,1.375,0.21875,0.1875,2.125,0.0
12.031249820720406,616,0.25,0.21875,-0.3125,0.0,-0.125,0.40625,-0.09375,1.15625,0.6875,0.21875,0.8125,0.03125,-0.375,0.09375,-0.125,0.03125,1.6875,0.34375,0.25,1.5625,-0.125
12.050781070429368,617,0.3125,0.46875,-0.40625,-0.125,-0.96875,0.1875,-0.34375,1.5625,0.75,0.5,1.28125,0.15625,0.8125,0.03125,-0.1875,0.21875,1.8125,0.40625,0.5,0.78125,-0.21875
12.07031232013833,618,0.0625,0.34375,-0.5,-0.1875,-1.46875,-0.0625,-0.40625,2.0625,0.8125,0.71875,1.8125,0.1875,1.5625,0.03125,-0.09375,0.125,1.8125,0.375,0.25,-0.21875,-0.03125
12.089843569847291,619,-0.28125,0.34375,-0.5,-0.1875,-2.03125,0.0625,-0.40625,2.5,0.78125,0.875,2.46875,0.21875,1.25,0.4375,0.21875,0.0,1.5,0.25,0.21875,0.03125,0.0
12.109374819556253,620,-0.65625,0.15625,-0.34375,0.0,-2.65625,0.46875,-0.65625,2.78125,0.53125,1.3125,3.0,0.46875,0.375,0.71875,0.34375,-0.0625,1.15625,0.15625,0.125,0.0,-0.03125
12.128906069265215,621,-0.9375,-0.125,-0.09375,0.09375,-3.3125,0.84375,-0.90625,2.875,0.40625,1.90625,3.53125,0.6875,-0.15625,0.6875,0.15625,-0.03125,0.96875,0.125,0.15625,-0.0625,0.0
12.148437318974176,622,-1.15625,-0.21875,0.1875,-0.1875,-2.21875,0.90625,-0.9375,2.75,0.21875,2.375,4.28125,1.25,-0.25,0.5625,0.0625,0.0625,0.9375,0.1875,0.1875,0.03125,-0.03125
12.167968568683138,623,-1.125,-0.15625,0.34375,-0.5,-0.4375,0.78125,-1.09375,2.5625,0.03125,1.9375,6.09375,1.75,0.4375,0.625,-0.09375,0.09375,0.875,0.1875,0.1875,0.0,-0.03125
12.1874998183921,624,-0.90625,-0.15625,0.34375,-0.96875,-2.40625,-0.125,-0.15625,2.53125,-0.28125,0.375,3.09375,0.03125,1.1875,0.5625,-0.125,0.09375,0.84375,0.15625,0.09375,0.0,0.0
12.207031068101061,625,-0.5625,-0.15625,0.21875,0.09375,-4.03125,-0.90625,1.0,1.53125,-0.65625,-0.5,2.0,-1.09375,0.9375,0.625,-0.0625,0.09375,0.75,0.03125,0.0625,-0.03125,-0.03125
12.226562317810023,626,-0.40625,-0.09375,0.03125,0.15625,-2.25,-0.375,1.5625,0.21875,-0.9375,-1.03125,0.0625,-1.59375,0.59375,0.71875,-0.0625,0.0625,0.59375,0.0,0.0625,-0.0625,-0.03125
12.246093567518985,627,-0.3125,-0.21875,-0.0625,-0.5,-1.4375,-0.28125,1.0625,-0.9375,-1.09375,-1.15625,-1.0,-0.90625,0.28125,0.625,-0.0625,0.09375,0.46875,-0.03125,0.0625,-0.125,0.0
12.265624817227947,628,-0.3125,-0.1875,-0.21875,-0.65625,-1.4375,-0.40625,0.0625,-1.96875,-1.21875,-1.21875,-1.9375,0.1875,0.21875,0.625,-0.0625,0.0625,0.40625,-0.0625,0.09375,-0.09375,-0.03125
12.285156066936908,629,-0.28125,-0.125,-0.3125,-1.09375,-0.875,-0.3125,-0.8125,-2.84375,-1.375,-1.28125,-2.71875,1.15625,0.25,0.625,-0.0625,0.03125,0.34375,-0.0625,0.03125,0.0,-0.03125
12.30468731664587,630,-0.21875,0.03125,-0.40625,-1.71875,-0.90625,-0.15625,-1.15625,-3.4375,-1.53125,-1.46875,-3.3125,1.5625,0.28125,0.5625,-0.03125,0.03125,0.28125,-0.125,0.03125,0.03125,-0.03125
12.324218566354832,631,-0.15625,0.125,-0.375,-1.78125,-0.875,-0.25,-0.875,-3.78125,-1.59375,-1.5625,-3.6875,1.28125,0.375,0.75,0.03125,0.0625,0.125,-0.21875,-0.03125,0.0,-0.03125
12.343749816063793,632,-0.1875,-0.03125,-0.28125,-0.84375,-0.75,-0.46875,-0.125,-3.9375,-1.5,-1.53125,-3.90625,0.5625,0.0625,0.9375,0.0,0.03125,0.0,-0.21875,-0.0625,-0.0625,-0.03125
12.363281065772755,633,-0.28125,-0.15625,-0.0625,0.46875,-0.46875,-0.78125,0.625,-4.0625,-1.34375,-1.40625,-4.0625,-0.21875,-0.1875,1.0625,-0.0625,0.0,-0.125,-0.21875,-0.09375,-0.09375,-0.03125
12.382812315481717,634,-0.25,-0.1875,0.125,1.75,-0.0625,-0.96875,1.28125,-4.125,-1.0625,-1.25,-4.21875,-0.9375,-0.3125,1.09375,-0.09375,0.0,-0.15625,-0.21875,-0.09375,-0.03125,-0.03125
12.402343565190678,635,-0.1875,-0.21875,0.375,2.75,0.4375,-1.125,2.34375,-3.8125,-0.59375,-0.8125,-4.09375,-2.0625,-0.21875,1.125,-0.1875,0.0,-0.1875,-0.21875,-0.09375,-0.03125,-0.03125
12.42187481489964,636,-0.0625,-0.1875,0.5,3.125,0.34375,-0.96875,3.5625,-3.09375,0.03125,-0.21875,-3.46875,-3.28125,-0.21875,1.25,-0.1875,0.0,-0.28125,-0.21875,-0.09375,0.0,0.0
12.441406064608602,637,0.09375,-0.0625,0.59375,3.25,0.25,-0.5625,3.84375,-2.40625,0.5625,0.3125,-2.78125,-3.65625,-0.3125,1.25,-0.15625,0.0,-0.3125,-0.21875,-0.09375,0.0,0.0
12.460937314317563,638,0.21875,-0.0625,0.625,3.21875,0.40625,0.125,3.28125,-1.96875,0.96875,0.71875,-2.28125,-3.15625,-0.3125,1.25,-0.125,-0.03125,-0.40625,-0.21875,-0.15625,0.0,-0.03125
12.480468564026525,639,0.25,-0.09375,0.65625,2.53125,0.65625,0.25,2.5,-1.5625,1.15625,0.96875,-1.8125,-2.4375,-0.34375,1.28125,-0.09375,-0.0625,-0.40625,-0.15625,-0.125,0.03125,0.0
12.499999813735487,640,0.3125,-0.09375,0.65625,2.0,0.84375,0.0,0.96875,-0.875,0.875,0.65625,0.0625,-0.75,-0.375,1.3125,-0.0625,-0.0625,-0.34375,-0.125,-0.125,0.03125,0.0
12.519531063444449,641,0.40625,-0.03125,0.71875,-0.28125,0.5625,-0.5,-1.09375,-0.1875,0.125,0.3125,0.75,1.1875,-0.1875,1.125,0.0,-0.03125,-0.21875,-0.125,-0.09375,0.03125,0.0
12.53906231315341,642,0.5625,0.125,0.65625,-1.375,2.28125,-1.125,-0.78125,-0.0625,0.15625,0.03125,0.34375,0.75,0.0625,0.875,-0.09375,0.03125,-0.0625,-0.21875,-0.09375,0.0,-0.0625
12.558593562862372,643,0.59375,0.28125,0.53125,-1.9375,1.46875,-0.84375,-0.28125,0.0625,0.0625,-0.125,0.8125,0.21875,0.4375,0.75,-0.09375,0.03125,0.0625,-0.3125,-0.125,0.0,-0.0625
12.578124812571334,644,0.5,0.21875,0.375,-0.75,0.875,-0.3125,0.03125,0.28125,0.03125,-0.1875,1.8125,0.09375,0.53125,0.6875,-0.09375,0.0,0.125,-0.40625,-0.15625,0.0,-0.0625
12.597656062280295,645,0.3125,0.09375,0.25,-0.21875,0.21875,-0.03125,-0.09375,0.5,0.03125,-0.1875,1.1875,0.125,0.28125,0.5,-0.1875,-0.03125,0.25,-0.375,-0.125,-0.03125,-0.0625
12.617187311989257,646,0.1875,0.0625,0.1875,-0.21875,0.34375,-0.21875,-0.125,0.78125,-0.03125,-0.15625,0.96875,0.0625,0.09375,0.40625,-0.25,0.0,0.34375,-0.34375,-0.09375,0.0625,-0.0625
12.636718561698219,647,0.1875,0.0625,0.125,-0.3125,0.0,-0.21875,-0.0625,1.0625,-0.03125,-0.09375,1.09375,0.0,0.375,0.34375,-0.25,-0.03125,0.46875,-0.375,-0.09375,0.1875,-0.09375
12.65624981140718,648,0.21875,0.03125,0.15625,-0.25,-0.21875,-0.0625,-0.15625,1.28125,-0.125,-0.03125,1.1875,0.03125,0.375,0.125,-0.21875,0.0,0.5625,-0.375,-0.09375,0.21875,-0.09375
12.675781061116142,649,0.28125,0.09375,0.125,-0.75,-0.1875,0.0625,-0.28125,1.21875,-0.1875,-0.46875,0.96875,0.28125,0.21875,-0.09375,-0.1875,-0.03125,0.625,-0.40625,-0.09375,0.34375,-0.0625
12.695312310825104,650,0.25,0.1875,0.09375,-1.21875,0.34375,0.0625,-0.34375,0.9375,-0.21875,-0.59375,0.3125,0.15625,0.28125,-0.21875,-0.21875,0.15625,0.71875,-0.375,-0.15625,0.40625,-0.1875
12.714843560534066,651,0.28125,0.25,0.125,-1.0,0.78125,-0.03125,-0.25,0.71875,-0.28125,-0.46875,0.1875,0.09375,0.25,-0.375,-0.15625,0.15625,0.78125,-0.4375,-0.25,0.59375,-0.21875
12.734374810243027,652,0.3125,0.125,0.125,-0.4375,0.71875,-0.09375,-0.1875,0.59375,-0.25,-0.34375,0.0,0.0,0.4375,-0.65625,-0.28125,0.21875,0.90625,-0.40625,-0.34375,0.8125,-0.28125
12.753906059951989,653,0.28125,-0.03125,0.1875,0.03125,0.5625,-0.0625,-0.125,0.59375,-0.21875,-0.25,0.0,0.0,0.59375,-1.15625,-0.375,0.21875,1.125,-0.40625,-0.5,1.0625,-0.3125
12.77343730966095,654,0.21875,-0.09375,0.21875,0.21875,0.3125,-0.03125,-0.15625,0.625,-0.15625,-0.1875,-0.03125,-0.03125,0.65625,-1.4375,-0.40625,0.28125,1.40625,-0.3125,-0.625,1.5,-0.46875
12.792968559369912,655,0.25,-0.03125,0.21875,0.0,0.15625,-0.0625,-0.15625,0.625,-0.15625,-0.1875,-0.03125,-0.03125,0.71875,-1.65625,-0.375,0.53125,1.6875,-0.21875,-0.875,2.09375,-0.75
12.812499809078874,656,0.40625,-0.125,0.25,-0.28125,0.21875,-0.09375,-0.1875,0.59375,-0.125,-0.25,0.03125,0.03125,0.4375,-2.0,-0.125,0.59375,1.78125,-0.1875,-1.0,2.53125,-0.875
12.832031058787836,657,0.5625,-0.21875,0.28125,-0.40625,0.21875,-0.125,-0.1875,0.5625,-0.0625,-0.3125,0.03125,0.03125,0.21875,-2.03125,-0.09375,0.53125,1.84375,-0.25,-1.1875,2.96875,-0.84375
12.851562308496797,658,0.6875,-0.28125,0.28125,-0.40625,0.21875,-0.125,-0.15625,0.46875,-0.0625,-0.3125,0.03125,0.0,0.15625,-1.4375,-0.375,0.375,1.75,-0.21875,-1.65625,2.90625,-0.71875
12.871093558205759,659,0.75,-0.34375,0.25,-0.34375,0.21875,-0.09375,-0.15625,0.4375,-0.0625,-0.25,0.03125,0.0,0.59375,-0.96875,-0.5625,0.15625,1.625,-0.21875,-1.375,3.15625,-0.375
12.89062480791472,660,0.75,-0.28125,0.15625,-0.25,0.28125,-0.15625,-0.125,0.3125,-0.0625,-0.21875,0.0,0.0,0.59375,-1.28125,-0.34375,-0.90625,1.25,-0.09375,-0.28125,1.46875,0.78125
12.910156057623682,661,0.625,-0.25,0.0625,-0.125,0.3125,-0.15625,-0.09375,0.25,-0.0625,-0.1875,0.0,0.0,-0.3125,-1.28125,0.21875,-1.15625,0.84375,-0.03125,-0.09375,1.0625,1.03125
12.929687307332644,662,0.40625,-0.1875,0.03125,0.03125,0.25,-0.15625,-0.09375,0.25,-0.09375,-0.15625,0.0,0.0,-1.0625,-1.84375,0.625,-1.0,0.25,-0.03125,-0.0625,0.40625,0.96875
12.949218557041606,663,0.21875,-0.1875,0.09375,0.09375,0.0625,-0.09375,-0.125,0.28125,-0.0625,-0.15625,0.0,-0.03125,-1.09375,-1.53125,0.53125,-0.65625,-0.34375,0.03125,0.0,-0.3125,0.625
12.968749806750568,664,0.0625,-0.125,0.15625,-0.25,0.0,-0.0625,-0.15625,0.34375,-0.0625,-0.1875,0.03125,0.03125,-0.75,-1.375,0.3125,-0.375,-0.9375,0.0625,0.0625,-0.90625,0.375
12.98828105645953,665,-0.03125,-0.03125,0.21875,-0.5,0.125,-0.03125,-0.125,0.28125,-0.0625,-0.125,0.03125,-0.03125,-0.3125,-1.125,0.15625,-0.28125,-1.46875,0.09375,0.125,-1.46875,0.34375
13.007812306168491,666,-0.09375,-0.03125,0.25,-0.28125,0.25,-0.03125,-0.09375,0.15625,0.0,-0.0625,0.0,-0.03125,-0.59375,-0.8125,0.28125,-0.40625,-2.0,0.09375,0.15625,-1.90625,0.5
13.027343555877453,667,-0.125,-0.15625,0.28125,0.03125,0.25,-0.0625,-0.0625,0.09375,0.0,-0.03125,-0.03125,-0.03125,-0.9375,-0.40625,0.40625,-0.65625,-2.375,0.125,0.15625,-2.3125,0.8125
13.046874805586414,668,-0.09375,-0.1875,0.1875,0.21875,0.21875,-0.0625,-0.03125,0.0625,-0.03125,-0.0625,-0.03125,0.0,-1.34375,-0.1875,0.46875,-0.875,-2.6875,0.09375,0.21875,-2.59375,1.03125
13.066406055295376,669,-0.15625,-0.125,0.09375,0.09375,0.15625,0.03125,-0.0625,0.09375,-0.0625,-0.0625,0.0,-0.03125,-1.5625,-0.03125,0.4375,-1.0,-2.84375,0.125,0.21875,-2.8125,1.1875
13.085937305004338,670,-0.28125,-0.09375,0.0,-0.1875,0.1875,0.09375,-0.09375,0.09375,-0.0625,-0.0625,-0.03125,-0.03125,-1.34375,0.34375,0.34375,-1.03125,-2.84375,0.1875,0.28125,-2.8125,1.21875
13.1054685547133,671,-0.40625,-0.09375,-0.0625,-0.28125,0.28125,0.0625,-0.09375,0.09375,-0.03125,-0.0625,-0.03125,0.0,-1.40625,0.40625,0.21875,-1.09375,-2.65625,0.21875,0.34375,-2.59375,1.28125
13.124999804422261,672,-0.4375,-0.15625,-0.15625,-0.09375,0.25,0.0,-0.09375,0.09375,0.0,-0.0625,0.0,-0.03125,-1.71875,0.40625,0.21875,-1.15625,-2.25,0.15625,0.25,-2.21875,1.3125
13.144531054131223,673,-0.40625,-0.21875,-0.25,0.0625,0.09375,0.03125,-0.0625,0.1875,0.0,-0.03125,-0.03125,0.0,-1.53125,0.5,0.28125,-1.09375,-1.6875,0.03125,0.09375,-1.625,1.21875
13.164062303840184,674,-0.40625,-0.125,-0.28125,-0.03125,-0.03125,0.1875,-0.125,0.28125,0.0,-0.0625,0.0625,0.03125,-0.6875,1.03125,0.3125,-0.59375,-1.0,-0.09375,-0.0625,-0.96875,0.65625
13.183593553549146,675,-0.5,-0.125,-0.28125,-0.3125,-0.0625,0.1875,-0.1875,0.28125,-0.03125,-0.0625,0.09375,0.03125,0.53125,1.15625,0.15625,0.28125,-0.34375,-0.09375,-0.09375,-0.34375,-0.28125
13.203124803258108,676,-0.6875,-0.0625,-0.34375,-0.5,0.15625,0.09375,-0.21875,0.1875,0.0,-0.03125,0.09375,0.0625,1.3125,1.09375,0.0625,1.0625,0.21875,-0.03125,-0.0625,0.1875,-1.0625
13.22265605296707,677,-0.84375,-0.1875,-0.5,-0.375,0.25,-0.03125,-0.09375,0.09375,0.03125,-0.03125,-0.03125,0.03125,1.78125,0.75,-0.09375,1.78125,0.15625,-0.1875,1.40625,-1.1875,-1.8125
13.242187302676031,678,-0.6875,-0.25,-0.625,0.15625,0.09375,0.03125,-0.0625,0.09375,-0.03125,-0.03125,-0.03125,-0.03125,1.5,1.03125,0.0625,0.09375,-0.09375,0.03125,0.03125,-0.53125,-0.03125
13.261718552384993,679,-0.5625,-0.25,-0.53125,-0.0625,0.0625,0.21875,-0.03125,0.125,-0.03125,-0.03125,0.0625,-0.03125,0.28125,-0.21875,0.34375,-0.0625,0.09375,-0.0625,0.1875,-0.15625,-0.03125
13.281249802093955,680,-0.5625,-0.34375,-0.28125,-0.25,-0.09375,0.25,-0.0625,0.15625,0.0,-0.03125,0.15625,0.0,-0.0625,0.40625,0.78125,-0.125,0.21875,0.03125,0.09375,0.09375,0.03125
13.300781051802916,681,-0.65625,-0.125,-0.0625,-0.0625,-0.1875,0.125,0.03125,0.21875,0.0625,0.0,0.25,-0.03125,-0.1875,0.25,0.125,-0.03125,0.34375,0.15625,0.21875,0.09375,-0.03125
13.320312301511878,682,-0.6875,-0.0625,-0.03125,-0.09375,-0.15625,0.0,-0.125,0.15625,0.125,0.03125,0.1875,0.0625,-0.15625,0.09375,0.0625,0.0,0.40625,0.25,0.25,0.125,0.0
13.33984355122084,683,-0.5625,-0.09375,-0.09375,-0.15625,-0.0625,0.0,-0.21875,0.09375,0.15625,0.0625,0.125,0.15625,0.125,0.09375,0.03125,0.0625,0.40625,0.28125,0.21875,0.1875,0.0
13.359374800929801,684,-0.3125,-0.09375,-0.0625,-0.0625,-0.125,0.125,-0.1875,0.09375,0.15625,0.03125,0.0625,0.125,0.4375,0.1875,0.09375,0.03125,0.34375,0.25,0.1875,0.21875,-0.03125
