TOTAL_TIME,0m19s
TOTAL_FRAMES,1211
SELECTED_FRAMES,1211
NO_OF_JOINTS,7
FREQUENCY,64.0
DESCRIPTION,east
TIME_STAMP,Jul 17, 2009

Time,Frame,Pelvis_gyroX_47,Pelvis_gyroY_47,Pelvis_gyroZ_47,RFEP_gyroX_70,RFEP_gyroY_70,RFEP_gyroZ_70,RFEO_gyroX_44,RFEO_gyroY_44,RFEO_gyroZ_44,RTIO_gyroX_55,RTIO_gyroY_55,RTIO_gyroZ_55,LFEP_gyroX_30,LFEP_gyroY_30,LFEP_gyroZ_30,LFEO_gyroX_28,LFEO_gyroY_28,LFEO_gyroZ_28,LTIO_gyroX_25,LTIO_gyroY_25,LTIO_gyroZ_25
0.0,0,0.25,0.09375,0.0,-0.5625,0.5625,0.28125,0.125,-0.4375,0.0625,-0.25,-0.28125,0.125,0.125,0.1875,-0.03125,0.0,0.25,-0.0625,-0.0625,-0.03125,-0.09375
0.015625,1,0.25,0.09375,0.0,-0.5625,0.5625,0.28125,0.125,-0.4375,0.0625,-0.25,-0.28125,0.125,0.125,0.1875,-0.03125,0.0,0.25,-0.0625,-0.0625,-0.03125,-0.09375
0.03125,2,0.25,0.09375,0.0,-0.5625,0.5625,0.28125,0.125,-0.4375,0.0625,-0.25,-0.28125,0.125,0.125,0.1875,-0.03125,0.0,0.25,-0.0625,-0.0625,-0.03125,-0.09375
0.046875,3,-0.53125,0.09375,-0.0625,-0.8125,0.78125,0.375,-0.09375,-0.5625,0.09375,-0.6875,0.0,0.46875,0.0,0.25,-0.03125,0.03125,0.25,-0.0625,-0.0625,0.0,-0.09375
0.0625,4,-0.03125,0.15625,-0.03125,-0.75,0.6875,0.3125,0.0625,-0.53125,0.0625,-0.53125,-0.15625,0.34375,0.0625,0.15625,0.0,0.0,0.25,-0.0625,-0.0625,-0.03125,-0.0625
0.078125,5,0.25,0.09375,0.0,-0.5625,0.5625,0.28125,0.125,-0.4375,0.0625,-0.25,-0.28125,0.125,0.125,0.1875,-0.03125,0.0,0.25,-0.0625,-0.0625,-0.03125,-0.09375
0.09375,6,0.28125,0.09375,-0.03125,-0.28125,0.3125,0.15625,0.15625,-0.34375,0.03125,0.03125,-0.34375,-0.125,0.09375,0.21875,-0.03125,0.0625,0.28125,-0.0625,-0.03125,0.0,-0.0625
0.109375,7,0.3125,0.09375,-0.03125,0.09375,0.03125,0.03125,0.1875,-0.28125,0.03125,0.09375,-0.28125,-0.1875,0.09375,0.1875,-0.03125,0.03125,0.28125,-0.0625,-0.03125,0.0,-0.0625
0.125,8,0.3125,0.09375,-0.03125,0.1875,-0.0625,-0.0625,0.1875,-0.21875,0.03125,0.09375,-0.21875,-0.1875,0.15625,0.21875,-0.0625,0.0625,0.28125,-0.09375,-0.03125,-0.03125,-0.03125
0.140625,9,0.34375,0.03125,-0.03125,0.15625,-0.03125,-0.09375,0.1875,-0.1875,0.0,0.09375,-0.15625,-0.1875,0.125,0.25,-0.03125,0.03125,0.3125,-0.09375,-0.03125,0.0,-0.03125
0.15625,10,0.3125,0.0,0.0,0.09375,0.0,-0.125,0.15625,-0.125,0.0,0.0625,-0.125,-0.1875,0.09375,0.25,-0.03125,0.1875,0.375,-0.09375,0.0625,-0.03125,0.0
0.171875,11,0.34375,-0.03125,0.0,0.0625,0.03125,-0.125,0.15625,-0.09375,-0.03125,0.0625,-0.09375,-0.15625,0.125,0.25,-0.0625,0.4375,0.40625,-0.0625,0.125,0.0,0.0
0.1875,12,0.375,0.0,0.0,0.0625,0.03125,-0.125,0.15625,-0.03125,-0.0625,0.0625,0.0,-0.15625,0.25,0.28125,-0.0625,0.40625,0.375,-0.09375,0.125,0.03125,0.0
0.203125,13,0.40625,-0.03125,0.0,0.03125,0.09375,-0.15625,0.15625,0.03125,-0.09375,0.03125,0.03125,-0.15625,0.28125,0.375,-0.09375,0.03125,0.34375,-0.125,0.03125,0.03125,-0.03125
0.21875,14,0.375,-0.03125,0.0,0.0,0.09375,-0.15625,0.15625,0.09375,-0.125,0.0,0.09375,-0.1875,0.1875,0.3125,-0.0625,-0.03125,0.34375,-0.15625,0.03125,0.0,-0.03125
0.234375,15,0.375,-0.03125,-0.03125,0.03125,0.09375,-0.1875,0.1875,0.125,-0.125,0.03125,0.1875,-0.1875,0.15625,0.3125,-0.03125,0.125,0.3125,-0.125,0.0,0.0,-0.03125
0.25,16,0.40625,-0.0625,0.0,0.0625,0.15625,-0.25,0.21875,0.21875,-0.125,0.0625,0.25,-0.25,0.125,0.28125,-0.0625,0.0,0.34375,-0.125,0.0,0.0,-0.03125
0.265625,17,0.40625,-0.0625,0.0,0.09375,0.15625,-0.28125,0.28125,0.28125,-0.15625,0.09375,0.3125,-0.28125,0.125,0.28125,-0.0625,-0.03125,0.34375,-0.125,0.0,0.0,-0.03125
0.28125,18,0.4375,-0.0625,0.0,0.1875,0.25,-0.34375,0.375,0.375,-0.15625,0.15625,0.40625,-0.34375,0.125,0.3125,-0.0625,0.0625,0.34375,-0.125,0.0,0.03125,-0.03125
0.296875,19,0.46875,-0.0625,0.0,0.1875,0.28125,-0.34375,0.375,0.40625,-0.15625,0.1875,0.4375,-0.375,0.15625,0.3125,-0.0625,0.0625,0.375,-0.125,0.0,0.03125,-0.0625
0.3125,20,0.46875,-0.0625,0.0,0.78125,0.34375,-0.625,1.09375,0.53125,0.09375,0.75,0.84375,-0.75,0.1875,0.375,-0.0625,0.125,0.375,-0.125,0.03125,0.0,-0.03125
0.328125,21,0.46875,-0.0625,-0.03125,0.875,0.25,-0.40625,0.78125,0.53125,0.03125,0.40625,0.6875,-0.59375,0.28125,0.34375,-0.09375,0.15625,0.4375,-0.125,0.0625,0.03125,-0.03125
0.34375,22,0.4375,-0.0625,-0.125,0.4375,0.1875,-0.375,0.625,0.5625,0.03125,0.46875,0.65625,-0.46875,0.34375,0.3125,-0.0625,0.0625,0.4375,-0.125,0.0,0.09375,-0.09375
0.359375,23,0.46875,-0.0625,-0.15625,0.4375,0.25,-0.34375,0.53125,0.5,0.0,0.34375,0.6875,-0.34375,0.4375,0.25,-0.0625,0.09375,0.4375,-0.15625,-0.03125,0.09375,-0.125
0.375,24,0.46875,-0.0625,-0.15625,0.34375,0.3125,-0.34375,0.40625,0.53125,0.0,0.3125,0.6875,-0.28125,0.5,0.25,-0.0625,0.125,0.4375,-0.125,-0.0625,0.125,-0.125
0.390625,25,0.5,-0.09375,-0.125,0.21875,0.46875,-0.3125,0.3125,0.46875,-0.0625,0.21875,0.65625,-0.25,0.5,0.25,-0.0625,0.09375,0.4375,-0.15625,-0.0625,0.15625,-0.1875
0.40625,26,0.53125,-0.09375,-0.125,0.125,0.59375,-0.34375,0.25,0.46875,-0.0625,0.09375,0.625,-0.21875,0.46875,0.25,-0.09375,0.09375,0.4375,-0.125,-0.0625,0.1875,-0.15625
0.421875,27,0.5625,-0.0625,-0.125,0.09375,0.625,-0.375,0.15625,0.40625,-0.0625,0.0,0.53125,-0.125,0.4375,0.3125,-0.0625,0.125,0.40625,-0.15625,-0.0625,0.21875,-0.21875
0.4375,28,0.5625,-0.0625,-0.125,-0.03125,0.59375,-0.375,-0.0625,0.34375,-0.0625,-0.09375,0.53125,0.03125,0.375,0.375,-0.0625,0.0625,0.4375,-0.15625,-0.09375,0.28125,-0.21875
0.453125,29,0.5625,-0.0625,-0.125,-0.1875,0.5625,-0.3125,-0.21875,0.34375,-0.09375,-0.15625,0.5625,0.09375,0.34375,0.375,-0.09375,0.125,0.46875,-0.15625,-0.09375,0.3125,-0.25
0.46875,30,0.5625,-0.09375,-0.15625,-0.21875,0.53125,-0.28125,-0.1875,0.40625,-0.125,-0.15625,0.5,0.0,0.34375,0.3125,-0.0625,0.1875,0.46875,-0.125,-0.09375,0.40625,-0.28125
0.484375,31,0.53125,-0.09375,-0.125,-0.25,0.59375,-0.21875,-0.125,0.4375,-0.15625,-0.125,0.53125,0.03125,0.4375,0.3125,-0.09375,0.1875,0.5,-0.15625,-0.09375,0.53125,-0.28125
0.5,32,0.53125,-0.125,-0.15625,-0.25,0.625,-0.1875,-0.1875,0.46875,-0.1875,-0.09375,0.4375,0.03125,0.4375,0.21875,-0.09375,0.1875,0.53125,-0.125,-0.0625,0.65625,-0.25
0.515625,33,0.53125,-0.09375,-0.0625,-0.28125,0.65625,-0.1875,-0.15625,0.46875,-0.125,-0.03125,0.46875,0.03125,0.34375,0.0625,-0.09375,0.1875,0.625,-0.125,-0.03125,0.8125,-0.21875
0.53125,34,0.5625,-0.0625,-0.03125,-0.25,0.59375,-0.21875,-0.15625,0.46875,-0.125,-0.09375,0.53125,0.0,0.3125,-0.09375,-0.125,0.1875,0.71875,-0.15625,-0.0625,0.96875,-0.1875
0.546875,35,0.53125,0.0,0.03125,-0.21875,0.59375,-0.25,-0.15625,0.53125,-0.09375,-0.625,0.125,-0.09375,0.21875,-0.25,-0.15625,0.125,0.78125,-0.15625,-0.09375,1.0625,-0.15625
0.5625,36,0.46875,0.0,0.0,-0.1875,0.625,-0.28125,-0.09375,0.53125,-0.0625,-0.34375,0.375,-0.03125,0.15625,-0.34375,-0.15625,-0.03125,0.84375,-0.1875,-0.15625,1.15625,-0.125
0.578125,37,0.4375,0.0,0.0,-0.1875,0.625,-0.28125,-0.09375,0.53125,-0.09375,-0.09375,0.0,-0.03125,0.0625,-0.40625,-0.15625,-0.15625,0.9375,-0.21875,-0.15625,1.28125,-0.0625
0.59375,38,0.40625,0.03125,0.0,-0.25,0.71875,-0.25,-0.125,0.5,-0.0625,-0.21875,0.15625,-0.03125,-0.03125,-0.53125,-0.1875,-0.125,1.0,-0.21875,-0.1875,1.40625,0.0
0.609375,39,0.3125,0.09375,0.0,-0.3125,0.71875,-0.25,-0.09375,0.46875,-0.0625,-0.15625,0.03125,-0.03125,-0.125,-0.65625,-0.1875,-0.09375,1.0625,-0.25,-0.1875,1.53125,-0.03125
0.625,40,0.3125,0.09375,0.0,-0.34375,0.71875,-0.25,-0.09375,0.46875,-0.09375,-0.0625,0.03125,0.0,-0.1875,-0.75,-0.1875,-0.0625,1.1875,-0.25,-0.1875,1.6875,-0.03125
0.640625,41,0.28125,0.09375,0.09375,-0.34375,0.75,-0.25,-0.09375,0.4375,-0.09375,-0.03125,0.03125,-0.03125,-0.25,-0.90625,-0.1875,0.0,1.28125,-0.25,-0.25,1.84375,-0.125
0.65625,42,0.21875,0.09375,0.09375,-0.40625,0.78125,-0.25,-0.09375,0.4375,-0.09375,-0.0625,0.0625,-0.03125,-0.3125,-1.0625,-0.21875,0.125,1.40625,-0.21875,-0.28125,2.0625,-0.25
0.671875,43,0.21875,0.09375,0.09375,-0.4375,0.8125,-0.25,-0.09375,0.40625,-0.09375,-0.03125,0.03125,-0.03125,-0.28125,-1.21875,-0.1875,0.1875,1.46875,-0.1875,-0.28125,2.21875,-0.34375
0.6875,44,0.21875,0.03125,0.0625,-0.40625,0.78125,-0.25,-0.0625,0.34375,-0.09375,0.0,0.03125,-0.03125,-0.34375,-1.40625,-0.25,0.28125,1.59375,-0.15625,-0.25,2.4375,-0.46875
0.703125,45,0.21875,0.0,0.0625,-0.28125,0.8125,-0.25,-0.0625,0.3125,-0.09375,-0.03125,0.0,-0.03125,-0.25,-1.53125,-0.3125,0.4375,1.65625,-0.125,-0.15625,2.5625,-0.59375
0.71875,46,0.21875,0.0,0.0,-0.21875,0.78125,-0.25,-0.03125,0.3125,-0.09375,-0.03125,0.03125,-0.0625,-0.125,-1.53125,-0.375,0.625,1.71875,-0.09375,-0.21875,2.59375,-0.6875
0.734375,47,0.21875,0.0,-0.0625,-0.15625,0.75,-0.25,-0.03125,0.28125,-0.09375,-0.09375,0.03125,-0.0625,0.03125,-1.5625,-0.375,0.625,1.75,-0.125,-0.28125,2.59375,-0.75
0.75,48,0.25,0.03125,-0.09375,-0.125,0.71875,-0.25,0.0,0.3125,-0.09375,-0.03125,0.03125,-0.03125,0.15625,-1.59375,-0.3125,0.53125,1.6875,-0.15625,-0.21875,2.625,-0.8125
0.765625,49,0.25,0.0,-0.0625,-0.15625,0.6875,-0.25,0.0,0.3125,-0.09375,-0.03125,0.03125,-0.03125,0.21875,-1.53125,-0.21875,0.46875,1.625,-0.1875,-0.40625,2.5625,-0.84375
0.78125,50,0.28125,0.0,-0.03125,-0.1875,0.65625,-0.21875,-0.03125,0.28125,-0.0625,0.0,0.03125,-0.03125,0.15625,-1.5,-0.0625,0.34375,1.4375,-0.25,-0.375,2.5,-0.90625
0.796875,51,0.34375,0.0,0.0,-0.25,0.65625,-0.15625,-0.03125,0.3125,-0.0625,0.0,0.0,-0.03125,0.03125,-1.46875,0.03125,0.03125,1.21875,-0.25,-0.3125,2.28125,-0.96875
0.8125,52,0.28125,0.0,0.0,-0.28125,0.65625,-0.15625,-0.03125,0.28125,-0.03125,0.0,0.03125,0.0,-0.1875,-1.4375,0.0625,-0.09375,1.125,-0.21875,-0.25,2.0625,-0.9375
0.828125,53,0.28125,0.03125,0.03125,-0.25,0.625,-0.15625,-0.03125,0.25,-0.0625,0.0,0.0625,0.0,-0.40625,-1.4375,0.03125,-0.0625,1.0625,-0.15625,-0.0625,1.78125,-0.8125
0.84375,54,0.21875,0.03125,0.0625,-0.21875,0.59375,-0.15625,-0.0625,0.25,-0.0625,0.0,0.03125,-0.03125,-0.53125,-1.375,-0.03125,0.15625,0.875,-0.09375,0.34375,0.65625,-0.65625
0.859375,55,0.15625,0.0,0.0625,-0.25,0.625,-0.125,0.0,0.21875,-0.09375,-0.03125,0.0625,-0.03125,-0.5625,-1.3125,-0.09375,0.4375,0.46875,-0.0625,-0.09375,-0.75,-0.34375
0.875,56,0.125,0.0,0.0625,-0.21875,0.625,-0.15625,0.0,0.1875,-0.09375,0.03125,0.0625,-0.0625,-0.5625,-1.28125,-0.09375,0.4375,0.0,0.0,-0.3125,-1.0625,0.09375
0.890625,57,0.09375,0.0,0.125,-0.1875,0.59375,-0.15625,0.03125,0.125,-0.125,-0.0625,0.0625,-0.0625,-0.59375,-1.28125,-0.0625,0.09375,-0.46875,0.0,0.03125,-1.34375,0.46875
0.90625,58,0.03125,-0.03125,0.125,-0.09375,0.59375,-0.15625,0.03125,0.09375,-0.125,-0.0625,0.03125,-0.0625,-0.65625,-1.25,-0.0625,-0.25,-0.84375,0.09375,0.15625,-1.71875,0.75
0.921875,59,0.0,0.0,0.125,0.0,0.53125,-0.15625,0.03125,0.09375,-0.125,-0.03125,0.03125,-0.0625,-0.8125,-1.28125,0.03125,-0.34375,-1.25,0.125,0.3125,-2.09375,0.84375
0.9375,60,-0.0625,0.0,0.125,0.0,0.46875,-0.125,0.0,0.125,-0.09375,-0.0625,0.03125,-0.0625,-0.96875,-1.28125,0.0625,-0.375,-1.6875,0.1875,0.34375,-2.28125,0.8125
0.953125,61,-0.125,0.0,0.1875,0.0,0.40625,-0.125,0.0,0.125,-0.09375,-0.03125,0.03125,-0.0625,-1.03125,-1.21875,0.125,-0.3125,-2.09375,0.21875,0.34375,-2.46875,0.71875
0.96875,62,-0.15625,-0.03125,0.15625,-0.03125,0.40625,-0.09375,-0.03125,0.15625,-0.09375,-0.03125,0.0625,-0.03125,-1.0625,-1.15625,0.09375,-0.125,-2.40625,0.28125,0.40625,-2.65625,0.65625
0.984375,63,-0.1875,-0.03125,0.1875,-0.09375,0.375,-0.09375,-0.03125,0.21875,-0.0625,-0.03125,0.09375,-0.03125,-1.09375,-1.03125,0.125,0.15625,-2.6875,0.28125,0.4375,-2.875,0.53125
1.0,64,-0.1875,-0.0625,0.15625,-0.03125,0.4375,-0.09375,-0.03125,0.25,-0.03125,0.0625,0.03125,-0.03125,-1.0,-0.875,0.0625,0.34375,-3.0,0.34375,0.4375,-3.0625,0.40625
1.015625,65,-0.1875,-0.09375,0.125,-0.09375,0.40625,-0.0625,-0.03125,0.25,-0.03125,0.09375,0.03125,0.0,-0.78125,-0.6875,0.0625,0.3125,-3.21875,0.46875,0.40625,-3.21875,0.25
1.03125,66,-0.15625,-0.0625,0.09375,-0.09375,0.40625,-0.09375,0.0,0.25,-0.03125,-0.125,0.1875,-0.03125,-0.5625,-0.46875,0.0,0.25,-3.4375,0.53125,0.375,-3.34375,0.25
1.046875,67,-0.1875,-0.09375,0.03125,-0.15625,0.46875,-0.03125,-0.0625,0.21875,-0.03125,0.0625,0.09375,0.03125,-0.28125,-0.15625,-0.03125,0.21875,-3.59375,0.625,0.53125,-3.4375,0.28125
1.0625,68,-0.1875,-0.125,-0.03125,-0.125,0.40625,-0.0625,0.03125,0.21875,0.0,0.0,0.09375,-0.0625,-0.09375,0.03125,-0.0625,0.28125,-3.8125,0.71875,0.625,-3.4375,0.34375
1.078125,69,-0.21875,-0.1875,-0.0625,-0.03125,0.4375,-0.0625,0.03125,0.21875,-0.03125,-0.15625,0.21875,-0.03125,0.03125,0.125,-0.09375,0.28125,-3.90625,0.8125,0.78125,-3.34375,0.46875
1.09375,70,-0.28125,-0.21875,-0.0625,-0.03125,0.40625,-0.0625,0.0,0.25,-0.03125,0.09375,0.0625,-0.0625,0.1875,0.1875,-0.15625,0.125,-3.96875,0.84375,0.84375,-3.03125,0.6875
1.109375,71,-0.34375,-0.28125,-0.09375,-0.0625,0.40625,0.0,0.0,0.21875,-0.0625,0.0625,0.15625,-0.0625,0.46875,0.25,-0.25,-0.125,-3.96875,0.875,0.78125,-2.5,0.9375
1.125,72,-0.40625,-0.28125,-0.09375,-0.0625,0.375,-0.03125,0.0,0.25,-0.03125,0.125,0.125,-0.03125,0.78125,0.3125,-0.28125,-0.40625,-3.90625,0.78125,0.625,-1.96875,1.3125
1.140625,73,-0.5,-0.21875,-0.125,-0.125,0.40625,0.03125,-0.0625,0.25,-0.03125,0.03125,0.15625,-0.03125,1.0625,0.25,-0.25,-0.40625,-3.625,0.46875,-0.3125,-0.53125,1.34375
1.15625,74,-0.53125,-0.09375,-0.125,-0.09375,0.40625,-0.03125,0.0,0.28125,0.0,0.0625,0.1875,0.0,0.84375,-0.28125,0.09375,-0.375,-3.15625,0.15625,-2.5,0.4375,0.21875
1.171875,75,-0.59375,-0.0625,-0.125,-0.03125,0.40625,-0.03125,-0.03125,0.28125,0.0,0.1875,0.25,0.0625,0.46875,-0.78125,0.375,-1.1875,-2.0625,-0.125,0.40625,1.5,-0.5625
1.1875,76,-0.625,-0.09375,-0.09375,0.0,0.40625,-0.03125,-0.03125,0.3125,0.0625,0.21875,0.3125,0.09375,-0.4375,-1.09375,0.59375,-0.71875,-0.125,-0.0625,-0.75,-0.4375,-0.78125
1.203125,77,-0.59375,-0.1875,-0.09375,-0.09375,0.375,0.03125,-0.0625,0.34375,0.09375,0.21875,0.375,0.15625,-0.875,-1.40625,0.4375,0.25,1.9375,-0.0625,-1.09375,0.59375,0.0
1.21875,78,-0.59375,-0.21875,-0.0625,-0.09375,0.28125,0.09375,-0.0625,0.375,0.0625,0.0625,0.46875,0.0625,-2.375,-5.46875,-0.0625,1.125,2.15625,-0.09375,0.3125,-1.28125,0.75
1.234375,79,-0.65625,-0.15625,0.0,-0.1875,0.21875,0.15625,-0.09375,0.4375,0.0,-0.03125,0.625,0.125,1.40625,2.28125,0.40625,-0.0625,0.90625,-0.09375,-0.8125,1.0,0.25
1.25,80,-1.03125,-0.09375,-0.0625,-0.375,0.125,0.21875,-0.1875,0.4375,-0.03125,0.0,0.8125,0.15625,1.875,2.21875,-0.03125,-3.125,0.15625,-0.34375,0.90625,0.5625,0.375
1.265625,81,-1.40625,-0.03125,0.0,-0.4375,-0.0625,0.1875,-0.21875,0.53125,-0.0625,0.0625,0.90625,0.21875,1.25,-0.0625,-0.25,-2.34375,0.4375,-0.46875,1.0625,-0.09375,0.15625
1.28125,82,-1.375,0.0,-0.09375,-0.375,-0.3125,0.15625,-0.1875,0.625,-0.03125,0.0,1.03125,0.28125,-0.3125,0.03125,0.0625,-0.4375,0.53125,0.15625,-0.65625,-0.34375,0.21875
1.296875,83,-0.84375,-0.0625,-0.125,-0.25,-0.59375,0.15625,-0.15625,0.8125,-0.03125,0.03125,1.40625,0.375,-0.4375,1.0625,-0.03125,1.09375,0.1875,0.1875,0.71875,-0.125,-0.0625
1.3125,84,-0.5,-0.125,-0.3125,-0.125,-0.8125,0.25,-0.15625,0.9375,-0.0625,0.09375,1.59375,0.46875,0.90625,0.96875,0.03125,1.65625,0.0,0.0,0.0625,-0.03125,0.0
1.328125,85,-0.5625,-0.15625,-0.4375,0.0,-0.875,0.375,-0.1875,1.09375,-0.09375,0.125,1.78125,0.5625,1.3125,0.84375,0.21875,0.25,-0.0625,0.0625,0.0625,-0.03125,0.0
1.34375,86,-0.71875,-0.0625,-0.46875,0.03125,-0.75,0.53125,-0.21875,1.25,-0.1875,0.03125,1.9375,0.53125,0.5625,0.8125,0.21875,-1.5,-0.09375,-0.125,0.0,-0.03125,0.0
1.359375,87,-0.8125,0.0,-0.53125,-0.03125,-0.71875,0.625,-0.28125,1.375,-0.21875,-0.03125,1.9375,0.5625,-0.1875,0.84375,0.09375,-1.25,-0.0625,-0.1875,-0.03125,-0.03125,0.03125
1.375,88,-0.9375,0.0625,-0.65625,-0.125,-0.8125,0.8125,-0.28125,1.46875,-0.25,-0.03125,1.9375,0.5625,-0.4375,0.84375,0.125,0.0625,-0.125,-0.0625,-0.03125,-0.03125,0.0
1.390625,89,-0.84375,0.09375,-0.6875,-0.3125,-1.125,0.6875,-0.21875,1.46875,-0.21875,-0.125,1.875,0.46875,-0.53125,0.84375,0.1875,0.40625,-0.125,0.0,-0.03125,0.0,0.0
1.40625,90,-0.71875,0.15625,-0.65625,-0.375,-1.1875,0.53125,-0.125,1.53125,-0.1875,0.0,1.9375,0.4375,-0.4375,0.78125,0.15625,-0.15625,0.0,0.0,-0.0625,0.0,-0.03125
1.421875,91,-0.53125,0.1875,-0.625,-0.59375,-1.03125,0.5,-0.0625,1.5,-0.1875,0.0625,2.0625,0.4375,-0.03125,0.75,0.0625,-0.15625,0.03125,0.0,0.0625,0.0,0.0
1.4375,92,-0.375,0.25,-0.5,-0.78125,-0.9375,0.46875,0.0625,1.375,-0.125,0.1875,2.28125,0.40625,0.34375,0.65625,-0.0625,0.46875,0.0,0.0625,0.25,0.0,0.03125
1.453125,93,-0.21875,0.28125,-0.375,-0.625,-0.75,0.28125,0.25,1.03125,-0.0625,0.0625,1.21875,0.125,0.75,0.59375,-0.09375,0.5625,-0.09375,0.09375,0.34375,-0.03125,0.0
1.46875,94,-0.15625,0.28125,-0.25,-0.03125,-0.84375,0.125,0.28125,0.5,0.0,0.1875,0.0,-0.15625,1.0625,0.59375,-0.125,0.15625,0.0,0.03125,0.34375,-0.03125,0.0
1.484375,95,-0.15625,0.25,-0.21875,0.21875,-0.9375,0.0625,0.4375,0.0,0.0625,0.40625,-0.09375,-0.34375,0.75,0.5625,-0.09375,0.0,0.15625,0.0,0.15625,0.0,0.0
1.5,96,-0.15625,0.25,-0.125,0.53125,-1.09375,0.03125,0.53125,-0.53125,0.125,0.3125,-0.53125,-0.40625,0.21875,0.5,-0.0625,0.15625,0.25,0.0,0.09375,-0.03125,-0.03125
1.515625,97,-0.03125,0.25,-0.03125,0.5625,-1.15625,0.0625,0.5,-0.90625,0.15625,0.25,-0.96875,-0.4375,-0.125,0.46875,-0.0625,0.25,0.28125,0.03125,0.0625,0.0,-0.03125
1.53125,98,0.15625,0.25,0.0625,0.40625,-1.09375,0.09375,0.40625,-1.3125,0.15625,0.125,-1.3125,-0.40625,-0.28125,0.375,-0.03125,0.125,0.34375,0.03125,0.03125,-0.03125,-0.03125
1.546875,99,0.34375,0.25,0.09375,0.34375,-1.03125,0.15625,0.3125,-1.625,0.125,0.0,-1.65625,-0.40625,-0.21875,0.3125,0.03125,-0.03125,0.40625,0.0,0.0,-0.03125,-0.03125
1.5625,100,0.40625,0.25,0.09375,0.25,-1.09375,0.1875,0.25,-1.9375,0.09375,-0.09375,-1.90625,-0.40625,-0.09375,0.28125,0.0,-0.15625,0.4375,0.0,-0.03125,-0.03125,-0.03125
1.578125,101,0.40625,0.25,0.125,0.25,-1.21875,0.21875,0.28125,-2.09375,0.09375,-0.125,-2.0625,-0.4375,0.1875,0.40625,0.0625,-0.125,0.375,-0.03125,-0.125,0.0,-0.09375
1.59375,102,0.40625,0.3125,0.21875,0.28125,-1.3125,0.15625,0.375,-2.21875,0.15625,-0.0625,-2.21875,-0.5,0.28125,0.53125,0.0625,-0.28125,0.34375,-0.03125,-0.1875,0.0,-0.09375
1.609375,103,0.28125,0.3125,0.21875,0.3125,-1.34375,0.03125,0.4375,-2.28125,0.1875,0.0625,-2.34375,-0.53125,0.15625,0.59375,0.0625,-0.5,0.375,-0.03125,-0.1875,0.0,-0.125
1.625,104,0.21875,0.28125,0.3125,0.40625,-1.3125,-0.0625,0.46875,-2.28125,0.21875,0.1875,-2.4375,-0.53125,-0.125,0.59375,-0.03125,-0.375,0.3125,-0.03125,-0.03125,0.0,-0.0625
1.640625,105,0.21875,0.25,0.375,0.46875,-1.21875,-0.15625,0.53125,-2.3125,0.25,0.25,-2.40625,-0.5625,-0.125,0.65625,-0.0625,-0.125,0.25,-0.03125,0.0,0.0,-0.0625
1.65625,106,0.25,0.21875,0.40625,0.59375,-1.1875,-0.21875,0.5625,-2.28125,0.25,0.09375,-2.3125,-0.625,-0.1875,0.75,-0.03125,-0.25,0.21875,-0.0625,0.0,0.0,-0.03125
1.671875,107,0.25,0.21875,0.375,0.59375,-1.09375,-0.21875,0.53125,-2.25,0.21875,0.09375,-2.21875,-0.59375,-0.25,0.75,0.03125,-0.34375,0.21875,-0.0625,-0.03125,0.0,-0.03125
1.6875,108,0.3125,0.1875,0.34375,0.5625,-1.0625,-0.15625,0.53125,-2.1875,0.1875,0.09375,-2.15625,-0.59375,-0.375,0.75,0.09375,-0.1875,0.21875,-0.09375,-0.03125,0.0,0.0
1.703125,109,0.3125,0.15625,0.3125,0.5625,-0.9375,-0.125,0.5,-2.0625,0.125,0.03125,-2.0625,-0.59375,-0.5,0.6875,0.09375,0.0,0.21875,-0.0625,-0.03125,-0.03125,-0.03125
1.71875,110,0.3125,0.1875,0.25,0.53125,-0.875,-0.125,0.46875,-1.9375,0.09375,0.0,-1.9375,-0.59375,-0.5,0.65625,0.0625,0.0625,0.28125,-0.0625,0.0,0.0,-0.03125
1.734375,111,0.3125,0.21875,0.25,0.5625,-0.8125,-0.15625,0.4375,-1.8125,0.0625,-0.03125,-1.78125,-0.5625,-0.34375,0.59375,0.0,0.125,0.34375,-0.03125,0.03125,0.0,0.0
1.75,112,0.34375,0.1875,0.21875,0.53125,-0.8125,-0.15625,0.34375,-1.6875,0.0,-0.09375,-1.65625,-0.5,-0.28125,0.59375,-0.03125,0.03125,0.4375,-0.0625,0.0625,0.0,-0.03125
1.765625,113,0.375,0.125,0.21875,0.4375,-0.75,-0.125,0.21875,-1.53125,-0.03125,-0.15625,-1.5,-0.375,-0.1875,0.5,-0.03125,-0.09375,0.4375,-0.0625,0.0,0.03125,-0.03125
1.78125,114,0.34375,0.125,0.1875,0.28125,-0.65625,-0.09375,0.09375,-1.40625,-0.0625,-0.21875,-1.375,-0.25,-0.09375,0.46875,0.03125,-0.125,0.4375,-0.09375,-0.0625,0.03125,-0.0625
1.796875,115,0.34375,0.09375,0.1875,0.15625,-0.53125,-0.0625,-0.03125,-1.28125,-0.0625,-0.28125,-1.25,-0.15625,0.0625,0.5,0.03125,-0.125,0.53125,-0.09375,-0.09375,0.03125,-0.0625
1.8125,116,0.3125,0.09375,0.1875,0.09375,-0.4375,-0.03125,-0.09375,-1.125,-0.03125,-0.28125,-1.125,-0.0625,0.15625,0.625,-0.03125,-0.09375,0.53125,-0.09375,-0.09375,0.03125,-0.0625
1.828125,117,0.21875,0.09375,0.21875,0.0,-0.375,-0.03125,-0.15625,-1.0,-0.0625,-0.28125,-1.0,0.03125,0.25,0.78125,-0.0625,-0.09375,0.53125,-0.125,-0.09375,0.0,-0.0625
1.84375,118,0.1875,0.09375,0.28125,-0.09375,-0.28125,-0.03125,-0.21875,-0.875,-0.03125,-0.3125,-0.875,0.09375,0.28125,0.84375,-0.09375,-0.0625,0.5625,-0.125,-0.09375,0.0,-0.0625
1.859375,119,0.21875,0.09375,0.3125,-0.21875,-0.125,0.0,-0.28125,-0.75,-0.0625,-0.34375,-0.71875,0.15625,0.15625,0.84375,-0.0625,-0.125,0.59375,-0.125,-0.09375,0.0,-0.0625
1.875,120,0.34375,0.125,0.34375,-0.3125,0.0,-0.03125,-0.3125,-0.625,-0.0625,-0.34375,-0.59375,0.15625,0.0625,0.78125,-0.0625,-0.03125,0.5625,-0.125,-0.0625,0.0,-0.0625
1.890625,121,0.375,0.09375,0.3125,-0.34375,0.09375,-0.0625,-0.34375,-0.46875,-0.09375,-0.34375,-0.4375,0.1875,0.0625,0.75,-0.0625,0.125,0.59375,-0.125,-0.0625,0.0,-0.0625
1.90625,122,0.4375,0.03125,0.28125,-0.375,0.21875,-0.09375,-0.3125,-0.28125,-0.125,-0.3125,-0.25,0.15625,0.125,0.6875,-0.0625,-0.03125,0.625,-0.125,-0.09375,0.03125,-0.0625
1.921875,123,0.4375,0.03125,0.21875,-0.3125,0.3125,-0.15625,-0.21875,-0.03125,-0.125,-0.25,-0.03125,0.09375,0.15625,0.5625,-0.0625,-0.125,0.65625,-0.125,-0.03125,0.0625,-0.0625
1.9375,124,0.46875,0.0625,0.15625,-0.25,0.40625,-0.15625,-0.1875,0.125,-0.15625,-0.15625,0.15625,0.09375,0.1875,0.59375,-0.0625,0.0,0.65625,-0.125,-0.0625,0.0625,-0.09375
1.953125,125,0.4375,0.0625,0.125,0.4375,0.3125,-0.40625,0.75,0.75,0.0625,0.71875,1.28125,-0.375,0.28125,0.5625,-0.03125,0.0625,0.65625,-0.125,-0.0625,0.09375,-0.09375
1.96875,126,0.375,0.09375,0.0625,0.4375,0.46875,-0.34375,0.21875,0.6875,-0.03125,0.375,0.84375,-0.25,0.4375,0.65625,-0.03125,0.0625,0.59375,-0.15625,-0.0625,0.125,-0.0625
1.984375,127,0.28125,0.03125,-0.03125,0.25,0.28125,-0.25,0.125,0.75,-0.03125,0.125,1.0,-0.03125,0.4375,0.6875,-0.03125,-0.125,0.59375,-0.1875,-0.09375,0.1875,-0.09375
2.0,128,0.34375,-0.03125,-0.15625,0.0625,0.28125,-0.15625,-0.09375,0.75,-0.0625,0.0,1.0625,0.15625,0.34375,0.65625,-0.03125,-0.03125,0.59375,-0.15625,-0.09375,0.1875,-0.15625
2.015625,129,0.40625,-0.15625,-0.125,-0.03125,0.34375,-0.09375,-0.25,0.75,-0.125,-0.0625,1.0625,0.21875,0.34375,0.65625,-0.03125,0.25,0.5625,-0.15625,-0.09375,0.21875,-0.1875
2.03125,130,0.4375,-0.15625,-0.0625,-0.375,0.5,0.0,-0.28125,0.71875,-0.1875,-0.15625,1.0,0.21875,0.375,0.65625,-0.0625,0.21875,0.5625,-0.125,-0.09375,0.28125,-0.1875
2.046875,131,0.5625,-0.1875,0.0625,-0.59375,0.59375,-0.03125,-0.3125,0.6875,-0.21875,-0.25,1.0625,0.21875,0.375,0.59375,-0.09375,0.15625,0.53125,-0.1875,-0.09375,0.34375,-0.1875
2.0625,132,0.46875,-0.15625,-0.0625,-0.53125,0.59375,-0.15625,-0.25,0.6875,-0.1875,-0.15625,0.96875,0.125,0.1875,0.5625,-0.0625,0.09375,0.5625,-0.15625,-0.09375,0.46875,-0.15625
2.078125,133,0.5,-0.15625,-0.09375,-0.375,0.53125,-0.28125,-0.1875,0.6875,-0.1875,0.0625,0.84375,0.09375,-0.03125,0.46875,-0.03125,0.15625,0.59375,-0.125,-0.0625,0.5625,-0.1875
2.09375,134,0.5,-0.125,-0.125,-0.25,0.625,-0.34375,-0.1875,0.65625,-0.15625,-0.125,0.75,0.03125,-0.0625,0.375,-0.03125,0.125,0.65625,-0.15625,0.0,0.6875,-0.1875
2.109375,135,0.53125,-0.15625,-0.15625,-0.09375,0.59375,-0.3125,-0.15625,0.6875,-0.15625,0.0,0.71875,0.03125,0.03125,0.3125,-0.03125,0.125,0.71875,-0.15625,0.0,0.8125,-0.21875
2.125,136,0.5,-0.15625,-0.125,-0.125,0.625,-0.25,-0.125,0.65625,-0.125,-0.03125,0.625,0.0625,0.21875,0.03125,-0.09375,0.21875,0.8125,-0.125,-0.03125,0.96875,-0.21875
2.140625,137,0.53125,-0.1875,-0.09375,-0.21875,0.6875,-0.1875,-0.15625,0.65625,-0.125,-0.375,0.65625,-0.03125,0.4375,-0.0625,-0.1875,0.28125,0.8125,-0.125,-0.09375,1.0625,-0.25
2.15625,138,0.5,-0.15625,-0.0625,-0.34375,0.78125,-0.25,-0.15625,0.625,-0.125,-0.5,0.40625,-0.03125,0.5,-0.03125,-0.1875,0.25,0.875,-0.125,-0.15625,1.21875,-0.25
2.171875,139,0.46875,-0.15625,0.03125,-0.3125,0.84375,-0.28125,-0.125,0.59375,-0.15625,-0.15625,-0.15625,-0.03125,0.5,-0.03125,-0.1875,0.0625,0.96875,-0.125,-0.21875,1.40625,-0.1875
2.1875,140,0.4375,-0.125,0.0,-0.3125,0.90625,-0.28125,-0.0625,0.5625,-0.15625,-0.09375,0.15625,-0.0625,0.34375,-0.09375,-0.15625,0.0,1.03125,-0.125,-0.25,1.625,-0.21875
2.203125,141,0.375,-0.09375,0.0,-0.3125,0.9375,-0.3125,-0.09375,0.53125,-0.125,-0.03125,0.09375,-0.03125,0.1875,-0.3125,-0.15625,0.09375,1.15625,-0.09375,-0.25,1.8125,-0.21875
2.21875,142,0.40625,-0.0625,0.03125,-0.3125,0.9375,-0.3125,-0.0625,0.5,-0.125,-0.03125,0.03125,-0.0625,0.03125,-0.59375,-0.1875,0.21875,1.25,-0.0625,-0.25,2.03125,-0.28125
2.234375,143,0.375,-0.0625,0.0625,-0.3125,0.96875,-0.28125,-0.03125,0.4375,-0.09375,-0.03125,0.0625,-0.03125,-0.0625,-0.84375,-0.1875,0.34375,1.375,-0.0625,-0.25,2.28125,-0.40625
2.25,144,0.34375,-0.03125,0.09375,-0.3125,0.96875,-0.3125,-0.0625,0.4375,-0.09375,-0.03125,0.03125,-0.03125,-0.03125,-1.09375,-0.15625,0.53125,1.46875,-0.03125,-0.25,2.4375,-0.5625
2.265625,145,0.3125,0.0,0.125,-0.28125,0.90625,-0.28125,-0.0625,0.4375,-0.09375,-0.0625,0.03125,-0.03125,-0.03125,-1.25,-0.1875,0.53125,1.5,0.0,-0.09375,2.65625,-0.8125
2.28125,146,0.25,0.0,0.125,-0.25,0.875,-0.25,-0.03125,0.4375,-0.0625,0.0,0.03125,-0.03125,0.0625,-1.34375,-0.1875,0.34375,1.5625,0.0625,-0.15625,2.75,-1.0
2.296875,147,0.21875,0.0,0.125,-0.1875,0.875,-0.25,-0.03125,0.40625,-0.0625,0.0,0.03125,-0.03125,0.15625,-1.40625,-0.1875,0.1875,1.65625,0.09375,-0.34375,2.6875,-1.15625
2.3125,148,0.1875,-0.03125,0.09375,-0.125,0.8125,-0.25,-0.03125,0.4375,-0.03125,-0.03125,-0.03125,-0.03125,0.09375,-1.40625,-0.09375,0.125,1.75,0.03125,-0.09375,2.65625,-1.1875
2.328125,149,0.1875,0.0,0.09375,-0.15625,0.8125,-0.25,-0.03125,0.4375,0.0,0.0,0.0625,0.0,0.125,-1.5625,0.0,0.21875,1.875,-0.03125,0.03125,2.59375,-1.21875
2.34375,150,0.1875,0.0,0.09375,-0.1875,0.84375,-0.25,-0.03125,0.40625,0.0,0.03125,0.03125,0.0,0.21875,-1.59375,0.125,0.5625,1.84375,-0.0625,-0.03125,2.59375,-1.25
2.359375,151,0.21875,0.0,0.09375,-0.15625,0.875,-0.21875,-0.03125,0.375,0.0,0.03125,0.0,0.0,0.25,-1.625,0.21875,0.875,1.6875,-0.1875,0.0625,2.4375,-1.15625
2.375,152,0.28125,0.0,0.03125,-0.1875,0.875,-0.21875,-0.03125,0.375,0.0,0.03125,0.03125,0.0,0.09375,-1.5625,0.1875,0.75,1.5,-0.3125,0.15625,2.28125,-1.0
2.390625,153,0.25,0.03125,0.0,-0.28125,0.9375,-0.1875,-0.03125,0.34375,0.0,0.03125,0.0625,0.0,-0.25,-1.40625,0.1875,0.34375,1.25,-0.375,0.25,1.6875,-0.25
2.40625,154,0.28125,0.0625,0.0,-0.3125,0.90625,-0.1875,0.0,0.3125,-0.03125,0.0,0.09375,-0.03125,-0.59375,-1.375,0.21875,0.0,0.75,-0.4375,-1.125,0.0625,0.46875
2.421875,155,0.25,0.03125,0.03125,-0.3125,0.8125,-0.15625,-0.03125,0.3125,-0.0625,0.0,0.09375,0.0,-0.9375,-1.4375,0.21875,-0.46875,0.3125,-0.40625,-0.1875,-0.15625,1.125
2.4375,156,0.25,0.03125,0.0625,-0.3125,0.78125,-0.15625,0.0,0.3125,-0.09375,0.0,0.09375,-0.03125,-1.15625,-1.53125,0.125,-1.0,-0.125,-0.3125,-0.34375,-0.71875,1.4375
2.453125,157,0.25,0.0,0.09375,-0.25,0.8125,-0.15625,0.0,0.28125,-0.09375,-0.03125,0.125,-0.03125,-1.25,-1.625,0.03125,-1.15625,-0.5,-0.21875,-0.34375,-1.28125,1.46875
2.46875,158,0.21875,0.0,0.125,-0.15625,0.75,-0.1875,0.0,0.25,-0.0625,-0.03125,0.15625,-0.0625,-1.375,-1.65625,-0.0625,-0.875,-0.90625,-0.125,-0.0625,-1.75,1.125
2.484375,159,0.1875,0.0,0.15625,-0.125,0.75,-0.15625,0.0,0.25,-0.09375,-0.03125,0.15625,-0.03125,-1.40625,-1.65625,-0.0625,-0.34375,-1.375,0.0,0.0625,-2.125,0.65625
2.5,160,0.15625,-0.0625,0.1875,0.0,0.71875,-0.15625,0.0625,0.28125,-0.09375,0.0625,0.125,-0.0625,-1.40625,-1.59375,-0.09375,0.3125,-1.84375,0.125,0.1875,-2.53125,0.21875
2.515625,161,0.09375,-0.0625,0.1875,-0.03125,0.625,-0.125,0.0,0.28125,-0.0625,-0.125,0.25,-0.0625,-1.28125,-1.4375,-0.125,0.9375,-2.3125,0.25,0.3125,-2.8125,-0.09375
2.53125,162,0.0625,-0.0625,0.1875,0.03125,0.625,-0.15625,0.125,0.28125,-0.0625,0.125,0.1875,-0.09375,-1.03125,-1.25,-0.125,1.21875,-2.65625,0.40625,0.4375,-3.0625,-0.28125
2.546875,163,0.0,-0.09375,0.15625,0.0,0.5625,-0.09375,0.0625,0.3125,-0.0625,0.0,0.25,-0.09375,-0.65625,-1.0625,-0.15625,1.34375,-2.9375,0.5,0.53125,-3.21875,-0.34375
2.5625,164,0.0,-0.09375,0.21875,-0.03125,0.5625,-0.125,0.0625,0.3125,-0.09375,0.03125,0.25,-0.0625,-0.28125,-0.84375,-0.1875,1.1875,-3.21875,0.625,0.5625,-3.3125,-0.3125
2.578125,165,-0.09375,-0.15625,0.1875,-0.0625,0.5,-0.15625,0.03125,0.34375,-0.0625,0.09375,0.28125,-0.03125,0.03125,-0.6875,-0.125,0.6875,-3.53125,0.65625,0.46875,-3.3125,-0.09375
2.59375,166,-0.125,-0.125,0.15625,-0.09375,0.46875,-0.125,-0.03125,0.34375,-0.0625,0.0625,0.28125,0.0,0.15625,-0.5,-0.09375,0.09375,-3.6875,0.65625,0.40625,-3.34375,0.25
2.609375,167,-0.1875,-0.09375,0.15625,-0.125,0.46875,-0.09375,-0.0625,0.34375,-0.0625,0.0625,0.28125,0.03125,0.1875,-0.375,-0.0625,-0.25,-3.78125,0.65625,0.4375,-3.34375,0.625
2.625,168,-0.28125,-0.125,0.15625,-0.125,0.40625,-0.09375,-0.0625,0.375,-0.0625,0.0625,0.3125,0.0,0.1875,-0.125,-0.0625,-0.34375,-3.8125,0.6875,0.4375,-3.125,0.9375
2.640625,169,-0.375,-0.125,0.09375,-0.15625,0.40625,-0.09375,-0.0625,0.34375,-0.0625,0.03125,0.28125,0.03125,0.09375,-0.0625,-0.0625,-0.34375,-3.84375,0.6875,0.40625,-2.71875,1.03125
2.65625,170,-0.40625,-0.1875,0.03125,-0.15625,0.40625,-0.0625,-0.0625,0.34375,-0.0625,-0.0625,0.28125,0.0,0.0,0.0,-0.125,-0.34375,-3.875,0.6875,0.375,-2.28125,1.09375
2.671875,171,-0.5,-0.21875,-0.03125,-0.15625,0.40625,-0.03125,-0.09375,0.34375,-0.09375,0.0625,0.28125,0.0,-0.03125,0.0,-0.15625,-0.34375,-3.90625,0.6875,0.5,-1.96875,1.09375
2.6875,172,-0.53125,-0.21875,-0.125,-0.15625,0.34375,-0.03125,-0.09375,0.34375,-0.09375,0.0,0.28125,0.0,0.0,-0.03125,-0.1875,-0.28125,-3.84375,0.6875,0.53125,-1.84375,1.0625
2.703125,173,-0.625,-0.125,-0.1875,-0.1875,0.40625,0.0,-0.09375,0.3125,-0.125,-0.03125,0.28125,-0.03125,0.125,-0.0625,-0.21875,0.1875,-3.53125,0.5625,0.40625,-1.78125,0.96875
2.71875,174,-0.625,-0.125,-0.25,-0.1875,0.46875,0.0,-0.0625,0.34375,-0.09375,0.03125,0.25,-0.03125,0.15625,-0.34375,-0.03125,0.46875,-3.375,0.4375,1.25,-1.84375,1.0
2.734375,175,-0.71875,-0.03125,-0.25,-0.21875,0.5,-0.03125,-0.0625,0.34375,-0.125,-0.03125,0.28125,-0.0625,0.21875,-0.3125,0.1875,0.3125,-2.9375,0.34375,0.71875,-1.875,0.65625
2.75,176,-0.78125,0.0,-0.28125,-0.15625,0.5625,-0.03125,-0.0625,0.375,-0.09375,0.0,0.34375,-0.03125,0.125,-0.4375,0.28125,-0.03125,-2.25,0.28125,-0.25,-1.96875,0.21875
2.765625,177,-0.75,0.03125,-0.25,-0.1875,0.59375,-0.03125,-0.0625,0.40625,-0.03125,0.03125,0.40625,0.0,-0.1875,-0.625,0.375,0.0,-1.3125,0.28125,-0.65625,-1.6875,-0.40625
2.78125,178,-0.75,0.03125,-0.15625,-0.15625,0.625,0.0,-0.09375,0.46875,0.03125,0.0,0.4375,0.0625,-0.1875,-0.5625,0.34375,0.0625,-0.40625,0.28125,-0.59375,-0.21875,-0.71875
2.796875,179,-0.71875,0.0,-0.09375,-0.15625,0.59375,0.03125,-0.125,0.5,0.03125,0.15625,0.5625,0.09375,0.0625,-0.34375,0.21875,-0.09375,0.53125,0.21875,-1.1875,1.21875,-0.34375
2.8125,180,-0.65625,-0.0625,-0.09375,-0.25,0.53125,0.0625,-0.15625,0.53125,0.0625,0.125,0.71875,0.15625,0.21875,-0.1875,0.21875,-0.65625,1.1875,0.0,-1.40625,1.65625,0.8125
2.828125,181,-0.65625,0.0,-0.15625,-0.34375,0.53125,0.125,-0.1875,0.5625,0.03125,0.15625,0.84375,0.1875,-0.90625,-2.5,0.1875,-1.75,0.78125,-0.21875,-2.1875,3.875,0.6875
2.84375,182,-0.71875,0.0625,-0.1875,-0.46875,0.4375,0.1875,-0.21875,0.65625,0.0,0.09375,1.0625,0.1875,0.8125,0.90625,0.125,-2.375,0.375,-0.46875,1.46875,0.8125,0.15625
2.859375,183,-0.71875,-0.0625,-0.15625,-0.4375,0.1875,0.1875,-0.25,0.75,0.0,-0.03125,1.25,0.25,0.3125,0.75,-0.125,-1.96875,0.28125,-0.34375,1.84375,0.78125,-0.03125
2.875,184,-0.75,-0.0625,-0.21875,-0.375,-0.28125,0.25,-0.28125,0.90625,-0.0625,0.0,1.46875,0.25,-0.875,-0.1875,-0.125,-0.125,0.34375,-0.125,2.03125,1.09375,-0.0625
2.890625,185,-0.5625,-0.03125,-0.1875,-0.1875,-0.6875,0.3125,-0.25,1.0625,-0.0625,-0.03125,1.78125,0.28125,-0.6875,-0.15625,-0.09375,0.875,0.625,0.15625,0.4375,-0.375,0.46875
2.90625,186,-0.40625,0.0,-0.25,-0.03125,-0.75,0.34375,-0.15625,1.21875,-0.09375,-0.0625,2.0,0.3125,0.96875,0.96875,0.125,-0.4375,0.84375,0.21875,-0.59375,0.34375,0.25
2.921875,187,-0.625,0.09375,-0.40625,0.125,-0.75,0.4375,-0.09375,1.40625,-0.09375,-0.125,2.25,0.28125,1.84375,1.15625,0.25,-1.28125,0.78125,-0.15625,0.25,0.0625,-0.0625
2.9375,188,-0.84375,0.125,-0.59375,0.1875,-0.875,0.59375,-0.09375,1.53125,-0.125,0.1875,2.28125,0.4375,0.875,0.65625,0.21875,0.0625,0.53125,0.0,-0.125,0.0625,0.03125
2.953125,189,-0.96875,0.1875,-0.5625,0.0625,-1.0625,0.75,-0.15625,1.59375,-0.125,0.125,2.25,0.46875,0.46875,0.6875,0.1875,1.53125,0.21875,0.21875,-0.1875,0.15625,-0.03125
2.96875,190,-0.9375,0.15625,-0.5,-0.0625,-1.34375,0.84375,-0.15625,1.6875,-0.15625,0.09375,2.0625,0.53125,0.46875,0.9375,0.0625,1.125,0.1875,0.09375,-0.0625,0.09375,0.0
2.984375,191,-0.84375,0.1875,-0.40625,-0.40625,-1.40625,0.875,-0.1875,1.75,-0.15625,0.09375,2.03125,0.53125,-0.0625,0.875,0.09375,-0.34375,0.375,0.0,0.03125,0.0625,0.09375
3.0,192,-0.8125,0.1875,-0.3125,-0.78125,-1.1875,0.8125,-0.1875,1.75,-0.15625,0.125,2.03125,0.5625,-0.40625,0.78125,0.09375,-0.96875,0.4375,-0.09375,0.125,0.09375,0.15625
3.015625,193,-0.75,0.21875,-0.25,-0.84375,-1.125,0.71875,-0.25,1.75,-0.1875,0.03125,2.1875,0.5625,-0.375,0.78125,0.03125,-0.4375,0.375,0.0,0.09375,0.09375,0.09375
3.03125,194,-0.59375,0.25,-0.1875,-0.78125,-1.0625,0.6875,-0.34375,1.625,-0.21875,0.21875,2.46875,0.59375,-0.09375,0.78125,0.0,0.65625,0.21875,0.125,0.21875,0.0625,0.03125
3.046875,195,-0.4375,0.21875,-0.09375,-0.8125,-0.9375,0.59375,-0.5,1.4375,-0.1875,0.125,1.6875,0.53125,0.34375,0.75,0.03125,1.0,0.125,0.125,0.125,0.03125,-0.03125
3.0625,196,-0.3125,0.1875,-0.0625,-0.75,-1.0,0.4375,-0.5,1.15625,-0.15625,-0.34375,0.84375,0.59375,0.65625,0.71875,0.03125,0.3125,0.1875,0.03125,0.0625,0.0,-0.03125
3.078125,197,-0.1875,0.1875,0.0,-0.53125,-1.21875,0.46875,-0.875,0.5,-0.125,-0.6875,0.71875,0.84375,0.53125,0.5625,-0.03125,-0.46875,0.3125,0.0,0.0,0.03125,0.0
3.09375,198,-0.125,0.21875,0.0,-0.59375,-1.375,0.5625,-0.9375,-0.09375,-0.09375,-0.6875,-0.125,0.75,0.15625,0.5625,0.0,-0.46875,0.3125,0.0,0.0,0.03125,0.0
3.109375,199,-0.15625,0.21875,-0.09375,-0.59375,-1.40625,0.46875,-0.625,-0.6875,-0.0625,-0.53125,-0.6875,0.46875,-0.125,0.59375,0.0625,0.0,0.25,0.0625,0.03125,0.0,-0.03125
3.125,200,-0.15625,0.21875,-0.15625,-0.25,-1.3125,0.375,-0.15625,-1.1875,-0.03125,-0.28125,-1.1875,0.0,-0.125,0.5625,0.0625,0.1875,0.21875,0.09375,0.03125,-0.0625,-0.0625
3.140625,201,-0.125,0.1875,-0.0625,0.15625,-1.09375,0.15625,0.25,-1.65625,0.09375,-0.0625,-1.65625,-0.34375,-0.03125,0.5625,0.03125,0.03125,0.21875,0.0625,0.03125,-0.0625,-0.0625
3.15625,202,-0.09375,0.125,0.03125,0.34375,-1.09375,0.03125,0.5625,-2.0625,0.1875,0.09375,-2.0625,-0.59375,0.03125,0.5,0.0,-0.0625,0.25,0.03125,0.0625,-0.09375,-0.0625
3.171875,203,-0.125,0.09375,0.125,0.59375,-1.21875,-0.125,0.75,-2.40625,0.28125,0.21875,-2.46875,-0.75,-0.03125,0.53125,0.03125,-0.0625,0.28125,0.0,0.0625,-0.09375,-0.0625
3.1875,204,-0.125,0.09375,0.15625,0.6875,-1.34375,-0.15625,0.84375,-2.59375,0.34375,0.25,-2.75,-0.75,-0.1875,0.46875,0.0625,-0.0625,0.3125,0.0,0.03125,-0.125,-0.03125
3.203125,205,-0.0625,0.0625,0.1875,0.71875,-1.4375,-0.15625,0.78125,-2.71875,0.375,0.25,-2.90625,-0.75,-0.3125,0.40625,0.09375,-0.125,0.3125,0.0,-0.03125,-0.09375,-0.0625
3.21875,206,-0.03125,0.0625,0.125,0.59375,-1.53125,-0.0625,0.71875,-2.84375,0.375,0.1875,-3.03125,-0.65625,-0.34375,0.40625,0.125,-0.28125,0.3125,-0.03125,-0.1875,0.03125,-0.125
3.234375,207,-0.03125,0.0625,0.125,0.5625,-1.5625,-0.03125,0.625,-2.90625,0.34375,0.09375,-2.9375,-0.59375,-0.40625,0.375,0.125,-0.4375,0.375,0.0,-0.28125,0.09375,-0.125
3.25,208,0.0,0.03125,0.15625,0.59375,-1.53125,-0.03125,0.5,-2.9375,0.25,-0.03125,-2.96875,-0.5625,-0.4375,0.3125,0.09375,-0.4375,0.40625,-0.03125,-0.21875,0.09375,-0.09375
3.265625,209,0.09375,0.0625,0.1875,0.625,-1.40625,-0.0625,0.4375,-2.9375,0.1875,-0.125,-2.96875,-0.5625,-0.3125,0.375,0.0625,-0.34375,0.40625,0.0,-0.1875,0.0625,-0.0625
3.28125,210,0.125,0.09375,0.28125,0.59375,-1.1875,-0.03125,0.40625,-2.9375,0.125,-0.21875,-2.9375,-0.59375,-0.125,0.40625,0.03125,-0.21875,0.4375,-0.03125,-0.1875,0.0625,-0.09375
3.296875,211,0.125,0.09375,0.34375,0.59375,-1.125,-0.09375,0.40625,-2.9375,0.03125,-0.25,-2.90625,-0.625,-0.03125,0.46875,0.03125,-0.125,0.40625,0.0,-0.15625,0.0625,-0.0625
3.3125,212,0.125,0.125,0.375,0.5,-1.125,-0.15625,0.375,-2.84375,-0.03125,-0.3125,-2.8125,-0.625,-0.03125,0.5,0.03125,-0.15625,0.4375,0.0,-0.15625,0.03125,-0.0625
3.328125,213,0.09375,0.09375,0.375,0.40625,-1.09375,-0.15625,0.34375,-2.75,-0.03125,-0.34375,-2.6875,-0.59375,-0.15625,0.46875,0.03125,-0.0625,0.4375,-0.03125,-0.09375,0.03125,-0.03125
3.34375,214,0.125,0.09375,0.34375,0.34375,-0.9375,-0.1875,0.3125,-2.59375,-0.03125,-0.34375,-2.59375,-0.53125,-0.15625,0.4375,0.0,0.0625,0.5,-0.03125,-0.09375,0.03125,-0.03125
3.359375,215,0.125,0.09375,0.34375,0.28125,-0.8125,-0.15625,0.1875,-2.40625,0.0625,-0.3125,-2.40625,-0.40625,-0.1875,0.40625,0.0,-0.125,0.53125,-0.03125,-0.09375,0.03125,-0.03125
3.375,216,0.125,0.125,0.28125,0.15625,-0.71875,-0.125,0.03125,-2.21875,0.09375,-0.3125,-2.21875,-0.1875,-0.1875,0.375,0.03125,-0.34375,0.5625,-0.0625,-0.125,0.0625,-0.0625
3.390625,217,0.125,0.15625,0.25,0.09375,-0.65625,-0.0625,-0.09375,-1.96875,0.15625,-0.28125,-1.96875,-0.03125,-0.09375,0.4375,0.0625,-0.40625,0.5625,-0.0625,-0.15625,0.0625,-0.09375
3.40625,218,0.09375,0.1875,0.25,0.09375,-0.53125,-0.0625,-0.15625,-1.65625,0.15625,-0.28125,-1.6875,0.0625,0.0,0.59375,0.0625,-0.21875,0.53125,-0.0625,-0.125,0.03125,-0.125
3.421875,219,0.03125,0.15625,0.25,0.125,-0.46875,0.0,-0.125,-1.34375,0.09375,-0.25,-1.40625,0.0625,0.0625,0.75,0.03125,-0.125,0.5,-0.09375,-0.0625,0.0,-0.0625
3.4375,220,0.0,0.125,0.28125,0.21875,-0.4375,0.0,-0.03125,-1.03125,0.0625,-0.15625,-1.03125,-0.03125,0.03125,0.78125,0.0,-0.125,0.46875,-0.09375,-0.0625,0.0,-0.03125
3.453125,221,0.0625,0.15625,0.28125,0.25,-0.34375,0.0,0.09375,-0.6875,0.0,-0.09375,-0.65625,-0.125,0.03125,0.75,-0.0625,-0.125,0.46875,-0.09375,-0.0625,0.0,-0.03125
3.46875,222,0.15625,0.09375,0.28125,0.21875,-0.28125,0.03125,0.125,-0.375,-0.0625,-0.03125,-0.34375,-0.1875,0.0,0.6875,-0.03125,-0.125,0.46875,-0.0625,-0.03125,0.0,-0.03125
3.484375,223,0.25,0.0625,0.21875,0.0625,-0.125,-0.03125,0.125,-0.15625,-0.125,-0.03125,-0.125,-0.1875,-0.125,0.65625,0.0,-0.15625,0.53125,-0.0625,-0.03125,0.0,-0.03125
3.5,224,0.34375,0.0625,0.125,-0.03125,-0.03125,-0.0625,0.0625,0.03125,-0.15625,-0.03125,0.0625,-0.125,-0.09375,0.625,0.0625,0.0,0.53125,-0.0625,-0.03125,0.0,-0.03125
3.515625,225,0.375,0.03125,0.0625,-0.15625,0.125,-0.0625,-0.0625,0.125,-0.1875,-0.125,0.1875,-0.03125,-0.03125,0.59375,0.03125,0.15625,0.5625,-0.03125,0.0,0.03125,-0.0625
3.53125,226,0.375,0.0,0.0,-0.28125,0.1875,-0.09375,-0.15625,0.25,-0.15625,-0.1875,0.28125,0.0625,0.15625,0.5625,0.0,0.1875,0.5625,-0.0625,-0.03125,0.03125,-0.09375
3.546875,227,0.375,0.0,0.0,-0.34375,0.28125,-0.09375,-0.25,0.28125,-0.15625,-0.21875,0.34375,0.15625,0.25,0.625,0.0,0.09375,0.5625,-0.09375,-0.03125,0.03125,-0.0625
3.5625,228,0.34375,0.0,0.0625,-0.34375,0.375,-0.15625,-0.25,0.34375,-0.15625,-0.1875,0.375,0.1875,0.25,0.6875,-0.03125,0.0625,0.59375,-0.09375,0.0,0.03125,-0.03125
3.578125,229,0.375,0.0,0.0625,-0.34375,0.40625,-0.15625,-0.25,0.40625,-0.1875,-0.21875,0.4375,0.15625,0.15625,0.75,-0.03125,0.1875,0.59375,-0.09375,0.03125,0.03125,-0.03125
3.59375,230,0.375,-0.03125,0.09375,-0.28125,0.5625,-0.15625,-0.25,0.40625,-0.1875,-0.1875,0.5,0.15625,0.25,0.75,-0.0625,0.25,0.625,-0.09375,0.0625,0.03125,-0.03125
3.609375,231,0.375,-0.0625,0.09375,-0.15625,0.625,-0.3125,0.21875,0.3125,0.0625,1.25,1.5625,0.09375,0.375,0.75,-0.0625,0.1875,0.59375,-0.09375,0.03125,0.03125,-0.0625
3.625,232,0.34375,-0.0625,0.09375,0.75,0.5,-0.40625,0.28125,0.53125,0.0625,0.40625,1.0,-0.125,0.34375,0.75,-0.0625,0.21875,0.59375,-0.125,0.0,0.0625,-0.03125
3.640625,233,0.21875,-0.0625,0.0,0.15625,0.40625,-0.3125,0.125,0.5625,0.0625,0.28125,0.78125,-0.03125,0.21875,0.65625,0.0625,0.0625,0.65625,-0.125,-0.0625,0.09375,-0.09375
3.65625,234,0.21875,-0.125,-0.09375,-0.0625,0.28125,-0.25,-0.0625,0.59375,0.03125,0.09375,0.875,0.125,0.21875,0.59375,0.03125,0.03125,0.65625,-0.125,-0.09375,0.15625,-0.125
3.671875,235,0.25,-0.1875,-0.1875,0.09375,0.40625,-0.15625,-0.09375,0.59375,-0.03125,0.0,0.9375,0.125,0.4375,0.53125,-0.03125,0.25,0.6875,-0.125,-0.09375,0.1875,-0.15625
3.6875,236,0.3125,-0.21875,-0.15625,0.0,0.40625,-0.09375,-0.09375,0.65625,-0.125,0.0,0.875,0.0625,0.59375,0.4375,-0.09375,0.34375,0.65625,-0.125,-0.0625,0.21875,-0.15625
3.703125,237,0.375,-0.1875,-0.09375,-0.125,0.5,-0.09375,-0.09375,0.65625,-0.15625,-0.0625,0.875,0.03125,0.59375,0.4375,-0.15625,0.28125,0.65625,-0.15625,-0.03125,0.28125,-0.15625
3.71875,238,0.4375,-0.1875,-0.0625,-0.1875,0.53125,-0.09375,-0.15625,0.6875,-0.21875,-0.1875,0.90625,0.09375,0.46875,0.40625,-0.125,0.21875,0.65625,-0.15625,-0.0625,0.3125,-0.15625
3.734375,239,0.4375,-0.15625,-0.03125,-0.1875,0.40625,-0.1875,-0.21875,0.6875,-0.21875,-0.03125,0.8125,0.125,0.3125,0.46875,-0.15625,0.1875,0.65625,-0.125,-0.0625,0.375,-0.15625
3.75,240,0.4375,-0.15625,-0.09375,-0.21875,0.46875,-0.25,-0.1875,0.6875,-0.21875,-0.03125,0.75,0.0625,0.1875,0.5,-0.125,0.09375,0.65625,-0.15625,-0.0625,0.46875,-0.15625
3.765625,241,0.46875,-0.15625,-0.125,-0.28125,0.53125,-0.15625,-0.1875,0.71875,-0.21875,-0.125,0.65625,0.0625,0.21875,0.46875,-0.09375,0.09375,0.71875,-0.15625,-0.09375,0.625,-0.1875
3.78125,242,0.4375,-0.125,-0.125,-0.3125,0.5625,-0.15625,-0.15625,0.71875,-0.1875,-0.09375,0.71875,0.0625,0.28125,0.40625,-0.09375,0.1875,0.75,-0.15625,-0.0625,0.8125,-0.21875
3.796875,243,0.4375,-0.0625,-0.125,-0.3125,0.625,-0.15625,-0.15625,0.71875,-0.15625,-0.0625,0.0,-0.03125,0.28125,0.21875,-0.09375,0.21875,0.8125,-0.15625,-0.03125,1.0,-0.21875
3.8125,244,0.4375,0.0,-0.09375,-0.40625,0.8125,-0.1875,-0.15625,0.625,-0.15625,-0.34375,0.40625,-0.03125,0.21875,0.03125,-0.125,0.125,0.84375,-0.15625,-0.03125,1.21875,-0.25
3.828125,245,0.40625,-0.03125,-0.0625,-0.3125,0.875,-0.28125,-0.09375,0.59375,-0.125,-0.21875,-0.03125,-0.03125,0.125,-0.21875,-0.125,-0.03125,0.9375,-0.1875,-0.09375,1.4375,-0.28125
3.84375,246,0.4375,-0.03125,0.0,-0.3125,0.90625,-0.3125,-0.09375,0.53125,-0.125,-0.0625,0.0,-0.03125,0.0,-0.4375,-0.125,-0.125,1.0,-0.15625,-0.1875,1.625,-0.28125
3.859375,247,0.40625,0.0,0.0,-0.34375,0.9375,-0.3125,-0.09375,0.53125,-0.09375,-0.03125,0.09375,-0.03125,-0.09375,-0.75,-0.09375,-0.125,1.125,-0.125,-0.28125,1.78125,-0.375
3.875,248,0.375,0.03125,0.0,-0.3125,0.90625,-0.3125,-0.0625,0.5,-0.09375,-0.125,0.0625,-0.0625,-0.1875,-1.125,-0.125,-0.03125,1.3125,-0.09375,-0.375,2.03125,-0.5
3.890625,249,0.375,0.03125,0.0,-0.28125,0.90625,-0.28125,-0.0625,0.5,-0.09375,-0.0625,0.03125,-0.03125,-0.09375,-1.4375,-0.1875,0.25,1.46875,-0.0625,-0.34375,2.3125,-0.65625
3.90625,250,0.34375,0.0625,0.0,-0.28125,0.875,-0.28125,-0.0625,0.5,-0.09375,-0.03125,0.03125,-0.03125,-0.125,-1.5,-0.25,0.34375,1.65625,-0.03125,-0.09375,2.53125,-0.84375
3.921875,251,0.28125,0.0625,-0.03125,-0.3125,0.875,-0.28125,-0.0625,0.5,-0.0625,-0.03125,0.0,-0.03125,-0.09375,-1.5,-0.3125,0.34375,1.71875,0.03125,-0.09375,2.71875,-1.0
3.9375,252,0.28125,0.0625,-0.03125,-0.25,0.84375,-0.25,-0.0625,0.5,-0.09375,0.03125,0.0625,-0.03125,0.0,-1.4375,-0.28125,0.3125,1.84375,0.0625,-0.4375,2.625,-1.03125
3.953125,253,0.28125,0.0625,-0.0625,-0.15625,0.78125,-0.25,-0.03125,0.53125,-0.09375,-0.0625,0.03125,-0.03125,0.125,-1.40625,-0.21875,0.28125,1.90625,0.0,-0.375,2.46875,-1.0
3.96875,254,0.3125,0.125,-0.0625,-0.15625,0.78125,-0.21875,-0.0625,0.5625,-0.125,0.0,0.0625,-0.03125,0.1875,-1.4375,-0.09375,0.28125,2.0,-0.09375,-0.21875,2.375,-0.96875
3.984375,255,0.3125,0.09375,-0.0625,-0.21875,0.78125,-0.1875,-0.03125,0.5625,-0.09375,0.0,0.09375,0.0,0.3125,-1.46875,0.03125,0.46875,1.90625,-0.15625,-0.34375,2.3125,-0.90625
4.0,256,0.34375,0.15625,-0.03125,-0.21875,0.78125,-0.1875,-0.0625,0.53125,-0.0625,0.0,0.125,-0.03125,0.34375,-1.5,0.15625,0.59375,1.75,-0.3125,-0.375,2.3125,-0.8125
4.015625,257,0.3125,0.125,-0.03125,-0.28125,0.875,-0.1875,-0.0625,0.4375,-0.0625,0.0,0.15625,0.0,0.15625,-1.4375,0.1875,0.46875,1.5625,-0.40625,-0.28125,1.96875,-0.65625
4.03125,258,0.28125,0.09375,-0.03125,-0.34375,0.875,-0.1875,-0.0625,0.40625,-0.03125,0.0,0.125,0.0,-0.25,-1.34375,0.15625,0.28125,1.1875,-0.40625,-0.5625,1.21875,-0.34375
4.046875,259,0.21875,0.125,0.0,-0.375,0.84375,-0.1875,-0.03125,0.34375,-0.03125,0.0,0.09375,0.0,-0.625,-1.28125,0.15625,0.15625,0.75,-0.40625,-0.6875,0.4375,0.03125
4.0625,260,0.1875,0.09375,0.03125,-0.375,0.875,-0.1875,0.0,0.28125,-0.0625,0.0,0.09375,-0.03125,-0.96875,-1.28125,0.125,-0.09375,0.28125,-0.40625,-0.4375,0.03125,0.40625
4.078125,261,0.125,0.09375,0.09375,-0.28125,0.90625,-0.15625,0.03125,0.21875,-0.0625,0.125,-0.03125,-0.0625,-1.1875,-1.28125,0.0625,-0.375,-0.15625,-0.34375,-0.3125,-0.4375,0.65625
4.09375,262,0.125,0.0625,0.125,-0.21875,0.875,-0.1875,0.03125,0.15625,-0.03125,-0.125,0.125,-0.0625,-1.34375,-1.3125,0.0625,-0.53125,-0.5625,-0.3125,-0.21875,-0.84375,0.875
4.109375,263,0.09375,0.0625,0.15625,-0.0625,0.8125,-0.15625,0.125,0.15625,-0.0625,-0.21875,0.1875,-0.09375,-1.375,-1.3125,0.125,-0.59375,-1.0,-0.28125,-0.1875,-1.15625,0.96875
4.125,264,0.0625,0.03125,0.1875,0.0,0.71875,-0.125,0.09375,0.15625,-0.0625,-0.1875,0.0625,-0.125,-1.40625,-1.28125,0.15625,-0.59375,-1.375,-0.25,-0.125,-1.53125,0.9375
4.140625,265,0.0,-0.03125,0.21875,0.09375,0.625,-0.125,0.09375,0.125,-0.0625,-0.09375,0.09375,-0.0625,-1.4375,-1.25,0.15625,-0.375,-1.71875,-0.15625,-0.0625,-1.90625,0.84375
4.15625,266,-0.0625,-0.03125,0.1875,0.03125,0.5625,-0.09375,0.03125,0.15625,-0.0625,0.0625,0.09375,-0.03125,-1.5,-1.1875,0.125,-0.03125,-2.09375,-0.09375,0.03125,-2.21875,0.65625
4.171875,267,-0.09375,-0.0625,0.21875,0.03125,0.53125,-0.125,0.0625,0.1875,0.0,0.21875,0.125,-0.0625,-1.40625,-1.125,0.09375,0.3125,-2.375,0.0,0.125,-2.4375,0.4375
4.1875,268,-0.125,-0.0625,0.28125,-0.03125,0.53125,-0.03125,0.03125,0.1875,-0.03125,0.125,0.125,-0.03125,-1.21875,-0.96875,0.03125,0.46875,-2.65625,0.09375,0.1875,-2.6875,0.1875
4.203125,269,-0.1875,-0.0625,0.21875,-0.09375,0.5,-0.0625,0.0,0.25,-0.03125,0.09375,0.15625,-0.03125,-1.0,-0.8125,-0.0625,0.5625,-2.90625,0.21875,0.25,-2.875,0.0625
4.21875,270,-0.21875,-0.0625,0.21875,0.0,0.46875,-0.0625,-0.03125,0.28125,0.03125,0.125,0.1875,0.03125,-0.84375,-0.6875,-0.09375,0.53125,-3.125,0.34375,0.375,-3.0,0.03125
4.234375,271,-0.21875,-0.0625,0.1875,-0.09375,0.375,-0.03125,-0.0625,0.3125,0.0,0.125,0.1875,0.03125,-0.5625,-0.5625,-0.15625,0.46875,-3.28125,0.4375,0.5,-3.09375,0.09375
4.25,272,-0.21875,-0.0625,0.15625,-0.09375,0.375,-0.0625,-0.0625,0.375,0.03125,0.125,0.25,0.0625,-0.28125,-0.40625,-0.15625,0.25,-3.375,0.53125,0.59375,-3.125,0.25
4.265625,273,-0.1875,-0.0625,0.125,-0.125,0.375,0.0,-0.09375,0.40625,0.03125,0.125,0.3125,0.0625,0.03125,-0.28125,-0.1875,0.0625,-3.4375,0.59375,0.59375,-3.0625,0.4375
4.28125,274,-0.15625,-0.0625,0.0625,-0.125,0.375,0.0,-0.0625,0.40625,0.03125,0.125,0.3125,0.0625,0.1875,-0.15625,-0.1875,-0.0625,-3.46875,0.65625,0.625,-2.875,0.65625
4.296875,275,-0.15625,-0.09375,0.03125,-0.125,0.46875,0.03125,-0.09375,0.4375,0.0,0.125,0.375,0.09375,0.25,-0.09375,-0.21875,-0.0625,-3.46875,0.6875,0.71875,-2.625,0.78125
4.3125,276,-0.125,-0.09375,0.0,-0.1875,0.46875,0.03125,-0.09375,0.46875,0.0,0.15625,0.375,0.09375,0.3125,-0.0625,-0.3125,0.03125,-3.46875,0.75,0.75,-2.21875,0.8125
4.328125,277,-0.125,-0.09375,-0.0625,-0.21875,0.53125,0.0625,-0.125,0.46875,0.0,0.125,0.375,0.0625,0.375,-0.0625,-0.34375,0.15625,-3.5,0.75,0.6875,-1.84375,0.71875
4.34375,278,-0.125,-0.125,-0.0625,-0.1875,0.5,0.0,-0.0625,0.4375,0.0,0.03125,0.40625,0.03125,0.59375,-0.03125,-0.3125,0.15625,-3.5,0.75,0.59375,-1.625,0.65625
4.359375,279,-0.125,-0.125,-0.0625,-0.15625,0.53125,0.0,-0.09375,0.46875,0.0,0.0625,0.40625,0.03125,0.875,-0.0625,-0.21875,0.25,-3.3125,0.6875,0.84375,-1.65625,0.59375
4.375,280,-0.15625,-0.09375,-0.125,-0.15625,0.5625,0.0,-0.0625,0.46875,0.03125,0.0,0.4375,0.03125,0.9375,-0.1875,-0.0625,0.4375,-3.125,0.46875,-0.0625,-1.03125,0.34375
4.390625,281,-0.1875,-0.0625,-0.15625,-0.125,0.53125,0.0,-0.0625,0.46875,0.03125,0.03125,0.40625,0.03125,0.65625,-0.34375,0.125,0.09375,-2.8125,0.25,0.0625,-0.84375,0.03125
4.40625,282,-0.25,-0.09375,-0.15625,-0.09375,0.53125,0.0,-0.0625,0.5,0.03125,0.0625,0.4375,0.03125,0.4375,-0.59375,0.1875,-0.40625,-2.15625,0.125,0.4375,-1.9375,-0.0625
4.421875,283,-0.3125,-0.125,-0.15625,-0.125,0.5625,0.0,-0.0625,0.53125,0.0625,0.09375,0.53125,0.0625,0.0625,-0.65625,0.15625,-0.125,-1.3125,0.21875,-0.1875,-2.09375,-0.03125
4.4375,284,-0.375,-0.15625,-0.15625,-0.09375,0.59375,0.0,-0.0625,0.5625,0.09375,0.1875,0.5625,0.09375,0.03125,-0.65625,0.15625,0.125,-0.5625,0.1875,-0.46875,-0.84375,-0.03125
4.453125,285,-0.46875,-0.15625,-0.1875,-0.15625,0.625,0.03125,-0.09375,0.5625,0.0625,0.21875,0.65625,0.09375,0.21875,-0.53125,0.09375,-0.5,0.34375,0.0,-0.75,0.8125,0.03125
4.46875,286,-0.53125,-0.09375,-0.1875,-0.28125,0.65625,0.09375,-0.125,0.59375,0.03125,0.0625,0.65625,0.0625,0.09375,-1.59375,0.09375,-1.46875,1.0625,-0.125,-0.25,2.125,0.53125
4.484375,287,-0.59375,0.0,-0.1875,-0.34375,0.65625,0.125,-0.15625,0.59375,0.03125,0.0,0.78125,0.0625,-0.4375,-0.4375,0.0625,-1.625,0.9375,-0.09375,-0.84375,2.625,0.53125
4.5,288,-0.59375,0.0,-0.1875,-0.40625,0.59375,0.125,-0.1875,0.625,0.0,-0.03125,0.96875,0.15625,0.3125,1.53125,-0.0625,-1.6875,0.34375,-0.34375,0.4375,1.96875,0.125
4.515625,289,-0.5625,0.09375,-0.03125,-0.4375,0.3125,0.125,-0.28125,0.6875,-0.03125,0.03125,1.1875,0.25,0.28125,0.5625,-0.125,-1.40625,0.34375,-0.21875,1.375,1.375,0.03125
4.53125,290,-0.4375,0.03125,0.03125,-0.4375,-0.0625,0.1875,-0.25,0.8125,-0.03125,0.03125,1.3125,0.25,-0.5625,-0.375,0.0,-0.125,0.65625,0.03125,0.8125,0.53125,-0.46875
4.546875,291,-0.3125,-0.03125,0.0,-0.3125,-0.40625,0.25,-0.1875,0.96875,0.0,0.0625,1.59375,0.34375,-0.4375,0.1875,0.09375,1.0625,0.84375,0.34375,0.0,0.09375,0.15625
4.5625,292,-0.3125,-0.0625,-0.09375,-0.0625,-0.65625,0.28125,-0.15625,1.1875,-0.03125,-0.03125,2.0,0.3125,1.0,1.03125,0.0,0.5625,0.78125,0.15625,-0.0625,0.03125,0.09375
4.578125,293,-0.46875,-0.125,-0.25,0.1875,-0.8125,0.4375,-0.09375,1.34375,-0.0625,-0.03125,2.0,0.28125,1.9375,0.78125,0.0625,-0.53125,0.8125,-0.125,0.1875,0.125,-0.03125
4.59375,294,-0.65625,-0.0625,-0.40625,0.21875,-0.90625,0.59375,-0.03125,1.53125,-0.09375,0.1875,2.1875,0.34375,0.9375,0.46875,0.125,-0.25,0.59375,-0.03125,-0.1875,0.1875,0.0
4.609375,295,-0.6875,0.0,-0.4375,0.1875,-1.0,0.71875,0.0,1.625,-0.125,0.1875,2.1875,0.3125,0.4375,0.59375,0.1875,0.15625,0.4375,0.0625,-0.40625,0.28125,-0.03125
4.625,296,-0.625,0.03125,-0.5,0.03125,-1.0,0.71875,0.0625,1.71875,-0.125,0.1875,2.09375,0.28125,-0.0625,0.625,0.09375,0.125,0.4375,0.03125,-0.21875,0.21875,-0.0625
4.640625,297,-0.5,0.0625,-0.4375,0.03125,-1.21875,0.59375,0.15625,1.78125,-0.0625,0.375,2.0625,0.28125,-0.28125,0.6875,0.0625,0.1875,0.4375,0.03125,-0.09375,0.1875,0.0
4.65625,298,-0.40625,0.09375,-0.3125,-0.125,-1.28125,0.4375,0.28125,1.8125,0.0,0.5,2.0625,0.25,-0.1875,0.6875,0.03125,0.0,0.46875,0.03125,-0.03125,0.125,0.03125
4.671875,299,-0.375,0.125,-0.25,-0.34375,-1.0625,0.40625,0.28125,1.78125,0.03125,0.53125,2.15625,0.25,0.125,0.71875,0.0625,0.09375,0.4375,0.03125,-0.03125,0.0625,0.0
4.6875,300,-0.3125,0.21875,-0.21875,-0.3125,-0.90625,0.375,0.25,1.71875,0.0625,0.46875,2.03125,0.28125,0.40625,0.65625,0.03125,0.28125,0.375,0.03125,-0.0625,0.0625,0.0
4.703125,301,-0.3125,0.21875,-0.25,-0.09375,-0.84375,0.375,0.125,1.625,0.0625,0.34375,2.5,0.15625,0.59375,0.71875,0.03125,0.40625,0.28125,0.0,-0.03125,0.09375,-0.03125
4.71875,302,-0.28125,0.1875,-0.1875,0.0,-1.03125,0.3125,0.09375,1.5,0.03125,0.75,1.84375,0.1875,0.5,0.6875,0.0,0.375,0.3125,0.0,-0.03125,0.03125,-0.03125
4.734375,303,-0.25,0.1875,-0.1875,-0.0625,-1.125,0.34375,0.0625,1.15625,0.09375,0.46875,0.84375,0.34375,0.28125,0.6875,0.03125,0.125,0.3125,-0.03125,-0.03125,0.03125,0.0
4.75,304,-0.1875,0.21875,-0.09375,-0.03125,-1.15625,0.4375,-0.34375,0.5,0.0625,0.0,0.625,0.375,0.03125,0.6875,0.03125,-0.03125,0.28125,0.0,-0.03125,0.03125,0.0
4.765625,305,-0.0625,0.1875,-0.03125,-0.15625,-1.0625,0.5,-0.4375,-0.09375,0.0625,-0.25,-0.09375,0.40625,-0.1875,0.59375,0.03125,0.0,0.3125,0.0,0.0,0.0,0.0
4.78125,306,0.0,0.1875,0.0,-0.125,-1.0625,0.4375,-0.34375,-0.6875,0.0625,-0.28125,-0.71875,0.28125,-0.15625,0.59375,0.0625,0.03125,0.28125,0.0,-0.0625,0.03125,-0.03125
4.796875,307,0.03125,0.1875,0.0,0.0,-1.0,0.28125,-0.125,-1.1875,0.09375,-0.21875,-1.21875,0.03125,-0.125,0.53125,0.03125,-0.03125,0.25,0.0,-0.0625,0.03125,-0.03125
4.8125,308,0.0,0.15625,0.03125,0.15625,-1.03125,0.1875,0.15625,-1.65625,0.125,-0.09375,-1.625,-0.25,0.03125,0.53125,-0.03125,0.0625,0.25,0.03125,0.03125,0.0,-0.03125
4.828125,309,-0.0625,0.15625,0.09375,0.3125,-1.1875,0.09375,0.4375,-2.03125,0.15625,0.0,-2.03125,-0.46875,0.15625,0.5625,-0.0625,0.125,0.15625,0.03125,0.125,-0.03125,0.0
4.84375,310,-0.0625,0.15625,0.125,0.375,-1.28125,0.0,0.59375,-2.375,0.21875,0.09375,-2.40625,-0.59375,0.125,0.5625,-0.0625,0.03125,0.125,0.03125,0.15625,-0.0625,0.0
4.859375,311,-0.09375,0.125,0.15625,0.40625,-1.3125,-0.09375,0.65625,-2.65625,0.25,0.0625,-2.71875,-0.625,0.0625,0.53125,-0.03125,-0.03125,0.1875,0.0,0.125,-0.09375,0.0
4.875,312,-0.125,0.09375,0.125,0.40625,-1.3125,-0.15625,0.625,-2.875,0.28125,0.21875,-2.90625,-0.6875,-0.09375,0.46875,0.03125,-0.09375,0.25,-0.0625,0.03125,-0.03125,0.0
4.890625,313,-0.15625,0.15625,0.125,0.375,-1.4375,-0.25,0.65625,-2.96875,0.3125,0.0625,-3.21875,-0.625,-0.1875,0.375,0.09375,-0.3125,0.25,-0.125,-0.25,0.0,-0.0625
4.90625,314,-0.1875,0.15625,0.0625,0.34375,-1.5,-0.28125,0.65625,-3.03125,0.28125,0.125,-3.125,-0.625,-0.28125,0.375,0.125,-0.59375,0.28125,-0.09375,-0.34375,0.03125,-0.09375
4.921875,315,-0.21875,0.15625,0.0625,0.34375,-1.53125,-0.1875,0.625,-3.09375,0.25,0.125,-3.28125,-0.625,-0.375,0.40625,0.15625,-0.5,0.34375,-0.09375,-0.3125,0.0625,-0.09375
4.9375,316,-0.28125,0.1875,0.125,0.40625,-1.5,-0.125,0.5625,-3.09375,0.1875,-0.09375,-3.09375,-0.65625,-0.28125,0.5,0.09375,-0.09375,0.28125,-0.09375,-0.25,0.03125,-0.0625
4.953125,317,-0.28125,0.125,0.21875,0.5625,-1.4375,-0.125,0.46875,-3.0625,0.09375,-0.21875,-3.0625,-0.65625,-0.125,0.5625,0.03125,-0.09375,0.25,-0.09375,-0.125,0.03125,-0.0625
4.96875,318,-0.21875,0.125,0.3125,0.6875,-1.53125,-0.09375,0.375,-3.0,0.0,-0.28125,-2.96875,-0.625,-0.15625,0.5625,0.0,-0.5,0.3125,-0.09375,-0.125,0.0,-0.09375
4.984375,319,-0.15625,0.125,0.3125,0.625,-1.34375,-0.09375,0.21875,-2.96875,-0.09375,-0.5,-2.90625,-0.53125,-0.28125,0.5625,0.03125,-0.4375,0.3125,-0.0625,-0.09375,0.0,-0.03125
5.0,320,-0.09375,0.0625,0.3125,0.28125,-1.1875,0.0625,0.03125,-2.875,-0.1875,-0.625,-2.78125,-0.4375,-0.34375,0.4375,0.03125,-0.125,0.3125,-0.03125,-0.0625,0.0,-0.0625
5.015625,321,0.03125,0.0,0.25,0.0625,-1.09375,0.1875,-0.0625,-2.71875,-0.25,-0.75,-2.625,-0.34375,-0.3125,0.375,0.0625,-0.0625,0.3125,-0.03125,-0.0625,0.0,-0.0625
5.03125,322,0.0,0.0,0.25,-0.125,-1.09375,0.1875,-0.15625,-2.53125,-0.25,-0.78125,-2.46875,-0.25,-0.375,0.28125,0.0625,-0.28125,0.375,-0.03125,-0.09375,0.0,-0.0625
5.046875,323,-0.03125,0.0625,0.21875,-0.15625,-1.0625,0.125,-0.21875,-2.34375,-0.1875,-0.78125,-2.28125,-0.15625,-0.375,0.3125,0.0,-0.3125,0.40625,-0.0625,-0.0625,0.0,-0.03125
5.0625,324,-0.0625,0.0625,0.1875,0.0,-1.03125,0.0625,-0.1875,-2.09375,-0.09375,-0.625,-2.0625,-0.09375,-0.25,0.34375,0.0,-0.25,0.375,-0.03125,-0.0625,0.0,-0.03125
5.078125,325,-0.0625,0.09375,0.21875,0.0625,-1.0,0.0,-0.1875,-1.84375,0.0,-0.4375,-1.8125,-0.03125,-0.03125,0.40625,0.0,-0.28125,0.375,-0.03125,-0.03125,0.0,-0.03125
5.09375,326,-0.0625,0.09375,0.21875,0.125,-0.84375,0.0,-0.125,-1.5625,0.09375,-0.28125,-1.5625,0.0,0.0625,0.5,0.03125,-0.28125,0.40625,-0.0625,-0.0625,0.03125,-0.0625
5.109375,327,-0.0625,0.09375,0.25,0.21875,-0.71875,0.03125,-0.09375,-1.3125,0.125,-0.1875,-1.34375,0.0,0.03125,0.59375,0.03125,-0.15625,0.40625,-0.0625,-0.09375,0.0,-0.0625
5.125,328,-0.03125,0.09375,0.25,0.21875,-0.5,0.0625,0.0,-1.03125,0.125,-0.09375,-1.0625,-0.03125,-0.03125,0.5625,0.03125,-0.03125,0.34375,-0.03125,-0.0625,0.0,-0.0625
5.140625,329,0.03125,0.09375,0.28125,0.21875,-0.34375,0.0625,0.03125,-0.75,0.09375,-0.03125,-0.78125,-0.03125,0.03125,0.53125,-0.03125,0.0,0.375,-0.03125,-0.03125,0.0,-0.0625
5.15625,330,0.09375,0.09375,0.25,0.09375,-0.21875,0.03125,0.0625,-0.5,0.03125,-0.03125,-0.46875,-0.0625,0.09375,0.53125,-0.0625,-0.09375,0.375,-0.03125,-0.0625,0.03125,-0.09375
5.171875,331,0.125,0.09375,0.25,0.0,-0.0625,0.0625,0.03125,-0.25,-0.0625,-0.03125,-0.25,-0.03125,0.03125,0.59375,0.0,-0.09375,0.375,-0.03125,-0.0625,0.0,-0.0625
5.1875,332,0.15625,0.09375,0.21875,-0.03125,0.0625,0.03125,-0.0625,-0.09375,-0.09375,-0.09375,-0.0625,0.0,-0.03125,0.59375,0.03125,-0.0625,0.375,-0.03125,-0.09375,0.0,-0.0625
5.203125,333,0.15625,0.0625,0.15625,-0.15625,0.1875,0.0,-0.1875,0.0625,-0.09375,-0.125,0.09375,0.09375,-0.09375,0.59375,0.0625,-0.03125,0.34375,-0.03125,-0.0625,-0.03125,-0.09375
5.21875,334,0.15625,0.03125,0.15625,-0.25,0.25,-0.03125,-0.3125,0.1875,-0.15625,-0.25,0.21875,0.21875,-0.0625,0.53125,0.03125,-0.03125,0.34375,-0.0625,-0.0625,-0.0625,-0.0625
5.234375,335,0.15625,0.0,0.15625,-0.40625,0.3125,0.0,-0.4375,0.28125,-0.125,-0.3125,0.3125,0.3125,-0.15625,0.5,0.03125,-0.125,0.375,-0.0625,-0.03125,0.0,-0.03125
5.25,336,0.15625,-0.03125,0.15625,-0.5,0.40625,0.0,-0.5,0.375,-0.15625,-0.34375,0.40625,0.375,-0.15625,0.46875,0.03125,-0.15625,0.40625,-0.0625,-0.03125,0.0,-0.03125
5.265625,337,0.15625,-0.0625,0.15625,-0.53125,0.5,0.0,-0.5625,0.40625,-0.15625,-0.34375,0.46875,0.40625,-0.09375,0.4375,0.03125,-0.03125,0.40625,-0.0625,-0.03125,0.0,-0.03125
5.28125,338,0.15625,-0.09375,0.125,-0.53125,0.5625,-0.03125,-0.5,0.46875,-0.125,-0.28125,0.5,0.375,0.0625,0.46875,0.0,0.03125,0.40625,-0.0625,-0.0625,-0.03125,-0.03125
5.296875,339,0.125,-0.15625,0.125,-0.4375,0.625,-0.09375,-0.40625,0.53125,-0.125,-0.1875,0.53125,0.3125,0.15625,0.46875,0.0,0.03125,0.40625,-0.0625,-0.0625,0.0,-0.03125
5.3125,340,0.1875,-0.15625,0.09375,-0.3125,0.6875,-0.125,-0.25,0.5625,-0.0625,-0.0625,0.5625,0.1875,0.125,0.5,0.0,0.0625,0.40625,-0.0625,-0.0625,0.0,-0.0625
5.328125,341,0.15625,-0.21875,0.09375,-0.25,0.71875,-0.1875,-0.0625,0.5,-0.03125,0.625,1.21875,0.34375,0.03125,0.46875,0.0,0.09375,0.40625,-0.0625,-0.0625,0.0,-0.0625
5.34375,342,0.125,-0.25,0.03125,-0.34375,0.875,-0.25,-0.03125,-0.0625,0.0625,-0.0625,0.34375,-0.125,0.0,0.4375,-0.03125,0.125,0.4375,-0.09375,-0.03125,0.03125,-0.03125
5.359375,343,0.03125,-0.21875,0.0,0.1875,-0.03125,-0.25,-0.125,0.28125,0.0,-0.125,0.875,0.125,0.03125,0.4375,0.0,0.0,0.4375,-0.125,0.0,0.0625,-0.03125
5.375,344,0.03125,-0.21875,-0.125,0.03125,0.09375,-0.21875,0.0,0.4375,-0.03125,-0.15625,0.9375,0.03125,0.03125,0.4375,0.03125,0.125,0.5,-0.125,0.03125,0.0625,-0.03125
5.390625,345,0.09375,-0.21875,-0.21875,0.03125,0.28125,-0.0625,0.125,0.46875,-0.09375,-0.0625,0.75,-0.09375,0.28125,0.5,-0.03125,0.5625,0.53125,-0.09375,0.125,0.125,-0.03125
5.40625,346,0.1875,-0.21875,-0.1875,0.03125,0.4375,-0.0625,0.0625,0.46875,-0.125,0.0625,0.625,-0.03125,0.5,0.46875,-0.125,0.53125,0.46875,-0.09375,0.0625,0.125,-0.03125
5.421875,347,0.3125,-0.21875,-0.0625,-0.15625,0.5,-0.0625,-0.125,0.375,-0.15625,-0.0625,0.625,0.09375,0.5,0.40625,-0.125,0.125,0.46875,-0.125,0.03125,0.125,-0.09375
5.4375,348,0.34375,-0.1875,-0.0625,-0.375,0.5,-0.0625,-0.3125,0.3125,-0.15625,-0.15625,0.625,0.21875,0.4375,0.40625,-0.0625,0.03125,0.5,-0.125,0.0,0.125,-0.125
5.453125,349,0.3125,-0.15625,-0.0625,-0.4375,0.53125,-0.09375,-0.28125,0.3125,-0.15625,-0.125,0.65625,0.1875,0.3125,0.46875,-0.0625,0.1875,0.5,-0.125,-0.0625,0.15625,-0.15625
5.46875,350,0.28125,-0.125,-0.09375,-0.25,0.5,-0.1875,-0.125,0.375,-0.15625,0.03125,0.75,0.125,0.34375,0.5,-0.09375,0.15625,0.53125,-0.125,-0.0625,0.1875,-0.15625
5.484375,351,0.25,-0.125,-0.125,-0.03125,0.4375,-0.3125,-0.0625,0.46875,-0.125,0.15625,0.71875,0.09375,0.34375,0.59375,-0.09375,0.09375,0.53125,-0.15625,-0.0625,0.21875,-0.1875
5.5,352,0.25,-0.0625,-0.15625,0.0,0.40625,-0.28125,-0.125,0.5625,-0.09375,0.15625,0.59375,0.15625,0.34375,0.65625,-0.125,0.1875,0.5625,-0.15625,-0.0625,0.28125,-0.15625
5.515625,353,0.25,-0.0625,-0.125,0.03125,0.4375,-0.21875,-0.09375,0.65625,-0.09375,0.0,0.5625,0.09375,0.375,0.71875,-0.125,0.1875,0.59375,-0.15625,-0.03125,0.375,-0.15625
5.53125,354,0.34375,-0.03125,-0.125,0.03125,0.5,-0.15625,-0.09375,0.6875,-0.09375,-0.03125,0.71875,0.09375,0.4375,0.625,-0.15625,0.1875,0.6875,-0.15625,0.0,0.53125,-0.15625
5.546875,355,0.375,-0.03125,-0.09375,-0.09375,0.5,-0.125,-0.125,0.6875,-0.15625,0.03125,0.59375,0.0625,0.3125,0.40625,-0.15625,0.3125,0.75,-0.125,0.0625,0.6875,-0.1875
5.5625,356,0.375,0.03125,-0.09375,-0.21875,0.5,-0.15625,-0.125,0.75,-0.15625,-0.34375,0.5,0.0,0.21875,0.15625,-0.15625,0.28125,0.8125,-0.125,0.0625,0.875,-0.15625
5.578125,357,0.40625,0.0625,-0.09375,-0.375,0.59375,-0.1875,-0.125,0.75,-0.1875,-0.375,0.34375,-0.0625,0.15625,-0.09375,-0.1875,0.09375,0.875,-0.15625,0.0,1.0625,-0.125
5.59375,358,0.40625,0.09375,-0.125,-0.4375,0.65625,-0.25,-0.125,0.71875,-0.1875,-0.0625,-0.125,-0.0625,0.0625,-0.3125,-0.15625,-0.125,1.0,-0.15625,-0.09375,1.1875,-0.125
5.609375,359,0.40625,0.125,-0.15625,-0.46875,0.78125,-0.25,-0.125,0.6875,-0.1875,-0.0625,0.09375,-0.0625,-0.09375,-0.53125,-0.125,-0.21875,1.1875,-0.15625,-0.1875,1.375,-0.125
5.625,360,0.375,0.125,-0.15625,-0.4375,0.84375,-0.25,-0.125,0.65625,-0.15625,-0.0625,0.125,-0.0625,-0.1875,-0.75,-0.15625,-0.15625,1.3125,-0.125,-0.25,1.5625,-0.15625
5.640625,361,0.375,0.15625,-0.15625,-0.375,0.875,-0.28125,-0.125,0.625,-0.15625,-0.0625,0.03125,-0.03125,-0.1875,-0.9375,-0.1875,-0.0625,1.4375,-0.15625,-0.34375,1.84375,-0.21875
5.65625,362,0.34375,0.15625,-0.125,-0.28125,0.875,-0.3125,-0.09375,0.5625,-0.09375,-0.03125,0.03125,-0.03125,-0.25,-1.28125,-0.1875,0.0,1.53125,-0.15625,-0.375,2.15625,-0.3125
5.671875,363,0.375,0.15625,-0.03125,-0.25,0.875,-0.3125,-0.0625,0.5625,-0.0625,0.0,0.03125,-0.03125,-0.1875,-1.5,-0.1875,0.03125,1.59375,-0.125,-0.375,2.53125,-0.5
5.6875,364,0.34375,0.1875,-0.0625,-0.3125,0.875,-0.3125,-0.0625,0.5625,-0.03125,0.0,0.0,0.0,-0.1875,-1.65625,-0.1875,-0.0625,1.59375,-0.03125,-0.40625,2.75,-0.6875
5.703125,365,0.3125,0.1875,-0.03125,-0.3125,0.875,-0.28125,-0.0625,0.5,-0.0625,0.0,0.0,0.0,-0.1875,-1.6875,-0.21875,-0.125,1.59375,0.0,-0.375,2.96875,-0.84375
5.71875,366,0.28125,0.15625,-0.0625,-0.28125,0.875,-0.25,-0.03125,0.46875,-0.03125,0.0,0.03125,-0.03125,-0.1875,-1.625,-0.21875,-0.0625,1.78125,0.03125,-0.71875,2.75,-0.90625
5.734375,367,0.25,0.15625,-0.09375,-0.25,0.8125,-0.25,-0.0625,0.46875,-0.0625,0.0,0.03125,-0.03125,-0.1875,-1.625,-0.15625,0.09375,2.0,0.0,-0.65625,2.65625,-0.84375
5.75,368,0.1875,0.125,-0.125,-0.3125,0.78125,-0.1875,-0.0625,0.4375,-0.09375,-0.03125,0.03125,-0.03125,-0.125,-1.71875,-0.0625,0.375,2.0,-0.0625,-0.375,2.59375,-0.84375
5.765625,369,0.15625,0.125,-0.09375,-0.40625,0.8125,-0.15625,-0.03125,0.40625,-0.09375,0.0,0.09375,-0.03125,-0.21875,-1.75,-0.03125,0.625,1.875,-0.21875,-0.375,2.46875,-0.78125
5.78125,370,0.125,0.125,-0.09375,-0.34375,0.8125,-0.1875,-0.03125,0.375,-0.09375,0.0,0.09375,-0.03125,-0.34375,-1.59375,0.03125,0.59375,1.625,-0.3125,-0.21875,2.21875,-0.65625
5.796875,371,0.09375,0.125,-0.03125,-0.28125,0.8125,-0.15625,-0.03125,0.28125,-0.09375,-0.03125,0.0625,-0.03125,-0.28125,-1.4375,0.03125,0.375,1.3125,-0.34375,-0.375,1.375,-0.5
5.8125,372,0.03125,0.09375,0.0,-0.28125,0.78125,-0.15625,-0.03125,0.21875,-0.09375,-0.03125,0.0625,-0.03125,-0.34375,-1.4375,0.03125,0.25,0.78125,-0.375,-0.25,0.40625,-0.15625
5.828125,373,0.0,0.03125,0.03125,-0.28125,0.8125,-0.15625,-0.03125,0.15625,-0.0625,0.0,0.03125,-0.03125,-0.5,-1.40625,0.03125,0.1875,0.25,-0.40625,-0.3125,-0.09375,0.3125
5.84375,374,-0.0625,0.0,0.09375,-0.21875,0.75,-0.15625,0.0,0.0625,-0.0625,-0.03125,0.03125,-0.03125,-0.59375,-1.4375,0.0,-0.09375,-0.34375,-0.40625,-0.1875,-0.5625,0.71875
5.859375,375,-0.0625,-0.03125,0.125,-0.1875,0.71875,-0.125,0.0,0.03125,-0.0625,0.0,0.0,-0.03125,-0.75,-1.4375,-0.03125,-0.4375,-0.84375,-0.34375,-0.21875,-1.15625,1.03125
5.875,376,-0.0625,-0.03125,0.15625,-0.1875,0.65625,-0.09375,0.0,0.0,-0.0625,0.0,0.0,-0.03125,-1.0,-1.46875,0.0,-0.625,-1.375,-0.3125,-0.1875,-1.625,1.125
5.890625,377,-0.125,-0.0625,0.1875,-0.09375,0.65625,-0.09375,0.0,0.0,-0.0625,-0.03125,0.0,-0.03125,-1.25,-1.46875,0.0,-0.71875,-1.8125,-0.28125,-0.1875,-2.03125,1.0
5.90625,378,-0.125,-0.0625,0.1875,0.0,0.5625,-0.09375,0.0,0.03125,-0.0625,-0.03125,0.0,-0.03125,-1.53125,-1.4375,0.03125,-0.53125,-2.21875,-0.1875,-0.125,-2.4375,0.8125
5.921875,379,-0.1875,-0.125,0.15625,0.0,0.46875,-0.09375,-0.03125,0.0625,-0.0625,0.0,0.0,-0.03125,-1.59375,-1.34375,0.0,-0.09375,-2.59375,-0.09375,0.03125,-2.78125,0.5
5.9375,380,-0.21875,-0.1875,0.15625,-0.0625,0.46875,-0.09375,-0.0625,0.125,-0.03125,0.0,0.03125,-0.03125,-1.5,-1.28125,-0.03125,0.5,-2.9375,0.0,0.1875,-3.03125,0.21875
5.953125,381,-0.25,-0.21875,0.15625,-0.09375,0.5,-0.0625,-0.0625,0.15625,-0.03125,0.03125,0.0,-0.03125,-1.21875,-1.125,-0.0625,0.84375,-3.21875,0.1875,0.28125,-3.21875,0.0
5.96875,382,-0.25,-0.25,0.15625,-0.15625,0.53125,-0.0625,-0.0625,0.1875,0.0,0.03125,0.03125,0.0,-0.8125,-0.96875,-0.09375,0.875,-3.4375,0.40625,0.46875,-3.34375,-0.1875
5.984375,383,-0.25,-0.28125,0.125,-0.1875,0.59375,0.0,-0.0625,0.1875,-0.03125,0.03125,0.03125,0.03125,-0.4375,-0.75,-0.125,0.78125,-3.59375,0.53125,0.65625,-3.34375,-0.28125
6.0,384,-0.21875,-0.3125,0.09375,-0.1875,0.5625,-0.03125,-0.0625,0.21875,0.03125,0.09375,0.03125,0.03125,-0.125,-0.53125,-0.1875,0.71875,-3.65625,0.6875,0.8125,-3.375,-0.1875
6.015625,385,-0.21875,-0.3125,0.0625,-0.09375,0.5625,-0.03125,0.0,0.21875,0.09375,0.0625,0.03125,0.0,0.15625,-0.3125,-0.21875,0.65625,-3.75,0.84375,0.90625,-3.21875,-0.03125
6.03125,386,-0.21875,-0.3125,0.03125,-0.03125,0.5625,0.03125,0.0,0.1875,0.0625,0.0,0.09375,0.03125,0.4375,-0.125,-0.21875,0.625,-3.75,0.96875,0.9375,-2.875,0.09375
6.046875,387,-0.21875,-0.34375,0.0,-0.0625,0.53125,0.0,0.0,0.21875,0.09375,0.1875,0.0625,0.03125,0.625,-0.125,-0.25,0.65625,-3.8125,1.03125,1.0,-2.3125,0.15625
6.0625,388,-0.28125,-0.3125,-0.09375,-0.0625,0.53125,0.03125,0.03125,0.25,0.09375,0.125,0.09375,0.03125,0.84375,-0.09375,-0.28125,0.5625,-3.78125,1.0625,1.0,-1.84375,0.21875
6.078125,389,-0.3125,-0.3125,-0.0625,-0.09375,0.5,0.0625,-0.0625,0.25,0.0625,0.125,0.15625,0.03125,1.15625,0.0,-0.25,0.5625,-3.6875,1.03125,1.09375,-1.46875,0.375
6.09375,390,-0.4375,-0.25,-0.0625,-0.125,0.46875,0.0625,-0.0625,0.3125,0.0625,0.15625,0.15625,0.03125,1.53125,0.15625,-0.15625,0.65625,-3.53125,0.84375,1.09375,-1.28125,0.5625
6.109375,391,-0.46875,-0.21875,-0.0625,-0.09375,0.46875,0.0625,-0.0625,0.34375,0.0625,0.1875,0.1875,0.0625,1.625,0.0625,0.0625,0.6875,-3.40625,0.59375,0.6875,-0.71875,0.4375
6.125,392,-0.53125,-0.0625,-0.0625,-0.09375,0.46875,0.09375,-0.0625,0.40625,0.0625,0.125,0.25,0.0625,1.3125,0.0,0.21875,0.34375,-3.03125,0.3125,-0.03125,-0.9375,-0.0625
6.140625,393,-0.5625,0.0,-0.0625,-0.15625,0.46875,0.09375,-0.125,0.40625,0.0625,0.15625,0.34375,0.09375,0.5625,-0.21875,0.3125,-0.21875,-2.28125,0.25,0.40625,-2.03125,-0.28125
6.15625,394,-0.5625,0.03125,-0.0625,-0.15625,0.46875,0.09375,-0.125,0.5,0.09375,0.1875,0.40625,0.125,-0.25,-0.4375,0.34375,-0.09375,-1.34375,0.3125,0.21875,-2.53125,-0.28125
6.171875,395,-0.5,0.0,-0.03125,-0.15625,0.53125,0.0625,-0.09375,0.5625,0.125,0.1875,0.5625,0.15625,-0.375,-0.5,0.25,-0.0625,-0.40625,0.3125,-0.53125,-1.375,-0.0625
6.1875,396,-0.5,-0.0625,-0.0625,-0.21875,0.5625,0.09375,-0.125,0.625,0.125,0.25,0.6875,0.21875,-0.3125,-0.34375,0.15625,-0.9375,0.46875,0.03125,-1.1875,0.46875,0.4375
6.203125,397,-0.5625,-0.09375,-0.15625,-0.28125,0.59375,0.125,-0.15625,0.71875,0.125,0.34375,0.78125,0.21875,-0.59375,-0.34375,0.21875,-1.65625,1.3125,-0.09375,-0.8125,1.15625,1.09375
6.21875,398,-0.65625,0.03125,-0.28125,-0.40625,0.5625,0.1875,-0.28125,0.78125,0.09375,0.3125,0.96875,0.25,-2.0625,-1.90625,0.125,-1.8125,1.03125,-0.125,-1.78125,2.53125,0.40625
6.234375,399,-0.6875,0.09375,-0.25,-0.5625,0.5,0.25,-0.28125,0.875,0.0625,0.1875,1.1875,0.28125,0.78125,2.09375,0.03125,-1.875,0.25,-0.40625,1.59375,1.125,-0.1875
6.25,400,-0.53125,0.09375,-0.09375,-0.53125,0.3125,0.25,-0.25,1.0,0.0625,0.09375,1.46875,0.25,-0.15625,0.5,-0.21875,-1.21875,0.15625,-0.3125,1.40625,0.875,-0.125
6.265625,401,-0.40625,0.125,0.03125,-0.34375,-0.09375,0.34375,-0.25,1.1875,0.0,0.03125,1.90625,0.25,-1.0625,-0.625,0.09375,0.09375,0.375,0.0,1.1875,1.125,0.03125
6.28125,402,-0.25,0.125,0.0625,-0.15625,-0.40625,0.3125,-0.15625,1.34375,0.0,0.0625,2.09375,0.28125,-0.25,0.375,0.1875,0.1875,0.6875,0.21875,0.125,0.28125,0.15625
6.296875,403,-0.1875,0.09375,-0.03125,0.125,-0.53125,0.3125,-0.09375,1.5,0.0,0.09375,2.46875,0.28125,1.0625,1.25,0.15625,-0.71875,0.9375,0.125,-0.1875,0.3125,0.0625
6.3125,404,-0.34375,0.03125,-0.25,0.25,-0.71875,0.40625,-0.15625,1.65625,0.0,0.125,2.625,0.34375,1.71875,1.0,0.09375,-0.46875,0.84375,0.0,0.21875,0.15625,-0.09375
6.328125,405,-0.53125,0.03125,-0.46875,0.21875,-0.96875,0.5,-0.1875,1.8125,0.0,0.375,2.78125,0.53125,1.15625,0.65625,0.0625,0.8125,0.5625,0.125,0.1875,0.125,-0.125
6.34375,406,-0.59375,0.09375,-0.5625,0.1875,-1.21875,0.59375,-0.1875,1.9375,0.0,0.40625,2.6875,0.65625,1.1875,0.78125,0.0625,1.25,0.4375,0.125,-0.125,0.0625,-0.03125
6.359375,407,-0.625,0.125,-0.59375,0.03125,-1.5,0.71875,-0.21875,2.03125,0.0,0.34375,2.46875,0.71875,1.03125,0.9375,0.03125,0.34375,0.5,0.03125,-0.1875,0.09375,-0.03125
6.375,408,-0.59375,0.125,-0.5625,-0.40625,-1.5625,0.84375,-0.1875,2.0625,-0.03125,0.25,2.4375,0.65625,0.28125,0.84375,0.09375,-0.5,0.59375,-0.03125,-0.0625,0.125,0.03125
6.390625,409,-0.5,0.1875,-0.4375,-0.5,-1.4375,0.84375,-0.28125,1.96875,-0.09375,0.0625,2.4375,0.625,-0.1875,0.78125,0.0625,-0.15625,0.5,0.0,0.0,0.28125,0.0625
6.40625,410,-0.34375,0.21875,-0.28125,-0.375,-1.40625,0.84375,-0.25,1.90625,-0.15625,-0.125,2.84375,0.46875,-0.125,0.8125,-0.03125,0.28125,0.34375,0.09375,-0.09375,0.40625,0.0625
6.421875,411,-0.09375,0.25,-0.1875,-0.59375,-1.1875,0.59375,-0.1875,1.59375,-0.125,-0.5,2.59375,0.28125,0.03125,0.78125,-0.03125,0.09375,0.40625,0.09375,-0.15625,0.375,0.0
6.4375,412,0.03125,0.21875,-0.15625,-0.5625,-1.125,0.40625,-0.15625,1.28125,-0.15625,-0.125,0.78125,0.09375,0.25,0.71875,0.03125,0.21875,0.5,0.09375,-0.125,0.28125,-0.09375
6.453125,413,0.09375,0.21875,-0.15625,-0.40625,-1.21875,0.1875,0.1875,0.53125,-0.0625,-0.34375,0.625,-0.09375,0.4375,0.6875,0.0625,0.5625,0.4375,0.09375,-0.25,0.28125,-0.09375
6.46875,414,0.09375,0.21875,-0.125,-0.125,-1.21875,0.125,0.25,-0.21875,0.0,0.0,-0.15625,-0.25,0.5,0.65625,0.0625,0.34375,0.4375,0.03125,-0.25,0.25,-0.09375
6.484375,415,0.0625,0.21875,-0.09375,0.125,-1.25,0.09375,0.25,-0.90625,0.09375,0.0625,-0.9375,-0.25,0.3125,0.6875,0.0,-0.09375,0.5,0.03125,-0.1875,0.1875,-0.0625
6.5,416,0.0,0.21875,-0.0625,0.3125,-1.1875,0.0625,0.28125,-1.5625,0.15625,0.0,-1.59375,-0.28125,0.09375,0.65625,-0.09375,0.03125,0.4375,0.0625,0.0625,0.03125,-0.09375
6.515625,417,-0.0625,0.1875,0.0,0.53125,-1.125,-0.03125,0.40625,-2.09375,0.25,0.03125,-2.15625,-0.4375,0.03125,0.65625,-0.125,0.40625,0.375,0.09375,0.1875,0.0,-0.03125
6.53125,418,0.03125,0.1875,0.09375,0.65625,-1.125,-0.0625,0.59375,-2.53125,0.3125,0.125,-2.59375,-0.59375,0.125,0.625,-0.09375,0.40625,0.34375,0.0625,0.125,-0.03125,-0.0625
6.546875,419,0.09375,0.125,0.1875,0.6875,-1.15625,-0.03125,0.71875,-2.84375,0.40625,0.1875,-3.0625,-0.71875,0.0625,0.625,-0.0625,0.03125,0.375,0.0,0.125,-0.03125,-0.03125
6.5625,420,0.125,0.125,0.25,0.71875,-1.28125,-0.03125,0.75,-3.0625,0.4375,0.25,-3.28125,-0.8125,-0.03125,0.59375,-0.03125,-0.21875,0.4375,0.0,-0.03125,-0.03125,-0.03125
6.578125,421,0.21875,0.09375,0.25,0.8125,-1.4375,-0.09375,0.75,-3.15625,0.46875,0.25,-3.4375,-0.84375,-0.21875,0.5,0.0625,-0.1875,0.46875,-0.03125,-0.09375,0.03125,-0.03125
6.59375,422,0.21875,0.09375,0.25,0.90625,-1.5625,-0.21875,0.84375,-3.21875,0.5,0.375,-3.46875,-0.71875,-0.34375,0.40625,0.03125,-0.125,0.53125,0.0,-0.125,0.0625,-0.03125
6.609375,423,0.21875,0.09375,0.21875,1.0625,-1.53125,-0.21875,0.875,-3.15625,0.5,0.3125,-3.28125,-0.8125,-0.1875,0.375,0.03125,-0.09375,0.5,0.0,-0.09375,0.0625,-0.03125
6.625,424,0.1875,0.09375,0.21875,1.125,-1.4375,-0.21875,0.96875,-3.03125,0.5,0.40625,-3.125,-0.875,0.0,0.46875,-0.03125,-0.09375,0.5,0.0,-0.0625,0.0625,-0.03125
6.640625,425,0.15625,0.09375,0.21875,1.125,-1.28125,-0.1875,1.0,-2.90625,0.46875,0.375,-3.0,-0.90625,0.15625,0.625,-0.03125,-0.15625,0.5,-0.03125,-0.15625,0.0625,-0.03125
6.65625,426,0.15625,0.09375,0.21875,1.09375,-1.0,-0.1875,0.96875,-2.8125,0.40625,0.375,-2.84375,-0.875,0.1875,0.625,-0.03125,-0.25,0.46875,-0.0625,-0.15625,0.0625,-0.03125
6.671875,427,0.15625,0.09375,0.21875,0.875,-0.84375,-0.15625,0.78125,-2.65625,0.34375,0.25,-2.71875,-0.75,-0.03125,0.625,0.0,-0.3125,0.46875,-0.0625,-0.15625,0.03125,-0.03125
6.6875,428,0.15625,0.09375,0.21875,0.6875,-0.75,-0.125,0.625,-2.5,0.25,0.09375,-2.53125,-0.625,-0.15625,0.59375,0.0625,-0.25,0.40625,-0.0625,-0.15625,0.03125,-0.03125
6.703125,429,0.21875,0.125,0.21875,0.59375,-0.8125,-0.09375,0.40625,-2.34375,0.125,-0.09375,-2.34375,-0.53125,-0.3125,0.5625,0.09375,-0.21875,0.40625,-0.09375,-0.15625,0.0,-0.0625
6.71875,430,0.25,0.125,0.1875,0.4375,-0.84375,-0.0625,0.25,-2.125,0.03125,-0.21875,-2.125,-0.4375,-0.40625,0.5625,0.0625,-0.3125,0.4375,-0.09375,-0.1875,0.03125,-0.0625
6.734375,431,0.25,0.09375,0.15625,0.25,-0.875,0.0,0.09375,-1.9375,-0.03125,-0.3125,-1.90625,-0.34375,-0.375,0.5625,0.0625,-0.40625,0.46875,-0.09375,-0.1875,0.03125,-0.09375
6.75,432,0.25,0.0625,0.15625,0.15625,-0.8125,0.03125,-0.03125,-1.71875,-0.09375,-0.375,-1.65625,-0.21875,-0.34375,0.625,0.0625,-0.28125,0.53125,-0.09375,-0.09375,0.03125,-0.0625
6.765625,433,0.21875,0.09375,0.1875,0.03125,-0.78125,0.03125,-0.15625,-1.46875,-0.125,-0.4375,-1.4375,-0.09375,-0.28125,0.65625,0.03125,-0.0625,0.5625,-0.0625,-0.03125,0.03125,-0.0625
6.78125,434,0.21875,0.0625,0.25,-0.09375,-0.65625,0.0625,-0.25,-1.28125,-0.125,-0.46875,-1.21875,0.0,-0.125,0.625,0.03125,0.0625,0.53125,-0.0625,-0.03125,0.03125,-0.03125
6.796875,435,0.1875,0.0625,0.21875,-0.15625,-0.5,0.09375,-0.3125,-1.09375,-0.09375,-0.46875,-1.0625,0.09375,-0.03125,0.6875,0.0,0.0,0.59375,-0.0625,-0.03125,0.03125,-0.03125
6.8125,436,0.21875,0.0625,0.25,-0.25,-0.375,0.09375,-0.375,-0.90625,-0.125,-0.46875,-0.875,0.1875,0.03125,0.6875,-0.03125,0.03125,0.59375,-0.09375,0.0,0.03125,-0.03125
6.828125,437,0.1875,0.0625,0.21875,-0.28125,-0.28125,0.0625,-0.4375,-0.75,-0.125,-0.46875,-0.71875,0.25,0.09375,0.75,0.0,0.0625,0.59375,-0.09375,-0.03125,0.03125,-0.03125
6.84375,438,0.1875,0.03125,0.1875,-0.34375,-0.1875,0.0625,-0.4375,-0.59375,-0.125,-0.4375,-0.5625,0.25,0.0625,0.75,-0.03125,0.03125,0.5625,-0.125,-0.0625,0.0,-0.03125
6.859375,439,0.1875,0.03125,0.1875,-0.3125,-0.0625,0.0,-0.34375,-0.40625,-0.125,-0.34375,-0.34375,0.1875,0.0625,0.75,0.0,-0.0625,0.59375,-0.125,-0.0625,0.03125,-0.03125
6.875,440,0.1875,0.0,0.1875,-0.28125,0.03125,0.0,-0.25,-0.21875,-0.09375,-0.25,-0.1875,0.15625,0.0625,0.6875,0.0,-0.0625,0.59375,-0.125,-0.03125,0.0,-0.03125
6.890625,441,0.1875,-0.03125,0.15625,-0.25,0.15625,-0.0625,-0.15625,-0.03125,-0.0625,-0.125,-0.03125,0.09375,0.125,0.5625,-0.03125,0.125,0.59375,-0.125,-0.03125,0.03125,-0.0625
6.90625,442,0.21875,-0.03125,0.15625,-0.21875,0.25,-0.09375,-0.09375,0.125,-0.0625,-0.03125,0.125,0.0625,0.21875,0.5625,-0.0625,0.125,0.625,-0.09375,-0.09375,0.03125,-0.09375
6.921875,443,0.25,-0.03125,0.15625,-0.15625,0.375,-0.09375,-0.09375,0.25,-0.0625,0.0,0.28125,0.0625,0.1875,0.5625,-0.09375,0.09375,0.625,-0.125,-0.0625,0.03125,-0.0625
6.9375,444,0.25,-0.03125,0.09375,-0.1875,0.5,-0.125,-0.125,0.375,-0.0625,0.0,0.40625,0.09375,0.1875,0.59375,-0.0625,0.0625,0.625,-0.125,-0.0625,0.03125,-0.125
6.953125,445,0.25,-0.0625,0.09375,-0.28125,0.65625,-0.125,-0.21875,0.40625,-0.0625,0.0,0.375,0.28125,0.125,0.65625,-0.0625,0.0,0.65625,-0.125,-0.03125,0.0,-0.125
6.96875,446,0.1875,-0.0625,0.0,0.0,0.59375,-0.1875,-0.28125,0.40625,0.0,-0.375,0.5625,0.34375,0.15625,0.6875,-0.0625,0.0625,0.65625,-0.15625,-0.0625,0.03125,-0.125
6.984375,447,0.0625,-0.0625,0.0,-0.28125,0.28125,-0.21875,-0.40625,0.5625,0.0,0.03125,0.65625,0.375,0.25,0.6875,0.0,0.03125,0.6875,-0.1875,-0.09375,0.09375,-0.125
7.0,448,0.03125,-0.09375,-0.125,-0.3125,0.15625,-0.1875,-0.34375,0.625,-0.03125,-0.03125,0.9375,0.375,0.28125,0.65625,0.0,-0.03125,0.6875,-0.1875,-0.09375,0.15625,-0.125
7.015625,449,0.09375,-0.1875,-0.1875,-0.09375,0.21875,-0.15625,-0.125,0.71875,-0.09375,0.0625,1.03125,0.15625,0.34375,0.5,-0.0625,0.15625,0.71875,-0.1875,-0.125,0.21875,-0.15625
7.03125,450,0.125,-0.21875,-0.125,0.15625,0.25,-0.15625,0.03125,0.84375,-0.15625,0.125,1.0,-0.03125,0.46875,0.4375,-0.09375,0.28125,0.65625,-0.1875,-0.09375,0.25,-0.15625
7.046875,451,0.15625,-0.21875,-0.03125,0.09375,0.375,-0.15625,-0.03125,0.78125,-0.21875,0.03125,1.03125,0.03125,0.375,0.40625,-0.15625,0.125,0.65625,-0.1875,-0.09375,0.3125,-0.125
7.0625,452,0.1875,-0.1875,0.0,-0.15625,0.53125,-0.0625,-0.28125,0.75,-0.21875,-0.09375,1.0625,0.1875,0.25,0.46875,-0.125,0.0,0.65625,-0.1875,-0.09375,0.375,-0.125
7.078125,453,0.25,-0.125,-0.03125,-0.40625,0.46875,-0.0625,-0.375,0.71875,-0.21875,-0.125,1.0625,0.21875,0.09375,0.5625,-0.125,0.0625,0.65625,-0.1875,-0.0625,0.46875,-0.09375
7.09375,454,0.25,-0.09375,-0.09375,-0.40625,0.375,-0.1875,-0.25,0.78125,-0.21875,0.1875,0.9375,0.15625,0.03125,0.65625,-0.125,0.09375,0.65625,-0.1875,-0.0625,0.53125,-0.09375
7.109375,455,0.28125,-0.0625,-0.15625,-0.28125,0.5,-0.28125,-0.1875,0.78125,-0.1875,0.28125,1.0,0.0,0.0,0.65625,-0.0625,0.03125,0.6875,-0.21875,-0.03125,0.71875,-0.09375
7.125,456,0.25,-0.0625,-0.1875,-0.1875,0.625,-0.3125,-0.125,0.75,-0.15625,0.0625,0.65625,0.09375,-0.03125,0.59375,-0.0625,-0.03125,0.71875,-0.25,0.0,0.9375,-0.125
7.140625,457,0.34375,-0.03125,-0.1875,-0.15625,0.75,-0.25,-0.125,0.71875,-0.15625,-0.03125,0.625,0.0625,-0.09375,0.375,-0.09375,-0.03125,0.75,-0.25,0.0,1.15625,-0.15625
7.15625,458,0.375,-0.03125,-0.09375,-0.3125,0.78125,-0.1875,-0.1875,0.71875,-0.15625,-0.09375,0.125,0.0,-0.09375,0.0625,-0.09375,0.0,0.84375,-0.1875,0.0625,1.40625,-0.1875
7.171875,459,0.40625,0.03125,-0.0625,-0.46875,0.90625,-0.21875,-0.15625,0.6875,-0.1875,-0.34375,0.25,-0.0625,-0.0625,-0.28125,-0.125,0.03125,0.9375,-0.15625,0.0,1.625,-0.21875
7.1875,460,0.4375,0.0625,0.0,-0.46875,0.90625,-0.28125,-0.125,0.6875,-0.21875,-0.09375,0.0,-0.0625,-0.03125,-0.59375,-0.1875,0.0625,1.125,-0.125,-0.09375,1.84375,-0.21875
7.203125,461,0.46875,0.09375,0.0,-0.4375,0.90625,-0.3125,-0.09375,0.6875,-0.21875,-0.125,0.03125,-0.0625,0.0,-0.9375,-0.21875,0.15625,1.3125,-0.09375,-0.125,2.125,-0.25
7.21875,462,0.5,0.0625,0.0,-0.40625,0.9375,-0.3125,-0.09375,0.6875,-0.1875,-0.125,0.125,-0.0625,0.125,-1.125,-0.34375,0.28125,1.5,-0.0625,-0.15625,2.40625,-0.34375
7.234375,463,0.4375,0.09375,-0.03125,-0.40625,0.96875,-0.34375,-0.09375,0.65625,-0.15625,-0.0625,0.09375,-0.03125,0.375,-1.25,-0.40625,0.40625,1.625,-0.0625,-0.15625,2.65625,-0.4375
7.25,464,0.40625,0.09375,-0.03125,-0.375,0.96875,-0.34375,-0.09375,0.625,-0.125,-0.03125,0.03125,-0.03125,0.46875,-1.34375,-0.53125,0.40625,1.71875,0.0,-0.0625,2.875,-0.59375
7.265625,465,0.34375,0.09375,-0.0625,-0.34375,0.96875,-0.34375,-0.0625,0.625,-0.09375,-0.03125,0.0,-0.03125,0.53125,-1.40625,-0.5625,0.4375,1.78125,0.0,0.03125,3.15625,-0.6875
7.28125,466,0.28125,0.09375,-0.03125,-0.28125,0.9375,-0.3125,-0.03125,0.59375,-0.09375,0.0,0.03125,-0.03125,0.59375,-1.4375,-0.46875,0.46875,1.875,0.0,-0.3125,3.125,-0.78125
7.296875,467,0.25,0.125,-0.0625,-0.3125,0.9375,-0.3125,-0.0625,0.5625,-0.09375,0.0,0.0,0.0,0.65625,-1.40625,-0.34375,0.40625,2.0,-0.09375,-0.4375,3.0,-0.84375
7.3125,468,0.21875,0.09375,0.0,-0.375,0.9375,-0.25,-0.0625,0.5,-0.09375,0.0,0.0625,-0.03125,0.59375,-1.4375,-0.1875,0.21875,2.09375,-0.1875,-0.40625,2.90625,-0.90625
7.328125,469,0.21875,0.125,0.0,-0.375,0.96875,-0.25,-0.03125,0.4375,-0.09375,-0.03125,0.03125,-0.03125,0.4375,-1.5,0.0,0.25,2.0,-0.25,-0.4375,2.90625,-0.90625
7.34375,470,0.1875,0.125,0.0,-0.375,0.9375,-0.21875,-0.03125,0.40625,-0.09375,0.0,0.03125,-0.03125,0.125,-1.59375,0.15625,0.4375,1.8125,-0.34375,-0.375,2.84375,-0.90625
7.359375,471,0.125,0.09375,0.0,-0.375,0.9375,-0.21875,0.0,0.375,-0.125,-0.03125,0.09375,-0.03125,-0.28125,-1.625,0.21875,0.40625,1.59375,-0.4375,-0.1875,2.6875,-0.75
7.375,472,0.09375,0.09375,0.03125,-0.3125,0.9375,-0.1875,-0.03125,0.3125,-0.125,0.0,0.09375,-0.0625,-0.6875,-1.59375,0.21875,0.21875,1.34375,-0.46875,-0.21875,1.8125,-0.5625
7.390625,473,0.09375,0.09375,0.09375,-0.375,0.9375,-0.1875,0.0,0.25,-0.09375,-0.03125,0.09375,-0.03125,-0.96875,-1.46875,0.21875,0.09375,0.875,-0.5,-0.46875,0.6875,0.21875
7.40625,474,0.0625,0.0625,0.125,-0.34375,0.875,-0.1875,0.0,0.1875,-0.09375,0.0,0.0625,-0.03125,-1.1875,-1.46875,0.1875,-0.125,0.375,-0.5625,-0.8125,0.0625,0.71875
7.421875,475,0.0,0.0625,0.1875,-0.21875,0.84375,-0.21875,-0.03125,0.1875,-0.0625,0.0,0.0625,-0.03125,-1.34375,-1.5,0.15625,-0.6875,-0.0625,-0.5,-0.65625,-0.40625,1.0625
7.4375,476,-0.03125,0.0,0.21875,-0.125,0.78125,-0.1875,0.0,0.125,-0.0625,0.0,0.03125,-0.03125,-1.5,-1.5,0.09375,-1.03125,-0.34375,-0.34375,-0.65625,-0.40625,1.0625
7.453125,477,-0.03125,0.0,0.25,-0.09375,0.71875,-0.15625,-0.03125,0.125,-0.0625,0.0,0.0625,-0.03125,-1.59375,-1.5,0.125,-0.90625,-0.75,-0.3125,-0.46875,-1.46875,0.96875
7.46875,478,-0.0625,-0.03125,0.3125,-0.0625,0.65625,-0.15625,0.0,0.15625,-0.03125,0.0,0.03125,0.0,-1.65625,-1.46875,0.09375,-0.5,-1.21875,-0.25,-0.34375,-1.84375,0.6875
7.484375,479,-0.0625,-0.0625,0.3125,-0.0625,0.625,-0.125,0.0,0.125,-0.03125,0.0,0.03125,-0.03125,-1.625,-1.40625,0.09375,0.0625,-1.6875,-0.1875,-0.25,-2.21875,0.375
7.5,480,-0.03125,-0.09375,0.28125,-0.0625,0.65625,-0.125,-0.03125,0.15625,-0.03125,0.0,0.03125,0.0,-1.4375,-1.34375,0.09375,0.5,-2.125,-0.09375,-0.125,-2.59375,0.15625
7.515625,481,0.0,-0.09375,0.25,-0.09375,0.625,-0.09375,0.0,0.1875,0.0,0.0,0.03125,-0.03125,-1.25,-1.25,0.03125,0.625,-2.4375,0.0,-0.0625,-2.875,0.0
7.53125,482,0.0,-0.125,0.15625,-0.09375,0.625,-0.0625,-0.0625,0.1875,-0.03125,-0.03125,0.09375,-0.03125,-1.0,-1.15625,-0.03125,0.625,-2.71875,0.125,0.03125,-3.09375,-0.0625
7.546875,483,0.03125,-0.15625,0.125,0.0,0.625,-0.0625,0.0,0.21875,0.0,0.03125,0.0625,-0.03125,-0.78125,-1.0625,-0.09375,0.59375,-2.96875,0.25,0.1875,-3.3125,-0.09375
7.5625,484,0.03125,-0.1875,0.125,-0.03125,0.5625,-0.0625,0.03125,0.25,0.0,0.09375,0.125,-0.03125,-0.625,-0.96875,-0.15625,0.65625,-3.21875,0.375,0.375,-3.46875,-0.15625
7.578125,485,0.03125,-0.21875,0.125,0.03125,0.5625,-0.09375,0.0625,0.25,0.0,0.21875,0.125,-0.03125,-0.375,-0.84375,-0.21875,0.65625,-3.40625,0.53125,0.5,-3.5,-0.15625
7.59375,486,0.0,-0.1875,0.125,0.03125,0.53125,-0.09375,0.03125,0.28125,0.0,0.0625,0.1875,-0.03125,-0.15625,-0.6875,-0.28125,0.5625,-3.5625,0.65625,0.59375,-3.46875,-0.03125
7.609375,487,-0.03125,-0.21875,0.09375,0.0,0.5,-0.0625,0.0,0.34375,0.0,0.125,0.25,-0.03125,0.03125,-0.5625,-0.3125,0.3125,-3.6875,0.75,0.6875,-3.375,0.15625
7.625,488,-0.09375,-0.1875,0.03125,-0.09375,0.46875,-0.0625,-0.0625,0.34375,-0.03125,0.0625,0.3125,0.03125,0.28125,-0.375,-0.28125,0.0625,-3.78125,0.78125,0.6875,-3.4375,0.3125
7.640625,489,-0.15625,-0.1875,0.0,-0.125,0.40625,-0.0625,-0.0625,0.40625,-0.03125,0.0625,0.34375,0.03125,0.40625,-0.25,-0.28125,0.0,-3.78125,0.75,0.71875,-3.5,0.4375
7.65625,490,-0.1875,-0.1875,-0.0625,-0.15625,0.46875,-0.03125,-0.09375,0.40625,0.0,0.0625,0.375,0.03125,0.40625,-0.125,-0.25,0.03125,-3.75,0.75,0.65625,-3.375,0.5
7.671875,491,-0.25,-0.1875,-0.0625,-0.125,0.5,0.03125,-0.09375,0.40625,-0.03125,0.125,0.375,0.03125,0.46875,0.0,-0.25,0.0625,-3.71875,0.71875,0.71875,-2.9375,0.5
7.6875,492,-0.25,-0.1875,-0.0625,-0.1875,0.5,0.03125,-0.125,0.40625,-0.03125,0.0625,0.375,0.0625,0.6875,0.0625,-0.21875,0.15625,-3.59375,0.71875,0.65625,-2.21875,0.40625
7.703125,493,-0.25,-0.15625,-0.0625,-0.15625,0.53125,0.03125,-0.09375,0.4375,0.0,0.03125,0.34375,0.03125,0.84375,0.09375,-0.125,0.34375,-3.34375,0.625,0.53125,-1.53125,0.34375
7.71875,494,-0.25,-0.15625,-0.0625,-0.15625,0.53125,0.0625,-0.125,0.40625,0.0,0.125,0.40625,0.0625,0.90625,0.0625,0.0625,0.5625,-3.21875,0.46875,0.8125,-1.125,0.25
7.734375,495,-0.3125,-0.0625,-0.09375,-0.125,0.5,0.03125,-0.09375,0.4375,0.03125,0.09375,0.40625,0.0625,0.875,-0.0625,0.125,0.75,-2.9375,0.40625,0.65625,-1.03125,0.0
7.75,496,-0.34375,-0.03125,-0.15625,-0.125,0.53125,0.0625,-0.125,0.46875,0.0,0.125,0.4375,0.0625,0.78125,-0.09375,0.125,0.71875,-2.59375,0.375,0.34375,-1.0,-0.3125
7.765625,497,-0.40625,-0.03125,-0.15625,-0.125,0.625,0.03125,-0.09375,0.5,0.03125,0.15625,0.5,0.0625,0.4375,-0.34375,0.1875,0.40625,-1.90625,0.40625,0.40625,-1.375,-0.40625
7.78125,498,-0.46875,-0.0625,-0.15625,-0.15625,0.65625,0.03125,-0.09375,0.5625,0.0625,0.15625,0.59375,0.09375,-0.03125,-0.625,0.21875,0.125,-1.09375,0.40625,0.125,-1.375,-0.21875
7.796875,499,-0.5,-0.0625,-0.15625,-0.1875,0.65625,0.03125,-0.09375,0.59375,0.0625,0.15625,0.71875,0.125,-0.09375,-0.6875,0.25,-0.21875,-0.28125,0.28125,-0.71875,-0.375,0.0625
7.8125,500,-0.53125,-0.09375,-0.1875,-0.25,0.71875,0.03125,-0.15625,0.65625,0.0625,0.21875,0.8125,0.15625,-0.03125,-0.53125,0.25,-0.84375,0.5,0.0625,-1.59375,0.90625,0.4375
7.828125,501,-0.625,-0.09375,-0.25,-0.40625,0.71875,0.125,-0.1875,0.6875,0.03125,0.21875,0.90625,0.125,-0.6875,-2.375,0.3125,-1.9375,0.90625,-0.09375,-0.78125,1.78125,1.0
7.84375,502,-0.6875,0.03125,-0.1875,-0.53125,0.71875,0.1875,-0.21875,0.71875,0.0,-0.03125,1.09375,0.15625,-0.28125,0.28125,0.3125,-2.46875,0.53125,-0.25,-1.5,2.75,0.5625
7.859375,503,-0.59375,0.125,-0.09375,-0.59375,0.59375,0.15625,-0.25,0.75,-0.03125,-0.03125,1.21875,0.15625,-0.03125,1.5,-0.15625,-2.84375,0.21875,-0.625,1.125,1.40625,0.0
7.875,504,-0.53125,0.03125,0.03125,-0.5,0.28125,0.15625,-0.28125,0.84375,-0.03125,0.0,1.40625,0.25,-0.90625,0.09375,-0.125,-1.84375,0.53125,-0.21875,1.625,0.53125,-0.15625
7.890625,505,-0.4375,-0.03125,0.09375,-0.40625,-0.1875,0.1875,-0.21875,1.0,-0.0625,0.0,1.59375,0.25,-1.0,-0.0625,0.0625,0.65625,0.71875,0.09375,1.1875,0.53125,-0.03125
7.90625,506,-0.46875,-0.09375,0.0,-0.25,-0.53125,0.21875,-0.21875,1.15625,-0.0625,-0.125,2.0,0.28125,0.0625,0.6875,-0.0625,1.21875,0.75,0.21875,0.3125,0.21875,0.125
7.921875,507,-0.625,-0.125,-0.1875,-0.03125,-0.8125,0.25,-0.1875,1.40625,-0.03125,0.0,2.3125,0.34375,1.78125,1.0,-0.03125,-0.21875,0.9375,0.03125,-0.0625,0.28125,0.125
7.9375,508,-0.8125,-0.0625,-0.40625,0.15625,-1.125,0.4375,-0.1875,1.625,-0.0625,0.125,2.5625,0.4375,1.875,0.6875,0.125,-1.09375,0.875,-0.09375,-0.09375,0.1875,-0.15625
7.953125,509,-0.9375,-0.03125,-0.59375,0.375,-1.46875,0.65625,-0.21875,1.78125,-0.125,0.09375,2.53125,0.5625,0.9375,0.65625,0.28125,-0.25,0.65625,0.0625,-0.34375,0.21875,-0.125
7.96875,510,-0.875,0.0,-0.5625,0.0625,-1.6875,0.71875,-0.1875,1.875,-0.125,0.0625,2.4375,0.5625,0.59375,0.78125,0.25,0.90625,0.4375,0.0625,-0.375,0.25,-0.09375
7.984375,511,-0.75,-0.03125,-0.4375,-0.5625,-1.25,0.75,-0.1875,1.875,-0.1875,0.125,2.1875,0.59375,0.125,0.8125,0.09375,0.9375,0.40625,0.09375,-0.28125,0.34375,-0.09375
8.0,512,-0.65625,-0.03125,-0.34375,-0.9375,-0.96875,0.75,-0.21875,1.875,-0.1875,0.21875,2.1875,0.59375,-0.34375,0.75,0.09375,0.15625,0.5,0.03125,-0.1875,0.46875,0.0
8.015625,513,-0.5625,0.03125,-0.28125,-0.96875,-1.03125,0.71875,-0.1875,1.875,-0.1875,0.03125,2.25,0.5,-0.40625,0.6875,0.09375,-0.59375,0.59375,0.0,-0.1875,0.53125,0.09375
8.03125,514,-0.5,0.09375,-0.28125,-0.84375,-1.0625,0.65625,-0.125,1.78125,-0.15625,0.0625,2.4375,0.4375,-0.40625,0.6875,0.09375,-0.71875,0.65625,0.0,-0.28125,0.5,0.09375
8.046875,515,-0.46875,0.125,-0.25,-0.5,-1.21875,0.53125,-0.125,1.71875,-0.09375,0.09375,2.15625,0.28125,0.15625,0.75,0.0,0.25,0.46875,0.09375,-0.09375,0.25,0.03125
8.0625,516,-0.40625,0.15625,-0.1875,-0.21875,-1.3125,0.34375,-0.0625,1.34375,0.0,0.09375,1.75,0.34375,0.59375,0.78125,0.03125,1.21875,0.34375,0.15625,-0.03125,0.1875,-0.03125
8.078125,517,-0.34375,0.15625,-0.1875,0.0625,-1.40625,0.34375,-0.15625,0.875,0.0625,0.09375,0.5,0.1875,0.8125,0.84375,0.0625,1.125,0.28125,0.09375,-0.0625,0.15625,-0.0625
8.09375,518,-0.28125,0.1875,-0.15625,0.40625,-1.4375,0.34375,-0.0625,0.28125,0.09375,0.21875,0.1875,0.125,0.6875,0.8125,0.03125,0.03125,0.40625,0.03125,-0.0625,0.125,-0.03125
8.109375,519,-0.1875,0.1875,-0.0625,0.25,-1.59375,0.375,0.0625,-0.3125,0.15625,0.125,-0.3125,0.0,0.34375,0.78125,-0.0625,-0.375,0.40625,0.0,0.0625,0.0625,-0.03125
8.125,520,-0.0625,0.21875,0.0,0.21875,-1.4375,0.3125,0.15625,-0.875,0.21875,0.09375,-0.90625,0.0,0.0625,0.75,-0.0625,0.15625,0.375,0.03125,0.09375,0.0625,0.0
8.140625,521,0.0625,0.21875,0.03125,0.09375,-1.34375,0.28125,0.125,-1.5,0.25,0.0,-1.5625,-0.125,-0.09375,0.78125,0.03125,0.59375,0.28125,0.09375,0.03125,0.03125,-0.03125
8.15625,522,0.09375,0.1875,0.09375,0.40625,-1.125,0.125,0.25,-2.03125,0.28125,0.0,-2.09375,-0.28125,-0.0625,0.75,0.0625,0.40625,0.28125,0.0625,0.0,0.03125,-0.0625
8.171875,523,0.125,0.15625,0.125,0.4375,-1.28125,0.03125,0.4375,-2.5,0.34375,0.0625,-2.5,-0.46875,-0.03125,0.75,0.0625,0.03125,0.3125,0.0,-0.0625,0.0,-0.09375
8.1875,524,0.125,0.125,0.1875,0.5625,-1.21875,-0.09375,0.625,-2.875,0.40625,0.15625,-2.90625,-0.59375,-0.1875,0.65625,0.03125,-0.125,0.34375,0.03125,-0.0625,0.0,-0.09375
8.203125,525,0.125,0.09375,0.1875,0.6875,-1.1875,-0.15625,0.71875,-3.15625,0.46875,0.21875,-3.34375,-0.65625,-0.28125,0.5625,-0.03125,0.03125,0.375,0.0,0.0,0.0,-0.03125
8.21875,526,0.09375,0.125,0.1875,0.8125,-1.21875,-0.25,0.78125,-3.25,0.53125,0.28125,-3.53125,-0.75,-0.1875,0.5,0.0,0.0625,0.375,0.0,0.0,0.0,-0.03125
8.234375,527,0.125,0.15625,0.1875,0.875,-1.375,-0.28125,0.8125,-3.28125,0.5625,0.25,-3.65625,-0.65625,-0.125,0.5,0.03125,-0.21875,0.4375,-0.03125,-0.09375,0.03125,-0.03125
8.25,528,0.125,0.125,0.125,0.90625,-1.46875,-0.1875,0.8125,-3.28125,0.5625,0.28125,-3.3125,-0.6875,-0.03125,0.5625,0.09375,-0.4375,0.40625,-0.0625,-0.15625,0.0625,-0.09375
8.265625,529,0.09375,0.125,0.15625,0.90625,-1.5,-0.15625,0.8125,-3.15625,0.53125,0.3125,-3.21875,-0.6875,-0.0625,0.59375,0.09375,-0.46875,0.3125,-0.09375,-0.21875,-0.03125,-0.09375
8.28125,530,0.09375,0.09375,0.1875,0.96875,-1.40625,-0.09375,0.78125,-3.0,0.46875,0.25,-3.0625,-0.71875,-0.125,0.625,0.125,-0.375,0.28125,-0.09375,-0.1875,-0.03125,-0.09375
8.296875,531,0.15625,0.09375,0.25,0.96875,-1.15625,-0.125,0.6875,-2.875,0.34375,0.1875,-2.9375,-0.6875,-0.0625,0.59375,0.09375,-0.25,0.3125,-0.0625,-0.15625,-0.03125,-0.0625
8.3125,532,0.1875,0.09375,0.3125,0.75,-0.96875,-0.09375,0.53125,-2.78125,0.1875,-0.03125,-2.78125,-0.5625,-0.15625,0.53125,0.03125,-0.28125,0.3125,-0.03125,-0.09375,-0.03125,-0.03125
8.328125,533,0.28125,0.125,0.3125,0.53125,-0.90625,-0.03125,0.3125,-2.65625,0.0625,-0.28125,-2.625,-0.5,-0.34375,0.4375,-0.03125,-0.25,0.375,0.0,0.0,-0.03125,0.0
8.34375,534,0.34375,0.125,0.3125,0.34375,-1.03125,0.03125,0.125,-2.53125,-0.09375,-0.5,-2.46875,-0.375,-0.34375,0.375,-0.03125,-0.09375,0.40625,0.0625,0.0625,0.0,-0.03125
8.359375,535,0.34375,0.09375,0.25,0.1875,-1.09375,0.03125,0.0,-2.375,-0.21875,-0.59375,-2.3125,-0.375,-0.21875,0.40625,0.0,-0.03125,0.4375,0.03125,0.03125,0.0,-0.03125
8.375,536,0.3125,0.09375,0.21875,0.03125,-1.0625,-0.03125,0.0,-2.1875,-0.25,-0.59375,-2.125,-0.34375,-0.1875,0.375,0.03125,-0.09375,0.5,0.03125,0.03125,-0.03125,-0.03125
8.390625,537,0.21875,0.09375,0.1875,-0.03125,-1.03125,-0.03125,-0.03125,-1.9375,-0.21875,-0.53125,-1.875,-0.3125,-0.09375,0.375,0.0625,0.0,0.53125,0.03125,0.0,0.0,-0.0625
8.40625,538,0.1875,0.15625,0.1875,-0.03125,-0.9375,-0.0625,-0.0625,-1.65625,-0.15625,-0.46875,-1.59375,-0.21875,-0.03125,0.4375,0.0625,0.09375,0.5625,0.0,-0.03125,0.03125,-0.03125
8.421875,539,0.15625,0.15625,0.25,0.0625,-0.84375,-0.0625,-0.125,-1.375,-0.125,-0.40625,-1.375,-0.09375,0.0625,0.53125,0.03125,0.09375,0.59375,-0.03125,0.0,0.03125,0.0
8.4375,540,0.15625,0.1875,0.28125,0.03125,-0.65625,-0.03125,-0.1875,-1.125,-0.09375,-0.375,-1.125,0.0,0.125,0.625,0.0,0.0625,0.65625,-0.03125,0.03125,0.0,0.0
8.453125,541,0.15625,0.25,0.28125,0.0,-0.5,0.03125,-0.25,-0.9375,-0.0625,-0.34375,-0.90625,0.09375,0.21875,0.6875,-0.0625,0.09375,0.625,-0.03125,0.0,0.03125,-0.03125
8.46875,542,0.15625,0.25,0.34375,-0.09375,-0.3125,0.03125,-0.28125,-0.71875,-0.0625,-0.34375,-0.6875,0.125,0.21875,0.6875,-0.0625,0.15625,0.65625,-0.03125,0.03125,0.0625,-0.03125
8.484375,543,0.1875,0.1875,0.375,-0.21875,-0.125,0.0,-0.3125,-0.5625,-0.125,-0.375,-0.5,0.15625,0.1875,0.6875,-0.09375,0.25,0.65625,-0.03125,0.0625,0.0625,0.0
8.5,544,0.15625,0.15625,0.34375,-0.375,0.0,0.03125,-0.34375,-0.375,-0.1875,-0.375,-0.34375,0.15625,0.21875,0.6875,-0.0625,0.15625,0.6875,-0.03125,0.0625,0.0625,0.0
8.515625,545,0.1875,0.125,0.3125,-0.4375,0.09375,0.0,-0.34375,-0.21875,-0.21875,-0.40625,-0.15625,0.15625,0.15625,0.625,-0.0625,0.0,0.71875,-0.0625,0.0625,0.0625,0.0
8.53125,546,0.21875,0.125,0.21875,-0.5625,0.21875,-0.0625,-0.34375,-0.03125,-0.28125,-0.40625,0.0,0.15625,0.09375,0.59375,0.0,0.0,0.75,-0.0625,0.03125,0.03125,-0.03125
8.546875,547,0.21875,0.09375,0.125,-0.5,0.28125,-0.09375,-0.3125,0.125,-0.25,-0.34375,0.1875,0.15625,0.125,0.5625,0.03125,0.09375,0.71875,-0.125,0.0,0.03125,-0.03125
8.5625,548,0.1875,0.09375,0.09375,-0.375,0.375,-0.15625,-0.21875,0.3125,-0.1875,-0.25,0.375,0.125,0.125,0.5625,0.03125,0.0625,0.75,-0.125,0.0,0.0625,0.0
8.578125,549,0.1875,0.0625,0.0625,-0.1875,0.4375,-0.25,0.03125,0.53125,-0.09375,0.71875,0.625,0.15625,0.15625,0.65625,-0.03125,0.03125,0.75,-0.125,0.03125,0.0625,0.0
8.59375,550,0.125,0.0,0.03125,0.6875,0.375,-0.53125,0.53125,0.65625,0.09375,-0.59375,0.9375,-0.34375,0.28125,0.65625,-0.0625,0.15625,0.71875,-0.125,0.03125,0.0625,0.03125
8.609375,551,0.03125,-0.03125,0.0,0.40625,0.15625,-0.21875,0.125,0.78125,0.0625,0.34375,0.6875,-0.03125,0.15625,0.65625,0.03125,0.0625,0.65625,-0.15625,0.03125,0.125,0.0
8.625,552,0.0625,-0.09375,-0.09375,0.09375,0.0625,-0.1875,-0.0625,0.78125,-0.03125,0.21875,0.875,0.15625,0.25,0.6875,-0.03125,-0.03125,0.65625,-0.1875,-0.03125,0.15625,0.0
8.640625,553,0.09375,-0.125,-0.1875,0.125,0.28125,-0.03125,-0.15625,0.75,-0.09375,0.0,0.96875,0.15625,0.34375,0.6875,-0.03125,0.125,0.625,-0.1875,-0.03125,0.1875,-0.03125
8.65625,554,0.15625,-0.1875,-0.15625,0.0,0.4375,0.0625,-0.1875,0.71875,-0.21875,-0.09375,1.0,0.125,0.28125,0.65625,-0.09375,0.28125,0.59375,-0.15625,0.0,0.21875,0.0
8.671875,555,0.21875,-0.21875,-0.09375,-0.3125,0.53125,0.125,-0.25,0.6875,-0.25,-0.15625,0.9375,0.15625,0.15625,0.59375,-0.09375,0.15625,0.5625,-0.1875,0.0,0.21875,-0.03125
8.6875,556,0.3125,-0.21875,-0.09375,-0.46875,0.5625,0.0625,-0.34375,0.625,-0.28125,-0.125,0.9375,0.21875,0.09375,0.53125,-0.09375,0.03125,0.5625,-0.1875,-0.03125,0.25,-0.03125
8.703125,557,0.28125,-0.1875,-0.15625,-0.5625,0.5625,0.03125,-0.40625,0.65625,-0.25,-0.0625,0.90625,0.28125,-0.03125,0.53125,-0.0625,0.0,0.5625,-0.1875,0.0,0.3125,-0.0625
8.71875,558,0.28125,-0.15625,-0.1875,-0.5625,0.53125,-0.09375,-0.375,0.625,-0.21875,-0.0625,0.90625,0.25,-0.09375,0.5,-0.03125,0.0,0.5625,-0.1875,0.0,0.375,-0.09375
8.734375,559,0.28125,-0.125,-0.1875,-0.375,0.53125,-0.25,-0.25,0.6875,-0.15625,0.09375,0.875,0.0,-0.1875,0.5,-0.03125,-0.09375,0.625,-0.21875,0.0,0.46875,-0.09375
8.75,560,0.25,-0.125,-0.125,-0.0625,0.53125,-0.34375,-0.09375,0.6875,-0.09375,0.0625,0.6875,0.0625,-0.09375,0.5,-0.0625,-0.0625,0.6875,-0.21875,0.0,0.625,-0.09375
8.765625,561,0.28125,-0.09375,-0.09375,0.0,0.625,-0.28125,-0.1875,0.65625,-0.0625,0.0,0.71875,0.15625,0.03125,0.40625,-0.0625,-0.09375,0.71875,-0.21875,0.0,0.8125,-0.09375
8.78125,562,0.3125,-0.0625,-0.09375,-0.15625,0.71875,-0.28125,-0.1875,0.625,-0.0625,-0.03125,0.625,0.0625,0.125,0.21875,-0.09375,-0.09375,0.75,-0.21875,0.09375,1.0625,-0.125
8.796875,563,0.34375,0.0,-0.0625,-0.34375,0.78125,-0.28125,-0.15625,0.6875,-0.09375,0.15625,-0.21875,0.03125,0.09375,-0.0625,-0.09375,-0.09375,0.875,-0.1875,0.03125,1.34375,-0.15625
8.8125,564,0.40625,0.0,-0.03125,-0.4375,0.96875,-0.28125,-0.125,0.65625,-0.125,-0.125,0.1875,-0.03125,0.03125,-0.375,-0.125,-0.125,1.03125,-0.1875,0.0,1.5625,-0.1875
8.828125,565,0.4375,0.0,-0.09375,-0.4375,0.96875,-0.28125,-0.15625,0.65625,-0.125,-0.15625,0.09375,-0.03125,-0.03125,-0.6875,-0.15625,-0.03125,1.28125,-0.125,-0.03125,1.8125,-0.21875
8.84375,566,0.40625,0.0,-0.09375,-0.46875,0.96875,-0.28125,-0.125,0.65625,-0.125,-0.0625,0.0625,-0.0625,-0.03125,-1.0,-0.21875,0.1875,1.4375,-0.125,-0.0625,2.125,-0.25
8.859375,567,0.4375,0.0625,-0.09375,-0.5,1.0,-0.28125,-0.09375,0.625,-0.15625,-0.09375,0.03125,-0.0625,0.0625,-1.15625,-0.3125,0.40625,1.59375,-0.09375,-0.0625,2.46875,-0.34375
8.875,568,0.40625,0.09375,-0.09375,-0.4375,0.96875,-0.3125,-0.09375,0.59375,-0.125,-0.03125,0.03125,-0.0625,0.125,-1.3125,-0.4375,0.4375,1.625,-0.0625,-0.1875,2.8125,-0.4375
8.890625,569,0.375,0.125,-0.0625,-0.46875,0.96875,-0.28125,-0.09375,0.5625,-0.125,0.0,0.03125,-0.03125,0.28125,-1.40625,-0.5,0.25,1.6875,-0.0625,-0.1875,3.0,-0.5
8.90625,570,0.375,0.125,-0.0625,-0.4375,1.0,-0.3125,-0.0625,0.53125,-0.09375,0.0,0.03125,-0.03125,0.40625,-1.4375,-0.5,0.09375,1.75,-0.09375,-0.03125,3.3125,-0.53125
8.921875,571,0.34375,0.125,-0.0625,-0.40625,0.96875,-0.28125,-0.0625,0.5,-0.09375,0.0,0.03125,-0.03125,0.5,-1.4375,-0.40625,-0.0625,1.78125,-0.125,-0.3125,3.15625,-0.59375
8.9375,572,0.28125,0.125,-0.125,-0.28125,0.9375,-0.25,-0.03125,0.5,-0.09375,-0.03125,0.0,-0.03125,0.5,-1.40625,-0.28125,-0.28125,1.96875,-0.1875,-0.53125,3.0,-0.6875
8.953125,573,0.25,0.15625,-0.125,-0.21875,0.90625,-0.25,-0.0625,0.5,-0.09375,0.0,0.03125,-0.03125,0.4375,-1.46875,-0.15625,-0.28125,2.0,-0.21875,-0.25,2.90625,-0.71875
8.96875,574,0.1875,0.15625,-0.09375,-0.25,0.875,-0.1875,-0.0625,0.46875,-0.09375,0.0,0.03125,-0.03125,0.1875,-1.625,0.03125,0.125,1.875,-0.28125,-0.28125,2.90625,-0.71875
8.984375,575,0.15625,0.1875,-0.0625,-0.25,0.875,-0.15625,-0.0625,0.5,-0.09375,0.0,0.0625,-0.03125,-0.125,-1.6875,0.09375,0.40625,1.6875,-0.375,-0.25,2.8125,-0.65625
9.0,576,0.0625,0.21875,0.0,-0.28125,0.84375,-0.15625,-0.0625,0.4375,-0.09375,0.0,0.09375,-0.03125,-0.46875,-1.625,0.09375,0.34375,1.5,-0.40625,0.03125,2.40625,-0.65625
9.015625,577,0.03125,0.25,0.03125,-0.3125,0.8125,-0.125,-0.09375,0.40625,-0.09375,0.0,0.09375,-0.03125,-0.71875,-1.46875,0.09375,0.1875,1.25,-0.46875,-0.375,1.5625,-0.3125
9.03125,578,0.0,0.21875,0.0625,-0.34375,0.8125,-0.15625,-0.0625,0.34375,-0.09375,0.0,0.125,-0.03125,-0.84375,-1.34375,0.09375,0.09375,0.75,-0.46875,-0.59375,0.59375,0.0
9.046875,579,-0.0625,0.21875,0.09375,-0.34375,0.8125,-0.15625,-0.0625,0.28125,-0.0625,0.0,0.09375,0.0,-0.9375,-1.40625,0.125,-0.09375,0.21875,-0.46875,-0.46875,0.21875,0.28125
9.0625,580,-0.0625,0.1875,0.125,-0.25,0.8125,-0.15625,-0.03125,0.21875,-0.03125,0.03125,0.09375,0.0,-1.0625,-1.4375,0.09375,-0.375,-0.21875,-0.40625,-0.5625,-0.34375,0.4375
9.078125,581,-0.0625,0.15625,0.125,-0.15625,0.8125,-0.125,0.0,0.15625,-0.03125,0.0,0.0625,-0.03125,-1.15625,-1.46875,0.125,-0.5625,-0.5625,-0.34375,-0.5625,-0.9375,0.59375
9.09375,582,-0.0625,0.15625,0.125,-0.09375,0.75,-0.125,-0.03125,0.125,0.0,0.03125,0.03125,0.0,-1.21875,-1.46875,0.09375,-0.53125,-0.96875,-0.28125,-0.53125,-1.4375,0.65625
9.109375,583,-0.03125,0.09375,0.125,-0.09375,0.71875,-0.125,-0.03125,0.125,0.0,0.03125,0.03125,0.0,-1.21875,-1.46875,0.125,-0.40625,-1.375,-0.21875,-0.4375,-1.84375,0.625
9.125,584,-0.03125,0.09375,0.125,-0.09375,0.71875,-0.09375,-0.03125,0.125,0.0,0.03125,0.03125,0.0,-1.21875,-1.4375,0.09375,-0.125,-1.8125,-0.15625,-0.28125,-2.28125,0.53125
9.140625,585,0.03125,0.03125,0.15625,-0.03125,0.6875,-0.09375,-0.03125,0.125,0.0,0.0625,0.03125,0.0,-1.15625,-1.34375,0.0625,0.1875,-2.21875,-0.0625,-0.1875,-2.65625,0.3125
9.15625,586,0.0625,0.0,0.15625,-0.03125,0.65625,-0.0625,0.03125,0.125,0.0625,0.03125,0.03125,0.0,-1.09375,-1.25,0.03125,0.4375,-2.5625,0.0625,-0.0625,-2.96875,0.09375
9.171875,587,0.09375,-0.0625,0.15625,0.0,0.65625,-0.0625,-0.03125,0.15625,0.0625,0.03125,0.03125,0.03125,-1.0,-1.125,0.0,0.65625,-2.84375,0.15625,0.0625,-3.1875,-0.03125
9.1875,588,0.0625,-0.09375,0.09375,0.0,0.65625,-0.09375,0.0,0.1875,0.0625,0.0625,0.03125,0.03125,-0.8125,-1.0,-0.0625,0.75,-3.15625,0.3125,0.21875,-3.40625,-0.125
9.203125,589,0.0625,-0.09375,0.09375,0.0,0.59375,-0.0625,-0.03125,0.1875,0.0625,0.0,0.03125,0.0,-0.625,-0.875,-0.125,0.71875,-3.40625,0.46875,0.4375,-3.59375,-0.15625
9.21875,590,0.03125,-0.15625,0.09375,0.0,0.5625,-0.0625,0.0,0.25,0.0625,0.0,0.09375,0.0,-0.3125,-0.71875,-0.125,0.65625,-3.625,0.65625,0.5,-3.59375,-0.125
9.234375,591,0.0,-0.1875,0.0625,-0.09375,0.5625,-0.03125,-0.03125,0.25,0.0625,0.09375,0.125,0.0,0.03125,-0.53125,-0.15625,0.59375,-3.8125,0.78125,0.625,-3.65625,-0.03125
9.25,592,0.0,-0.21875,0.0,-0.09375,0.5625,-0.03125,-0.03125,0.28125,0.03125,0.09375,0.125,0.0,0.3125,-0.375,-0.21875,0.46875,-3.96875,0.875,0.625,-3.65625,-0.03125
9.265625,593,0.0,-0.28125,0.0,-0.09375,0.53125,-0.03125,-0.03125,0.28125,0.0625,0.125,0.15625,0.03125,0.59375,-0.1875,-0.21875,0.34375,-4.0,0.96875,0.625,-3.65625,-0.03125
9.28125,594,0.0,-0.3125,-0.0625,-0.09375,0.53125,-0.03125,-0.03125,0.3125,0.03125,0.09375,0.1875,0.03125,0.65625,-0.0625,-0.21875,0.3125,-4.03125,1.0,0.90625,-3.40625,0.125
9.296875,595,0.0,-0.34375,-0.09375,-0.09375,0.5625,0.0,-0.03125,0.34375,0.0625,0.125,0.21875,0.0625,0.625,-0.0625,-0.25,0.46875,-3.96875,1.0625,0.875,-2.84375,0.15625
9.3125,596,0.0,-0.34375,-0.125,-0.09375,0.53125,0.03125,-0.0625,0.34375,0.03125,0.0625,0.25,0.03125,0.75,0.0,-0.28125,0.65625,-3.90625,1.0625,0.875,-2.21875,0.125
9.328125,597,0.0,-0.3125,-0.0625,-0.09375,0.53125,0.03125,-0.03125,0.375,0.03125,0.0,0.34375,0.03125,1.1875,0.03125,-0.21875,0.8125,-3.65625,0.90625,0.78125,-1.84375,0.15625
9.34375,598,-0.0625,-0.25,-0.09375,-0.09375,0.5,0.0625,-0.0625,0.40625,0.0,0.09375,0.375,0.0625,1.4375,0.09375,0.0625,0.96875,-3.5,0.71875,0.9375,-1.5,0.0625
9.359375,599,-0.09375,-0.1875,-0.15625,-0.0625,0.5,0.0625,-0.03125,0.4375,0.0,0.09375,0.40625,0.0,1.34375,0.125,0.28125,0.78125,-3.21875,0.4375,0.53125,-1.34375,-0.15625
9.375,600,-0.1875,-0.09375,-0.21875,-0.125,0.5,0.0625,-0.09375,0.5,0.0,0.125,0.5,0.03125,0.75,0.0625,0.40625,-0.125,-2.75,0.1875,0.125,-1.625,-0.34375
9.390625,601,-0.3125,-0.03125,-0.21875,-0.1875,0.5625,0.0625,-0.09375,0.53125,0.0,0.1875,0.5625,0.0625,0.0,-0.125,0.375,-0.59375,-1.90625,0.1875,0.21875,-2.5,-0.09375
9.40625,602,-0.375,0.0,-0.1875,-0.25,0.65625,0.09375,-0.125,0.59375,0.0,0.15625,0.6875,0.0625,-0.53125,-0.34375,0.1875,-0.1875,-1.0625,0.21875,0.0,-1.75,0.1875
9.421875,603,-0.40625,0.0,-0.15625,-0.3125,0.71875,0.09375,-0.125,0.65625,0.0,0.15625,0.78125,0.0625,-0.5,-0.25,0.09375,-0.34375,-0.1875,0.09375,-0.84375,-0.15625,0.34375
9.4375,604,-0.46875,0.03125,-0.15625,-0.375,0.78125,0.125,-0.15625,0.6875,0.0,0.15625,0.84375,0.0625,-0.4375,-0.125,0.125,-1.28125,0.6875,-0.09375,-1.0625,1.28125,0.5
9.453125,605,-0.5,0.0625,-0.1875,-0.40625,0.78125,0.15625,-0.15625,0.78125,0.0,0.09375,0.78125,0.0625,-0.5,-0.0625,0.21875,-1.59375,1.34375,-0.125,-1.375,1.3125,0.65625
9.46875,606,-0.53125,0.09375,-0.15625,-0.5,0.71875,0.15625,-0.21875,0.84375,0.03125,0.0,1.15625,0.125,-1.6875,-2.71875,0.15625,-1.5625,0.8125,-0.0625,-0.6875,2.4375,0.125
9.484375,607,-0.53125,0.1875,-0.09375,-0.5,0.59375,0.15625,-0.21875,0.90625,0.0625,0.0,1.34375,0.1875,0.15625,1.125,0.0,-1.8125,0.15625,-0.34375,0.65625,1.90625,-0.09375
9.5,608,-0.40625,0.15625,0.03125,-0.40625,0.3125,0.1875,-0.25,1.0,0.0625,0.0,1.5,0.21875,0.03125,0.5625,0.0,-1.96875,0.28125,-0.40625,0.9375,1.375,0.40625
9.515625,609,-0.25,0.09375,0.09375,-0.25,-0.0625,0.25,-0.21875,1.15625,0.0625,0.0,1.84375,0.25,-1.1875,-0.375,0.25,-0.875,0.59375,0.0,0.4375,1.875,0.40625
9.53125,610,-0.21875,0.09375,0.09375,0.0,-0.375,0.375,-0.21875,1.3125,0.03125,-0.0625,2.15625,0.25,-0.625,0.25,0.375,-0.25,0.90625,0.21875,0.0,0.78125,-0.125
9.546875,611,-0.15625,0.09375,-0.03125,0.125,-0.6875,0.46875,-0.15625,1.46875,0.0,-0.09375,2.375,0.25,0.8125,1.125,0.0625,-0.40625,1.0625,0.1875,0.03125,0.53125,0.0
9.5625,612,-0.3125,0.03125,-0.15625,0.1875,-0.96875,0.5625,-0.09375,1.625,-0.03125,-0.15625,2.46875,0.3125,1.8125,1.0625,-0.03125,0.09375,0.9375,0.03125,0.03125,0.125,0.125
9.578125,613,-0.46875,0.03125,-0.25,0.03125,-1.09375,0.65625,-0.15625,1.71875,-0.03125,0.0,2.5625,0.46875,1.375,0.84375,0.0,0.59375,0.71875,0.09375,0.15625,0.15625,0.0
9.59375,614,-0.46875,0.0625,-0.3125,-0.09375,-1.125,0.65625,-0.15625,1.8125,-0.03125,0.15625,2.5625,0.5625,1.125,0.8125,0.09375,0.59375,0.59375,0.15625,-0.0625,0.03125,0.03125
9.609375,615,-0.40625,0.03125,-0.4375,-0.0625,-1.28125,0.5625,-0.09375,1.875,0.03125,0.375,2.1875,0.6875,0.96875,0.84375,0.03125,0.40625,0.5625,0.0625,-0.0625,0.0625,0.0
9.625,616,-0.34375,0.0625,-0.4375,-0.15625,-1.375,0.53125,-0.09375,1.90625,0.03125,0.5,2.125,0.71875,0.53125,0.90625,0.09375,0.25,0.53125,0.03125,0.0,0.03125,0.0
9.640625,617,-0.375,0.09375,-0.40625,-0.09375,-1.375,0.53125,-0.03125,1.9375,0.09375,0.375,2.25,0.625,0.375,0.84375,0.0625,0.5,0.4375,0.03125,0.0,0.0625,-0.03125
9.65625,618,-0.34375,0.15625,-0.40625,-0.125,-1.3125,0.625,-0.03125,1.875,0.0625,0.3125,2.21875,0.625,0.34375,0.84375,0.0,0.5625,0.34375,0.0625,-0.0625,0.15625,0.0
9.671875,619,-0.28125,0.1875,-0.3125,0.0625,-1.09375,0.5625,-0.09375,1.75,0.03125,0.3125,2.40625,0.375,0.5,0.84375,-0.0625,0.25,0.375,0.0625,-0.03125,0.15625,0.0
9.6875,620,-0.15625,0.1875,-0.25,0.125,-1.03125,0.4375,0.0,1.4375,0.03125,0.34375,2.0625,0.34375,0.65625,0.84375,-0.125,0.28125,0.375,0.0625,-0.03125,0.15625,-0.03125
9.703125,621,-0.15625,0.21875,-0.1875,-0.03125,-1.1875,0.4375,-0.03125,1.125,0.03125,0.0,-0.15625,0.15625,0.46875,0.75,-0.03125,0.46875,0.375,0.09375,-0.0625,0.15625,0.0
9.71875,622,-0.125,0.21875,-0.15625,-0.1875,-1.03125,0.34375,-0.0625,0.4375,0.09375,0.28125,0.34375,0.125,0.25,0.65625,0.0,0.28125,0.375,0.0625,-0.0625,0.15625,-0.03125
9.734375,623,-0.09375,0.21875,-0.125,-0.15625,-1.21875,0.3125,-0.09375,-0.1875,0.125,0.09375,-0.28125,0.15625,0.28125,0.65625,0.0,0.0625,0.375,0.0625,0.0625,0.0625,-0.03125
9.75,624,-0.0625,0.21875,-0.09375,0.03125,-1.28125,0.3125,-0.03125,-0.8125,0.21875,-0.03125,-0.875,0.0625,0.1875,0.59375,-0.0625,0.09375,0.34375,0.09375,0.09375,0.03125,-0.03125
9.765625,625,0.0,0.1875,-0.03125,0.125,-1.25,0.34375,0.0625,-1.40625,0.25,-0.03125,-1.46875,-0.03125,0.0625,0.59375,-0.125,0.28125,0.25,0.09375,0.1875,-0.03125,-0.03125
9.78125,626,-0.03125,0.1875,0.0,0.25,-1.21875,0.21875,0.1875,-1.9375,0.3125,0.0,-1.96875,-0.15625,0.0,0.5625,-0.09375,0.1875,0.25,0.0625,0.125,-0.03125,-0.03125
9.796875,627,-0.0625,0.125,0.09375,0.3125,-1.25,0.125,0.375,-2.34375,0.375,0.0625,-2.40625,-0.34375,-0.0625,0.5625,-0.03125,-0.09375,0.3125,0.03125,0.0625,-0.0625,-0.03125
9.8125,628,-0.09375,0.09375,0.15625,0.4375,-1.25,0.03125,0.53125,-2.6875,0.40625,0.15625,-2.78125,-0.46875,-0.25,0.5,0.03125,-0.1875,0.34375,0.0,-0.0625,-0.03125,-0.0625
9.828125,629,-0.09375,0.0625,0.15625,0.5625,-1.28125,-0.03125,0.625,-2.90625,0.4375,0.125,-2.875,-0.625,-0.4375,0.46875,0.03125,-0.1875,0.375,0.0,-0.09375,-0.03125,-0.0625
9.84375,630,-0.125,0.09375,0.1875,0.5625,-1.40625,-0.0625,0.6875,-2.96875,0.46875,0.1875,-2.96875,-0.625,-0.59375,0.40625,0.0625,-0.125,0.40625,0.0,-0.0625,-0.03125,-0.0625
9.859375,631,-0.15625,0.09375,0.1875,0.5625,-1.5625,-0.03125,0.71875,-2.9375,0.4375,0.1875,-3.25,-0.59375,-0.4375,0.375,0.09375,-0.09375,0.40625,0.0,-0.03125,0.0,-0.03125
9.875,632,-0.15625,0.09375,0.15625,0.59375,-1.5625,-0.0625,0.6875,-2.9375,0.375,0.34375,-3.0625,-0.625,-0.21875,0.4375,0.0625,-0.1875,0.40625,0.0,-0.0625,0.03125,-0.0625
9.890625,633,-0.1875,0.09375,0.15625,0.5625,-1.5625,-0.03125,0.625,-3.03125,0.34375,0.28125,-3.28125,-0.53125,-0.1875,0.46875,0.0625,-0.25,0.40625,0.0,-0.09375,0.03125,-0.0625
9.90625,634,-0.09375,0.125,0.15625,0.59375,-1.40625,0.0,0.5,-3.03125,0.21875,0.09375,-3.0625,-0.59375,-0.1875,0.5,0.03125,-0.25,0.375,0.0,-0.0625,0.0,-0.0625
9.921875,635,-0.03125,0.09375,0.125,0.5625,-1.3125,0.0,0.34375,-3.0625,0.09375,-0.3125,-3.03125,-0.53125,-0.1875,0.46875,0.03125,-0.21875,0.3125,0.0,-0.03125,-0.03125,-0.0625
9.9375,636,0.0,0.0,0.1875,0.46875,-1.125,0.03125,0.125,-3.03125,-0.0625,-0.5,-3.0,-0.4375,-0.1875,0.46875,0.03125,-0.25,0.3125,0.0,-0.0625,0.0,-0.0625
9.953125,637,0.0,0.03125,0.1875,0.21875,-0.96875,0.0625,0.0,-2.96875,-0.15625,-0.6875,-2.90625,-0.375,-0.21875,0.46875,0.0625,-0.21875,0.28125,0.0,-0.0625,0.0,-0.0625
9.96875,638,-0.0625,0.03125,0.25,-0.09375,-0.9375,0.03125,-0.0625,-2.84375,-0.21875,-0.75,-2.75,-0.34375,-0.3125,0.5,0.09375,-0.25,0.28125,-0.03125,-0.09375,-0.03125,-0.0625
9.984375,639,-0.125,0.0625,0.21875,-0.21875,-0.9375,-0.03125,-0.03125,-2.65625,-0.21875,-0.6875,-2.59375,-0.34375,-0.53125,0.53125,0.0625,-0.28125,0.3125,-0.0625,-0.09375,-0.03125,-0.0625
10.0,640,-0.09375,0.03125,0.25,0.125,-0.96875,-0.1875,0.03125,-2.46875,-0.15625,-0.65625,-2.4375,-0.375,-0.5,0.5625,0.09375,-0.28125,0.3125,-0.0625,-0.0625,-0.0625,-0.03125
10.015625,641,-0.09375,0.09375,0.28125,0.21875,-0.9375,-0.25,0.125,-2.21875,-0.0625,-0.4375,-2.1875,-0.40625,-0.375,0.59375,0.09375,-0.28125,0.34375,-0.0625,-0.0625,-0.03125,-0.03125
10.03125,642,-0.09375,0.09375,0.28125,0.1875,-0.78125,-0.21875,0.1875,-1.96875,0.0,-0.25,-1.9375,-0.34375,-0.34375,0.625,0.125,-0.375,0.40625,-0.0625,-0.09375,0.0,0.0
10.046875,643,-0.0625,0.0625,0.25,0.21875,-0.6875,-0.15625,0.15625,-1.6875,0.0625,-0.15625,-1.71875,-0.21875,-0.34375,0.59375,0.125,-0.3125,0.4375,-0.0625,-0.09375,0.0,-0.03125
10.0625,644,-0.0625,0.0625,0.25,0.28125,-0.5625,-0.125,0.03125,-1.4375,0.09375,-0.125,-1.4375,-0.09375,-0.28125,0.5,0.0625,-0.09375,0.46875,-0.03125,-0.03125,0.0,0.0
10.078125,645,0.0,0.0625,0.21875,0.1875,-0.40625,0.0,-0.09375,-1.15625,0.09375,-0.1875,-1.1875,0.03125,-0.09375,0.40625,0.03125,-0.0625,0.5,-0.03125,0.0,0.03125,-0.03125
10.09375,646,0.0625,0.0,0.1875,0.09375,-0.34375,0.0625,-0.21875,-0.90625,0.03125,-0.25,-0.90625,0.125,0.125,0.375,0.0,-0.09375,0.53125,-0.03125,-0.03125,0.03125,-0.03125
10.109375,647,0.125,0.0,0.125,-0.0625,-0.21875,0.09375,-0.28125,-0.65625,-0.0625,-0.3125,-0.65625,0.15625,0.3125,0.40625,0.0,0.03125,0.53125,0.0,-0.03125,0.03125,-0.03125
10.125,648,0.15625,-0.03125,0.09375,-0.15625,-0.1875,0.09375,-0.3125,-0.4375,-0.09375,-0.34375,-0.375,0.15625,0.34375,0.46875,0.03125,0.15625,0.53125,-0.03125,0.0,0.03125,0.0
10.140625,649,0.1875,-0.03125,0.0625,-0.1875,-0.0625,0.0625,-0.21875,-0.1875,-0.125,-0.28125,-0.15625,0.125,0.3125,0.5,0.0,0.15625,0.53125,-0.03125,-0.03125,0.03125,0.0
10.15625,650,0.21875,-0.03125,0.0625,-0.1875,0.0,0.0,-0.125,0.03125,-0.125,-0.1875,0.03125,0.03125,0.1875,0.53125,-0.03125,0.03125,0.53125,-0.0625,-0.03125,0.03125,0.0
10.171875,651,0.28125,-0.03125,0.09375,-0.09375,0.09375,-0.0625,0.03125,0.1875,-0.09375,0.0,0.21875,-0.0625,0.09375,0.53125,0.0,0.0625,0.5625,-0.0625,0.0,0.0,0.0
10.1875,652,0.3125,-0.03125,0.125,0.0,0.25,-0.09375,0.15625,0.3125,-0.0625,0.125,0.34375,-0.125,0.03125,0.5625,-0.03125,0.125,0.5625,-0.0625,0.03125,0.03125,0.0
10.203125,653,0.3125,-0.0625,0.125,0.125,0.375,-0.15625,0.1875,0.40625,-0.03125,0.15625,0.40625,-0.125,0.0625,0.5,-0.03125,0.1875,0.5625,-0.0625,0.03125,0.03125,0.0
10.21875,654,0.34375,-0.0625,0.125,0.09375,0.46875,-0.1875,0.15625,0.5,0.0,0.21875,0.46875,-0.0625,0.125,0.5,0.0,0.1875,0.59375,-0.0625,0.0,0.03125,0.0
10.234375,655,0.375,-0.09375,0.09375,0.0625,0.5625,-0.1875,0.125,0.53125,0.0,0.21875,0.3125,-0.03125,0.15625,0.4375,-0.03125,0.125,0.65625,-0.09375,0.03125,0.03125,0.0
10.25,656,0.375,-0.125,0.03125,-0.0625,0.625,-0.21875,0.03125,0.34375,0.03125,-0.25,0.8125,0.09375,0.1875,0.40625,-0.0625,0.21875,0.71875,-0.09375,0.03125,0.0625,-0.03125
10.265625,657,0.25,-0.125,0.0,0.25,0.125,-0.21875,-0.1875,0.5625,0.0,-0.09375,0.6875,0.1875,0.3125,0.40625,-0.0625,0.28125,0.65625,-0.125,0.03125,0.0625,-0.03125
10.28125,658,0.125,-0.15625,-0.09375,-0.0625,-0.03125,-0.25,-0.1875,0.6875,-0.0625,0.0625,0.71875,0.1875,0.34375,0.5,-0.03125,0.09375,0.6875,-0.15625,-0.03125,0.09375,-0.03125
10.296875,659,0.0625,-0.1875,-0.15625,-0.125,-0.0625,-0.09375,-0.09375,0.78125,-0.125,0.125,0.9375,0.125,0.375,0.59375,-0.0625,0.125,0.65625,-0.1875,-0.0625,0.125,-0.03125
10.3125,660,0.125,-0.21875,-0.1875,0.0,0.125,0.0625,-0.0625,0.8125,-0.1875,0.03125,0.9375,0.03125,0.4375,0.65625,-0.09375,0.3125,0.59375,-0.1875,-0.03125,0.125,-0.0625
10.328125,661,0.125,-0.25,-0.125,-0.15625,0.375,0.125,-0.125,0.75,-0.25,-0.09375,0.9375,0.0625,0.3125,0.6875,-0.15625,0.34375,0.5625,-0.21875,-0.03125,0.15625,-0.03125
10.34375,662,0.125,-0.25,-0.03125,-0.4375,0.53125,0.15625,-0.28125,0.6875,-0.28125,-0.15625,0.90625,0.15625,0.125,0.6875,-0.125,0.25,0.53125,-0.1875,0.0,0.125,-0.03125
10.359375,663,0.1875,-0.28125,0.0,-0.5625,0.5,0.09375,-0.4375,0.625,-0.28125,-0.21875,0.84375,0.25,0.03125,0.6875,-0.0625,0.125,0.5,-0.21875,-0.03125,0.15625,-0.0625
10.375,664,0.21875,-0.28125,-0.03125,-0.625,0.46875,0.0,-0.375,0.625,-0.25,-0.09375,0.84375,0.21875,-0.125,0.6875,-0.0625,0.125,0.5,-0.21875,-0.03125,0.1875,-0.09375
10.390625,665,0.25,-0.25,-0.125,-0.5,0.4375,-0.15625,-0.25,0.6875,-0.21875,0.03125,0.8125,-0.03125,-0.1875,0.65625,0.0,0.09375,0.53125,-0.21875,-0.0625,0.21875,-0.09375
10.40625,666,0.21875,-0.1875,-0.1875,-0.3125,0.46875,-0.28125,-0.15625,0.71875,-0.1875,-0.03125,0.59375,0.0625,-0.1875,0.65625,-0.03125,0.0625,0.5625,-0.21875,-0.0625,0.28125,-0.125
10.421875,667,0.25,-0.15625,-0.21875,-0.125,0.59375,-0.375,-0.15625,0.625,-0.15625,-0.09375,0.78125,0.09375,-0.1875,0.625,-0.0625,0.0625,0.625,-0.21875,-0.03125,0.40625,-0.15625
10.4375,668,0.25,-0.125,-0.1875,0.09375,0.65625,-0.4375,-0.125,0.625,-0.125,-0.375,0.65625,-0.03125,0.0,0.5,-0.0625,0.09375,0.65625,-0.21875,-0.0625,0.5625,-0.15625
10.453125,669,0.25,-0.125,-0.15625,0.0,0.71875,-0.40625,-0.125,0.5625,-0.09375,-0.21875,0.28125,-0.03125,0.15625,0.375,-0.125,0.0625,0.71875,-0.25,-0.0625,0.78125,-0.1875
10.46875,670,0.28125,-0.09375,-0.125,-0.25,0.875,-0.34375,-0.125,0.59375,-0.09375,0.09375,-0.21875,0.0,0.25,0.125,-0.125,0.0,0.84375,-0.21875,-0.0625,1.03125,-0.1875
10.484375,671,0.3125,-0.0625,-0.09375,-0.28125,0.96875,-0.34375,-0.09375,0.5625,-0.125,0.03125,0.125,-0.03125,0.21875,-0.09375,-0.15625,0.03125,1.03125,-0.21875,-0.0625,1.3125,-0.21875
10.5,672,0.34375,-0.03125,-0.09375,-0.40625,1.0,-0.375,-0.09375,0.5625,-0.15625,-0.03125,0.09375,-0.0625,0.1875,-0.34375,-0.1875,0.125,1.1875,-0.21875,-0.0625,1.59375,-0.25
10.515625,673,0.34375,0.0,-0.09375,-0.5,1.09375,-0.34375,-0.09375,0.53125,-0.15625,-0.09375,0.03125,-0.0625,0.125,-0.5625,-0.1875,0.125,1.34375,-0.1875,-0.0625,1.84375,-0.25
10.53125,674,0.34375,0.0,-0.0625,-0.53125,1.09375,-0.34375,-0.0625,0.46875,-0.125,-0.0625,0.0,-0.0625,0.0625,-0.875,-0.21875,0.15625,1.4375,-0.15625,-0.1875,2.1875,-0.34375
10.546875,675,0.3125,0.03125,-0.0625,-0.53125,1.09375,-0.40625,-0.0625,0.4375,-0.125,-0.03125,0.0,-0.03125,0.0,-1.15625,-0.28125,0.21875,1.5625,-0.15625,-0.1875,2.53125,-0.4375
10.5625,676,0.28125,0.09375,0.0,-0.5,1.03125,-0.34375,-0.0625,0.40625,-0.125,-0.03125,0.03125,-0.0625,-0.03125,-1.4375,-0.28125,0.1875,1.625,-0.15625,-0.1875,2.8125,-0.5625
10.578125,677,0.25,0.09375,0.03125,-0.46875,1.0,-0.3125,-0.0625,0.4375,-0.09375,-0.0625,0.0,-0.03125,-0.15625,-1.53125,-0.3125,0.0625,1.65625,-0.09375,-0.0625,3.09375,-0.75
10.59375,678,0.25,0.125,0.03125,-0.40625,0.9375,-0.28125,-0.0625,0.4375,-0.15625,-0.03125,0.0,-0.03125,-0.15625,-1.625,-0.3125,-0.09375,1.78125,-0.09375,-0.15625,3.21875,-0.8125
10.609375,679,0.15625,0.125,0.0,-0.40625,0.90625,-0.25,-0.0625,0.46875,-0.125,0.0,0.03125,-0.03125,-0.15625,-1.59375,-0.3125,-0.15625,1.9375,-0.09375,-0.46875,2.96875,-0.875
10.625,680,0.125,0.15625,0.03125,-0.3125,0.875,-0.21875,-0.0625,0.5,-0.125,-0.03125,0.0625,-0.03125,-0.0625,-1.65625,-0.28125,-0.25,2.125,-0.125,-0.3125,2.84375,-0.875
10.640625,681,0.125,0.1875,0.03125,-0.25,0.875,-0.21875,-0.0625,0.46875,-0.09375,0.0,0.0625,-0.03125,-0.0625,-1.78125,-0.15625,0.0625,2.0625,-0.1875,-0.1875,2.84375,-0.84375
10.65625,682,0.09375,0.1875,0.03125,-0.125,0.8125,-0.21875,-0.0625,0.46875,-0.09375,0.0,0.0625,-0.03125,-0.0625,-1.78125,-0.0625,0.53125,1.875,-0.28125,-0.1875,2.78125,-0.75
10.671875,683,0.09375,0.21875,0.03125,-0.125,0.78125,-0.1875,-0.09375,0.46875,-0.0625,0.03125,0.125,0.0,-0.0625,-1.75,-0.0625,0.5,1.71875,-0.375,-0.125,2.3125,-0.6875
10.6875,684,0.125,0.25,0.03125,-0.25,0.75,-0.15625,-0.0625,0.4375,-0.0625,0.03125,0.125,0.0,-0.1875,-1.59375,-0.0625,0.28125,1.375,-0.40625,-0.375,1.78125,-0.25
10.703125,685,0.125,0.21875,0.03125,-0.28125,0.78125,-0.15625,-0.03125,0.375,-0.03125,0.0,0.09375,0.0,-0.3125,-1.5,-0.0625,0.0625,0.9375,-0.4375,-0.65625,0.78125,0.15625
10.71875,686,0.125,0.1875,0.0625,-0.25,0.8125,-0.1875,-0.03125,0.3125,-0.03125,0.03125,0.125,0.0,-0.53125,-1.53125,-0.03125,-0.3125,0.4375,-0.4375,-0.5625,0.4375,0.5
10.734375,687,0.125,0.1875,0.09375,-0.15625,0.8125,-0.15625,-0.03125,0.25,0.0,0.03125,0.09375,-0.03125,-0.71875,-1.5625,-0.03125,-0.59375,0.03125,-0.375,-0.53125,-0.15625,0.6875
10.75,688,0.15625,0.15625,0.125,-0.03125,0.78125,-0.15625,0.09375,0.25,0.0,-0.0625,0.09375,-0.0625,-0.875,-1.65625,0.0,-0.65625,-0.40625,-0.34375,-0.46875,-0.625,0.75
10.765625,689,0.125,0.125,0.125,-0.0625,0.78125,-0.15625,0.03125,0.21875,0.0,0.03125,0.0625,-0.03125,-1.0625,-1.71875,0.0,-0.5,-0.84375,-0.28125,-0.40625,-1.0625,0.6875
10.78125,690,0.125,0.09375,0.1875,0.0,0.6875,-0.15625,0.125,0.1875,0.03125,0.15625,0.125,-0.0625,-1.1875,-1.71875,0.0,-0.28125,-1.28125,-0.21875,-0.3125,-1.53125,0.53125
10.796875,691,0.125,0.03125,0.1875,0.0,0.6875,-0.09375,0.0625,0.1875,0.0,0.0,0.15625,-0.03125,-1.21875,-1.6875,-0.03125,-0.03125,-1.65625,-0.125,-0.21875,-1.9375,0.375
10.8125,692,0.125,0.0,0.1875,-0.03125,0.625,-0.125,0.03125,0.21875,0.03125,0.125,0.15625,-0.03125,-1.15625,-1.59375,-0.0625,0.1875,-2.03125,0.0,-0.0625,-2.28125,0.25
10.828125,693,0.09375,-0.0625,0.1875,-0.0625,0.625,-0.09375,0.0,0.21875,0.0,0.15625,0.125,0.0,-1.0,-1.46875,-0.125,0.46875,-2.40625,0.125,0.0625,-2.625,0.125
10.84375,694,0.09375,-0.09375,0.1875,-0.03125,0.59375,-0.0625,0.0,0.21875,0.0,0.09375,0.1875,0.03125,-0.78125,-1.3125,-0.1875,0.6875,-2.71875,0.21875,0.21875,-3.0,0.0
10.859375,695,0.0625,-0.125,0.1875,0.0,0.5625,-0.09375,-0.03125,0.25,0.03125,0.0625,0.1875,0.03125,-0.53125,-1.15625,-0.21875,0.84375,-3.03125,0.34375,0.375,-3.21875,-0.09375
10.875,696,0.0625,-0.125,0.15625,-0.0625,0.5625,-0.0625,-0.0625,0.28125,0.03125,0.09375,0.21875,0.0625,-0.3125,-1.0,-0.21875,0.75,-3.3125,0.5,0.46875,-3.375,-0.09375
10.890625,697,0.0625,-0.15625,0.09375,-0.09375,0.5625,-0.03125,-0.0625,0.28125,0.03125,0.09375,0.25,0.0625,-0.125,-0.90625,-0.21875,0.5,-3.53125,0.625,0.53125,-3.4375,0.03125
10.90625,698,0.03125,-0.15625,0.09375,-0.09375,0.5625,0.0,-0.09375,0.3125,0.03125,0.09375,0.28125,0.0625,0.125,-0.71875,-0.21875,0.28125,-3.75,0.71875,0.625,-3.40625,0.1875
10.921875,699,0.0,-0.15625,0.03125,-0.125,0.5625,0.0,-0.09375,0.34375,0.03125,0.09375,0.28125,0.0625,0.3125,-0.53125,-0.21875,0.15625,-3.875,0.75,0.625,-3.5,0.375
10.9375,700,-0.09375,-0.15625,0.0,-0.1875,0.53125,0.03125,-0.09375,0.375,0.03125,0.09375,0.3125,0.0625,0.5,-0.34375,-0.125,0.125,-3.90625,0.78125,0.71875,-3.625,0.46875
10.953125,701,-0.15625,-0.21875,-0.03125,-0.15625,0.53125,0.03125,-0.0625,0.40625,0.03125,0.09375,0.3125,0.03125,0.5,-0.09375,-0.125,0.03125,-4.0,0.75,0.6875,-3.59375,0.46875
10.96875,702,-0.21875,-0.21875,-0.09375,-0.125,0.53125,0.0,-0.09375,0.40625,0.0,0.0,0.34375,0.03125,0.34375,0.0,-0.09375,0.0,-4.0,0.71875,0.5625,-3.53125,0.5
10.984375,703,-0.21875,-0.1875,-0.125,-0.1875,0.5,0.0,-0.09375,0.40625,0.0,0.0625,0.34375,0.0625,0.1875,0.09375,-0.125,-0.03125,-3.96875,0.65625,0.4375,-3.3125,0.625
11.0,704,-0.25,-0.1875,-0.125,-0.125,0.5625,0.03125,-0.09375,0.4375,0.0,0.15625,0.375,0.03125,0.4375,0.1875,-0.125,-0.09375,-3.75,0.5625,0.3125,-2.875,0.6875
11.015625,705,-0.28125,-0.15625,-0.125,-0.125,0.5625,0.0,-0.09375,0.40625,0.03125,0.0625,0.375,0.0625,0.65625,0.21875,0.03125,0.03125,-3.625,0.375,0.65625,-2.21875,0.59375
11.03125,706,-0.28125,-0.09375,-0.09375,-0.125,0.59375,0.0,-0.0625,0.4375,0.03125,0.125,0.4375,0.0625,0.625,0.25,0.15625,0.25,-3.25,0.1875,0.5,-1.5,0.15625
