TOTAL_TIME,0m52s
TOTAL_FRAMES,2651
SELECTED_FRAMES,2651
NO_OF_JOINTS,12
FREQUENCY,51.2
DESCRIPTION,Capture 10
TIME_STAMP,Oct 11, 2010

Time,Frame,Pelvis_accelX_Pelvis,Pelvis_accelY_Pelvis,Pelvis_accelZ_Pelvis,Pelvis_gyroX_Pelvis,Pelvis_gyroY_Pelvis,Pelvis_gyroZ_Pelvis,Pelvis_Joint angle_Pelvis,Pelvis_Relative pos X_Pelvis,Pelvis_Relative pos Y_Pelvis,Pelvis_Relative pos Z_Pelvis,RightPelvis_accelX_RightPelvis,RightPelvis_accelY_RightPelvis,RightPelvis_accelZ_RightPelvis,RightPelvis_gyroX_RightPelvis,RightPelvis_gyroY_RightPelvis,RightPelvis_gyroZ_RightPelvis,RightPelvis_Joint angle_RightPelvis,RightPelvis_Relative pos X_RightPelvis,RightPelvis_Relative pos Y_RightPelvis,RightPelvis_Relative pos Z_RightPelvis,RightUpLeg_accelX_RightUpLeg,RightUpLeg_accelY_RightUpLeg,RightUpLeg_accelZ_RightUpLeg,RightUpLeg_gyroX_RightUpLeg,RightUpLeg_gyroY_RightUpLeg,RightUpLeg_gyroZ_RightUpLeg,RightUpLeg_Joint angle_RightUpLeg,RightUpLeg_Relative pos X_RightUpLeg,RightUpLeg_Relative pos Y_RightUpLeg,RightUpLeg_Relative pos Z_RightUpLeg,RightLeg_accelX_RightLeg,RightLeg_accelY_RightLeg,RightLeg_accelZ_RightLeg,RightLeg_gyroX_RightLeg,RightLeg_gyroY_RightLeg,RightLeg_gyroZ_RightLeg,RightLeg_Joint angle_RightLeg,RightLeg_Relative pos X_RightLeg,RightLeg_Relative pos Y_RightLeg,RightLeg_Relative pos Z_RightLeg,RightFoot_accelX_RightFoot,RightFoot_accelY_RightFoot,RightFoot_accelZ_RightFoot,RightFoot_gyroX_RightFoot,RightFoot_gyroY_RightFoot,RightFoot_gyroZ_RightFoot,RightFoot_Joint angle_RightFoot,RightFoot_Relative pos X_RightFoot,RightFoot_Relative pos Y_RightFoot,RightFoot_Relative pos Z_RightFoot,RightFootEnd_accelX_RightFootEnd,RightFootEnd_accelY_RightFootEnd,RightFootEnd_accelZ_RightFootEnd,RightFootEnd_gyroX_RightFootEnd,RightFootEnd_gyroY_RightFootEnd,RightFootEnd_gyroZ_RightFootEnd,RightFootEnd_Joint angle_RightFootEnd,RightFootEnd_Relative pos X_RightFootEnd,RightFootEnd_Relative pos Y_RightFootEnd,RightFootEnd_Relative pos Z_RightFootEnd,LeftPelvis_accelX_LeftPelvis,LeftPelvis_accelY_LeftPelvis,LeftPelvis_accelZ_LeftPelvis,LeftPelvis_gyroX_LeftPelvis,LeftPelvis_gyroY_LeftPelvis,LeftPelvis_gyroZ_LeftPelvis,LeftPelvis_Joint angle_LeftPelvis,LeftPelvis_Relative pos X_LeftPelvis,LeftPelvis_Relative pos Y_LeftPelvis,LeftPelvis_Relative pos Z_LeftPelvis,LeftUpLeg_accelX_LeftUpLeg,LeftUpLeg_accelY_LeftUpLeg,LeftUpLeg_accelZ_LeftUpLeg,LeftUpLeg_gyroX_LeftUpLeg,LeftUpLeg_gyroY_LeftUpLeg,LeftUpLeg_gyroZ_LeftUpLeg,LeftUpLeg_Joint angle_LeftUpLeg,LeftUpLeg_Relative pos X_LeftUpLeg,LeftUpLeg_Relative pos Y_LeftUpLeg,LeftUpLeg_Relative pos Z_LeftUpLeg,LeftLeg_accelX_LeftLeg,LeftLeg_accelY_LeftLeg,LeftLeg_accelZ_LeftLeg,LeftLeg_gyroX_LeftLeg,LeftLeg_gyroY_LeftLeg,LeftLeg_gyroZ_LeftLeg,LeftLeg_Joint angle_LeftLeg,LeftLeg_Relative pos X_LeftLeg,LeftLeg_Relative pos Y_LeftLeg,LeftLeg_Relative pos Z_LeftLeg,LeftFoot_accelX_LeftFoot,LeftFoot_accelY_LeftFoot,LeftFoot_accelZ_LeftFoot,LeftFoot_gyroX_LeftFoot,LeftFoot_gyroY_LeftFoot,LeftFoot_gyroZ_LeftFoot,LeftFoot_Joint angle_LeftFoot,LeftFoot_Relative pos X_LeftFoot,LeftFoot_Relative pos Y_LeftFoot,LeftFoot_Relative pos Z_LeftFoot,LeftFootEnd_accelX_LeftFootEnd,LeftFootEnd_accelY_LeftFootEnd,LeftFootEnd_accelZ_LeftFootEnd,LeftFootEnd_gyroX_LeftFootEnd,LeftFootEnd_gyroY_LeftFootEnd,LeftFootEnd_gyroZ_LeftFootEnd,LeftFootEnd_Joint angle_LeftFootEnd,LeftFootEnd_Relative pos X_LeftFootEnd,LeftFootEnd_Relative pos Y_LeftFootEnd,LeftFootEnd_Relative pos Z_LeftFootEnd,Spine_accelX_Spine,Spine_accelY_Spine,Spine_accelZ_Spine,Spine_gyroX_Spine,Spine_gyroY_Spine,Spine_gyroZ_Spine,Spine_Joint angle_Spine,Spine_Relative pos X_Spine,Spine_Relative pos Y_Spine,Spine_Relative pos Z_Spine,
0.0,0,-0.90197754,-0.11480713,0.48150635,0.056640625,0.0625,-0.11035156,0.0,0.0,0.0,0.0,0.0,0.0,0.0,0.0,0.0,0.0,0.0,0.11597803,-0.032212555,-0.9928387,-0.92419434,-0.04711914,-0.24334717,0.16601562,-0.099609375,0.083984375,6.7756367,2.4011047,-0.66689974,-20.554836,-0.98205566,0.021240234,0.11663818,0.08105469,-0.087890625,0.072265625,1.7615865,5.0946503,-57.139446,-13.270403,0.5874634,0.324646,0.72766113,-0.005859375,0.036132812,-0.0146484375,41.65374,8.756247,-128.1832,-2.6566582,0.0,0.0,0.0,0.0,0.0,0.0,0.0,10.484206,-128.3648,-22.57896,0.0,0.0,0.0,0.0,0.0,0.0,0.0,-0.11597803,0.032212555,0.9928387,-0.96099854,8.544922E-4,-0.31622314,0.3466797,-0.15039062,-0.01171875,4.124358,-2.4011047,0.66689974,20.554836,-0.9850464,-0.0064086914,-0.15081787,0.15722656,-0.18261719,0.01953125,11.704068,-5.692379,-56.214725,18.825575,0.6174927,-0.20037842,0.79211426,-0.15136719,-0.024414062,0.11425781,20.764149,1.5676937,-127.65582,24.229788,0.0,0.0,0.0,0.0,0.0,0.0,0.0,-5.1476984,-127.92811,5.390032,-0.9711304,-0.12683105,-0.07098389,0.11621094,0.17285156,-0.018554688,0.0,0.8496156,44.976307,-1.3600045,
0.0195312497089617,1,-0.90197754,-0.11480713,0.48150635,0.056640625,0.0625,-0.11035156,0.0,0.0,0.0,0.0,0.0,0.0,0.0,0.0,0.0,0.0,0.0,0.11597803,-0.032212555,-0.9928387,-0.92419434,-0.04711914,-0.24334717,0.16601562,-0.099609375,0.083984375,6.7756367,2.4011047,-0.66689974,-20.554836,-0.98205566,0.021240234,0.11663818,0.08105469,-0.087890625,0.072265625,1.7615865,5.0946503,-57.139446,-13.270403,0.5874634,0.324646,0.72766113,-0.005859375,0.036132812,-0.0146484375,41.65374,8.756247,-128.1832,-2.6566582,0.0,0.0,0.0,0.0,0.0,0.0,0.0,10.484206,-128.3648,-22.57896,0.0,0.0,0.0,0.0,0.0,0.0,0.0,-0.11597803,0.032212555,0.9928387,-0.96099854,8.544922E-4,-0.31622314,0.3466797,-0.15039062,-0.01171875,4.124358,-2.4011047,0.66689974,20.554836,-0.9850464,-0.0064086914,-0.15081787,0.15722656,-0.18261719,0.01953125,11.704068,-5.692379,-56.214725,18.825575,0.6174927,-0.20037842,0.79211426,-0.15136719,-0.024414062,0.11425781,20.764149,1.5676937,-127.65582,24.229788,0.0,0.0,0.0,0.0,0.0,0.0,0.0,-5.1476984,-127.92811,5.390032,-0.9711304,-0.12683105,-0.07098389,0.11621094,0.17285156,-0.018554688,0.0,0.8496156,44.976307,-1.3600045,
0.0390624994179234,2,-0.90197754,-0.11480713,0.48150635,0.056640625,0.0625,-0.11035156,0.0,0.0,0.0,0.0,0.0,0.0,0.0,0.0,0.0,0.0,0.0,0.11597803,-0.032212555,-0.9928387,-0.92419434,-0.04711914,-0.24334717,0.16601562,-0.099609375,0.083984375,6.7756367,2.4011047,-0.66689974,-20.554836,-0.98205566,0.021240234,0.11663818,0.08105469,-0.087890625,0.072265625,1.7615865,5.0946503,-57.139446,-13.270403,0.5874634,0.324646,0.72766113,-0.005859375,0.036132812,-0.0146484375,41.65374,8.756247,-128.1832,-2.6566582,0.0,0.0,0.0,0.0,0.0,0.0,0.0,10.484206,-128.3648,-22.57896,0.0,0.0,0.0,0.0,0.0,0.0,0.0,-0.11597803,0.032212555,0.9928387,-0.96099854,8.544922E-4,-0.31622314,0.3466797,-0.15039062,-0.01171875,4.124358,-2.4011047,0.66689974,20.554836,-0.9850464,-0.0064086914,-0.15081787,0.15722656,-0.18261719,0.01953125,11.704068,-5.692379,-56.214725,18.825575,0.6174927,-0.20037842,0.79211426,-0.15136719,-0.024414062,0.11425781,20.764149,1.5676937,-127.65582,24.229788,0.0,0.0,0.0,0.0,0.0,0.0,0.0,-5.1476984,-127.92811,5.390032,-0.9711304,-0.12683105,-0.07098389,0.11621094,0.17285156,-0.018554688,0.0,0.8496156,44.976307,-1.3600045,
0.0585937491268851,3,-0.85058594,-0.061462402,0.5375366,0.01953125,-0.03125,-0.14746094,0.0,0.0,0.0,0.0,0.0,0.0,0.0,0.0,0.0,0.0,0.0,0.12251687,0.008596389,-0.99254656,-0.918396,0.11804199,0.30444336,0.31835938,0.16796875,-0.25,31.74717,2.5364783,0.1779719,-20.54879,-1.0531616,-0.02758789,-0.084228516,0.30859375,-0.2626953,0.1875,45.89023,-24.246508,-49.044125,-10.090742,0.46343994,0.39416504,0.8881836,-0.5761719,0.9111328,-0.9707031,25.894636,-6.033352,-118.61519,-13.858341,0.0,0.0,0.0,0.0,0.0,0.0,0.0,-22.131474,-114.71725,-2.6465197,0.0,0.0,0.0,0.0,0.0,0.0,0.0,-0.12251687,-0.008596389,0.99254656,-0.96099854,8.544922E-4,-0.31622314,0.3466797,-0.15039062,-0.01171875,4.9567356,-2.5364783,-0.1779719,20.54879,-0.9668579,0.08337402,0.09643555,0.14257812,0.06933594,0.0146484375,7.307476,-5.8277526,-57.059597,18.819529,0.5205078,-0.42669678,0.7329712,0.5058594,1.2460938,0.6796875,20.09735,-10.881593,-127.94142,7.1632223,0.0,0.0,0.0,0.0,0.0,0.0,0.0,-28.562187,-123.95069,-1.2983446,-0.9682617,-0.005004883,-0.16687012,0.119140625,1.2285156,0.6640625,0.0,-1.1296935,44.990364,0.2502131,
0.0781249988358468,4,-0.83343506,-0.08709717,0.5458374,0.01953125,-0.0126953125,-0.12890625,0.0,0.0,0.0,0.0,0.0,0.0,0.0,0.0,0.0,0.0,0.0,0.12137222,0.010454264,-0.99269235,-0.9796753,0.10620117,0.34387207,0.43164062,0.2763672,-0.28710938,31.481035,2.512782,0.21643567,-20.551811,-1.0263672,0.032043457,-0.09667969,0.38671875,-1.0117188,0.34179688,44.704662,-23.842491,-49.172356,-9.77186,0.5803833,0.5611572,0.77801514,-0.22558594,1.0263672,-0.85839844,26.41893,-6.635132,-119.01021,-13.3562355,0.0,0.0,0.0,0.0,0.0,0.0,0.0,-22.620346,-114.65088,-2.1522017,0.0,0.0,0.0,0.0,0.0,0.0,0.0,-0.12137222,-0.010454264,0.99269235,-0.9454346,0.14978027,-0.32739258,0.3125,-0.061523438,-0.09667969,11.750392,-2.512782,-0.21643567,20.551811,-0.9607544,0.08807373,0.101379395,0.125,0.08886719,-0.00390625,3.6703985,-3.2920852,-55.98103,8.740531,0.5195923,-0.43688965,0.743042,0.32714844,0.7373047,0.37890625,19.707512,-8.233959,-126.883575,-2.8898563,0.0,0.0,0.0,0.0,0.0,0.0,0.0,-25.820862,-122.70261,-11.455601,-0.9539795,-0.002746582,-0.20672607,0.060546875,1.0205078,0.52734375,0.0,-1.1496503,44.99035,0.3332405,
0.09765624854480849,5,-0.83343506,-0.08709717,0.5458374,0.01953125,-0.0126953125,-0.12890625,0.0,0.0,0.0,0.0,0.0,0.0,0.0,0.0,0.0,0.0,0.0,0.12137222,0.010454264,-0.99269235,-0.960083,0.1451416,0.3468628,0.94140625,0.14355469,-0.29003906,31.21911,2.512782,0.21643567,-20.551811,-1.0272217,0.006652832,-0.05419922,0.30273438,-1.2900391,0.47558594,42.942062,-23.424675,-49.301407,-9.352553,0.55529785,0.4524536,0.72540283,-0.3828125,1.2197266,-0.7451172,26.325537,-7.911188,-119.56554,-12.342237,0.0,0.0,0.0,0.0,0.0,0.0,0.0,-23.918196,-114.747086,-1.3679934,0.0,0.0,0.0,0.0,0.0,0.0,0.0,-0.12137222,-0.010454264,0.99269235,-0.9383545,0.13995361,-0.3375244,0.2919922,-0.13574219,-0.053710938,11.646504,-2.512782,-0.21643567,20.551811,-0.9490967,0.07824707,0.078430176,0.14355469,0.12695312,0.013671875,3.3567219,-3.508116,-56.006927,8.888243,0.5187988,-0.4241333,0.7539673,0.0126953125,9.765625E-4,-0.07324219,19.528614,-8.333689,-126.909386,-2.734066,0.0,0.0,0.0,0.0,0.0,0.0,0.0,-25.89834,-122.69196,-11.323854,-0.95806885,-0.007751465,-0.1928711,0.060546875,0.6435547,0.33203125,0.0,-1.1496503,44.99035,0.3332405,
0.11718749825377019,6,-0.8386841,-0.04272461,0.53253174,0.018554688,0.06347656,-0.25878906,0.0,0.0,0.0,0.0,0.0,0.0,0.0,0.0,0.0,0.0,0.0,0.115466386,0.015684646,-0.99334025,-0.89172363,0.23132324,0.37615967,1.7509766,0.064453125,-0.14453125,31.15547,2.3905118,0.3247208,-20.565224,-1.0250854,0.010375977,-0.041259766,0.265625,-1.2138672,0.39941406,41.288845,-23.152655,-49.26264,-8.812774,0.6364746,0.512146,0.6541748,-0.22558594,0.9316406,-0.7480469,26.040962,-9.274152,-119.893555,-11.063789,0.0,0.0,0.0,0.0,0.0,0.0,0.0,-25.440937,-114.71348,-0.5053139,0.0,0.0,0.0,0.0,0.0,0.0,0.0,-0.115466386,-0.015684646,0.99334025,-0.9382324,0.11529541,-0.34094238,0.31152344,-0.15527344,-0.0146484375,11.188804,-2.3905118,-0.3247208,20.565224,-0.94647217,0.06774902,0.049560547,0.16210938,0.107421875,0.033203125,3.154736,-3.502444,-56.149296,9.068663,0.54571533,-0.43060303,0.7418213,0.068359375,-0.015625,-0.072265625,19.409027,-8.231674,-127.07521,-2.4672956,0.0,0.0,0.0,0.0,0.0,0.0,0.0,-25.804573,-122.870575,-11.047463,-0.95703125,0.0028686523,-0.18664551,-0.017578125,0.05859375,-0.057617188,0.0,-1.1172333,44.989212,0.580503,
0.1367187479627319,7,-0.833313,-0.054748535,0.47473145,0.16796875,0.08105469,-0.20507812,0.0,0.0,0.0,0.0,0.0,0.0,0.0,0.0,0.0,0.0,0.0,0.10934737,0.017970465,-0.99398047,-0.8870239,0.43115234,0.3651123,1.8632812,-0.080078125,0.021484375,31.093235,2.2638292,0.37204432,-20.578478,-1.0284424,0.033325195,-0.046081543,0.26953125,-1.1015625,0.28515625,39.945442,-22.97366,-49.19645,-8.288832,0.6820679,0.48846436,0.5731201,-0.14550781,0.5859375,-0.8251953,25.658655,-10.47117,-120.104385,-9.761422,0.0,0.0,0.0,0.0,0.0,0.0,0.0,-26.835007,-114.689926,0.36009026,0.0,0.0,0.0,0.0,0.0,0.0,0.0,-0.10934737,-0.017970465,0.99398047,-0.9321289,0.1003418,-0.31756592,0.3076172,-0.18847656,-0.0107421875,10.798804,-2.2638292,-0.37204432,20.578478,-0.9505005,0.06488037,0.055603027,0.19921875,0.12695312,0.032226562,2.8232055,-3.506001,-56.244392,9.3296175,0.52874756,-0.42285156,0.7468872,0.03125,-0.016601562,-0.07324219,19.327616,-8.021486,-127.20103,-2.128274,0.0,0.0,0.0,0.0,0.0,0.0,0.0,-25.602247,-123.01495,-10.703492,-0.96520996,-0.014404297,-0.19897461,-0.037109375,0.07714844,-0.038085938,0.0,-1.0302092,44.988995,0.7000363,
0.1562499976716936,8,-0.8411255,0.012512207,0.5331421,0.24316406,0.099609375,-0.13183594,0.0,0.0,0.0,0.0,0.0,0.0,0.0,0.0,0.0,0.0,0.0,0.102226764,0.015772723,-0.9947542,-0.90319824,0.56829834,0.37060547,0.61816406,-0.25,0.06347656,31.07552,2.1164107,0.32654428,-20.594498,-0.9989624,0.045776367,-0.083618164,0.15722656,-0.94921875,0.20800781,39.07201,-23.102205,-49.169502,-7.975897,0.6240845,0.39501953,0.51776123,-0.16308594,0.10644531,-0.8300781,25.10955,-11.673587,-120.26814,-8.803677,0.0,0.0,0.0,0.0,0.0,0.0,0.0,-28.263386,-114.79368,0.901577,0.0,0.0,0.0,0.0,0.0,0.0,0.0,-0.102226764,-0.015772723,0.9947542,-0.9251709,0.11419678,-0.3302002,0.3046875,-0.18652344,-0.028320312,10.667194,-2.1164107,-0.32654428,20.594498,-0.9798584,0.057250977,0.009094238,0.08691406,0.107421875,0.033203125,2.5086603,-3.5259082,-56.24632,9.587006,0.5675049,-0.41992188,0.71868896,0.03125,-0.016601562,-0.07324219,19.352509,-7.8090534,-127.23984,-1.7492294,0.0,0.0,0.0,0.0,0.0,0.0,0.0,-25.391363,-123.105736,-10.347269,-0.94799805,-0.017700195,-0.1831665,-0.037109375,0.05859375,-0.0390625,0.0,-0.92318165,44.991566,0.61851025,
0.1757812473806553,9,-0.85913086,0.03112793,0.49902344,0.16796875,0.099609375,-0.11230469,0.0,0.0,0.0,0.0,0.0,0.0,0.0,0.0,0.0,0.0,0.0,0.0961014,0.012489916,-0.9953745,-0.85839844,0.47503662,0.3373413,0.12695312,-0.57128906,0.10058594,31.462492,1.989596,0.25857997,-20.607338,-0.9588623,-0.01751709,-0.047180176,0.20214844,-0.68847656,0.11230469,39.01539,-23.656763,-48.880753,-7.6308403,0.588501,0.3711548,0.53027344,-0.061523438,-0.640625,-0.7998047,24.215542,-12.926368,-120.08717,-7.8757277,0.0,0.0,0.0,0.0,0.0,0.0,0.0,-29.519127,-114.65497,1.880023,0.0,0.0,0.0,0.0,0.0,0.0,0.0,-0.0961014,-0.012489916,0.9953745,-0.9312134,0.11328125,-0.33215332,0.23535156,-0.17675781,-0.0546875,10.627065,-1.989596,-0.25857997,20.607338,-0.95965576,0.05633545,0.051696777,0.06738281,0.087890625,0.07128906,2.3420112,-3.5281377,-56.20879,9.77743,0.5662842,-0.38189697,0.7654419,0.032226562,0.001953125,-0.053710938,19.340942,-7.5742145,-127.24341,-1.3702517,0.0,0.0,0.0,0.0,0.0,0.0,0.0,-25.148012,-123.166466,-10.008774,-0.9500122,-0.016479492,-0.2010498,9.765625E-4,0.040039062,-0.057617188,0.0,-0.752983,44.994648,0.49189198,
0.19531249708961698,10,-0.8284912,-0.017333984,0.45715332,0.16894531,0.08105469,-0.11230469,0.0,0.0,0.0,0.0,0.0,0.0,0.0,0.0,0.0,0.0,0.0,0.089350164,0.009026515,-0.99608505,-0.85565186,0.3743286,0.37890625,0.33398438,-0.8095703,0.11816406,32.115746,1.8498254,0.18687685,-20.622047,-0.9212036,-0.03387451,-0.09082031,0.43945312,-0.5078125,0.07519531,39.610226,-24.422293,-48.529354,-7.129141,0.710083,0.42163086,0.55255127,-0.07910156,-1.0244141,-0.8955078,23.054258,-13.9037895,-119.75525,-6.945489,0.0,0.0,0.0,0.0,0.0,0.0,0.0,-30.742342,-114.681015,2.5415287,0.0,0.0,0.0,0.0,0.0,0.0,0.0,-0.089350164,-0.009026515,0.99608505,-0.9352417,0.12017822,-0.32702637,0.15917969,-0.19824219,-0.09375,10.601163,-1.8498254,-0.18687685,20.622047,-0.9435425,0.066711426,0.048583984,0.0126953125,0.12695312,0.052734375,2.1421058,-3.527958,-56.168716,9.9790535,0.5708008,-0.41229248,0.73657227,0.049804688,-0.016601562,-0.053710938,19.426378,-7.3377295,-127.23674,-1.0532207,0.0,0.0,0.0,0.0,0.0,0.0,0.0,-24.906445,-123.18742,-9.714979,-0.9692993,-0.020202637,-0.20111084,-0.017578125,0.07714844,-0.057617188,0.0,-0.603518,45.0002,0.35365504,
0.21484374679857868,11,-0.8590698,0.009521484,0.51660156,0.16796875,0.13671875,-0.07421875,0.0,0.0,0.0,0.0,0.0,0.0,0.0,0.0,0.0,0.0,0.0,0.08463472,0.0051598875,-0.9966126,-0.8302002,0.26000977,0.3131714,0.16503906,-0.9189453,-0.01171875,32.903168,1.752202,0.10682566,-20.632973,-0.9015503,-0.015625,-0.16009521,0.5957031,-0.40039062,0.11425781,40.6354,-25.212978,-48.070274,-6.45977,0.670105,0.3753662,0.54901123,-0.27441406,-0.92871094,-0.96875,22.102268,-14.671754,-119.26696,-6.1587925,0.0,0.0,0.0,0.0,0.0,0.0,0.0,-31.730465,-114.560585,3.122919,0.0,0.0,0.0,0.0,0.0,0.0,0.0,-0.08463472,-0.0051598875,0.9966126,-0.9251709,0.12420654,-0.35968018,0.15332031,-0.13378906,-0.087890625,10.581784,-1.752202,-0.10682566,20.632973,-0.9673462,0.06506348,0.070617676,0.029296875,0.068359375,0.072265625,1.9873142,-3.4792309,-56.117935,10.165793,0.5440674,-0.41204834,0.7626953,0.05078125,-0.017578125,-0.015625,19.518824,-7.1669846,-127.20366,-0.7971201,0.0,0.0,0.0,0.0,0.0,0.0,0.0,-24.736591,-123.176926,-9.4691725,-0.9845581,-0.025024414,-0.19226074,0.001953125,0.09667969,-0.057617188,0.0,-0.4267039,45.007145,0.19678439,
0.23437499650754037,12,-0.85931396,-0.062561035,0.48712158,0.28125,0.099609375,-0.057617188,0.0,0.0,0.0,0.0,0.0,0.0,0.0,0.0,0.0,0.0,0.0,0.07845849,0.0023354953,-0.997025,-0.7302246,0.16088867,0.25927734,-0.55078125,-0.5498047,-0.13867188,33.506996,1.6243341,0.048351996,-20.641508,-0.85150146,0.018066406,-0.14587402,0.4794922,-0.4345703,0.13183594,41.07214,-25.874006,-47.6987,-6.0160255,0.5408325,0.33148193,0.58099365,-0.1953125,-1.1025391,-1.0634766,21.037539,-15.753887,-119.001884,-5.6000433,0.0,0.0,0.0,0.0,0.0,0.0,0.0,-32.68878,-114.47599,4.0339365,0.0,0.0,0.0,0.0,0.0,0.0,0.0,-0.07845849,-0.0023354953,0.997025,-0.9301758,0.10534668,-0.32836914,0.15722656,-0.119140625,-0.072265625,10.547922,-1.6243341,-0.048351996,20.641508,-0.9395752,0.064697266,0.04852295,0.047851562,0.087890625,0.09082031,1.8120775,-3.3940806,-56.090862,10.327062,0.5386963,-0.43267822,0.7429199,0.03125,-0.017578125,-0.053710938,19.65521,-6.918988,-127.17998,-0.62325954,0.0,0.0,0.0,0.0,0.0,0.0,0.0,-24.488419,-123.169014,-9.302919,-0.9815674,-0.030090332,-0.17541504,0.040039062,0.078125,-0.095703125,0.0,-0.30370933,45.00385,0.08152024,
0.2539062462165021,13,-0.8498535,-0.1138916,0.47052002,0.28125,0.099609375,-0.057617188,0.0,0.0,0.0,0.0,0.0,0.0,0.0,0.0,0.0,0.0,0.0,0.07107723,6.7231385E-4,-0.99761736,-0.7783203,0.021362305,0.20837402,-0.9277344,-0.23730469,-0.17285156,33.777527,1.4715184,0.013918981,-20.653774,-0.8486328,-0.021118164,-0.17687988,0.36132812,-0.4873047,0.15039062,41.04499,-26.382895,-47.454372,-5.7922363,0.611145,0.39801025,0.543396,-0.19433594,-1.2363281,-1.0830078,19.637535,-16.876232,-118.84125,-5.1285663,0.0,0.0,0.0,0.0,0.0,0.0,0.0,-33.648994,-114.557396,4.8732514,0.0,0.0,0.0,0.0,0.0,0.0,0.0,-0.07107723,-6.7231385E-4,0.99761736,-0.94018555,0.09161377,-0.33843994,0.24707031,-0.11035156,-0.045898438,10.408624,-1.4715184,-0.013918981,20.653774,-0.9661865,0.07287598,0.07159424,0.123046875,0.08691406,0.08984375,1.640321,-3.2859106,-56.08248,10.516982,0.53796387,-0.38494873,0.75061035,0.087890625,0.021484375,-0.053710938,19.684309,-6.692458,-127.18784,-0.40458202,0.0,0.0,0.0,0.0,0.0,0.0,0.0,-24.2672,-123.20471,-9.08797,-0.9764404,-0.016418457,-0.18408203,0.078125,0.07910156,-0.13378906,0.0,-0.12171054,45.006416,0.0216592,
0.2734374959254638,14,-0.9017334,-0.13549805,0.47338867,0.31835938,0.099609375,-0.11425781,0.0,0.0,0.0,0.0,0.0,0.0,0.0,0.0,0.0,0.0,0.0,0.06049198,-2.7986543E-4,-0.998343,-0.7994995,-0.053649902,0.14086914,-0.81347656,0.30566406,-0.28320312,33.61396,1.2523723,-0.0057940814,-20.668795,-0.8463135,-0.0803833,-0.18811035,0.49316406,-0.6220703,0.24707031,40.423866,-26.603039,-47.457214,-5.760355,0.59313965,0.47180176,0.52960205,-0.41015625,-1.0253906,-1.0996094,18.238955,-17.841618,-118.936905,-4.7921605,0.0,0.0,0.0,0.0,0.0,0.0,0.0,-34.699913,-114.98019,5.203428,0.0,0.0,0.0,0.0,0.0,0.0,0.0,-0.06049198,2.7986543E-4,0.998343,-0.93811035,0.07775879,-0.32781982,0.2919922,-0.15527344,-0.034179688,10.216944,-1.2523723,0.0057940814,20.668795,-0.9607544,0.0513916,0.055664062,0.12402344,0.087890625,0.051757812,1.475119,-3.1716962,-56.100258,10.746227,0.5336914,-0.4126587,0.737854,0.032226562,9.765625E-4,-0.03515625,19.738176,-6.4160414,-127.214294,-0.10791111,0.0,0.0,0.0,0.0,0.0,0.0,0.0,-23.996708,-123.25771,-8.792132,-0.98046875,-0.018127441,-0.20202637,0.078125,0.09863281,-0.171875,0.0,0.032137398,45.007824,-0.010669757,
0.2929687456344255,15,-0.8600464,-0.098083496,0.4788208,0.39257812,0.11816406,-0.19042969,0.0,0.0,0.0,0.0,0.0,0.0,0.0,0.0,0.0,0.0,0.0,0.049529374,-1.19498E-4,-0.9989253,-0.77038574,-0.045654297,0.018920898,-0.64160156,0.9746094,-0.50390625,32.667076,1.0254109,-0.0024739802,-20.680853,-0.8545532,-0.089416504,-0.22393799,0.89746094,-0.7080078,0.28710938,38.959435,-26.227873,-47.840534,-5.904336,0.67822266,0.43865967,0.57147217,-0.50683594,-1.0068359,-1.2109375,17.05512,-18.354622,-119.41609,-4.665101,0.0,0.0,0.0,0.0,0.0,0.0,0.0,-35.252876,-115.71822,5.3564844,0.0,0.0,0.0,0.0,0.0,0.0,0.0,-0.049529374,1.19498E-4,0.9989253,-0.94818115,0.073791504,-0.31793213,0.37695312,-0.16113281,-0.0234375,9.877807,-1.0254109,0.0024739802,20.680853,-0.96691895,0.09063721,0.055725098,0.19824219,0.12597656,0.087890625,1.2255709,-2.9764853,-56.14897,11.030058,0.5637207,-0.3932495,0.72753906,0.05078125,0.020507812,-0.016601562,19.482086,-6.090418,-127.273895,0.1845398,0.0,0.0,0.0,0.0,0.0,0.0,0.0,-23.6593,-123.3489,-8.537931,-0.994812,-0.037719727,-0.17559814,0.09765625,0.041992188,-0.19238281,0.0,0.25271863,45.00615,0.0071465224,
0.3124999953433872,16,-0.88635254,-0.06945801,0.4866333,0.35546875,0.099609375,-0.20898438,0.0,0.0,0.0,0.0,0.0,0.0,0.0,0.0,0.0,0.0,0.0,0.037757635,1.0426948E-4,-0.99948335,-0.8029785,-0.008972168,0.080078125,-0.63964844,1.5537109,-0.78027344,31.060976,0.7816999,0.0021587,-20.692404,-0.9036255,-0.051330566,-0.15039062,0.9345703,-0.765625,0.28808594,37.055855,-25.196716,-48.61582,-6.1453648,0.8498535,0.5048828,0.4649048,-0.6064453,-0.62402344,-1.2998047,16.184725,-17.788418,-120.17324,-4.695765,0.0,0.0,0.0,0.0,0.0,0.0,0.0,-34.69676,-116.64482,5.363996,0.0,0.0,0.0,0.0,0.0,0.0,0.0,-0.037757635,-1.0426948E-4,0.99948335,-0.9291382,0.095458984,-0.32263184,0.4638672,-0.16894531,0.0048828125,9.592062,-0.7816999,-0.0021587,20.692404,-0.9611206,0.08880615,0.033813477,0.19824219,0.08691406,0.0703125,1.1222191,-2.809092,-56.191917,11.294181,0.5578613,-0.40551758,0.7416382,0.06933594,0.001953125,-0.03515625,19.37238,-5.6826544,-127.33369,0.51063824,0.0,0.0,0.0,0.0,0.0,0.0,0.0,-23.246769,-123.433624,-8.228583,-0.99975586,-0.025634766,-0.20819092,0.15429688,0.060546875,-0.15332031,0.0,0.39239246,45.00712,0.019518755,
0.3320312450523489,17,-0.8913574,-0.05859375,0.47991943,0.44921875,0.0625,-0.17285156,0.0,0.0,0.0,0.0,0.0,0.0,0.0,0.0,0.0,0.0,0.0,0.027740508,-7.152157E-4,-0.9997787,-0.93774414,0.028198242,0.23376465,-0.62109375,1.4443359,-0.85546875,29.168394,0.5743141,-0.014807184,-20.698517,-0.9085083,-0.015197754,-0.17401123,0.89746094,-0.7265625,0.24902344,35.155365,-23.796928,-49.510723,-6.3562794,0.7635498,0.46270752,0.4210205,-0.82128906,-0.5097656,-1.3730469,15.761727,-16.520168,-121.06206,-4.913148,0.0,0.0,0.0,0.0,0.0,0.0,0.0,-33.481377,-117.616005,5.083974,0.0,0.0,0.0,0.0,0.0,0.0,0.0,-0.027740508,7.152157E-4,0.9997787,-0.9061279,0.13787842,-0.35266113,0.4658203,-0.1328125,-0.016601562,9.46853,-0.5743141,0.014807184,20.698517,-0.9645996,0.07562256,-0.00592041,0.19726562,0.08691406,0.08886719,1.1990994,-2.6514335,-56.20137,11.453431,0.5860596,-0.41033936,0.7484741,0.032226562,-0.017578125,-0.015625,19.357042,-5.2204027,-127.36531,0.71955585,0.0,0.0,0.0,0.0,0.0,0.0,0.0,-22.785152,-123.494576,-8.032107,-1.0141602,-0.030273438,-0.1305542,0.17382812,-0.034179688,-0.11621094,0.0,0.51211077,45.004448,-0.017985672,
0.3515624947613106,18,-0.90722656,0.006652832,0.5354614,0.39257812,0.099609375,-0.13476562,0.0,0.0,0.0,0.0,0.0,0.0,0.0,0.0,0.0,0.0,0.0,0.018177807,-0.0034772903,-1.0000248,-1.0323486,0.0025024414,0.23406982,0.18945312,0.98339844,-0.6923828,27.639925,0.37633783,-0.07199068,-20.703611,-0.9412842,0.027404785,-0.16986084,0.74609375,-0.61035156,0.19140625,33.67471,-22.583601,-50.23576,-6.3566885,0.84033203,0.43951416,0.32910156,-0.68359375,-0.7207031,-1.375,15.260543,-15.372604,-121.8091,-5.0233393,0.0,0.0,0.0,0.0,0.0,0.0,0.0,-32.41102,-118.51659,4.881915,0.0,0.0,0.0,0.0,0.0,0.0,0.0,-0.018177807,0.0034772903,1.0000248,-0.9092407,0.16467285,-0.37487793,0.41015625,-0.11816406,-0.059570312,9.591918,-0.37633783,0.07199068,20.703611,-0.9573364,0.086120605,0.0020141602,0.17871094,0.068359375,0.0703125,1.4044421,-2.5046012,-56.143967,11.492923,0.56829834,-0.38891602,0.76641846,-0.04296875,-0.057617188,0.001953125,19.405851,-4.769467,-127.32274,0.77560234,0.0,0.0,0.0,0.0,0.0,0.0,0.0,-22.321285,-123.48479,-8.017436,-0.9633789,-0.036254883,-0.16662598,0.19238281,-0.12792969,-0.17480469,0.0,0.5729493,45.004944,-0.14607662,
0.37109374447027227,19,-0.866272,0.024353027,0.5357666,0.3935547,0.043945312,-0.09765625,0.0,0.0,0.0,0.0,0.0,0.0,0.0,0.0,0.0,0.0,0.0,0.013320625,-0.009106875,-0.99993604,-0.9656372,0.119506836,0.20245361,1.2265625,1.0283203,-0.640625,26.1012,0.27577847,-0.18854056,-20.701775,-0.9663696,-0.0059814453,-0.13543701,0.5966797,-0.40039062,0.056640625,32.3414,-21.264387,-50.96622,-6.315197,0.848999,0.427063,0.2767334,-0.66308594,-0.94921875,-1.2099609,14.634857,-13.945436,-122.55441,-5.0283937,0.0,0.0,0.0,0.0,0.0,0.0,0.0,-31.079536,-119.49824,4.7869015,0.0,0.0,0.0,0.0,0.0,0.0,0.0,-0.013320625,0.009106875,0.99993604,-0.9041748,0.15478516,-0.37017822,0.16308594,-0.1640625,-0.09863281,9.896801,-0.27577847,0.18854056,20.701775,-0.96795654,0.10699463,-0.00982666,0.048828125,0.068359375,0.072265625,1.5920074,-2.4047773,-56.031376,11.5018425,0.5297241,-0.42486572,0.7468872,-0.005859375,-0.07519531,0.0029296875,19.671814,-4.380452,-127.2236,0.79076385,0.0,0.0,0.0,0.0,0.0,0.0,0.0,-21.934414,-123.40923,-8.009502,-0.9503174,-0.05883789,-0.15814209,0.15429688,-0.12890625,-0.17480469,0.0,0.6061602,44.997105,-0.4017343,
0.39062499417923396,20,-0.8718872,0.0045166016,0.48413086,0.3203125,-0.03125,-0.041015625,0.0,0.0,0.0,0.0,0.0,0.0,0.0,0.0,0.0,0.0,0.0,0.008140653,-0.01481634,-1.0000278,-0.9260254,0.2944336,0.29730225,1.4521484,0.9902344,-0.5488281,24.705523,0.16853532,-0.30674416,-20.703676,-0.94818115,0.0017700195,-0.10058594,0.5253906,-0.17382812,-0.07714844,31.229305,-19.900927,-51.626728,-6.180691,0.84088135,0.37890625,0.19140625,-0.5439453,-1.3876953,-0.84375,13.702154,-12.237854,-123.190186,-4.965803,0.0,0.0,0.0,0.0,0.0,0.0,0.0,-29.49235,-120.55582,4.7557287,0.0,0.0,0.0,0.0,0.0,0.0,0.0,-0.008140653,0.01481634,1.0000278,-0.90802,0.109558105,-0.4036255,0.17382812,-0.059570312,-0.12988281,10.140708,-0.16853532,0.30674416,20.703676,-0.9621582,0.09490967,0.0079956055,0.0107421875,0.048828125,0.072265625,1.581648,-2.162999,-55.931076,11.578419,0.58380127,-0.40100098,0.7284546,-0.07910156,-0.040039062,0.05859375,19.79063,-3.9182682,-127.12071,0.84833527,0.0,0.0,0.0,0.0,0.0,0.0,0.0,-21.456705,-123.33577,-7.99489,-0.9664917,-0.042297363,-0.14782715,0.25,-0.16601562,-0.15625,0.0,0.5516583,44.999428,-0.66221756,
0.41015624388819566,21,-0.8772583,0.022399902,0.526062,0.28222656,-0.049804688,-0.040039062,0.0,0.0,0.0,0.0,0.0,0.0,0.0,0.0,0.0,0.0,0.0,0.005685866,-0.019606287,-0.9999561,-0.9094238,0.40289307,0.39086914,1.5654297,0.77246094,-0.49414062,23.741777,0.1177178,-0.4059109,-20.702192,-0.9390869,0.076660156,-0.03765869,0.47460938,0.107421875,-0.2109375,30.675999,-18.710873,-52.042706,-5.817501,0.84088135,0.37890625,0.19140625,-0.5439453,-1.3876953,-0.84375,14.07253,-10.55065,-123.581055,-4.8316855,0.0,0.0,0.0,0.0,0.0,0.0,0.0,-27.805145,-120.946686,4.8898463,0.0,0.0,0.0,0.0,0.0,0.0,0.0,-0.005685866,0.019606287,0.9999561,-0.92718506,0.11431885,-0.355896,0.22167969,-0.08691406,-0.12011719,10.300589,-0.1177178,0.4059109,20.702192,-0.967041,0.091918945,0.027893066,0.0107421875,0.01171875,0.036132812,1.4752517,-1.9613192,-55.856197,11.679133,0.5661011,-0.42468262,0.75964355,-0.022460938,-0.001953125,0.078125,19.916447,-3.5972652,-127.04416,0.92412376,0.0,0.0,0.0,0.0,0.0,0.0,0.0,-21.140465,-123.26674,-7.9145145,-0.97143555,-0.023376465,-0.17425537,0.32617188,-0.18554688,-0.061523438,0.0,0.49876297,44.996044,-0.87940794,
0.42968749359715736,22,-0.83984375,-0.038757324,0.55041504,0.35839844,-0.087890625,0.0146484375,0.0,0.0,0.0,0.0,0.0,0.0,0.0,0.0,0.0,0.0,0.0,0.0036619306,-0.02249343,-0.9998679,-0.9137573,0.47418213,0.16040039,0.8300781,0.7421875,-0.58496094,22.913244,0.07581216,-0.4656837,-20.700367,-1.2788086,0.31280518,0.6413574,-0.43945312,-0.053710938,-0.15820312,29.90651,-17.579035,-52.40201,-5.647441,1.2994995,1.3586426,-2.0,-1.1572266,-3.0683594,-0.09863281,9.973403,-9.165875,-123.91768,-4.7807336,0.0,0.0,0.0,0.0,0.0,0.0,0.0,-26.261707,-122.688324,5.530453,0.0,0.0,0.0,0.0,0.0,0.0,0.0,-0.0036619306,0.02249343,0.9998679,-0.92419434,0.12426758,-0.36462402,0.27148438,-0.09765625,-0.11230469,10.373139,-0.07581216,0.4656837,20.700367,-0.95581055,0.0982666,0.051635742,0.12402344,0.06933594,0.034179688,1.3581151,-1.8295767,-55.81207,11.78372,0.560791,-0.41436768,0.7376709,-0.059570312,-0.021484375,0.078125,19.804344,-3.4351356,-126.998795,0.9810314,0.0,0.0,0.0,0.0,0.0,0.0,0.0,-20.968048,-123.23542,-7.8807955,-0.9510498,-0.022338867,-0.19921875,0.3076172,-0.16601562,-0.080078125,0.0,0.3435489,44.993076,-1.010924,
0.44921874330611905,23,-0.9000244,-0.03857422,0.57354736,0.31933594,0.005859375,0.015625,0.0,0.0,0.0,0.0,0.0,0.0,0.0,0.0,0.0,0.0,0.0,0.0028728247,-0.024606043,-0.9998408,-1.1237793,0.54364014,-0.07757568,-0.3388672,1.4433594,-0.67089844,21.347868,0.059475303,-0.5094214,-20.699804,-1.5249023,0.7528076,0.5571289,1.0058594,-0.9736328,0.53515625,27.562632,-16.180645,-53.14899,-6.116027,-0.7979126,-0.4467163,1.7606812,-7.885742,2.8886719,-1.8779297,10.696581,-8.654606,-124.76637,-4.9814987,0.0,0.0,0.0,0.0,0.0,0.0,0.0,-24.9642,-122.86722,6.446108,0.0,0.0,0.0,0.0,0.0,0.0,0.0,-0.0028728247,0.024606043,0.9998408,-0.9505005,0.15307617,-0.37670898,0.328125,-0.095703125,-0.072265625,10.455624,-0.059475303,0.5094214,20.699804,-0.9725342,0.15911865,0.059753418,0.25585938,0.107421875,0.0126953125,1.2338457,-1.7660863,-55.78029,11.827798,0.5578003,-0.43554688,0.74676514,-0.060546875,-0.059570312,0.078125,19.254757,-3.4225388,-126.94942,0.92138004,0.0,0.0,0.0,0.0,0.0,0.0,0.0,-20.948046,-123.16733,-7.947114,-0.9591675,-0.025146484,-0.20220947,0.19238281,-0.11035156,-0.1171875,0.0,0.2613328,44.992283,-1.1065075,
0.46874999301508075,24,-0.8925781,-0.039855957,0.4880371,0.17089844,-0.14257812,-0.18847656,0.0,0.0,0.0,0.0,0.0,0.0,0.0,0.0,0.0,0.0,0.0,-0.0012466013,-0.025773698,-0.9998184,-1.2548828,0.2612915,-0.02368164,-1.5439453,1.8525391,-0.8691406,19.491392,-0.025808483,-0.5335955,-20.699339,-0.5782471,0.5708008,-0.0068969727,1.2822266,-0.8125,0.27148438,24.510735,-14.600791,-53.88506,-6.884263,0.39538574,-1.6355591,1.4120483,1.7910156,-1.1640625,1.3457031,10.688076,-8.640861,-125.612595,-5.664326,0.0,0.0,0.0,0.0,0.0,0.0,0.0,-24.464325,-123.30815,6.352011,0.0,0.0,0.0,0.0,0.0,0.0,0.0,0.0012466013,0.025773698,0.9998184,-0.9532471,0.08691406,-0.3651123,0.34277344,-0.203125,0.0126953125,10.463506,0.025808483,0.5335955,20.699339,-0.96032715,0.08099365,0.027832031,0.12402344,0.06933594,0.0146484375,1.3919858,-1.7901418,-55.76655,11.922578,0.5442505,-0.42297363,0.7058716,-0.060546875,-0.05859375,0.040039062,19.246761,-3.3485575,-126.93413,0.98463917,0.0,0.0,0.0,0.0,0.0,0.0,0.0,-20.88211,-123.151245,-7.868142,-0.98376465,-0.060058594,-0.1930542,0.15429688,-0.034179688,-0.13574219,0.0,0.15260679,44.991592,-1.1600008,
0.48828124272404244,25,-0.8123779,-0.058654785,0.49804688,0.16992188,-0.0859375,-0.24414062,0.0,0.0,0.0,0.0,0.0,0.0,0.0,0.0,0.0,0.0,0.0,-0.007877976,-0.022724956,-0.99983287,-1.0054932,-0.019042969,0.2868042,-1.7158203,0.76464844,-0.7236328,18.5212,-0.163098,-0.470477,-20.699638,-0.7366333,0.862854,-0.11663818,-0.69433594,-0.140625,0.08691406,22.777597,-13.591298,-54.17468,-7.0915127,1.623291,0.36486816,0.315979,5.4873047,-0.68652344,1.7939453,8.696126,-8.975903,-125.83389,-6.441711,0.0,0.0,0.0,0.0,0.0,0.0,0.0,-25.660833,-124.42952,4.5029244,0.0,0.0,0.0,0.0,0.0,0.0,0.0,0.007877976,0.022724956,0.99983287,-0.871521,0.05670166,-0.33276367,0.48535156,-0.15234375,0.022460938,10.024974,0.163098,0.470477,20.699638,-0.94433594,0.0947876,-0.015014648,0.44140625,0.08691406,0.01171875,1.4088937,-1.5929632,-55.86954,12.174526,0.5835571,-0.43273926,0.7186279,-0.022460938,0.017578125,0.020507812,18.950861,-3.0360684,-127.04289,1.2954063,0.0,0.0,0.0,0.0,0.0,0.0,0.0,-20.568016,-123.26782,-7.564996,-0.8905029,-0.09661865,-0.2288208,0.11621094,-0.072265625,-0.17382812,0.0,0.17950274,44.993484,-1.0240601,
0.5078124924330042,26,-0.7605591,-0.02520752,0.50128174,0.09472656,-0.049804688,-0.111328125,0.0,0.0,0.0,0.0,0.0,0.0,0.0,0.0,0.0,0.0,0.0,-0.011120528,-0.019719739,-0.99990565,-0.83496094,0.27166748,0.36279297,1.7128906,0.15917969,0.19042969,18.965483,-0.23022911,-0.40825972,-20.701147,-1.1947021,0.14611816,0.17834473,-2.484375,0.24609375,-0.095703125,23.072897,-13.495845,-53.97784,-6.5587425,0.9845581,0.9418335,0.44476318,0.57128906,1.2841797,0.40429688,8.621951,-8.526189,-125.815475,-5.6052403,0.0,0.0,0.0,0.0,0.0,0.0,0.0,-25.769348,-124.608246,4.462648,0.0,0.0,0.0,0.0,0.0,0.0,0.0,0.011120528,0.019719739,0.99990565,-0.8609619,0.19091797,-0.3421631,0.4970703,-0.087890625,-0.0703125,9.841649,0.23022911,0.40825972,20.701147,-0.9553833,0.18469238,0.0059814453,0.3671875,0.068359375,0.0126953125,1.7062827,-1.5977914,-55.932903,12.210624,0.55340576,-0.4741211,0.72906494,0.051757812,0.0390625,0.021484375,18.966429,-2.7644086,-127.10185,1.2423172,0.0,0.0,0.0,0.0,0.0,0.0,0.0,-20.306782,-123.32212,-7.593623,-0.88049316,-0.10595703,-0.18823242,-0.056640625,-0.07324219,-0.23144531,0.0,0.13571775,44.9983,-0.88894784,
0.5273437421419659,27,-0.8201294,0.012451172,0.53863525,0.07519531,0.024414062,-0.07324219,0.0,0.0,0.0,0.0,0.0,0.0,0.0,0.0,0.0,0.0,0.0,-0.0065245926,-0.020611847,-0.9998732,-0.9187622,0.697876,0.1506958,2.859375,0.30273438,1.0976562,18.551794,-0.13507989,-0.42672914,-20.700478,-1.0548096,-0.33850098,0.17871094,-0.7675781,0.029296875,0.047851562,22.598562,-13.251447,-54.173626,-7.022336,0.010803223,0.7322998,0.71832275,-0.20214844,0.28027344,-0.6611328,9.526069,-8.143257,-125.996216,-5.7760553,0.0,0.0,0.0,0.0,0.0,0.0,0.0,-25.306643,-124.13261,4.3148136,0.0,0.0,0.0,0.0,0.0,0.0,0.0,0.0065245926,0.020611847,0.9998732,-0.9078369,0.32177734,-0.42333984,0.20605469,-0.034179688,-0.1640625,10.196476,0.13507989,0.42672914,20.700478,-0.9564209,0.17059326,0.04473877,-0.025390625,0.03125,-0.001953125,1.9351245,-1.8180947,-55.86431,11.950159,0.55651855,-0.46618652,0.7329712,0.087890625,0.001953125,0.0029296875,19.02005,-2.8532896,-126.997406,0.73245144,0.0,0.0,0.0,0.0,0.0,0.0,0.0,-20.408588,-123.215454,-8.079686,-0.9789429,-0.0871582,-0.12786865,-0.055664062,0.022460938,-0.23046875,0.0,0.038266495,44.99523,-0.92780215,
0.5468749918509276,28,-0.9241333,7.9345703E-4,0.5288086,0.09375,0.043945312,-0.09277344,0.0,0.0,0.0,0.0,0.0,0.0,0.0,0.0,0.0,0.0,0.0,-0.005936682,-0.022913689,-0.99990064,-0.88793945,0.6890869,0.031555176,0.4267578,0.30664062,0.9765625,17.954508,-0.1229077,-0.4743844,-20.701042,-0.87677,-0.13470459,0.24395752,0.6035156,-0.10253906,0.09375,21.954096,-13.490896,-54.422188,-8.024481,0.762146,0.4807129,0.50598145,0.23242188,-0.86621094,-0.13476562,8.801742,-8.15,-126.19035,-5.865492,0.0,0.0,0.0,0.0,0.0,0.0,0.0,-25.29702,-124.46457,4.2753963,0.0,0.0,0.0,0.0,0.0,0.0,0.0,0.005936682,0.022913689,0.99990064,-0.96899414,0.25177002,-0.36480713,-0.13964844,-0.11621094,-0.15917969,10.591896,0.1229077,0.4743844,20.701042,-0.9688721,0.09051514,0.070617676,-0.17285156,0.052734375,-0.038085938,2.228268,-2.1384137,-55.781246,11.749826,0.5135498,-0.44885254,0.74212646,0.125,0.00390625,-0.034179688,19.131065,-3.19482,-126.895966,0.4619999,0.0,0.0,0.0,0.0,0.0,0.0,0.0,-20.762161,-123.12192,-8.325791,-0.9928589,-0.042785645,-0.16174316,0.13574219,0.041015625,-0.05859375,0.0,0.021805614,44.99631,-1.0312634,
0.5664062415598893,29,-0.89837646,-0.0713501,0.49975586,0.095703125,-0.08691406,-0.055664062,0.0,0.0,0.0,0.0,0.0,0.0,0.0,0.0,0.0,0.0,0.0,-0.007616639,-0.023912411,-0.999875,-0.87005615,0.3071289,-0.04534912,-2.2294922,0.1953125,9.765625E-4,17.58213,-0.15768874,-0.49506107,-20.700512,-0.94140625,0.18231201,0.17230225,-0.111328125,-0.044921875,0.032226562,21.608171,-13.975623,-54.48365,-9.058899,0.56744385,0.60461426,0.6218872,0.24609375,0.20800781,-0.05078125,8.882414,-8.947337,-126.27128,-6.8966894,0.0,0.0,0.0,0.0,0.0,0.0,0.0,-26.1422,-124.5892,3.1842756,0.0,0.0,0.0,0.0,0.0,0.0,0.0,0.007616639,0.023912411,0.999875,-0.95526123,0.08868408,-0.32843018,-0.057617188,-0.15820312,-0.12597656,10.5770035,0.15768874,0.49506107,20.700512,-0.9647827,0.053588867,0.043762207,0.0703125,0.08984375,-0.041015625,2.3106291,-2.245009,-55.769436,11.839675,0.54992676,-0.39868164,0.74664307,0.10644531,0.022460938,-0.072265625,18.836348,-3.3754056,-126.8938,0.6126375,0.0,0.0,0.0,0.0,0.0,0.0,0.0,-20.936632,-123.16116,-8.207471,-0.9654541,-0.06298828,-0.20605469,0.13574219,0.060546875,-0.13476562,0.0,0.06735861,44.995617,-1.0766014,
0.585937491268851,30,-0.85565186,-0.11401367,0.4378662,0.095703125,-0.125,-0.018554688,0.0,0.0,0.0,0.0,0.0,0.0,0.0,0.0,0.0,0.0,0.0,-0.015036553,-0.022591922,-0.9997425,-0.9086304,-0.40234375,0.016906738,-4.354492,0.80078125,-1.4384766,17.436316,-0.3113031,-0.46772283,-20.697767,-0.94628906,0.07147217,-0.006958008,-1.0986328,-0.07324219,-0.06738281,21.394285,-13.849595,-54.53936,-8.946305,0.5054321,0.50213623,0.6117554,-0.37597656,-9.765625E-4,0.13378906,8.935206,-8.891694,-126.34615,-6.9019966,0.0,0.0,0.0,0.0,0.0,0.0,0.0,-26.097004,-124.56906,3.1445227,0.0,0.0,0.0,0.0,0.0,0.0,0.0,0.015036553,0.022591922,0.9997425,-0.9317627,6.713867E-4,-0.3164673,0.23046875,-0.19140625,-0.06933594,10.185667,0.3113031,0.46772283,20.697767,-0.9831543,0.082336426,0.043945312,0.16308594,0.08984375,-0.041992188,2.3307018,-2.0565724,-55.846016,12.145688,0.5737915,-0.40515137,0.7305298,0.03125,-0.036132812,-0.053710938,18.579895,-3.1295896,-126.98522,1.0034485,0.0,0.0,0.0,0.0,0.0,0.0,0.0,-20.683138,-123.27445,-7.83998,-0.9818115,-0.07757568,-0.19140625,-0.09472656,-0.09277344,-0.17382812,0.0,0.08281742,44.993393,-1.0179946,
0.6054687409778127,31,-0.83843994,-0.11810303,0.402771,0.17089844,-0.10644531,-0.0390625,0.0,0.0,0.0,0.0,0.0,0.0,0.0,0.0,0.0,0.0,0.0,-0.024350226,-0.01999376,-0.99960446,-0.8882446,-0.45178223,-0.013549805,-1.7890625,1.7070312,-1.1289062,16.42602,-0.50412565,-0.4139328,-20.69491,-0.97680664,-0.038208008,0.109375,-1.1582031,-0.1640625,-0.125,20.021399,-12.236276,-54.773575,-8.324509,0.71276855,0.5079956,0.6324463,0.09082031,-0.001953125,0.07714844,8.271893,-7.0421867,-126.551636,-5.7006035,0.0,0.0,0.0,0.0,0.0,0.0,0.0,-24.43492,-124.935715,4.037156,0.0,0.0,0.0,0.0,0.0,0.0,0.0,0.024350226,0.01999376,0.99960446,-0.92071533,0.0134887695,-0.31536865,0.421875,-0.16699219,-0.05078125,9.656467,0.50412565,0.4139328,20.69491,-0.97406006,0.046325684,0.009033203,0.2578125,0.18652344,-0.044921875,2.3187466,-1.7537665,-55.95406,12.480596,0.5498657,-0.3696289,0.73651123,0.0126953125,-0.017578125,-0.07324219,18.241201,-2.7397428,-127.12239,1.5066557,0.0,0.0,0.0,0.0,0.0,0.0,0.0,-20.275578,-123.44338,-7.386036,-0.96136475,-0.045837402,-0.17980957,0.05859375,-0.07324219,-0.09765625,0.0,0.18599916,44.995064,-0.9045073,
0.6249999906867744,32,-0.85791016,-0.10601807,0.46679688,0.16894531,0.005859375,-0.09375,0.0,0.0,0.0,0.0,0.0,0.0,0.0,0.0,0.0,0.0,0.0,-0.033205777,-0.018000126,-0.99943006,-1.0777588,-0.14898682,0.020996094,0.47265625,1.5810547,-0.5986328,14.761995,-0.6874635,-0.37265843,-20.6913,-1.0390625,-0.011413574,0.111328125,-0.5605469,-0.23730469,-0.044921875,17.716118,-10.175453,-55.22005,-8.427588,0.5380249,0.4329834,0.74975586,-0.5136719,0.30566406,0.08105469,7.9155445,-5.0139766,-126.978455,-5.2071996,0.0,0.0,0.0,0.0,0.0,0.0,0.0,-22.457558,-125.34466,4.4424815,0.0,0.0,0.0,0.0,0.0,0.0,0.0,0.033205777,0.018000126,0.99943006,-0.9401245,0.07171631,-0.30914307,0.52734375,-0.13671875,-0.04296875,9.2455635,0.6874635,0.37265843,20.6913,-0.95977783,0.056518555,0.031799316,0.3310547,0.06933594,-0.04296875,2.361486,-1.539243,-56.035,12.756869,0.60614014,-0.40704346,0.7463379,-0.024414062,-0.038085938,-0.03515625,17.791658,-2.4734707,-127.22699,1.9537373,0.0,0.0,0.0,0.0,0.0,0.0,0.0,-19.99007,-123.581856,-6.9893017,-0.9828491,-0.070129395,-0.1663208,0.19238281,-0.053710938,-0.059570312,0.0,0.2613104,44.99825,-0.819118,
0.6445312403957361,33,-0.8981323,-0.076416016,0.46203613,0.28125,0.0068359375,-0.17089844,0.0,0.0,0.0,0.0,0.0,0.0,0.0,0.0,0.0,0.0,0.0,-0.040918827,-0.017085662,-0.9991297,-1.0891724,-0.028625488,0.013427734,-1.8886719,0.4453125,-0.1484375,13.908187,-0.8471465,-0.3537262,-20.685083,-1.0043945,0.111206055,0.10821533,-0.1171875,-0.30566406,0.033203125,16.526155,-9.547052,-55.418777,-8.767773,0.6331787,0.35009766,0.74768066,-0.18164062,0.13183594,0.041992188,7.599128,-4.675113,-127.182365,-5.2910743,0.0,0.0,0.0,0.0,0.0,0.0,0.0,-22.06116,-125.52235,4.4571824,0.0,0.0,0.0,0.0,0.0,0.0,0.0,0.040918827,0.017085662,0.9991297,-0.9383545,0.1359253,-0.3168335,0.546875,-0.11816406,-0.04296875,9.004139,0.8471465,0.3537262,20.685083,-0.958374,0.08709717,0.0,0.31347656,0.16601562,-0.044921875,2.530026,-1.4779425,-56.077763,12.939794,0.54174805,-0.4506836,0.74993896,-0.041992188,-0.01953125,0.001953125,17.411486,-2.36581,-127.28798,2.2109556,0.0,0.0,0.0,0.0,0.0,0.0,0.0,-19.885445,-123.65059,-6.7334194,-0.99591064,-0.05230713,-0.17590332,0.11621094,-0.09082031,-0.17480469,0.0,0.38129202,44.99663,-0.7850825,
0.6640624901046978,34,-0.9047241,-0.032836914,0.5062256,0.16796875,0.08105469,-0.14941406,0.0,0.0,0.0,0.0,0.0,0.0,0.0,0.0,0.0,0.0,0.0,-0.04667321,-0.016810438,-0.9988746,-0.9769287,-0.18878174,0.090148926,-0.17382812,0.39746094,0.4033203,13.67014,-0.9662794,-0.34802818,-20.6798,-0.97943115,0.18310547,0.19995117,-0.23144531,-0.24707031,0.013671875,15.987012,-9.710962,-55.46563,-9.051292,0.6786499,0.38012695,0.67907715,0.09082031,0.09277344,-0.033203125,7.2350283,-5.3958187,-127.234276,-5.501573,0.0,0.0,0.0,0.0,0.0,0.0,0.0,-22.938307,-125.69118,3.9788117,0.0,0.0,0.0,0.0,0.0,0.0,0.0,0.04667321,0.016810438,0.9988746,-0.91937256,0.17541504,-0.34490967,0.3779297,-0.10546875,-0.06542969,8.973625,0.9662794,0.34802818,20.6798,-0.9732666,0.13421631,0.012084961,0.20019531,0.0703125,-0.041992188,2.7476594,-1.4909354,-56.08458,12.97121,0.5685425,-0.45703125,0.72888184,-0.024414062,-0.018554688,-0.0546875,17.180511,-2.286251,-127.2886,2.21486,0.0,0.0,0.0,0.0,0.0,0.0,0.0,-19.812456,-123.64804,-6.713359,-0.9880371,-0.083862305,-0.14874268,0.020507812,-0.11035156,-0.17480469,0.0,0.4275744,44.996006,-0.7772336,
0.6835937398136595,35,-0.8970337,0.006591797,0.50250244,0.16992188,-0.068359375,-0.09472656,0.0,0.0,0.0,0.0,0.0,0.0,0.0,0.0,0.0,0.0,0.0,-0.05015284,-0.018321762,-0.9987409,-1.0093994,5.493164E-4,0.14874268,2.8808594,0.5888672,0.5966797,13.0515175,-1.0383196,-0.37931725,-20.677032,-0.94366455,0.11248779,0.27404785,-0.44335938,-0.16601562,0.0126953125,15.0084715,-9.236458,-55.6282,-9.272667,0.5834961,0.3942871,0.7108154,-0.0068359375,0.11230469,-0.06933594,7.1407557,-5.4100575,-127.427826,-5.55463,0.0,0.0,0.0,0.0,0.0,0.0,0.0,-23.034595,-125.92283,3.7848468,0.0,0.0,0.0,0.0,0.0,0.0,0.0,0.05015284,0.018321762,0.9987409,-0.9193115,0.1696167,-0.3657837,0.23535156,-0.13769531,-0.09375,9.075128,1.0383196,0.37931725,20.677032,-0.9647827,0.11254883,0.0079956055,0.013671875,0.08984375,-0.040039062,2.9325142,-1.5355773,-56.04813,12.974289,0.5704956,-0.41784668,0.71466064,0.03125,-0.036132812,-0.053710938,17.165974,-2.244587,-127.25276,2.2052574,0.0,0.0,0.0,0.0,0.0,0.0,0.0,-19.779476,-123.60558,-6.702898,-0.9719238,-0.109436035,-0.14331055,0.09667969,-0.22558594,-0.041992188,0.0,0.4523176,44.997253,-0.848182,
0.7031249895226211,36,-0.8526001,-0.0045166016,0.45288086,0.09472656,0.005859375,-0.07421875,0.0,0.0,0.0,0.0,0.0,0.0,0.0,0.0,0.0,0.0,0.0,-0.052864492,-0.021132357,-0.99852425,-1.0737305,0.28930664,0.14550781,1.7304688,0.38085938,0.5449219,12.283937,-1.0944581,-0.43750528,-20.672548,-0.9589844,0.03515625,0.31420898,-0.4404297,-0.09082031,-0.06347656,13.889008,-8.815868,-55.837402,-9.699366,0.5706787,0.4788208,0.68927,0.22753906,0.07324219,-0.033203125,6.8550644,-5.3704453,-127.64092,-5.492439,0.0,0.0,0.0,0.0,0.0,0.0,0.0,-23.038681,-126.165375,3.768866,0.0,0.0,0.0,0.0,0.0,0.0,0.0,0.052864492,0.021132357,0.99852425,-0.92022705,0.14801025,-0.38201904,0.18261719,-0.14453125,-0.099609375,9.260919,1.0944581,0.43750528,20.672548,-0.9781494,0.091430664,0.0061035156,0.05078125,0.0703125,-0.040039062,3.0496652,-1.5295031,-55.98489,12.958336,0.5720825,-0.4066162,0.7545166,0.068359375,0.0029296875,-0.053710938,17.191225,-2.1444454,-127.19203,2.195034,0.0,0.0,0.0,0.0,0.0,0.0,0.0,-19.67156,-123.559814,-6.733924,-0.9180298,-0.09411621,-0.16796875,0.23046875,-0.20703125,0.09082031,0.0,0.43398413,44.99391,-0.9752089,
0.7226562392315828,37,-0.83288574,0.0064086914,0.49121094,0.16992188,-0.049804688,-0.056640625,0.0,0.0,0.0,0.0,0.0,0.0,0.0,0.0,0.0,0.0,0.0,-0.05429426,-0.024170168,-0.9984405,-1.0574951,0.38061523,0.1352539,0.22265625,0.46484375,0.19726562,11.603592,-1.1240593,-0.50039744,-20.670813,-0.89849854,-0.01586914,0.3447876,-0.26464844,-0.0029296875,-0.043945312,12.95584,-8.579792,-56.0407,-10.183863,0.49749756,0.48583984,0.7130127,-0.026367188,0.1328125,0.11621094,6.6748533,-5.350108,-127.81517,-5.3514967,0.0,0.0,0.0,0.0,0.0,0.0,0.0,-23.046745,-126.33107,3.8550653,0.0,0.0,0.0,0.0,0.0,0.0,0.0,0.05429426,0.024170168,0.9984405,-0.927124,0.10852051,-0.36791992,0.20019531,-0.14257812,-0.09765625,9.3882885,1.1240593,0.50039744,20.670813,-0.9621582,0.09088135,0.021911621,0.08886719,0.07128906,-0.059570312,3.0590868,-1.4358345,-55.92789,12.993622,0.5617676,-0.43640137,0.74279785,0.05078125,0.001953125,-0.053710938,17.132267,-1.973054,-127.13132,2.2237997,0.0,0.0,0.0,0.0,0.0,0.0,0.0,-19.495764,-123.511604,-6.719678,-0.9526367,-0.109375,-0.16625977,0.23046875,-0.16796875,-0.022460938,0.0,0.3991111,44.993866,-1.1109113,
0.7421874889405445,38,-0.84954834,-0.03100586,0.4862671,0.16992188,-0.049804688,-0.056640625,0.0,0.0,0.0,0.0,0.0,0.0,0.0,0.0,0.0,0.0,0.0,-0.05645123,-0.026201364,-0.9982654,-0.9812622,0.38323975,0.11029053,0.46972656,0.45703125,-0.32421875,11.046318,-1.1687158,-0.5424495,-20.667189,-0.94976807,0.0446167,0.3222046,0.0068359375,0.02734375,-0.061523438,12.1417265,-8.183134,-56.1307,-10.446524,0.5682373,0.4404297,0.7301636,-0.18164062,0.11425781,0.171875,6.7985234,-5.138106,-127.87808,-5.207156,0.0,0.0,0.0,0.0,0.0,0.0,0.0,-22.857983,-126.38807,3.9502697,0.0,0.0,0.0,0.0,0.0,0.0,0.0,0.05645123,0.026201364,0.9982654,-0.9381714,0.08959961,-0.324646,0.26464844,-0.1484375,-0.10546875,9.352106,1.1687158,0.5424495,20.667189,-0.9536743,0.062194824,0.036743164,0.14453125,0.08984375,-0.041992188,3.0416307,-1.3610369,-55.90979,13.13985,0.555542,-0.39111328,0.7145996,0.0126953125,-0.017578125,-0.03515625,16.822895,-1.9147342,-127.12371,2.4581852,0.0,0.0,0.0,0.0,0.0,0.0,0.0,-19.432053,-123.523254,-6.502264,-1.0083618,-0.099731445,-0.18890381,0.13476562,-0.1484375,-0.080078125,0.0,0.3784541,44.991505,-1.2022885,
0.7617187386495062,39,-0.8343506,-0.051818848,0.4767456,0.13183594,0.024414062,-0.07421875,0.0,0.0,0.0,0.0,0.0,0.0,0.0,0.0,0.0,0.0,0.0,-0.058732986,-0.026497416,-0.9980859,-0.9550171,0.322937,0.06286621,-0.26464844,0.13378906,-0.6201172,10.812575,-1.2159538,-0.5485787,-20.663471,-0.93896484,0.065979004,0.26385498,-0.030273438,0.06542969,-0.061523438,11.648314,-7.860265,-56.178795,-10.418879,0.57873535,0.41101074,0.71398926,-0.083984375,0.056640625,0.18945312,7.138475,-5.0190687,-127.9293,-5.047454,0.0,0.0,0.0,0.0,0.0,0.0,0.0,-22.788502,-126.49363,4.0249424,0.0,0.0,0.0,0.0,0.0,0.0,0.0,0.058732986,0.026497416,0.9980859,-0.9532471,0.09051514,-0.30371094,0.31640625,-0.14257812,-0.10058594,9.144347,1.2159538,0.5485787,20.663471,-0.95788574,0.047546387,0.045715332,0.20019531,0.08984375,-0.041992188,3.0647132,-1.3354692,-55.93178,13.365647,0.555542,-0.39111328,0.7145996,0.0126953125,-0.017578125,-0.03515625,16.407665,-1.9675245,-127.154205,2.7505636,0.0,0.0,0.0,0.0,0.0,0.0,0.0,-19.484844,-123.55376,-6.2098856,-1.0012207,-0.08843994,-0.16174316,0.115234375,-0.20605469,-0.0234375,0.0,0.39632812,44.989136,-1.2177043,
0.7812499883584679,40,-0.87335205,-0.051757812,0.4716797,0.16894531,0.061523438,-0.037109375,0.0,0.0,0.0,0.0,0.0,0.0,0.0,0.0,0.0,0.0,0.0,-0.06270096,-0.026553221,-0.99787366,-0.92407227,0.17559814,-0.101989746,-1.3974609,0.20117188,-0.46679688,10.637097,-1.298105,-0.549734,-20.659079,-0.96209717,0.09234619,0.20739746,0.06640625,0.099609375,-0.061523438,11.452582,-7.847727,-56.252796,-10.484541,0.5817871,0.48358154,0.67944336,-0.103515625,-9.765625E-4,0.16992188,7.588713,-5.110565,-128.01228,-5.123095,0.0,0.0,0.0,0.0,0.0,0.0,0.0,-22.91855,-126.629715,3.878058,0.0,0.0,0.0,0.0,0.0,0.0,0.0,0.06270096,0.026553221,0.99787366,-0.9553833,0.11218262,-0.29138184,0.40429688,-0.16894531,-0.052734375,8.94571,1.298105,0.549734,20.659079,-0.94873047,0.10601807,0.04168701,0.20117188,0.12792969,-0.04296875,3.2470896,-1.3410251,-55.956093,13.575914,0.5699463,-0.42547607,0.7496338,0.06933594,0.040039062,-0.03515625,16.149118,-1.9328992,-127.19074,3.0047379,0.0,0.0,0.0,0.0,0.0,0.0,0.0,-19.463211,-123.59582,-5.9324255,-0.9647827,-0.11193848,-0.18225098,0.115234375,-0.16894531,0.015625,0.0,0.4537201,44.989758,-1.2256778,
0.8007812380674296,41,-0.91033936,-0.07232666,0.48614502,0.16894531,0.0625,-0.056640625,0.0,0.0,0.0,0.0,0.0,0.0,0.0,0.0,0.0,0.0,0.0,-0.06770468,-0.02757004,-0.99748236,-0.9246216,-0.018554688,-0.066223145,-1.4921875,0.22167969,-0.28027344,10.209875,-1.4016967,-0.57078534,-20.650978,-0.97125244,0.08703613,0.18847656,0.10644531,0.13574219,-0.080078125,11.293496,-7.835866,-56.330486,-10.700569,0.59832764,0.4378662,0.7350464,-0.14257812,-0.001953125,0.078125,8.123035,-5.0575447,-128.09541,-5.444158,0.0,0.0,0.0,0.0,0.0,0.0,0.0,-22.9095,-126.78217,3.4806647,0.0,0.0,0.0,0.0,0.0,0.0,0.0,0.06770468,0.02757004,0.99748236,-0.9484253,0.14575195,-0.30566406,0.3154297,-0.17773438,-0.07910156,8.827504,1.4016967,0.57078534,20.650978,-0.9589844,0.091552734,0.04272461,0.1640625,0.14746094,-0.04296875,3.5811865,-1.4384508,-55.947308,13.764942,0.57092285,-0.43347168,0.7506714,0.10546875,0.00390625,-0.072265625,15.819731,-1.9251263,-127.188446,3.2275953,0.0,0.0,0.0,0.0,0.0,0.0,0.0,-19.45494,-123.606895,-5.7159653,-0.9984741,-0.125,-0.11871338,0.07714844,-0.13085938,-0.022460938,0.0,0.60338366,44.984715,-1.2843157,
0.8203124877763913,42,-0.9121704,-0.07635498,0.46228027,0.16894531,0.0625,-0.056640625,0.0,0.0,0.0,0.0,0.0,0.0,0.0,0.0,0.0,0.0,0.0,-0.07461488,-0.029136963,-0.9969206,-0.9810791,-0.19824219,0.036743164,-0.64453125,-0.020507812,-0.061523438,10.207929,-1.5447582,-0.60322547,-20.639347,-0.9789429,0.061279297,0.1427002,0.14453125,0.09765625,-0.061523438,11.574438,-7.9874625,-56.32518,-10.496878,0.6001587,0.42926025,0.70928955,-0.005859375,-0.040039062,0.07714844,8.561647,-5.108591,-128.10724,-5.4702578,0.0,0.0,0.0,0.0,0.0,0.0,0.0,-22.997374,-126.83553,3.3891172,0.0,0.0,0.0,0.0,0.0,0.0,0.0,0.07461488,0.029136963,0.9969206,-0.93640137,0.16357422,-0.33117676,0.3203125,-0.18261719,-0.043945312,8.875576,1.5447582,0.60322547,20.639347,-0.9616699,0.117370605,0.010986328,0.14648438,0.1484375,-0.061523438,3.9625957,-1.5229629,-55.90879,13.831039,0.5475464,-0.41833496,0.7277832,0.08691406,0.00390625,-0.091796875,15.627235,-1.8183709,-127.15222,3.2996788,0.0,0.0,0.0,0.0,0.0,0.0,0.0,-19.359623,-123.60463,-5.6342278,-0.97509766,-0.12145996,-0.111694336,-0.056640625,-0.22558594,-0.099609375,0.0,0.719545,44.979443,-1.3684671,
0.839843737485353,43,-0.90045166,-0.03894043,0.45648193,0.16992188,-0.0126953125,-0.056640625,0.0,0.0,0.0,0.0,0.0,0.0,0.0,0.0,0.0,0.0,0.0,-0.08078039,-0.030999582,-0.99639183,-1.0182495,-0.19403076,-0.052490234,0.3359375,-0.06640625,-0.028320312,10.356835,-1.6724037,-0.64178747,-20.628399,-0.9642334,0.08117676,0.105163574,0.14355469,0.07910156,-0.080078125,11.916114,-8.047137,-56.292065,-10.088673,0.6000366,0.41833496,0.72888184,-0.20117188,0.017578125,0.09667969,8.976362,-5.029462,-128.07661,-5.2189207,0.0,0.0,0.0,0.0,0.0,0.0,0.0,-22.970394,-126.86044,3.5435476,0.0,0.0,0.0,0.0,0.0,0.0,0.0,0.08078039,0.030999582,0.99639183,-0.9182129,0.14678955,-0.34051514,0.265625,-0.18652344,-0.06640625,8.999184,1.6724037,0.64178747,20.628399,-0.95025635,0.095825195,-0.011962891,0.12695312,0.16699219,-0.04296875,4.2872906,-1.5787727,-55.86856,13.834091,0.58081055,-0.3980713,0.7294922,0.12402344,0.0048828125,-0.09082031,15.497446,-1.6614952,-127.11683,3.3356133,0.0,0.0,0.0,0.0,0.0,0.0,0.0,-19.222973,-123.62661,-5.5839634,-0.9638672,-0.1116333,-0.12841797,0.09667969,-0.12988281,-0.060546875,0.0,0.8022737,44.975388,-1.4643097,
0.8593749871943147,44,-0.90789795,0.0064697266,0.4749756,0.16894531,0.025390625,-0.11230469,0.0,0.0,0.0,0.0,0.0,0.0,0.0,0.0,0.0,0.0,0.0,-0.088272184,-0.030863687,-0.99574685,-1.0029297,-0.09893799,-0.03112793,0.58203125,0.24023438,-0.028320312,10.228239,-1.8275071,-0.638974,-20.615047,-0.9991455,0.051757812,0.10192871,0.045898438,0.025390625,-0.041992188,11.795467,-7.8552437,-56.309444,-9.959569,0.61242676,0.38305664,0.70477295,-0.16210938,0.017578125,0.059570312,9.253552,-4.797768,-128.10287,-5.2255907,0.0,0.0,0.0,0.0,0.0,0.0,0.0,-22.784246,-126.92507,3.4447556,0.0,0.0,0.0,0.0,0.0,0.0,0.0,0.088272184,0.030863687,0.99574685,-0.927063,0.08465576,-0.33374023,0.26953125,-0.15332031,-0.07128906,8.968479,1.8275071,0.638974,20.615047,-0.9675293,0.08062744,-0.014831543,0.18359375,0.16699219,-0.043945312,4.5013685,-1.4945143,-55.872223,13.857393,0.579834,-0.38708496,0.727417,0.12402344,0.0048828125,-0.11035156,15.245836,-1.366885,-127.13451,3.442648,0.0,0.0,0.0,0.0,0.0,0.0,0.0,-18.927042,-123.723236,-5.5091124,-1.0046387,-0.13293457,-0.101989746,0.13476562,-0.11035156,-0.07910156,0.0,0.8674425,44.97336,-1.4708705,
0.8789062369032764,45,-0.8685913,-0.023132324,0.4718628,0.16894531,0.025390625,-0.13085938,0.0,0.0,0.0,0.0,0.0,0.0,0.0,0.0,0.0,0.0,0.0,-0.094565004,-0.030022,-0.9951965,-0.9511719,0.016052246,-0.0022583008,0.8642578,0.12988281,0.06347656,10.081472,-1.9577872,-0.62154853,-20.603655,-0.9626465,0.06903076,0.12194824,0.064453125,0.0068359375,-0.0234375,11.609517,-7.6550107,-56.329945,-9.910007,0.58532715,0.38354492,0.7067871,-0.005859375,0.036132812,0.041015625,9.434798,-4.5930157,-128.13287,-5.2731633,0.0,0.0,0.0,0.0,0.0,0.0,0.0,-22.61228,-126.996994,3.334041,0.0,0.0,0.0,0.0,0.0,0.0,0.0,0.094565004,0.030022,0.9951965,-0.9320679,0.07269287,-0.30914307,0.3017578,-0.14648438,-0.08496094,8.715056,1.9577872,0.62154853,20.603655,-0.9621582,0.044067383,0.012939453,0.20117188,0.14746094,-0.04296875,4.6408076,-1.311191,-55.9107,14.035772,0.5421753,-0.40423584,0.7706909,0.10644531,0.041992188,-0.091796875,15.057084,-0.98080635,-127.18239,3.7269535,0.0,0.0,0.0,0.0,0.0,0.0,0.0,-18.548162,-123.805756,-5.22464,-1.008606,-0.121154785,-0.10864258,0.13476562,-0.2626953,-0.10058594,0.0,0.9445782,44.972683,-1.4464419,
0.8984374866122381,46,-0.8587036,-0.013305664,0.48364258,0.16894531,0.043945312,-0.14941406,0.0,0.0,0.0,0.0,0.0,0.0,0.0,0.0,0.0,0.0,0.0,-0.09948331,-0.029962702,-0.99478936,-0.88720703,0.1508789,-0.039611816,1.0527344,0.14648438,0.08105469,9.754151,-2.059613,-0.62032086,-20.595222,-0.98254395,0.07849121,0.18939209,-0.013671875,-0.009765625,-0.04296875,11.299755,-7.538224,-56.383392,-10.113477,0.5864868,0.39831543,0.69415283,-0.083984375,0.036132812,0.00390625,9.908715,-4.5241156,-128.18802,-5.5214005,0.0,0.0,0.0,0.0,0.0,0.0,0.0,-22.602695,-127.097626,2.9684858,0.0,0.0,0.0,0.0,0.0,0.0,0.0,0.09948331,0.029962702,0.99478936,-0.93408203,0.074645996,-0.29919434,0.3779297,-0.10546875,-0.06542969,8.535134,2.059613,0.62032086,20.595222,-0.96173096,0.072753906,-0.019836426,0.20117188,0.16699219,-0.025390625,4.8137317,-1.2205946,-55.9322,14.207938,0.58081055,-0.42114258,0.73760986,0.048828125,-0.03515625,-0.11035156,14.878978,-0.7182901,-127.218216,4.0094566,0.0,0.0,0.0,0.0,0.0,0.0,0.0,-18.295414,-123.86323,-4.9299326,-0.98321533,-0.11566162,-0.09863281,0.19238281,-0.24414062,0.0146484375,0.0,0.98966134,44.974648,-1.4535909,
0.9179687363211998,47,-0.8278198,4.8828125E-4,0.49108887,0.16894531,0.043945312,-0.09375,0.0,0.0,0.0,0.0,0.0,0.0,0.0,0.0,0.0,0.0,0.0,-0.101017445,-0.03089339,-0.9945511,-0.90057373,0.28234863,-0.08166504,0.65722656,0.34960938,0.06542969,9.096192,-2.0913768,-0.6395889,-20.590292,-0.97351074,0.046875,0.22790527,-0.032226562,0.0087890625,-0.04296875,10.700462,-7.2837367,-56.479828,-10.578804,0.5803833,0.38342285,0.73236084,-0.0068359375,0.055664062,0.022460938,10.232661,-4.3585215,-128.28639,-5.9321737,0.0,0.0,0.0,0.0,0.0,0.0,0.0,-22.449867,-127.21187,2.5334177,0.0,0.0,0.0,0.0,0.0,0.0,0.0,0.101017445,0.03089339,0.9945511,-0.94226074,0.10430908,-0.3143921,0.33691406,-0.14160156,-0.08105469,8.427789,2.0913768,0.6395889,20.590292,-0.9523926,0.08703613,-0.006958008,0.14550781,0.18554688,-0.005859375,5.0317025,-1.2068393,-55.929073,14.357678,0.59033203,-0.39855957,0.76239014,0.068359375,0.0029296875,-0.091796875,14.661003,-0.47552216,-127.23085,4.2516727,0.0,0.0,0.0,0.0,0.0,0.0,0.0,-18.052021,-123.91734,-4.702694,-0.9498291,-0.12695312,-0.083984375,0.25,-0.22558594,0.072265625,0.0,1.0679463,44.968685,-1.5053185,
0.9374999860301615,48,-0.838562,-0.015319824,0.4673462,0.16894531,0.024414062,-0.09375,0.0,0.0,0.0,0.0,0.0,0.0,0.0,0.0,0.0,0.0,0.0,-0.10361132,-0.031760544,-0.99424523,-0.98773193,0.21398926,-0.05218506,-0.19140625,0.64746094,-0.060546875,8.161976,-2.145076,-0.65754175,-20.58396,-0.94750977,0.047607422,0.25378418,-0.01171875,0.045898438,-0.061523438,9.731306,-6.936097,-56.6891,-11.349121,0.58917236,0.432312,0.72021484,-0.005859375,0.036132812,0.022460938,10.627361,-4.1342363,-128.49048,-6.540263,0.0,0.0,0.0,0.0,0.0,0.0,0.0,-22.25092,-127.431854,1.8707209,0.0,0.0,0.0,0.0,0.0,0.0,0.0,0.10361132,0.031760544,0.99424523,-0.95336914,0.11230469,-0.31219482,0.2998047,-0.18261719,-0.0625,8.395197,2.145076,0.65754175,20.58396,-0.9588623,0.06573486,-0.010925293,0.14648438,0.22460938,-0.0068359375,5.261348,-1.2452085,-55.91843,14.464508,0.5475464,-0.3704834,0.78344727,0.10644531,0.041992188,-0.091796875,14.379386,-0.33118987,-127.2303,4.4816933,0.0,0.0,0.0,0.0,0.0,0.0,0.0,-17.914848,-123.97859,-4.4831734,-0.9458618,-0.14941406,-0.07849121,0.2109375,-0.22558594,0.052734375,0.0,1.0473566,44.967278,-1.5455978,
0.9570312357391232,49,-0.87194824,0.0015869141,0.49798584,0.16894531,0.024414062,-0.09375,0.0,0.0,0.0,0.0,0.0,0.0,0.0,0.0,0.0,0.0,0.0,-0.10664296,-0.033790626,-0.99387854,-1.0685425,0.08795166,0.049743652,-0.6435547,0.30566406,-0.171875,7.6142206,-2.2078393,-0.6995707,-20.576368,-0.97442627,0.0513916,0.25872803,0.06542969,0.0625,-0.041992188,9.174317,-6.7671614,-56.822308,-11.683124,0.5602417,0.38885498,0.7078247,-0.083984375,0.036132812,0.022460938,10.921785,-4.080776,-128.60957,-6.698105,0.0,0.0,0.0,0.0,0.0,0.0,0.0,-22.20372,-127.56539,1.7026987,0.0,0.0,0.0,0.0,0.0,0.0,0.0,0.10664296,0.033790626,0.99387854,-0.9432373,0.09753418,-0.3363037,0.203125,-0.14453125,-0.080078125,8.438268,2.2078393,0.6995707,20.576368,-0.9694214,0.087646484,-0.023742676,0.12695312,0.20507812,0.0126953125,5.560527,-1.261508,-55.881676,14.54841,0.5777588,-0.4000244,0.72650146,0.10546875,0.00390625,-0.091796875,14.307689,-0.03972876,-127.210144,4.7074976,0.0,0.0,0.0,0.0,0.0,0.0,0.0,-17.625538,-123.99659,-4.267789,-0.9458008,-0.12902832,-0.074035645,0.19238281,-0.111328125,-0.0029296875,0.0,1.0743837,44.96409,-1.6440037,
0.9765624854480849,50,-0.9156494,-0.036865234,0.48858643,0.16992188,-0.0126953125,-0.09375,0.0,0.0,0.0,0.0,0.0,0.0,0.0,0.0,0.0,0.0,0.0,-0.11059192,-0.03417115,-0.9934278,-1.0383911,0.019714355,-0.0057373047,-0.41796875,-0.09667969,-0.15527344,7.769733,-2.2895956,-0.7074487,-20.567036,-0.94940186,0.05078125,0.24487305,0.028320312,0.119140625,-0.04296875,9.305884,-6.9403067,-56.799473,-11.510481,0.5855713,0.461792,0.7097168,0.013671875,-0.07910156,0.040039062,11.328407,-4.296416,-128.5916,-6.499468,0.0,0.0,0.0,0.0,0.0,0.0,0.0,-22.43894,-127.56606,1.8638725,0.0,0.0,0.0,0.0,0.0,0.0,0.0,0.11059192,0.03417115,0.9934278,-0.9290161,0.07867432,-0.32196045,0.27441406,-0.13769531,-0.055664062,8.364405,2.2895956,0.7074487,20.567036,-0.9515991,0.08331299,-0.021911621,0.12695312,0.24316406,0.01171875,5.8629074,-1.237453,-55.883953,14.654998,0.5549927,-0.3937378,0.7505493,0.10546875,0.00390625,-0.091796875,14.1877165,0.30563593,-127.22153,4.943886,0.0,0.0,0.0,0.0,0.0,0.0,0.0,-17.27987,-124.060005,-4.052227,-0.9680176,-0.1161499,-0.07470703,0.13476562,-0.091796875,-0.059570312,0.0,1.0877547,44.96262,-1.6676815,
0.9960937351570466,51,-0.89172363,-0.011291504,0.47943115,0.15039062,-0.01171875,-0.14941406,0.0,0.0,0.0,0.0,0.0,0.0,0.0,0.0,0.0,0.0,0.0,-0.11396709,-0.03458833,-0.99301875,-0.9737549,-0.0178833,-0.022949219,-0.17285156,-0.043945312,-0.10058594,7.911104,-2.3594716,-0.7160857,-20.558567,-0.9715576,0.043518066,0.1862793,0.10546875,0.1171875,-0.041992188,9.505369,-7.0302057,-56.774174,-11.3173065,0.5909424,0.4154663,0.7387085,-0.14257812,0.017578125,0.059570312,11.687441,-4.298956,-128.56644,-6.3401484,0.0,0.0,0.0,0.0,0.0,0.0,0.0,-22.457457,-127.55984,1.990068,0.0,0.0,0.0,0.0,0.0,0.0,0.0,0.11396709,0.03458833,0.99301875,-0.9411011,0.077819824,-0.33666992,0.28710938,-0.15039062,-0.06933594,8.295667,2.3594716,0.7160857,20.558567,-0.9766846,0.080200195,-0.047546387,0.20117188,0.22363281,0.01171875,6.1197157,-1.160075,-55.881573,14.741155,0.5689697,-0.38146973,0.7414551,0.087890625,0.021484375,-0.053710938,14.032727,0.73277295,-127.228485,5.1571627,0.0,0.0,0.0,0.0,0.0,0.0,0.0,-16.839344,-124.10254,-3.8723135,-1.0055542,-0.10595703,-0.07647705,0.07714844,-0.111328125,-0.060546875,0.0,1.1054428,44.96066,-1.6929169,
1.0156249848660084,52,-0.86761475,-0.03491211,0.49157715,0.16894531,0.025390625,-0.11230469,0.0,0.0,0.0,0.0,0.0,0.0,0.0,0.0,0.0,0.0,0.0,-0.11895296,-0.033459634,-0.9925131,-0.98553467,-0.0715332,-0.068725586,-0.2861328,0.03125,-0.025390625,8.023016,-2.4626944,-0.69271815,-20.5481,-0.97125244,0.051696777,0.17041016,0.125,0.09765625,-0.0234375,9.714097,-7.141019,-56.732277,-11.222332,0.60046387,0.38616943,0.70874023,-0.044921875,0.036132812,0.078125,12.120178,-4.297988,-128.52972,-6.414038,0.0,0.0,0.0,0.0,0.0,0.0,0.0,-22.490791,-127.55795,1.8439517,0.0,0.0,0.0,0.0,0.0,0.0,0.0,0.11895296,0.033459634,0.9925131,-0.9371338,0.0847168,-0.34057617,0.3046875,-0.16796875,-0.047851562,8.162024,2.4626944,0.69271815,20.5481,-0.9769287,0.068481445,-0.0435791,0.1640625,0.22363281,0.01171875,6.3782115,-1.0562046,-55.915268,14.804427,0.5637207,-0.37219238,0.72247314,0.049804688,-0.016601562,-0.07324219,14.010852,1.1904819,-127.27748,5.3598127,0.0,0.0,0.0,0.0,0.0,0.0,0.0,-16.375689,-124.17133,-3.6912537,-0.96795654,-0.10046387,-0.08532715,0.0390625,-0.14941406,-0.07910156,0.0,1.1392286,44.96314,-1.6523358,
1.03515623457497,53,-0.85980225,-0.0034179688,0.48376465,0.16796875,0.099609375,-0.13085938,0.0,0.0,0.0,0.0,0.0,0.0,0.0,0.0,0.0,0.0,0.0,-0.121622145,-0.032900963,-0.9922223,-0.9345703,-0.08843994,-0.041015625,0.109375,0.10058594,0.047851562,8.058637,-2.5179558,-0.68115205,-20.542076,-0.9529419,0.058654785,0.12982178,0.18261719,0.09667969,-0.00390625,9.831774,-7.0923634,-56.710075,-11.108946,0.5968628,0.4066162,0.732666,-0.083984375,0.017578125,0.059570312,12.58293,-4.1565256,-128.51682,-6.4582915,0.0,0.0,0.0,0.0,0.0,0.0,0.0,-22.380062,-127.57066,1.7350736,0.0,0.0,0.0,0.0,0.0,0.0,0.0,0.121622145,0.032900963,0.9922223,-0.94415283,0.07672119,-0.31097412,0.30273438,-0.18457031,-0.044921875,8.05174,2.5179558,0.68115205,20.542076,-0.96917725,0.057556152,-0.04663086,0.12597656,0.24316406,0.048828125,6.64098,-1.046828,-55.93409,14.882165,0.5853882,-0.39074707,0.76934814,0.08691406,-0.034179688,-0.072265625,13.8875,1.4865959,-127.300514,5.552021,0.0,0.0,0.0,0.0,0.0,0.0,0.0,-16.08025,-124.2189,-3.5038223,-0.9598999,-0.1159668,-0.09667969,0.040039062,-0.016601562,-0.11621094,0.0,1.2146647,44.96225,-1.6397853,
1.0546874842839318,54,-0.8748779,-0.0014038086,0.48809814,0.16894531,0.043945312,-0.13085938,0.0,0.0,0.0,0.0,0.0,0.0,0.0,0.0,0.0,0.0,0.0,-0.124731004,-0.032059934,-0.99181885,-0.9523926,0.0056762695,-0.08337402,0.5625,0.15136719,0.08300781,7.935581,-2.5823202,-0.66374,-20.533728,-0.97442627,0.044189453,0.1515503,0.16210938,0.059570312,-0.00390625,9.712559,-6.917916,-56.731586,-11.176521,0.59661865,0.40405273,0.6873169,-0.123046875,0.017578125,0.041015625,12.956526,-3.8742917,-128.54034,-6.6316967,0.0,0.0,0.0,0.0,0.0,0.0,0.0,-22.126966,-127.620224,1.4973927,0.0,0.0,0.0,0.0,0.0,0.0,0.0,0.124731004,0.032059934,0.99181885,-0.9351196,0.083618164,-0.31982422,0.3154297,-0.21679688,-0.0390625,7.8818464,2.5823202,0.66374,20.533728,-0.9609375,0.06201172,-0.019836426,0.08886719,0.22363281,0.03125,6.970857,-1.0446954,-55.96015,15.022961,0.57696533,-0.42132568,0.74658203,0.06933594,0.040039062,-0.07324219,13.82757,1.8139925,-127.32202,5.7934666,0.0,0.0,0.0,0.0,0.0,0.0,0.0,-15.752749,-124.26975,-3.274787,-0.98742676,-0.14019775,-0.08123779,0.05859375,0.09765625,-0.076171875,0.0,1.2129433,44.961517,-1.6058929,
1.0742187339928935,55,-0.9049072,0.0025634766,0.4798584,0.16894531,0.0625,-0.11230469,0.0,0.0,0.0,0.0,0.0,0.0,0.0,0.0,0.0,0.0,0.0,-0.12877902,-0.031869084,-0.9912764,-0.9486084,0.068847656,-0.113464355,0.5996094,0.2783203,0.10253906,7.5491486,-2.6661258,-0.65978885,-20.522493,-0.9577637,0.06652832,0.14178467,0.21972656,0.057617188,0.034179688,9.334036,-6.693908,-56.793694,-11.434494,0.5935669,0.39416504,0.7088623,-0.123046875,0.017578125,0.041015625,13.411121,-3.628808,-128.60136,-6.934121,0.0,0.0,0.0,0.0,0.0,0.0,0.0,-21.909168,-127.709335,1.1380529,0.0,0.0,0.0,0.0,0.0,0.0,0.0,0.12877902,0.031869084,0.9912764,-0.9401245,0.07678223,-0.3248291,0.3203125,-0.18261719,-0.043945312,7.7561564,2.6661258,0.65978885,20.522493,-0.97906494,0.06781006,-0.068359375,0.14453125,0.20410156,0.03125,7.2735677,-0.9977572,-55.972183,15.140183,0.5864868,-0.3687744,0.7682495,0.10546875,0.00390625,-0.072265625,13.774888,2.1952288,-127.34072,6.028058,0.0,0.0,0.0,0.0,0.0,0.0,0.0,-15.369448,-124.32456,-3.0547285,-0.9762573,-0.13433838,-0.09307861,0.13476562,-0.036132812,-0.001953125,0.0,1.2530615,44.95894,-1.6081977,
1.0937499837018552,56,-0.8907471,-0.015197754,0.4873047,0.24414062,0.043945312,-0.11328125,0.0,0.0,0.0,0.0,0.0,0.0,0.0,0.0,0.0,0.0,0.0,-0.13361245,-0.03211382,-0.9906831,-0.9974365,0.09136963,-0.1015625,0.39257812,0.20703125,0.083984375,7.0201244,-2.7661922,-0.6648556,-20.51021,-0.9690552,0.060180664,0.19329834,0.16210938,0.041015625,0.0146484375,8.844846,-6.517041,-56.88041,-11.819902,0.59936523,0.3814087,0.7017822,-0.103515625,0.017578125,0.059570312,13.898778,-3.4859228,-128.69281,-7.3271723,0.0,0.0,0.0,0.0,0.0,0.0,0.0,-21.783772,-127.82882,0.70652866,0.0,0.0,0.0,0.0,0.0,0.0,0.0,0.13361245,0.03211382,0.9906831,-0.9361572,0.08850098,-0.3118286,0.29785156,-0.21875,-0.041015625,7.6573215,2.7661922,0.6648556,20.51021,-0.95947266,0.049743652,-0.06359863,0.14453125,0.2421875,0.06738281,7.618962,-0.9670305,-55.975616,15.260868,0.578125,-0.38653564,0.7523804,0.068359375,0.0029296875,-0.07324219,13.820853,2.5789666,-127.34641,6.2905216,0.0,0.0,0.0,0.0,0.0,0.0,0.0,-14.989653,-124.36508,-2.7978954,-0.94989014,-0.13684082,-0.068237305,0.21191406,-0.016601562,0.017578125,0.0,1.3118486,44.95876,-1.6343033,
1.1132812334108169,57,-0.85253906,-0.01928711,0.4616089,0.22558594,0.024414062,-0.09472656,0.0,0.0,0.0,0.0,0.0,0.0,0.0,0.0,0.0,0.0,0.0,-0.13602144,-0.03388841,-0.99031174,-0.9691162,0.10229492,-0.045654297,0.3359375,0.080078125,0.028320312,6.697995,-2.8160646,-0.7015951,-20.502523,-0.97106934,0.057617188,0.17242432,0.18164062,0.041015625,-0.022460938,8.648087,-6.442957,-56.94983,-11.979097,0.5588989,0.36437988,0.71936035,-0.14257812,-0.001953125,0.078125,14.30744,-3.4435673,-128.76758,-7.537034,0.0,0.0,0.0,0.0,0.0,0.0,0.0,-21.748236,-127.92464,0.48416805,0.0,0.0,0.0,0.0,0.0,0.0,0.0,0.13602144,0.03388841,0.99031174,-0.9321289,0.0925293,-0.32562256,0.23339844,-0.19335938,-0.051757812,7.681504,2.8160646,0.7015951,20.502523,-0.9621582,0.06951904,-0.08538818,0.12597656,0.20410156,0.049804688,7.9773016,-0.98957086,-55.942436,15.348316,0.5820923,-0.39038086,0.7463989,0.03125,-0.016601562,-0.07324219,13.847375,2.921153,-127.2997,6.471884,0.0,0.0,0.0,0.0,0.0,0.0,0.0,-14.648883,-124.339294,-2.6176672,-0.94989014,-0.13684082,-0.068237305,0.21191406,-0.016601562,0.017578125,0.0,1.3483951,44.955036,-1.7235637,
1.1328124831197786,58,-0.8584595,-0.020263672,0.45080566,0.13183594,0.005859375,-0.11230469,0.0,0.0,0.0,0.0,0.0,0.0,0.0,0.0,0.0,0.0,0.0,-0.13904881,-0.03498779,-0.9898167,-0.960083,0.104003906,-0.029968262,0.29882812,0.09863281,-0.0087890625,6.573397,-2.8787405,-0.7243557,-20.492273,-0.9758911,0.06304932,0.15063477,0.08496094,0.080078125,-0.0048828125,8.649675,-6.4472914,-56.984375,-12.024468,0.59259033,0.39196777,0.7393799,-0.064453125,-0.001953125,0.022460938,14.648516,-3.4421234,-128.80952,-7.7363434,0.0,0.0,0.0,0.0,0.0,0.0,0.0,-21.748516,-127.98328,0.28266335,0.0,0.0,0.0,0.0,0.0,0.0,0.0,0.13904881,0.03498779,0.9898167,-0.92303467,0.08666992,-0.34857178,0.20703125,-0.12988281,-0.064453125,7.7475476,2.8787405,0.7243557,20.492273,-0.9607544,0.085876465,-0.06451416,0.12597656,0.20410156,0.03125,8.260823,-0.9021139,-55.923965,15.336512,0.5718994,-0.3743286,0.734375,0.049804688,-0.016601562,-0.053710938,13.947347,3.429615,-127.26953,6.5569696,0.0,0.0,0.0,0.0,0.0,0.0,0.0,-14.132767,-124.33241,-2.558425,-0.9609375,-0.12756348,-0.103881836,0.078125,0.040039062,-0.05859375,0.0,1.3231841,44.95218,-1.7748381,
1.1523437328287403,59,-0.88690186,0.0025634766,0.49432373,0.13183594,-0.0126953125,-0.09375,0.0,0.0,0.0,0.0,0.0,0.0,0.0,0.0,0.0,0.0,0.0,-0.1407071,-0.03679855,-0.98945147,-0.9602661,0.095703125,-0.120910645,-0.041015625,0.15625,-0.026367188,6.2472672,-2.9130726,-0.7618441,-20.484715,-0.97454834,0.041137695,0.1574707,0.02734375,0.08203125,0.013671875,8.566441,-6.4462576,-57.059853,-12.243767,0.6022339,0.3673706,0.7331543,-0.064453125,-0.001953125,0.00390625,14.811865,-3.3911405,-128.88876,-8.07144,0.0,0.0,0.0,0.0,0.0,0.0,0.0,-21.699272,-128.0771,-0.057437897,0.0,0.0,0.0,0.0,0.0,0.0,0.0,0.1407071,0.03679855,0.98945147,-0.91192627,0.08453369,-0.3279419,0.2548828,-0.13769531,-0.07519531,7.8060756,2.9130726,0.7618441,20.484715,-0.9636841,0.08886719,-0.0635376,0.14453125,0.22363281,0.049804688,8.523391,-0.83253574,-55.89278,15.368667,0.59399414,-0.37805176,0.73327637,0.03125,-0.017578125,-0.053710938,14.137092,3.8868356,-127.22458,6.665579,0.0,0.0,0.0,0.0,0.0,0.0,0.0,-13.678385,-124.295746,-2.443653,-0.9784546,-0.16851807,-0.081848145,9.765625E-4,-0.017578125,-0.040039062,0.0,1.3072441,44.9464,-1.8574947,
1.171874982537702,60,-0.895874,-0.019042969,0.5161133,0.16992188,-0.049804688,-0.11328125,0.0,0.0,0.0,0.0,0.0,0.0,0.0,0.0,0.0,0.0,0.0,-0.14376181,-0.03638658,-0.98907554,-0.92456055,0.06341553,-0.114868164,-0.09765625,0.3017578,-0.0068359375,5.842008,-2.9763138,-0.753315,-20.476929,-0.9658203,0.06561279,0.15563965,-0.03125,0.06542969,-0.0048828125,8.245526,-6.3107505,-57.117664,-12.612045,0.62109375,0.3554077,0.72314453,-0.044921875,-0.001953125,0.022460938,15.149526,-3.2175846,-128.95135,-8.542333,0.0,0.0,0.0,0.0,0.0,0.0,0.0,-21.552637,-128.16548,-0.5876107,0.0,0.0,0.0,0.0,0.0,0.0,0.0,0.14376181,0.03638658,0.98907554,-0.9190674,0.103393555,-0.3423462,0.31933594,-0.16308594,-0.06347656,7.7649064,2.9763138,0.753315,20.476929,-0.95581055,0.09295654,-0.09539795,0.14453125,0.20410156,0.049804688,8.789659,-0.7516556,-55.901745,15.381945,0.5621338,-0.37078857,0.75341797,0.03125,-0.036132812,-0.053710938,14.198929,4.3390675,-127.218124,6.7428665,0.0,0.0,0.0,0.0,0.0,0.0,0.0,-13.224989,-124.310974,-2.3775291,-0.9785156,-0.18273926,-0.11407471,0.11621094,-0.053710938,-0.1171875,0.0,1.3015535,44.949306,-1.8427968,
1.1914062322466636,61,-0.8986206,-0.04864502,0.50994873,0.09472656,-0.049804688,-0.12988281,0.0,0.0,0.0,0.0,0.0,0.0,0.0,0.0,0.0,0.0,0.0,-0.14319736,-0.035823636,-0.9891976,-0.96118164,0.0256958,-0.1027832,-0.13574219,0.19335938,0.030273438,5.609024,-2.9646294,-0.7416603,-20.479456,-0.9710083,0.05822754,0.1317749,-0.03125,0.045898438,0.013671875,7.9960556,-6.1251783,-57.145416,-12.846743,0.5864868,0.3862915,0.73339844,-0.025390625,-0.021484375,0.021484375,15.399792,-3.033904,-128.98361,-8.850897,0.0,0.0,0.0,0.0,0.0,0.0,0.0,-21.399876,-128.22623,-0.9648862,0.0,0.0,0.0,0.0,0.0,0.0,0.0,0.14319736,0.035823636,0.9891976,-0.927124,0.109375,-0.35205078,0.21777344,-0.15917969,-0.076171875,7.7436204,2.9646294,0.7416603,20.479456,-0.961792,0.09320068,-0.103271484,0.16210938,0.203125,0.068359375,9.076189,-0.7607949,-55.91631,15.375405,0.5552368,-0.37304688,0.76342773,0.049804688,-0.036132812,-0.053710938,14.386206,4.711689,-127.20677,6.7868996,0.0,0.0,0.0,0.0,0.0,0.0,0.0,-12.85829,-124.31375,-2.325819,-0.97631836,-0.15563965,-0.10253906,0.15429688,-0.03515625,-0.059570312,0.0,1.2814296,44.951958,-1.8134291,
1.2109374819556253,62,-0.8873291,-0.052734375,0.46203613,0.09472656,-0.068359375,-0.111328125,0.0,0.0,0.0,0.0,0.0,0.0,0.0,0.0,0.0,0.0,0.0,-0.1451292,-0.03457823,-0.9889689,-0.9796753,-0.0034179688,-0.11657715,0.072265625,0.17382812,0.047851562,5.5428767,-3.0046234,-0.7158765,-20.474724,-0.9855957,0.07507324,0.1616211,0.06542969,0.0625,0.033203125,7.805849,-5.97659,-57.14098,-12.937371,0.59521484,0.37451172,0.7125244,-0.044921875,-0.021484375,0.0029296875,15.576825,-2.8533547,-128.975,-8.943896,0.0,0.0,0.0,0.0,0.0,0.0,0.0,-21.239353,-128.23499,-1.1016912,0.0,0.0,0.0,0.0,0.0,0.0,0.0,0.1451292,0.03457823,0.9889689,-0.92803955,0.08282471,-0.36444092,0.2607422,-0.08691406,-0.08203125,7.6141686,3.0046234,0.7158765,20.474724,-0.9562378,0.074523926,-0.105285645,0.125,0.16503906,0.05078125,9.17269,-0.6129558,-55.946873,15.410347,0.5720215,-0.4005127,0.7495117,0.068359375,-0.03515625,-0.053710938,14.455496,5.1225977,-127.23085,6.891917,0.0,0.0,0.0,0.0,0.0,0.0,0.0,-12.454867,-124.354416,-2.213481,-0.98132324,-0.13916016,-0.092163086,0.11621094,-0.03515625,-0.059570312,0.0,1.2583327,44.955246,-1.7564695,
1.230468731664587,63,-0.85424805,-0.07147217,0.4790039,0.1328125,-0.049804688,-0.13085938,0.0,0.0,0.0,0.0,0.0,0.0,0.0,0.0,0.0,0.0,0.0,-0.14579478,-0.033984054,-0.988915,-0.975708,0.06225586,-0.08148193,0.16601562,0.15429688,0.047851562,5.390307,-3.018405,-0.7035753,-20.473606,-0.97631836,0.084472656,0.17358398,-0.0126953125,0.045898438,-0.0048828125,7.535827,-5.777823,-57.16182,-13.065497,0.58361816,0.40112305,0.71588135,0.033203125,-0.0029296875,-0.0146484375,15.836223,-2.6862302,-129.00098,-9.074405,0.0,0.0,0.0,0.0,0.0,0.0,0.0,-21.081078,-128.27322,-1.2540007,0.0,0.0,0.0,0.0,0.0,0.0,0.0,0.14579478,0.033984054,0.988915,-0.9310303,0.072753906,-0.32598877,0.25878906,-0.10449219,-0.07910156,7.5229,3.018405,0.7035753,20.473606,-0.9581299,0.07739258,-0.099365234,0.18066406,0.12695312,0.032226562,9.237227,-0.43481064,-55.972218,15.423962,0.56018066,-0.38085938,0.7574463,0.10644531,0.041015625,-0.072265625,14.654159,5.601417,-127.23509,6.9870872,0.0,0.0,0.0,0.0,0.0,0.0,0.0,-11.990326,-124.370026,-2.092184,-0.925354,-0.10687256,-0.07458496,0.11621094,-0.091796875,-0.07910156,0.0,1.2705076,44.95689,-1.7322528,
1.2499999813735487,64,-0.8275757,-0.052612305,0.5262451,0.1328125,-0.08691406,-0.13085938,0.0,0.0,0.0,0.0,0.0,0.0,0.0,0.0,0.0,0.0,0.0,-0.14613402,-0.032788433,-0.9888692,-0.96099854,0.038146973,-0.048339844,0.09082031,0.064453125,0.047851562,5.4817634,-3.0254283,-0.6788222,-20.472656,-0.96087646,0.032287598,0.18719482,-0.0126953125,0.045898438,-0.0048828125,7.4717836,-5.7738905,-57.140526,-13.088504,0.5718384,0.42199707,0.7033081,-0.025390625,0.016601562,-0.033203125,15.960144,-2.6861866,-128.97433,-9.017739,0.0,0.0,0.0,0.0,0.0,0.0,0.0,-21.088999,-128.24547,-1.2155037,0.0,0.0,0.0,0.0,0.0,0.0,0.0,0.14613402,0.032788433,0.9888692,-0.9329834,0.06304932,-0.35388184,0.31054688,-0.09765625,-0.07421875,7.3936677,3.0254283,0.6788222,20.472656,-0.95703125,0.086364746,-0.11425781,0.16210938,0.12695312,0.032226562,9.371715,-0.3351977,-56.011814,15.478401,0.5683594,-0.34594727,0.76123047,0.068359375,0.0029296875,-0.07324219,14.732319,5.99312,-127.26375,7.1333246,0.0,0.0,0.0,0.0,0.0,0.0,0.0,-11.60092,-124.42343,-1.9500637,-0.93444824,-0.11138916,-0.09655762,0.078125,-0.0546875,-0.078125,0.0,1.1624424,44.96084,-1.6625736,
1.2695312310825104,65,-0.8518677,-0.011230469,0.5073242,0.16992188,-0.068359375,-0.16894531,0.0,0.0,0.0,0.0,0.0,0.0,0.0,0.0,0.0,0.0,0.0,-0.14396724,-0.03217567,-0.9891892,-0.9580078,0.04046631,-0.119506836,0.12890625,0.13671875,0.029296875,5.5086527,-2.9805694,-0.66613615,-20.479282,-0.96777344,0.03387451,0.16339111,0.064453125,0.043945312,0.033203125,7.3620467,-5.6509824,-57.135,-13.123656,0.576355,0.3824463,0.7421875,-0.064453125,-0.001953125,0.00390625,16.111933,-2.5245442,-128.96257,-8.939817,0.0,0.0,0.0,0.0,0.0,0.0,0.0,-20.945848,-128.24484,-1.1773787,0.0,0.0,0.0,0.0,0.0,0.0,0.0,0.14396724,0.03217567,0.9891892,-0.9350586,0.066101074,-0.3626709,0.2548828,-0.119140625,-0.09472656,7.2918606,2.9805694,0.66613615,20.479282,-0.9691162,0.08477783,-0.1270752,0.23730469,0.12695312,0.0126953125,9.414318,-0.25185347,-56.032856,15.527841,0.59417725,-0.36627197,0.7432251,0.05078125,0.001953125,-0.03515625,14.695613,6.295757,-127.2713,7.2606688,0.0,0.0,0.0,0.0,0.0,0.0,0.0,-11.291702,-124.45261,-1.8400898,-0.96990967,-0.10308838,-0.107299805,0.078125,0.078125,-0.07714844,0.0,1.0886823,44.963406,-1.6209865,
1.2890624807914721,66,-0.8668213,-0.021057129,0.5194702,0.17089844,-0.14257812,-0.13183594,0.0,0.0,0.0,0.0,0.0,0.0,0.0,0.0,0.0,0.0,0.0,-0.14523351,-0.03113437,-0.98903257,-0.9753418,0.018127441,-0.113464355,0.015625,0.28320312,-0.0068359375,5.3641043,-3.006785,-0.64457804,-20.47604,-0.9746704,0.07092285,0.15270996,0.044921875,0.025390625,0.033203125,7.042304,-5.448298,-57.14402,-13.312245,0.5780029,0.3651123,0.70654297,-0.083984375,0.016601562,0.022460938,16.45587,-2.3399596,-128.96973,-9.115059,0.0,0.0,0.0,0.0,0.0,0.0,0.0,-20.780317,-128.26793,-1.3965988,0.0,0.0,0.0,0.0,0.0,0.0,0.0,0.14523351,0.03113437,0.98903257,-0.94000244,0.05328369,-0.36187744,0.27246094,-0.13574219,-0.07324219,7.216783,3.006785,0.64457804,20.47604,-0.99224854,0.0715332,-0.114990234,0.19921875,0.12695312,0.032226562,9.499557,-0.109106064,-56.05979,15.526192,0.6008301,-0.3590088,0.78808594,0.05078125,-0.017578125,0.0029296875,14.760761,6.711733,-127.287964,7.3636103,0.0,0.0,0.0,0.0,0.0,0.0,0.0,-10.872999,-124.49903,-1.7540274,-0.9700928,-0.12390137,-0.07293701,0.05859375,0.021484375,-0.115234375,0.0,1.0021899,44.967262,-1.5627182,
1.3085937305004338,67,-0.8870239,-0.009155273,0.5349121,0.16992188,-0.08691406,-0.09472656,0.0,0.0,0.0,0.0,0.0,0.0,0.0,0.0,0.0,0.0,0.0,-0.14548567,-0.03209038,-0.9889919,-0.9915161,0.0063476562,-0.067871094,0.2607422,0.13574219,0.046875,5.226635,-3.0120046,-0.66437036,-20.475199,-0.9628906,0.06274414,0.1437378,0.026367188,0.044921875,0.07128906,6.8451858,-5.228569,-57.186096,-13.38296,0.5860596,0.362854,0.729126,-0.064453125,-0.001953125,0.00390625,16.710608,-2.090439,-129.01202,-9.205758,0.0,0.0,0.0,0.0,0.0,0.0,0.0,-20.550613,-128.33136,-1.5350275,0.0,0.0,0.0,0.0,0.0,0.0,0.0,0.14548567,0.03209038,0.9889919,-0.934021,0.067993164,-0.35375977,0.2529297,-0.15527344,-0.072265625,7.2276764,3.0120046,0.66437036,20.475199,-0.96655273,0.06121826,-0.12213135,0.1796875,0.068359375,0.033203125,9.597163,-0.044326544,-56.049713,15.565731,0.61260986,-0.36657715,0.77008057,0.05078125,9.765625E-4,0.021484375,14.802324,6.9814854,-127.2694,7.490654,0.0,0.0,0.0,0.0,0.0,0.0,0.0,-10.591684,-124.504974,-1.655283,-0.9112549,-0.13397217,-0.09710693,0.11621094,0.059570312,-0.057617188,0.0,0.9207656,44.969086,-1.5945866,
1.3281249802093955,68,-0.8870239,0.012451172,0.4944458,0.16992188,-0.08691406,-0.09472656,0.0,0.0,0.0,0.0,0.0,0.0,0.0,0.0,0.0,0.0,0.0,-0.14720038,-0.032981683,-0.9886879,-0.9727173,0.064331055,-0.10522461,0.22265625,-0.08203125,0.046875,5.2445245,-3.0475042,-0.68282306,-20.468904,-0.98114014,0.05340576,0.14562988,0.026367188,0.044921875,0.051757812,6.8522596,-5.218163,-57.198406,-13.3312645,0.5963745,0.38128662,0.71954346,-0.064453125,-0.021484375,0.0029296875,16.912462,-2.0742168,-129.02759,-9.177586,0.0,0.0,0.0,0.0,0.0,0.0,0.0,-20.552458,-128.36333,-1.5471072,0.0,0.0,0.0,0.0,0.0,0.0,0.0,0.14720038,0.032981683,0.9886879,-0.9269409,0.064086914,-0.36975098,0.24804688,-0.055664062,-0.087890625,7.285696,3.0475042,0.68282306,20.468904,-0.9663696,0.078063965,-0.1449585,0.19921875,0.06933594,0.0146484375,9.53904,0.16212392,-56.037643,15.519733,0.5704956,-0.35913086,0.774292,0.0146484375,0.0,0.040039062,14.912987,7.3503733,-127.243126,7.5298676,0.0,0.0,0.0,0.0,0.0,0.0,0.0,-10.225181,-124.4957,-1.6200032,-0.9255371,-0.14849854,-0.09246826,0.19335938,0.1171875,-0.038085938,0.0,0.8422487,44.968586,-1.6255069,
1.3476562299183572,69,-0.87384033,-0.011230469,0.5038452,0.16992188,-0.049804688,-0.038085938,0.0,0.0,0.0,0.0,0.0,0.0,0.0,0.0,0.0,0.0,0.0,-0.14864483,-0.035031486,-0.98847234,-0.9558716,0.051513672,-0.15991211,0.14746094,0.08203125,0.08496094,5.01329,-3.0774102,-0.72526044,-20.464441,-0.9812012,0.051574707,0.13665771,0.0068359375,0.044921875,0.051757812,6.756041,-5.1916227,-57.256645,-13.4492855,0.6052246,0.3673706,0.73217773,-0.025390625,-0.001953125,0.00390625,16.921759,-2.0168977,-129.08264,-9.306721,0.0,0.0,0.0,0.0,0.0,0.0,0.0,-20.500763,-128.42622,-1.688837,0.0,0.0,0.0,0.0,0.0,0.0,0.0,0.14864483,0.035031486,0.98847234,-0.92596436,0.06390381,-0.335083,0.2265625,-0.091796875,-0.08496094,7.4044347,3.0774102,0.72526044,20.464441,-0.97052,0.061279297,-0.12011719,0.16113281,0.049804688,0.034179688,9.487382,0.31397152,-56.000504,15.487998,0.57598877,-0.366333,0.7373047,0.051757812,9.765625E-4,0.041015625,14.915507,7.6007466,-127.200195,7.531937,0.0,0.0,0.0,0.0,0.0,0.0,0.0,-9.974892,-124.46579,-1.6191096,-0.9314575,-0.11065674,-0.074645996,0.17382812,0.09765625,0.0,0.0,0.7991904,44.96926,-1.7138927,
1.367187479627319,70,-0.8427124,-0.023132324,0.5010376,0.17089844,-0.08691406,-0.057617188,0.0,0.0,0.0,0.0,0.0,0.0,0.0,0.0,0.0,0.0,0.0,-0.15020213,-0.03641939,-0.9881885,-0.9708252,0.059692383,-0.15960693,0.072265625,0.17382812,0.06640625,4.719454,-3.109649,-0.75399435,-20.458565,-0.9873657,0.04437256,0.10583496,0.0068359375,0.026367188,0.033203125,6.4978166,-4.994816,-57.323906,-13.658508,0.609375,0.36706543,0.75579834,-0.025390625,-0.07910156,-0.015625,16.981224,-1.7765331,-129.15396,-9.581136,0.0,0.0,0.0,0.0,0.0,0.0,0.0,-20.274515,-128.52577,-1.9949889,0.0,0.0,0.0,0.0,0.0,0.0,0.0,0.15020213,0.03641939,0.9881885,-0.92907715,0.085632324,-0.3395996,0.25683594,-0.1015625,-0.09667969,7.405018,3.109649,0.75399435,20.458565,-0.95251465,0.109558105,-0.10430908,0.19824219,0.048828125,0.033203125,9.486636,0.4476149,-55.98068,15.551637,0.58410645,-0.3713379,0.7423096,0.0146484375,0.0,0.040039062,14.877248,7.850008,-127.178406,7.6092052,0.0,0.0,0.0,0.0,0.0,0.0,0.0,-9.718758,-124.462364,-1.5608978,-0.9769287,-0.08270264,-0.09588623,0.11621094,0.17285156,0.01953125,0.0,0.6905539,44.969265,-1.7622912,
1.3867187293362806,71,-0.87280273,0.0025024414,0.47021484,0.15234375,-0.14355469,-0.057617188,0.0,0.0,0.0,0.0,0.0,0.0,0.0,0.0,0.0,0.0,0.0,-0.15093628,-0.03748663,-0.98800343,-0.96240234,0.08898926,-0.15356445,0.20410156,0.099609375,0.083984375,4.4033103,-3.1248505,-0.7760895,-20.454731,-0.98657227,0.07354736,0.13580322,-0.033203125,0.0087890625,0.07128906,6.274574,-4.9121847,-57.38025,-13.920308,0.5682373,0.37780762,0.73327637,0.033203125,-0.0029296875,-0.0146484375,17.099174,-1.6997423,-129.2095,-9.884658,0.0,0.0,0.0,0.0,0.0,0.0,0.0,-20.213833,-128.60167,-2.3384414,0.0,0.0,0.0,0.0,0.0,0.0,0.0,0.15093628,0.03748663,0.98800343,-0.92523193,0.13391113,-0.32983398,0.25878906,-0.08496094,-0.099609375,7.506658,3.1248505,0.7760895,20.454731,-0.95288086,0.09503174,-0.11328125,0.123046875,0.0107421875,0.03515625,9.549543,0.44767118,-55.953167,15.518398,0.5765991,-0.35302734,0.77423096,0.033203125,0.0,0.041015625,14.767583,7.9041586,-127.1369,7.502075,0.0,0.0,0.0,0.0,0.0,0.0,0.0,-9.66274,-124.43895,-1.6748295,-0.96588135,-0.11071777,-0.123413086,-0.017578125,0.20996094,-0.055664062,0.0,0.6283114,44.967117,-1.8021201,
1.4062499790452423,72,-0.8508911,0.0064697266,0.49163818,0.095703125,-0.08691406,-0.037109375,0.0,0.0,0.0,0.0,0.0,0.0,0.0,0.0,0.0,0.0,0.0,-0.15168104,-0.03884954,-0.987791,-0.94000244,0.10998535,-0.11224365,0.22265625,0.13574219,0.046875,4.10303,-3.1402674,-0.804306,-20.450336,-0.9622803,0.049560547,0.16351318,-0.09082031,-0.0078125,0.032226562,6.0672755,-4.863392,-57.440113,-14.179274,0.5872803,0.36743164,0.76568604,-0.005859375,-0.0029296875,-0.0146484375,17.190012,-1.6751347,-129.27419,-10.173343,0.0,0.0,0.0,0.0,0.0,0.0,0.0,-20.194784,-128.67809,-2.6406813,0.0,0.0,0.0,0.0,0.0,0.0,0.0,0.15168104,0.03884954,0.987791,-0.93536377,0.14874268,-0.32354736,0.20605469,-0.053710938,-0.14355469,7.6266336,3.1402674,0.804306,20.450336,-0.95617676,0.074401855,-0.09539795,0.048828125,0.01171875,0.016601562,9.56682,0.41981697,-55.92169,15.497412,0.6031494,-0.38012695,0.74420166,-0.0048828125,-0.01953125,0.040039062,14.572292,7.835167,-127.09843,7.412945,0.0,0.0,0.0,0.0,0.0,0.0,0.0,-9.7268505,-124.409935,-1.7791271,-0.94976807,-0.1352539,-0.12200928,-0.09375,0.20996094,-0.09375,0.0,0.52481127,44.964508,-1.8490291,
1.425781228754204,73,-0.862854,-0.014160156,0.5095215,-0.017578125,-0.0126953125,0.0029296875,0.0,0.0,0.0,0.0,0.0,0.0,0.0,0.0,0.0,0.0,0.0,-0.15138859,-0.038722076,-0.98782694,-0.9793091,0.097961426,-0.11663818,-0.022460938,0.1015625,-0.026367188,3.959283,-3.134213,-0.80166703,-20.45108,-0.99139404,0.047546387,0.16241455,-0.072265625,-0.0087890625,0.051757812,5.92976,-4.823398,-57.452908,-14.332521,0.5543213,0.38879395,0.7314453,0.013671875,0.016601562,-0.0146484375,17.412388,-1.6538725,-129.28445,-10.299974,0.0,0.0,0.0,0.0,0.0,0.0,0.0,-20.19307,-128.69429,-2.8131118,0.0,0.0,0.0,0.0,0.0,0.0,0.0,0.15138859,0.038722076,0.98782694,-0.95147705,0.15466309,-0.30944824,0.099609375,-0.08300781,-0.15234375,7.6677976,3.134213,0.80166703,20.45108,-0.9686279,0.090026855,-0.068481445,-0.026367188,0.01171875,0.036132812,9.575364,0.33929443,-55.917965,15.471821,0.5540161,-0.3897705,0.74957275,0.013671875,0.0,0.021484375,14.409965,7.6671257,-127.09784,7.3273287,0.0,0.0,0.0,0.0,0.0,0.0,0.0,-9.905287,-124.40629,-1.8411808,-0.9640503,-0.1449585,-0.10925293,-0.07519531,0.19042969,-0.055664062,0.0,0.51230884,44.96436,-1.8410826,
1.4453124784631657,74,-0.88256836,-0.036865234,0.49084473,-0.016601562,-0.049804688,0.001953125,0.0,0.0,0.0,0.0,0.0,0.0,0.0,0.0,0.0,0.0,0.0,-0.15170094,-0.037951965,-0.98789495,-1.0142822,0.10638428,-0.08929443,0.072265625,0.02734375,-0.0078125,3.9524517,-3.1406803,-0.7857233,-20.452486,-0.96984863,0.06719971,0.18835449,-0.032226562,0.02734375,0.051757812,5.8509593,-4.889206,-57.443886,-14.415592,0.5961914,0.37164307,0.706604,0.052734375,-0.0029296875,-0.051757812,17.736229,-1.820065,-129.27972,-10.3419895,0.0,0.0,0.0,0.0,0.0,0.0,0.0,-20.372166,-128.69954,-2.886085,0.0,0.0,0.0,0.0,0.0,0.0,0.0,0.15170094,0.037951965,0.98789495,-0.95947266,0.13690186,-0.3027954,-0.00390625,-0.09667969,-0.16210938,7.6598325,3.1406803,0.7857233,20.452486,-0.94750977,0.09820557,-0.057678223,-0.0625,0.03125,0.017578125,9.544478,0.25664377,-55.930763,15.468861,0.59375,-0.3727417,0.71429443,0.013671875,0.0,0.0029296875,14.054766,7.4158473,-127.11004,7.223339,0.0,0.0,0.0,0.0,0.0,0.0,0.0,-10.155254,-124.42416,-1.9509468,-0.99957275,-0.14447021,-0.121154785,-0.09375,0.22949219,-0.11230469,0.0,0.488175,44.970013,-1.8025773,
1.4648437281721274,75,-0.8444824,-0.054626465,0.51068115,0.020507812,-0.06933594,0.057617188,0.0,0.0,0.0,0.0,0.0,0.0,0.0,0.0,0.0,0.0,0.0,-0.15042746,-0.03720545,-0.98811877,-0.99938965,0.097351074,-0.10839844,-0.022460938,0.028320312,-0.0078125,3.9747338,-3.1143136,-0.7702682,-20.457123,-0.94488525,0.06524658,0.19537354,-0.0126953125,0.045898438,0.013671875,5.7855706,-4.915313,-57.434845,-14.473698,0.57696533,0.35699463,0.74383545,0.033203125,-0.0029296875,-0.0146484375,18.00563,-1.9409151,-129.26906,-10.358641,0.0,0.0,0.0,0.0,0.0,0.0,0.0,-20.496353,-128.69186,-2.909861,0.0,0.0,0.0,0.0,0.0,0.0,0.0,0.15042746,0.03720545,0.98811877,-0.9453125,0.11810303,-0.30718994,0.022460938,-0.16015625,-0.14941406,7.5412416,3.1143136,0.7702682,20.457123,-0.9572754,0.11230469,-0.07745361,-0.08105469,0.06933594,0.036132812,9.649033,0.119250774,-55.950523,15.595427,0.5623169,-0.36297607,0.7633667,0.06933594,0.020507812,-0.015625,13.902575,7.2282844,-127.13076,7.269291,0.0,0.0,0.0,0.0,0.0,0.0,0.0,-10.34059,-124.45051,-1.9106073,-0.94073486,-0.15576172,-0.12347412,-0.11328125,0.17285156,-0.17089844,0.0,0.46016625,44.971893,-1.7633723,
1.484374977881089,76,-0.83740234,-0.04095459,0.46899414,0.020507812,-0.0126953125,0.0390625,0.0,0.0,0.0,0.0,0.0,0.0,0.0,0.0,0.0,0.0,0.0,-0.15220058,-0.036070067,-0.9878806,-0.9785156,0.08312988,-0.107910156,-0.059570312,0.046875,-0.044921875,3.984477,-3.151023,-0.7467622,-20.45219,-0.9623413,0.0836792,0.19244385,-0.08984375,0.047851562,-0.005859375,5.7474003,-5.0048537,-57.414898,-14.520978,0.6034546,0.3831787,0.71466064,0.013671875,-0.021484375,-0.015625,18.29527,-2.0926852,-129.25023,-10.37279,0.0,0.0,0.0,0.0,0.0,0.0,0.0,-20.665548,-128.68718,-2.9672809,0.0,0.0,0.0,0.0,0.0,0.0,0.0,0.15220058,0.036070067,0.9878806,-0.9453125,0.11810303,-0.30718994,0.022460938,-0.16015625,-0.14941406,7.473622,3.151023,0.7467622,20.45219,-0.95880127,0.09503174,-0.103271484,-0.099609375,0.0703125,0.017578125,9.627963,0.15596008,-55.97403,15.590494,0.5701294,-0.3526001,0.7442627,0.05078125,-0.017578125,-0.015625,13.844878,7.2278767,-127.15418,7.2119884,0.0,0.0,0.0,0.0,0.0,0.0,0.0,-10.347153,-124.48949,-1.9629707,-0.91833496,-0.12896729,-0.10498047,-0.07519531,0.19238281,-0.17089844,0.0,0.49060294,44.972958,-1.7176645,
1.5039062275900508,77,-0.8592529,-0.07244873,0.48303223,0.01953125,0.061523438,0.021484375,0.0,0.0,0.0,0.0,0.0,0.0,0.0,0.0,0.0,0.0,0.0,-0.15321067,-0.034779195,-0.9877698,-0.95684814,0.052246094,-0.10949707,-0.13574219,-0.080078125,-0.026367188,4.082311,-3.171936,-0.72003716,-20.449898,-0.9871826,0.055236816,0.16741943,0.06542969,0.043945312,-0.0234375,5.8281684,-5.110319,-57.382954,-14.488231,0.58740234,0.38336182,0.72351074,-0.005859375,-0.001953125,0.00390625,18.36567,-2.198576,-129.22424,-10.321259,0.0,0.0,0.0,0.0,0.0,0.0,0.0,-20.7751,-128.65869,-2.9224925,0.0,0.0,0.0,0.0,0.0,0.0,0.0,0.15321067,0.034779195,0.9877698,-0.927124,0.09857178,-0.36114502,0.059570312,-0.15820312,-0.12890625,7.2973466,3.171936,0.72003716,20.449898,-0.94696045,0.09094238,-0.11035156,-0.08105469,0.08886719,0.03515625,9.741403,0.15759897,-56.007168,15.69483,0.57525635,-0.36871338,0.75634766,0.05078125,0.020507812,-0.03515625,13.855036,7.3155847,-127.16806,7.2892227,0.0,0.0,0.0,0.0,0.0,0.0,0.0,-10.250484,-124.51837,-1.9061718,-0.942749,-0.144104,-0.119262695,-0.036132812,0.25,-0.22753906,0.0,0.5388525,44.97426,-1.6671157,
1.5234374772990125,78,-0.87506104,-0.088256836,0.47131348,0.09472656,-0.0126953125,-0.017578125,0.0,0.0,0.0,0.0,0.0,0.0,0.0,0.0,0.0,0.0,0.0,-0.15502498,-0.033219844,-0.9875346,-0.9312744,0.014526367,-0.15081787,-0.09765625,-0.0625,-0.06347656,4.2718225,-3.209499,-0.6877538,-20.445028,-0.9807129,0.06921387,0.14770508,0.045898438,0.043945312,0.0146484375,5.997473,-5.2563353,-57.332794,-14.395125,0.600708,0.39172363,0.7541504,-0.025390625,-0.021484375,0.0029296875,18.464071,-2.312891,-129.17096,-10.24823,0.0,0.0,0.0,0.0,0.0,0.0,0.0,-20.896927,-128.61365,-2.8716679,0.0,0.0,0.0,0.0,0.0,0.0,0.0,0.15502498,0.033219844,0.9875346,-0.92700195,0.079956055,-0.37731934,0.09375,-0.13476562,-0.14550781,7.170666,3.209499,0.6877538,20.445028,-0.9552002,0.08557129,-0.13708496,-0.025390625,0.06933594,0.03515625,9.726477,0.31211185,-56.04319,15.690506,0.5656128,-0.35925293,0.78027344,0.05078125,0.020507812,-0.03515625,14.092993,7.6070833,-127.19948,7.3257036,0.0,0.0,0.0,0.0,0.0,0.0,0.0,-9.966289,-124.56194,-1.8598738,-0.9682007,-0.14611816,-0.09136963,-0.11230469,0.28710938,-0.26464844,0.0,0.5630817,44.9761,-1.6013522,
1.5429687270079742,79,-0.9083252,-0.06744385,0.4761963,0.020507812,-0.0126953125,0.001953125,0.0,0.0,0.0,0.0,0.0,0.0,0.0,0.0,0.0,0.0,0.0,-0.15722397,-0.031924885,-0.9871876,-0.9491577,0.024536133,-0.114868164,0.053710938,0.15527344,0.0107421875,4.231516,-3.2550251,-0.6609441,-20.437843,-0.95391846,0.059570312,0.13580322,0.044921875,0.025390625,0.0146484375,5.9052477,-5.1716976,-57.32128,-14.433574,0.602417,0.380188,0.72052,-0.005859375,0.016601562,-0.0146484375,18.568703,-2.2006269,-129.16116,-10.35012,0.0,0.0,0.0,0.0,0.0,0.0,0.0,-20.797535,-128.61623,-3.006042,0.0,0.0,0.0,0.0,0.0,0.0,0.0,0.15722397,0.031924885,0.9871876,-0.9158325,0.052246094,-0.37799072,0.07421875,-0.17285156,-0.125,7.0418024,3.2550251,0.6609441,20.437843,-0.9682007,0.0848999,-0.14099121,-0.09863281,0.051757812,-0.0390625,9.726092,0.49466848,-56.082676,15.693099,0.58947754,-0.3727417,0.7672119,0.032226562,0.01953125,-0.016601562,14.263358,7.9568663,-127.22005,7.317912,0.0,0.0,0.0,0.0,0.0,0.0,0.0,-9.604432,-124.59547,-1.8924761,-0.9844971,-0.1538086,-0.085510254,-0.13183594,0.23046875,-0.24609375,0.0,0.60944605,44.97537,-1.551532,
1.5624999767169359,80,-0.91955566,-0.053527832,0.5023804,0.020507812,-0.087890625,9.765625E-4,0.0,0.0,0.0,0.0,0.0,0.0,0.0,0.0,0.0,0.0,0.0,-0.1611638,-0.031111535,-0.9866127,-0.95025635,0.022644043,-0.12963867,0.034179688,0.009765625,0.0107421875,4.2064023,-3.3365893,-0.6441052,-20.425941,-0.9647217,0.10058594,0.13104248,0.0048828125,-0.047851562,0.0146484375,5.854074,-5.1704283,-57.30541,-14.456285,0.5757446,0.3453369,0.73876953,-0.005859375,-0.021484375,-0.034179688,18.592882,-2.2063296,-129.15147,-10.473895,0.0,0.0,0.0,0.0,0.0,0.0,0.0,-20.801445,-128.60663,-3.1201687,0.0,0.0,0.0,0.0,0.0,0.0,0.0,0.1611638,0.031111535,0.9866127,-0.9197998,0.039489746,-0.38708496,0.08984375,-0.053710938,-0.140625,6.938931,3.3365893,0.6441052,20.425941,-0.97924805,0.06512451,-0.09124756,-0.0625,-0.025390625,-0.037109375,9.535886,0.8794639,-56.11084,15.658701,0.5802002,-0.3425293,0.7461548,-0.0048828125,0.0,-0.03515625,14.445917,8.499509,-127.24189,7.3453474,0.0,0.0,0.0,0.0,0.0,0.0,0.0,-9.0472975,-124.64198,-1.8991098,-0.9834595,-0.15679932,-0.08062744,-0.07421875,0.24902344,-0.16992188,0.0,0.63109237,44.977642,-1.5214002,
1.5820312264258976,81,-0.9066162,-0.056518555,0.5120239,0.13378906,-0.18066406,-0.056640625,0.0,0.0,0.0,0.0,0.0,0.0,0.0,0.0,0.0,0.0,0.0,-0.1656797,-0.029956395,-0.9858493,-0.9657593,0.06341553,-0.13891602,0.22265625,0.044921875,0.028320312,4.219883,-3.430082,-0.62019026,-20.410137,-0.9882202,0.08721924,0.1517334,-0.013671875,-0.029296875,0.0146484375,5.8236938,-5.2186713,-57.2884,-14.471675,0.58117676,0.36865234,0.74401855,0.013671875,-0.0029296875,-0.033203125,18.783941,-2.2557216,-129.13757,-10.550017,0.0,0.0,0.0,0.0,0.0,0.0,0.0,-20.867008,-128.60681,-3.24223,0.0,0.0,0.0,0.0,0.0,0.0,0.0,0.1656797,0.029956395,0.9858493,-0.9168091,0.044128418,-0.33654785,0.15429688,-0.059570312,-0.14941406,6.807576,3.430082,0.62019026,20.410137,-0.94641113,0.066467285,-0.10736084,0.06738281,0.01171875,-0.001953125,9.31437,1.2308304,-56.145706,15.655317,0.57037354,-0.3508911,0.76123047,-0.00390625,0.037109375,0.020507812,14.43414,8.89858,-127.27731,7.3874903,0.0,0.0,0.0,0.0,0.0,0.0,0.0,-8.644675,-124.69731,-1.8715658,-0.9824219,-0.14691162,-0.09136963,-0.11328125,0.22949219,-0.15136719,0.0,0.6402345,44.976826,-1.4742794,
1.6015624761348592,82,-0.8704834,-0.04284668,0.4855957,0.09667969,-0.16210938,-0.056640625,0.0,0.0,0.0,0.0,0.0,0.0,0.0,0.0,0.0,0.0,0.0,-0.16916499,-0.02974889,-0.98526126,-0.93408203,0.10498047,-0.11236572,0.2421875,0.15429688,0.046875,4.145812,-3.5022385,-0.6158943,-20.397963,-0.9683838,0.04852295,0.17932129,-0.033203125,-0.028320312,-0.0048828125,5.642815,-5.158987,-57.301476,-14.572419,0.58032227,0.37542725,0.7618408,-0.005859375,0.016601562,-0.033203125,18.807037,-2.20547,-129.1499,-10.645949,0.0,0.0,0.0,0.0,0.0,0.0,0.0,-20.815601,-128.62494,-3.3349633,0.0,0.0,0.0,0.0,0.0,0.0,0.0,0.16916499,0.02974889,0.98526126,-0.94311523,0.07574463,-0.31988525,0.23828125,-0.06542969,-0.13867188,6.723479,3.5022385,0.6158943,20.397963,-0.9719238,0.07849121,-0.0793457,0.125,0.0126953125,-0.040039062,9.140843,1.4643989,-56.16328,15.69197,0.58514404,-0.38238525,0.74731445,-0.00390625,0.037109375,0.020507812,14.289269,9.094013,-127.28999,7.401679,0.0,0.0,0.0,0.0,0.0,0.0,0.0,-8.453386,-124.71074,-1.850009,-0.9569702,-0.14990234,-0.10736084,-0.07421875,0.24902344,-0.15039062,0.0,0.5220443,44.979115,-1.4477282,
1.621093725843821,83,-0.8543091,-0.068481445,0.48693848,0.13378906,-0.125,-0.01953125,0.0,0.0,0.0,0.0,0.0,0.0,0.0,0.0,0.0,0.0,0.0,-0.17038211,-0.029059177,-0.9850994,-0.9625244,0.07385254,-0.08154297,0.109375,0.099609375,-0.0078125,4.092229,-3.5274386,-0.6016151,-20.394611,-0.9683838,0.04852295,0.17932129,-0.033203125,-0.028320312,-0.0048828125,5.518711,-5.099343,-57.300034,-14.666597,0.57647705,0.32977295,0.7267456,0.013671875,-0.0029296875,-0.033203125,18.694838,-2.1458259,-129.14847,-10.740128,0.0,0.0,0.0,0.0,0.0,0.0,0.0,-20.74093,-128.61443,-3.3916264,0.0,0.0,0.0,0.0,0.0,0.0,0.0,0.17038211,0.029059177,0.9850994,-0.9453125,0.11419678,-0.30529785,0.25390625,-0.08105469,-0.13378906,6.6339774,3.5274386,0.6016151,20.394611,-0.94732666,0.10809326,-0.06665039,0.12402344,0.01171875,-0.0029296875,9.05714,1.5204539,-56.181133,15.7367325,0.56030273,-0.375,0.7644043,-0.0048828125,0.018554688,-0.016601562,13.957998,9.045929,-127.30861,7.3559217,0.0,0.0,0.0,0.0,0.0,0.0,0.0,-8.504601,-124.73692,-1.8905687,-0.9581299,-0.17877197,-0.13397217,-0.036132812,0.22949219,-0.11328125,0.0,0.47415894,44.982086,-1.4089243,
1.6406249755527826,84,-0.8793335,-0.048828125,0.4638672,0.09667969,-0.125,0.018554688,0.0,0.0,0.0,0.0,0.0,0.0,0.0,0.0,0.0,0.0,0.0,-0.17449063,-0.029069405,-0.9844087,-0.986145,0.10998535,-0.12237549,0.12890625,0.099609375,-0.026367188,3.9989004,-3.612498,-0.6018268,-20.380312,-0.9595337,0.07751465,0.20135498,-0.051757812,-0.0087890625,-0.024414062,5.3313093,-5.1182013,-57.3097,-14.752777,0.59942627,0.37512207,0.74902344,0.033203125,0.016601562,-0.033203125,19.068027,-2.2627566,-129.15933,-10.798165,0.0,0.0,0.0,0.0,0.0,0.0,0.0,-20.870113,-128.6383,-3.4752746,0.0,0.0,0.0,0.0,0.0,0.0,0.0,0.17449063,0.029069405,0.9844087,-0.9484863,0.1496582,-0.29571533,0.2861328,-0.09375,-0.12890625,6.61681,3.612498,0.6018268,20.380312,-0.958313,0.10534668,-0.059570312,0.068359375,0.05078125,-0.0029296875,9.044852,1.4807346,-56.181324,15.776999,0.55792236,-0.3965454,0.7435913,-0.0048828125,0.018554688,-0.016601562,13.57777,8.786577,-127.32153,7.2779436,0.0,0.0,0.0,0.0,0.0,0.0,0.0,-8.786211,-124.738174,-1.9229641,-0.9805298,-0.19415283,-0.13128662,-0.017578125,0.24902344,-0.11230469,0.0,0.42596197,44.984013,-1.4038731,
1.6601562252617443,85,-0.8864746,-0.058532715,0.4956665,0.11425781,-0.06933594,0.018554688,0.0,0.0,0.0,0.0,0.0,0.0,0.0,0.0,0.0,0.0,0.0,-0.17812306,-0.028513227,-0.98372597,-0.9720459,0.11462402,-0.12750244,-0.15429688,0.2841797,0.01171875,3.7426667,-3.6876998,-0.5903122,-20.366179,-0.9532471,0.087402344,0.1885376,-0.0126953125,0.02734375,-0.0048828125,5.0642657,-5.0748096,-57.328014,-14.9716625,0.5940552,0.35864258,0.7418823,0.013671875,0.016601562,-0.033203125,19.305355,-2.2660255,-129.17844,-10.99124,0.0,0.0,0.0,0.0,0.0,0.0,0.0,-20.882957,-128.66354,-3.6926742,0.0,0.0,0.0,0.0,0.0,0.0,0.0,0.17812306,0.028513227,0.98372597,-0.94854736,0.16741943,-0.29833984,0.1953125,-0.13867188,-0.1328125,6.5554132,3.6876998,0.5903122,20.366179,-0.94470215,0.08746338,-0.059692383,-0.024414062,0.08984375,-0.0029296875,9.16105,1.3617649,-56.191307,15.842273,0.5745239,-0.3449707,0.7681885,-0.0048828125,0.0,-0.016601562,13.206857,8.5126505,-127.33589,7.2177343,0.0,0.0,0.0,0.0,0.0,0.0,0.0,-9.066947,-124.75999,-1.9722815,-0.97039795,-0.19799805,-0.1453247,-0.13183594,0.17285156,-0.15136719,0.0,0.47996867,44.981743,-1.3907005,
1.679687474970706,86,-0.90270996,-0.028930664,0.4923706,0.095703125,-0.068359375,-0.018554688,0.0,0.0,0.0,0.0,0.0,0.0,0.0,0.0,0.0,0.0,0.0,-0.18279439,-0.028945733,-0.9828487,-0.98950195,0.0770874,-0.042541504,-0.059570312,0.13769531,-0.026367188,3.5618894,-3.7844102,-0.5992664,-20.348015,-0.9619751,0.09436035,0.14593506,-0.03125,0.046875,-0.04296875,4.9202785,-5.1064525,-57.34294,-15.079073,0.5720825,0.3670044,0.729187,0.033203125,-0.022460938,-0.07128906,19.523935,-2.3613079,-129.20007,-11.146963,0.0,0.0,0.0,0.0,0.0,0.0,0.0,-20.975391,-128.68665,-3.8433256,0.0,0.0,0.0,0.0,0.0,0.0,0.0,0.18279439,0.028945733,0.9828487,-0.95458984,0.1694336,-0.30023193,0.10449219,-0.1640625,-0.15625,6.567368,3.7844102,0.5992664,20.348015,-0.9567871,0.08276367,-0.054626465,-0.060546875,0.11035156,-0.040039062,9.343485,1.2334139,-56.179276,15.902312,0.5701904,-0.38568115,0.7564087,-0.0029296875,0.09472656,-0.017578125,12.956099,8.287103,-127.32232,7.1998835,0.0,0.0,0.0,0.0,0.0,0.0,0.0,-9.301406,-124.73901,-1.9707556,-0.9550781,-0.19213867,-0.16314697,-0.11328125,0.2109375,-0.15136719,0.0,0.51070654,44.98017,-1.419688,
1.6992187246796677,87,-0.88220215,-0.06262207,0.45587158,0.095703125,-0.08691406,-0.037109375,0.0,0.0,0.0,0.0,0.0,0.0,0.0,0.0,0.0,0.0,0.0,-0.1861699,-0.027854633,-0.9822602,-0.9953003,0.10424805,-0.12524414,0.16601562,-0.009765625,-0.02734375,3.6285496,-3.854294,-0.57667726,-20.33583,-0.9614258,0.07922363,0.159729,-0.05078125,0.046875,-0.0625,4.9523463,-5.2154055,-57.31875,-15.054876,0.59552,0.38708496,0.73046875,0.052734375,-0.0029296875,-0.0703125,19.649757,-2.4995782,-129.1782,-11.15103,0.0,0.0,0.0,0.0,0.0,0.0,0.0,-21.107765,-128.6569,-3.8296437,0.0,0.0,0.0,0.0,0.0,0.0,0.0,0.1861699,0.027854633,0.9822602,-0.9555664,0.15649414,-0.2796631,0.06542969,-0.20214844,-0.15527344,6.4507203,3.854294,0.57667726,20.33583,-0.9553833,0.095214844,-0.0357666,-0.022460938,0.16699219,-0.00390625,9.632984,1.0390499,-56.195965,16.035206,0.57232666,-0.37890625,0.7663574,0.032226562,0.001953125,-0.053710938,12.712418,8.065124,-127.33893,7.2716465,0.0,0.0,0.0,0.0,0.0,0.0,0.0,-9.532418,-124.7527,-1.8820095,-0.97631836,-0.15826416,-0.128479,-0.036132812,0.20996094,-0.055664062,0.0,0.5358122,44.981815,-1.3771341,
1.7187499743886294,88,-0.87731934,-0.072387695,0.49139404,0.078125,-0.18066406,-0.018554688,0.0,0.0,0.0,0.0,0.0,0.0,0.0,0.0,0.0,0.0,0.0,-0.18857506,-0.026606806,-0.98187727,-0.93530273,0.088378906,-0.13421631,-0.078125,0.19238281,-0.043945312,3.5535793,-3.9040887,-0.55084336,-20.327902,-0.97369385,0.06890869,0.15264893,-0.0703125,0.047851562,-0.0625,4.7909694,-5.1900263,-57.313152,-15.221764,0.5795288,0.39318848,0.73742676,0.091796875,-0.022460938,-0.10839844,19.684895,-2.4796646,-129.1682,-11.308604,0.0,0.0,0.0,0.0,0.0,0.0,0.0,-21.082745,-128.6335,-3.9784446,0.0,0.0,0.0,0.0,0.0,0.0,0.0,0.18857506,0.026606806,0.98187727,-0.9484863,0.15258789,-0.29071045,0.026367188,-0.24121094,-0.15429688,6.3698754,3.9040887,0.55084336,20.327902,-0.9417114,0.08734131,-0.055725098,-0.17089844,0.24511719,0.0146484375,10.019361,0.83419657,-56.218307,16.166485,0.5803833,-0.3708496,0.7662964,0.06933594,0.041015625,-0.091796875,12.732732,7.966534,-127.340294,7.326689,0.0,0.0,0.0,0.0,0.0,0.0,0.0,-9.644962,-124.752975,-1.7995567,-0.9520874,-0.18383789,-0.12408447,-0.017578125,0.19140625,-0.017578125,0.0,0.4454225,44.98679,-1.3045933,
1.7382812240975911,89,-0.8463135,-0.053771973,0.47302246,-0.052734375,-0.19921875,0.001953125,0.0,0.0,0.0,0.0,0.0,0.0,0.0,0.0,0.0,0.0,0.0,-0.19077146,-0.025886804,-0.9814713,-0.9499512,0.0413208,-0.12158203,-0.11621094,0.17480469,-0.0068359375,3.4554741,-3.9495616,-0.5359371,-20.3195,-0.961792,0.0647583,0.13677979,-0.05078125,0.046875,-0.04296875,4.611124,-5.1404467,-57.314114,-15.384747,0.5910034,0.35888672,0.7241821,0.091796875,-0.022460938,-0.08984375,19.9215,-2.4529257,-129.17325,-11.479764,0.0,0.0,0.0,0.0,0.0,0.0,0.0,-21.061954,-128.62239,-4.163715,0.0,0.0,0.0,0.0,0.0,0.0,0.0,0.19077146,0.025886804,0.9814713,-0.9463501,0.124938965,-0.28729248,0.028320312,-0.24316406,-0.13671875,6.3092875,3.9495616,0.5359371,20.3195,-0.946167,0.07110596,-0.08154297,-0.15429688,0.18652344,0.034179688,10.390991,0.6340418,-56.23493,16.336931,0.5673218,-0.36694336,0.76434326,0.049804688,0.040039062,-0.111328125,12.798309,7.8810325,-127.35033,7.522414,0.0,0.0,0.0,0.0,0.0,0.0,0.0,-9.756607,-124.78808,-1.5585737,-0.9622803,-0.2019043,-0.15435791,-0.11328125,0.22851562,-0.055664062,0.0,0.3437556,44.989098,-1.2534271,
1.7578124738065528,90,-0.89489746,-0.08831787,0.43206787,0.022460938,-0.21777344,-0.055664062,0.0,0.0,0.0,0.0,0.0,0.0,0.0,0.0,0.0,0.0,0.0,-0.1970109,-0.023977486,-0.980262,-0.9416504,0.06188965,-0.12646484,0.11035156,0.17285156,-0.026367188,3.4583628,-4.0787363,-0.4964083,-20.294464,-0.99749756,0.078308105,0.17053223,-0.109375,0.030273438,-0.0625,4.4632635,-5.1287594,-57.289482,-15.458527,0.6129761,0.35473633,0.6965332,0.11035156,0.053710938,-0.107421875,20.183865,-2.4306877,-129.14815,-11.598507,0.0,0.0,0.0,0.0,0.0,0.0,0.0,-21.057201,-128.6035,-4.3321114,0.0,0.0,0.0,0.0,0.0,0.0,0.0,0.1970109,0.023977486,0.980262,-0.94525146,0.10333252,-0.30548096,0.045898438,-0.22167969,-0.15429688,6.1726966,4.0787363,0.4964083,20.294464,-0.95617676,0.07342529,-0.09838867,-0.022460938,0.20507812,0.013671875,10.731044,0.64640236,-56.278557,16.446058,0.56622314,-0.3647461,0.7543335,0.087890625,0.041015625,-0.091796875,12.742675,8.148975,-127.35857,7.671505,0.0,0.0,0.0,0.0,0.0,0.0,0.0,-9.480892,-124.83072,-1.4335518,-0.99780273,-0.19592285,-0.13031006,-0.17089844,0.17089844,-0.055664062,0.0,0.29340327,44.990894,-1.1594576,
1.7773437235155145,91,-0.90197754,-0.08630371,0.44415283,0.022460938,-0.23632812,-0.09277344,0.0,0.0,0.0,0.0,0.0,0.0,0.0,0.0,0.0,0.0,0.0,-0.2026873,-0.022781424,-0.9790571,-0.96832275,0.093933105,-0.13366699,0.09082031,0.24511719,-0.026367188,3.3221908,-4.196256,-0.47164613,-20.269516,-0.99749756,0.078308105,0.17053223,-0.109375,0.030273438,-0.0625,4.2366962,-5.0929375,-57.284943,-15.625474,0.5811157,0.36688232,0.72528076,0.14941406,-0.041992188,-0.14550781,20.181509,-2.3948658,-129.14362,-11.765453,0.0,0.0,0.0,0.0,0.0,0.0,0.0,-21.02102,-128.58847,-4.4972496,0.0,0.0,0.0,0.0,0.0,0.0,0.0,0.2026873,0.022781424,0.9790571,-0.9451904,0.07867432,-0.3139038,0.14941406,-0.20898438,-0.14453125,5.9924693,4.196256,0.47164613,20.269516,-0.9627075,0.094055176,-0.09234619,-0.05859375,0.24511719,-0.024414062,11.060141,0.7299924,-56.313488,16.602184,0.5640869,-0.38763428,0.7504883,0.10546875,0.00390625,-0.091796875,12.89858,8.551813,-127.36726,7.838954,0.0,0.0,0.0,0.0,0.0,0.0,0.0,-9.102049,-124.87378,-1.2300673,-1.020935,-0.17840576,-0.19366455,-0.07519531,0.19042969,-0.017578125,0.0,0.25703305,44.98928,-1.1000557,
1.7968749732244762,92,-0.8804321,-0.041870117,0.46990967,-0.053710938,-0.14257812,-0.109375,0.0,0.0,0.0,0.0,0.0,0.0,0.0,0.0,0.0,0.0,0.0,-0.2073479,-0.021344349,-0.97818744,-0.9641113,0.10949707,-0.112854004,0.053710938,0.20898438,-0.026367188,3.234343,-4.292745,-0.44189417,-20.251514,-0.95269775,0.0715332,0.19140625,-0.14746094,0.049804688,-0.0625,3.9971373,-5.0567074,-57.26993,-15.796369,0.59259033,0.3949585,0.7305298,0.20800781,-0.0234375,-0.18261719,20.263165,-2.3744283,-129.13002,-11.865065,0.0,0.0,0.0,0.0,0.0,0.0,0.0,-20.98495,-128.54216,-4.5571346,0.0,0.0,0.0,0.0,0.0,0.0,0.0,0.2073479,0.021344349,0.97818744,-0.94317627,0.08544922,-0.2890625,0.099609375,-0.19824219,-0.15234375,5.8397927,4.292745,0.44189417,20.251514,-0.9481201,0.07519531,-0.09246826,-0.021484375,0.3017578,0.030273438,11.333257,0.81202936,-56.35182,16.742193,0.5805664,-0.3590088,0.7752075,0.068359375,0.021484375,-0.091796875,12.904881,8.908388,-127.37669,7.979954,0.0,0.0,0.0,0.0,0.0,0.0,0.0,-8.759691,-124.90124,-1.0659971,-0.9755249,-0.21063232,-0.14160156,-0.11328125,0.15136719,0.09667969,0.0,0.16926983,44.994915,-1.017683,
1.816406222933438,93,-0.8485718,-0.028076172,0.48132324,-0.053710938,-0.14257812,-0.14746094,0.0,0.0,0.0,0.0,0.0,0.0,0.0,0.0,0.0,0.0,0.0,-0.2105039,-0.02072353,-0.9775267,-0.98864746,0.07043457,-0.09008789,0.12890625,0.20898438,-0.0078125,3.1714468,-4.3580847,-0.4290413,-20.237835,-0.961792,0.032592773,0.17034912,-0.18457031,0.087890625,-0.08203125,3.8672583,-4.988311,-57.264847,-15.87063,0.5741577,0.432312,0.7507324,0.20898438,-0.099609375,-0.18261719,20.220602,-2.216456,-129.11537,-11.828541,0.0,0.0,0.0,0.0,0.0,0.0,0.0,-20.822771,-128.50339,-4.5135436,0.0,0.0,0.0,0.0,0.0,0.0,0.0,0.2105039,0.02072353,0.9775267,-0.9342041,0.10601807,-0.27191162,0.16894531,-0.18945312,-0.14453125,5.706091,4.3580847,0.4290413,20.237835,-0.94573975,0.0914917,-0.072631836,0.12890625,0.32128906,0.009765625,11.64422,0.8034475,-56.37094,16.924265,0.56121826,-0.36889648,0.7593994,0.10546875,0.0234375,-0.11035156,12.800406,9.138748,-127.36697,8.184105,0.0,0.0,0.0,0.0,0.0,0.0,0.0,-8.543613,-124.9263,-0.8436184,-0.9351196,-0.24212646,-0.15136719,-0.19042969,0.036132812,0.171875,0.0,0.14514737,44.99573,-0.9851643,
1.8359374726423996,94,-0.82855225,-0.038879395,0.5025635,0.001953125,-0.08691406,-0.12890625,0.0,0.0,0.0,0.0,0.0,0.0,0.0,0.0,0.0,0.0,0.0,-0.21230716,-0.018286312,-0.97719127,-0.98968506,0.068481445,-0.092041016,-0.0029296875,0.26464844,-0.043945312,3.2440736,-4.3954153,-0.37858334,-20.23089,-0.9873657,0.051574707,0.21105957,-0.087890625,0.0859375,-0.08105469,3.8171084,-4.9195266,-57.222126,-15.956764,0.5741577,0.432312,0.7507324,0.20898438,-0.099609375,-0.18261719,20.16177,-1.9838934,-129.05766,-11.787806,0.0,0.0,0.0,0.0,0.0,0.0,0.0,-20.59021,-128.44568,-4.4728084,0.0,0.0,0.0,0.0,0.0,0.0,0.0,0.21230716,0.018286312,0.97719127,-0.95147705,0.14855957,-0.26800537,0.18457031,-0.20410156,-0.140625,5.5934186,4.3954153,0.37858334,20.23089,-0.9359741,0.08050537,-0.06970215,-0.078125,0.28320312,0.03125,12.063004,0.6776204,-56.42202,17.115704,0.60443115,-0.37145996,0.762146,0.12402344,0.0234375,-0.12890625,12.588399,9.264866,-127.3867,8.353651,0.0,0.0,0.0,0.0,0.0,0.0,0.0,-8.421707,-125.00874,-0.68196297,-0.9390259,-0.21881104,-0.14282227,0.020507812,0.18945312,0.15429688,0.0,0.05703625,44.99886,-0.85446167,
1.8554687223513613,95,-0.8703003,-0.05670166,0.47155762,-0.0546875,-0.08691406,-0.14648438,0.0,0.0,0.0,0.0,0.0,0.0,0.0,0.0,0.0,0.0,0.0,-0.2127007,-0.016373862,-0.97711825,-0.97784424,0.05657959,-0.11114502,-0.041015625,0.28320312,-0.043945312,3.1995327,-4.403564,-0.33898973,-20.229376,-0.95635986,0.04901123,0.18334961,-0.030273438,0.083984375,-0.08105469,3.672425,-4.742708,-57.193703,-16.085909,0.5687256,0.41522217,0.69732666,0.16992188,-0.099609375,-0.10839844,20.259792,-1.6631453,-129.01291,-11.781376,0.0,0.0,0.0,0.0,0.0,0.0,0.0,-20.274668,-128.39027,-4.47686,0.0,0.0,0.0,0.0,0.0,0.0,0.0,0.2127007,0.016373862,0.97711825,-0.97161865,0.14672852,-0.27575684,0.05859375,-0.25390625,-0.1484375,5.5049157,4.403564,0.33898973,20.229376,-0.95422363,0.06842041,-0.08648682,-0.1328125,0.3798828,0.048828125,12.560839,0.49288845,-56.45716,17.29075,0.5739746,-0.31256104,0.79296875,0.14160156,0.024414062,-0.16699219,12.463958,9.412,-127.3787,8.518543,0.0,0.0,0.0,0.0,0.0,0.0,0.0,-8.290196,-125.08089,-0.5077934,-0.965271,-0.18347168,-0.14300537,0.040039062,0.17089844,0.09667969,0.0,0.06797311,44.999447,-0.7688657,
1.874999972060323,96,-0.88031006,-0.058654785,0.46380615,0.001953125,-0.14257812,-0.11035156,0.0,0.0,0.0,0.0,0.0,0.0,0.0,0.0,0.0,0.0,0.0,-0.21491992,-0.014615964,-0.97666633,-0.9552002,0.028747559,-0.14630127,-0.022460938,0.17382812,-0.026367188,3.2176542,-4.4495096,-0.30259573,-20.22002,-0.95684814,-0.0049438477,0.15325928,0.009765625,0.12011719,-0.099609375,3.6409934,-4.6156754,-57.16395,-16.155092,0.5822754,0.38171387,0.70184326,0.13085938,-0.099609375,-0.10839844,20.310593,-1.3008704,-128.96869,-11.746451,0.0,0.0,0.0,0.0,0.0,0.0,0.0,-19.920256,-128.37498,-4.4641204,0.0,0.0,0.0,0.0,0.0,0.0,0.0,0.21491992,0.014615964,0.97666633,-0.9786377,0.13189697,-0.262146,-0.0625,-0.2685547,-0.16015625,5.448883,4.4495096,0.30259573,20.22002,-0.9385376,0.055358887,-0.08758545,-0.16796875,0.4951172,0.06542969,13.180972,0.31665468,-56.49235,17.507803,0.5883179,-0.35455322,0.7531738,0.08691406,0.0234375,-0.1484375,12.536365,9.699207,-127.359055,8.808582,0.0,0.0,0.0,0.0,0.0,0.0,0.0,-8.01395,-125.13051,-0.21559334,-0.98950195,-0.17797852,-0.17474365,-0.037109375,0.13378906,0.01953125,0.0,0.055139974,45.001072,-0.68558186,
1.8945312217692847,97,-0.86065674,-0.02508545,0.48754883,-0.017578125,-0.0126953125,-0.09082031,0.0,0.0,0.0,0.0,0.0,0.0,0.0,0.0,0.0,0.0,0.0,-0.21641427,-0.013799479,-0.9763905,-0.98480225,-0.010009766,-0.15112305,0.053710938,0.22753906,-0.026367188,3.2273746,-4.480446,-0.285692,-20.214312,-0.9906616,0.036865234,0.1484375,0.10546875,0.09863281,-0.080078125,3.6307611,-4.4340014,-57.14937,-16.175077,0.5864258,0.39135742,0.7078247,0.15039062,-0.060546875,-0.07128906,20.38345,-0.8637948,-128.938,-11.795271,0.0,0.0,0.0,0.0,0.0,0.0,0.0,-19.487242,-128.35683,-4.5170064,0.0,0.0,0.0,0.0,0.0,0.0,0.0,0.21641427,0.013799479,0.9763905,-0.96343994,0.10797119,-0.23498535,-0.09863281,-0.328125,-0.12207031,5.3993874,4.480446,0.285692,20.214312,-0.9373779,0.070251465,-0.11340332,-0.20605469,0.51464844,0.08496094,13.951129,0.083798885,-56.500473,17.782232,0.5602417,-0.37695312,0.7624512,0.08496094,-0.051757812,-0.16699219,12.714016,10.000412,-127.286606,9.012094,0.0,0.0,0.0,0.0,0.0,0.0,0.0,-7.739422,-125.114334,0.027443886,-0.9580078,-0.17041016,-0.18457031,-0.017578125,0.1328125,0.095703125,0.0,0.1116876,45.003197,-0.66079247,
1.9140624714782464,98,-0.86639404,-0.03704834,0.45581055,0.01953125,-0.0126953125,-0.11035156,0.0,0.0,0.0,0.0,0.0,0.0,0.0,0.0,0.0,0.0,0.0,-0.2201497,-0.01185333,-0.9755633,-0.9511719,0.026611328,-0.12762451,0.20410156,0.2265625,-0.026367188,3.2906904,-4.55778,-0.24540067,-20.197182,-0.9725952,0.039978027,0.16442871,0.06738281,0.119140625,-0.099609375,3.5122917,-4.2394276,-57.11326,-16.227385,0.6055298,0.39105225,0.704895,0.16894531,-0.060546875,-0.10839844,20.605572,-0.45983458,-128.89874,-11.860117,0.0,0.0,0.0,0.0,0.0,0.0,0.0,-19.091532,-128.32999,-4.6067276,0.0,0.0,0.0,0.0,0.0,0.0,0.0,0.2201497,0.01185333,0.9755633,-0.95928955,0.080322266,-0.23358154,-0.06347656,-0.34277344,-0.09863281,5.2765574,4.55778,0.24540067,20.197182,-0.9602661,0.077697754,-0.12219238,-0.24316406,0.5527344,0.12109375,14.788816,-0.07297325,-56.535923,18.072748,0.5936279,-0.33483887,0.7709961,0.17871094,-0.01171875,-0.16601562,12.957058,10.475702,-127.21916,9.192266,0.0,0.0,0.0,0.0,0.0,0.0,0.0,-7.2944107,-125.10836,0.25288868,-0.9458618,-0.19165039,-0.20800781,0.040039062,0.11425781,0.13378906,0.0,0.19235684,45.003143,-0.5902071,
1.933593721187208,99,-0.8272095,-0.072509766,0.48632812,0.01953125,0.0068359375,-0.12890625,0.0,0.0,0.0,0.0,0.0,0.0,0.0,0.0,0.0,0.0,0.0,-0.22315398,-0.010089687,-0.97488934,-0.94451904,0.07684326,-0.15594482,0.2607422,0.18945312,0.009765625,3.3335452,-4.6199794,-0.2088878,-20.183231,-0.96972656,0.03338623,0.13562012,0.009765625,0.12011719,-0.08105469,3.4708517,-4.073664,-57.085026,-16.324894,0.5737915,0.4199829,0.70233154,0.15039062,-0.080078125,-0.12695312,20.713865,-0.055099964,-128.8615,-12.081904,0.0,0.0,0.0,0.0,0.0,0.0,0.0,-18.68874,-128.29276,-4.8311234,0.0,0.0,0.0,0.0,0.0,0.0,0.0,0.22315398,0.010089687,0.97488934,-0.9633179,0.07543945,-0.23565674,-0.09082031,-0.375,-0.13085938,5.125029,4.6199794,0.2088878,20.183231,-0.9328613,0.056762695,-0.14227295,-0.22460938,0.61035156,0.15820312,15.742592,-0.23539877,-56.56192,18.42039,0.5853882,-0.36169434,0.76220703,0.140625,-0.06933594,-0.16601562,13.2872,11.093439,-127.11432,9.461,0.0,0.0,0.0,0.0,0.0,0.0,0.0,-6.6879387,-125.07907,0.52679825,-0.95910645,-0.1906128,-0.20397949,0.040039062,0.1328125,0.115234375,0.0,0.30511665,45.002724,-0.53560066,
1.9531249708961698,100,-0.8305664,-0.045776367,0.51049805,0.01953125,0.025390625,-0.14746094,0.0,0.0,0.0,0.0,0.0,0.0,0.0,0.0,0.0,0.0,0.0,-0.22485244,-0.00726613,-0.97444415,-0.93914795,0.029541016,-0.16040039,0.16699219,0.3173828,-0.026367188,3.3895156,-4.6551423,-0.15043142,-20.174015,-0.9686279,0.03704834,0.15350342,0.029296875,0.12011719,-0.099609375,3.3536294,-3.8409817,-57.033375,-16.522362,0.59643555,0.3902588,0.6959839,0.15039062,-0.060546875,-0.12695312,20.80585,0.41608024,-128.80106,-12.316924,0.0,0.0,0.0,0.0,0.0,0.0,0.0,-18.217417,-128.21326,-5.0679946,0.0,0.0,0.0,0.0,0.0,0.0,0.0,0.22485244,0.00726613,0.97444415,-0.96325684,0.06365967,-0.25170898,-9.765625E-4,-0.3857422,-0.08496094,5.034155,4.6551423,0.15043142,20.174015,-0.94799805,0.05340576,-0.1619873,-0.14941406,0.68652344,0.17480469,16.757542,-0.40552425,-56.617634,18.753143,0.5625,-0.33416748,0.7681885,0.140625,-0.05078125,-0.16601562,13.7051525,11.815628,-127.00398,9.71867,0.0,0.0,0.0,0.0,0.0,0.0,0.0,-5.991104,-125.046135,0.82030296,-0.9733887,-0.2107544,-0.2133789,0.059570312,0.20898438,0.09667969,0.0,0.35918555,45.00006,-0.41843343,
1.9726562206051315,101,-0.85150146,-0.045776367,0.49505615,0.01953125,-0.01171875,-0.16601562,0.0,0.0,0.0,0.0,0.0,0.0,0.0,0.0,0.0,0.0,0.0,-0.22748318,-0.004492716,-0.97393787,-0.9633179,0.016967773,-0.11767578,0.18554688,0.2626953,0.0107421875,3.5579846,-4.7096076,-0.093013145,-20.163534,-0.9874878,0.044311523,0.17034912,0.047851562,0.10058594,-0.099609375,3.3021526,-3.6671607,-56.981087,-16.60843,0.5604248,0.3945923,0.73254395,0.14941406,-0.00390625,-0.12597656,20.931408,0.8284972,-128.73676,-12.446943,0.0,0.0,0.0,0.0,0.0,0.0,0.0,-17.80546,-128.14055,-5.1979623,0.0,0.0,0.0,0.0,0.0,0.0,0.0,0.22748318,0.004492716,0.97393787,-0.9581909,0.06463623,-0.25073242,0.09863281,-0.40625,-0.0703125,5.0342717,4.7096076,0.093013145,20.163534,-0.94122314,0.09033203,-0.15710449,-0.01953125,0.70410156,0.22851562,17.852169,-0.586885,-56.656517,19.030386,0.5748291,-0.30133057,0.7809448,0.13964844,-0.06933594,-0.20410156,14.017564,12.609976,-126.861176,9.897453,0.0,0.0,0.0,0.0,0.0,0.0,0.0,-5.206312,-124.99378,0.99687386,-0.97631836,-0.18170166,-0.19976807,0.05859375,0.095703125,0.057617188,0.0,0.4203031,45.004284,-0.30577242,
1.9921874703140932,102,-0.84954834,-0.048706055,0.5088501,0.09375,0.025390625,-0.16699219,0.0,0.0,0.0,0.0,0.0,0.0,0.0,0.0,0.0,0.0,0.0,-0.23054248,-0.0016828491,-0.9732122,-0.97265625,0.074523926,-0.16931152,0.35546875,0.3154297,-0.0078125,3.7004697,-4.772943,-0.03484018,-20.148506,-0.97735596,0.016052246,0.18310547,0.06738281,0.119140625,-0.11816406,3.133941,-3.4441814,-56.927326,-16.76764,0.56396484,0.43084717,0.71624756,0.20800781,-0.080078125,-0.10839844,21.152,1.2337742,-128.66899,-12.62453,0.0,0.0,0.0,0.0,0.0,0.0,0.0,-17.406826,-128.08598,-5.394552,0.0,0.0,0.0,0.0,0.0,0.0,0.0,0.23054248,0.0016828491,0.9732122,-0.95825195,0.078430176,-0.24945068,0.12402344,-0.46972656,-0.057617188,5.0724225,4.772943,0.03484018,20.148506,-0.930542,0.08856201,-0.19494629,0.0,0.74316406,0.20898438,19.001736,-0.73721886,-56.699352,19.337473,0.59747314,-0.33953857,0.75701904,0.10253906,-0.107421875,-0.20410156,14.445177,13.502504,-126.685776,10.075457,0.0,0.0,0.0,0.0,0.0,0.0,0.0,-4.3337574,-124.89949,1.1981773,-0.94781494,-0.17297363,-0.22149658,0.05859375,0.07714844,0.056640625,0.0,0.4596928,45.00389,-0.18671514,
2.011718720023055,103,-0.8624878,-0.05657959,0.50512695,0.018554688,0.0625,-0.18457031,0.0,0.0,0.0,0.0,0.0,0.0,0.0,0.0,0.0,0.0,0.0,-0.2313321,2.703732E-4,-0.9730827,-0.9729004,0.05682373,-0.16851807,0.16699219,0.2265625,0.0107421875,3.8546805,-4.7892914,0.005597557,-20.14583,-0.96429443,-0.017944336,0.17797852,0.10644531,0.13671875,-0.11816406,3.069564,-3.2281225,-56.887077,-16.901514,0.55895996,0.4309082,0.7133179,0.15039062,-0.099609375,-0.10839844,21.374954,1.686827,-128.61469,-12.746457,0.0,0.0,0.0,0.0,0.0,0.0,0.0,-16.958342,-128.05376,-5.5237694,0.0,0.0,0.0,0.0,0.0,0.0,0.0,0.2313321,-2.703732E-4,0.9730827,-0.9522705,0.09814453,-0.25805664,0.09375,-0.4404297,-0.06542969,5.117607,4.7892914,-0.005597557,20.14583,-0.9621582,0.1060791,-0.21252441,-0.16894531,0.68652344,0.21191406,20.09208,-0.94823885,-56.721992,19.606794,0.60284424,-0.29888916,0.77075195,0.13964844,-0.06933594,-0.20410156,14.756646,14.246412,-126.47957,10.186615,0.0,0.0,0.0,0.0,0.0,0.0,0.0,-3.6057034,-124.79373,1.3225641,-0.9682007,-0.18676758,-0.18890381,0.040039062,0.076171875,0.11425781,0.0,0.5545752,45.005527,-0.11933492,
