TOTAL_TIME,0m53s
TOTAL_FRAMES,2689
SELECTED_FRAMES,2689
NO_OF_JOINTS,12
FREQUENCY,51.2
DESCRIPTION,Capture 11
TIME_STAMP,Oct 11, 2010

Time,Frame,Pelvis_accelX_Pelvis,Pelvis_accelY_Pelvis,Pelvis_accelZ_Pelvis,Pelvis_gyroX_Pelvis,Pelvis_gyroY_Pelvis,Pelvis_gyroZ_Pelvis,Pelvis_Joint angle_Pelvis,Pelvis_Relative pos X_Pelvis,Pelvis_Relative pos Y_Pelvis,Pelvis_Relative pos Z_Pelvis,RightPelvis_accelX_RightPelvis,RightPelvis_accelY_RightPelvis,RightPelvis_accelZ_RightPelvis,RightPelvis_gyroX_RightPelvis,RightPelvis_gyroY_RightPelvis,RightPelvis_gyroZ_RightPelvis,RightPelvis_Joint angle_RightPelvis,RightPelvis_Relative pos X_RightPelvis,RightPelvis_Relative pos Y_RightPelvis,RightPelvis_Relative pos Z_RightPelvis,RightUpLeg_accelX_RightUpLeg,RightUpLeg_accelY_RightUpLeg,RightUpLeg_accelZ_RightUpLeg,RightUpLeg_gyroX_RightUpLeg,RightUpLeg_gyroY_RightUpLeg,RightUpLeg_gyroZ_RightUpLeg,RightUpLeg_Joint angle_RightUpLeg,RightUpLeg_Relative pos X_RightUpLeg,RightUpLeg_Relative pos Y_RightUpLeg,RightUpLeg_Relative pos Z_RightUpLeg,RightLeg_accelX_RightLeg,RightLeg_accelY_RightLeg,RightLeg_accelZ_RightLeg,RightLeg_gyroX_RightLeg,RightLeg_gyroY_RightLeg,RightLeg_gyroZ_RightLeg,RightLeg_Joint angle_RightLeg,RightLeg_Relative pos X_RightLeg,RightLeg_Relative pos Y_RightLeg,RightLeg_Relative pos Z_RightLeg,RightFoot_accelX_RightFoot,RightFoot_accelY_RightFoot,RightFoot_accelZ_RightFoot,RightFoot_gyroX_RightFoot,RightFoot_gyroY_RightFoot,RightFoot_gyroZ_RightFoot,RightFoot_Joint angle_RightFoot,RightFoot_Relative pos X_RightFoot,RightFoot_Relative pos Y_RightFoot,RightFoot_Relative pos Z_RightFoot,RightFootEnd_accelX_RightFootEnd,RightFootEnd_accelY_RightFootEnd,RightFootEnd_accelZ_RightFootEnd,RightFootEnd_gyroX_RightFootEnd,RightFootEnd_gyroY_RightFootEnd,RightFootEnd_gyroZ_RightFootEnd,RightFootEnd_Joint angle_RightFootEnd,RightFootEnd_Relative pos X_RightFootEnd,RightFootEnd_Relative pos Y_RightFootEnd,RightFootEnd_Relative pos Z_RightFootEnd,LeftPelvis_accelX_LeftPelvis,LeftPelvis_accelY_LeftPelvis,LeftPelvis_accelZ_LeftPelvis,LeftPelvis_gyroX_LeftPelvis,LeftPelvis_gyroY_LeftPelvis,LeftPelvis_gyroZ_LeftPelvis,LeftPelvis_Joint angle_LeftPelvis,LeftPelvis_Relative pos X_LeftPelvis,LeftPelvis_Relative pos Y_LeftPelvis,LeftPelvis_Relative pos Z_LeftPelvis,LeftUpLeg_accelX_LeftUpLeg,LeftUpLeg_accelY_LeftUpLeg,LeftUpLeg_accelZ_LeftUpLeg,LeftUpLeg_gyroX_LeftUpLeg,LeftUpLeg_gyroY_LeftUpLeg,LeftUpLeg_gyroZ_LeftUpLeg,LeftUpLeg_Joint angle_LeftUpLeg,LeftUpLeg_Relative pos X_LeftUpLeg,LeftUpLeg_Relative pos Y_LeftUpLeg,LeftUpLeg_Relative pos Z_LeftUpLeg,LeftLeg_accelX_LeftLeg,LeftLeg_accelY_LeftLeg,LeftLeg_accelZ_LeftLeg,LeftLeg_gyroX_LeftLeg,LeftLeg_gyroY_LeftLeg,LeftLeg_gyroZ_LeftLeg,LeftLeg_Joint angle_LeftLeg,LeftLeg_Relative pos X_LeftLeg,LeftLeg_Relative pos Y_LeftLeg,LeftLeg_Relative pos Z_LeftLeg,LeftFoot_accelX_LeftFoot,LeftFoot_accelY_LeftFoot,LeftFoot_accelZ_LeftFoot,LeftFoot_gyroX_LeftFoot,LeftFoot_gyroY_LeftFoot,LeftFoot_gyroZ_LeftFoot,LeftFoot_Joint angle_LeftFoot,LeftFoot_Relative pos X_LeftFoot,LeftFoot_Relative pos Y_LeftFoot,LeftFoot_Relative pos Z_LeftFoot,LeftFootEnd_accelX_LeftFootEnd,LeftFootEnd_accelY_LeftFootEnd,LeftFootEnd_accelZ_LeftFootEnd,LeftFootEnd_gyroX_LeftFootEnd,LeftFootEnd_gyroY_LeftFootEnd,LeftFootEnd_gyroZ_LeftFootEnd,LeftFootEnd_Joint angle_LeftFootEnd,LeftFootEnd_Relative pos X_LeftFootEnd,LeftFootEnd_Relative pos Y_LeftFootEnd,LeftFootEnd_Relative pos Z_LeftFootEnd,Spine_accelX_Spine,Spine_accelY_Spine,Spine_accelZ_Spine,Spine_gyroX_Spine,Spine_gyroY_Spine,Spine_gyroZ_Spine,Spine_Joint angle_Spine,Spine_Relative pos X_Spine,Spine_Relative pos Y_Spine,Spine_Relative pos Z_Spine,
0.0,0,0.0,0.0,0.0,0.0,0.0,0.0,0.0,0.0,0.0,0.0,0.0,0.0,0.0,0.0,0.0,0.0,0.0,0.0,0.0,0.0,0.0,0.0,0.0,0.0,0.0,0.0,NaN,0.0,0.0,0.0,0.0,0.0,0.0,0.0,0.0,0.0,NaN,0.0,0.0,0.0,0.0,0.0,0.0,0.0,0.0,0.0,NaN,0.0,0.0,0.0,0.0,0.0,0.0,0.0,0.0,0.0,0.0,0.0,0.0,0.0,0.0,0.0,0.0,0.0,0.0,0.0,0.0,0.0,0.0,0.0,0.0,0.0,0.0,0.0,0.0,0.0,NaN,0.0,0.0,0.0,0.0,0.0,0.0,0.0,0.0,0.0,NaN,0.0,0.0,0.0,0.0,0.0,0.0,0.0,0.0,0.0,NaN,0.0,0.0,0.0,0.0,0.0,0.0,0.0,0.0,0.0,0.0,0.0,0.0,0.0,0.0,0.0,0.0,0.0,0.0,0.0,0.0,0.0,0.0,0.0,
0.0195312497089617,1,0.0,0.0,0.0,0.0,0.0,0.0,0.0,0.0,0.0,0.0,0.0,0.0,0.0,0.0,0.0,0.0,0.0,0.0,0.0,0.0,0.0,0.0,0.0,0.0,0.0,0.0,NaN,0.0,0.0,0.0,0.0,0.0,0.0,0.0,0.0,0.0,NaN,0.0,0.0,0.0,0.0,0.0,0.0,0.0,0.0,0.0,NaN,0.0,0.0,0.0,0.0,0.0,0.0,0.0,0.0,0.0,0.0,0.0,0.0,0.0,0.0,0.0,0.0,0.0,0.0,0.0,0.0,0.0,0.0,0.0,0.0,0.0,0.0,0.0,0.0,0.0,NaN,0.0,0.0,0.0,0.0,0.0,0.0,0.0,0.0,0.0,NaN,0.0,0.0,0.0,0.0,0.0,0.0,0.0,0.0,0.0,NaN,0.0,0.0,0.0,0.0,0.0,0.0,0.0,0.0,0.0,0.0,0.0,0.0,0.0,0.0,0.0,0.0,0.0,0.0,0.0,0.0,0.0,0.0,0.0,
0.0390624994179234,2,0.0,0.0,0.0,0.0,0.0,0.0,0.0,0.0,0.0,0.0,0.0,0.0,0.0,0.0,0.0,0.0,0.0,0.0,0.0,0.0,0.0,0.0,0.0,0.0,0.0,0.0,NaN,0.0,0.0,0.0,0.0,0.0,0.0,0.0,0.0,0.0,NaN,0.0,0.0,0.0,0.0,0.0,0.0,0.0,0.0,0.0,NaN,0.0,0.0,0.0,0.0,0.0,0.0,0.0,0.0,0.0,0.0,0.0,0.0,0.0,0.0,0.0,0.0,0.0,0.0,0.0,0.0,0.0,0.0,0.0,0.0,0.0,0.0,0.0,0.0,0.0,NaN,0.0,0.0,0.0,0.0,0.0,0.0,0.0,0.0,0.0,NaN,0.0,0.0,0.0,0.0,0.0,0.0,0.0,0.0,0.0,NaN,0.0,0.0,0.0,0.0,0.0,0.0,0.0,0.0,0.0,0.0,0.0,0.0,0.0,0.0,0.0,0.0,0.0,0.0,0.0,0.0,0.0,0.0,0.0,
0.0585937491268851,3,-0.86065674,-0.045715332,0.52301025,9.765625E-4,-0.03125,-0.12890625,0.0,0.0,0.0,0.0,0.0,0.0,0.0,0.0,0.0,0.0,0.0,-0.61685115,-0.008666461,0.78719187,-0.9229126,0.053466797,-0.27111816,-0.00390625,-0.080078125,0.046875,4.6849594,-12.770732,-0.17942259,16.297312,-0.98461914,0.099853516,0.033813477,-0.0068359375,0.26953125,-0.024414062,1.5237988,-13.775209,-56.936104,11.060768,0.60980225,0.40759277,0.70410156,0.013671875,-0.021484375,0.0029296875,15.666917,-15.989443,-128.57924,4.0769773,0.0,0.0,0.0,0.0,0.0,0.0,0.0,-14.7690115,-128.63489,24.041603,0.0,0.0,0.0,0.0,0.0,0.0,0.0,0.61685115,0.008666461,-0.78719187,-0.95806885,0.031188965,-0.2741089,0.10644531,-0.14746094,-0.15820312,5.4252753,12.770732,0.17942259,-16.297312,-0.9544678,-0.060302734,-0.018981934,-0.0068359375,0.01171875,0.017578125,6.1648154,10.350499,-56.621002,-12.125481,0.56817627,-0.3927002,0.7575073,0.5058594,1.2460938,0.6796875,82.56036,10.679482,-128.62622,-13.128611,0.0,0.0,0.0,0.0,0.0,0.0,0.0,-5.03716,-125.723724,-1.1011944,-0.9752197,-0.11010742,-0.0018310547,0.080078125,1.265625,0.68359375,0.0,0.051597163,45.00244,0.535879,
0.0781249988358468,4,-0.8341675,-0.09509277,0.51104736,-0.055664062,-0.0126953125,-0.12792969,0.0,0.0,0.0,0.0,0.0,0.0,0.0,0.0,0.0,0.0,0.0,-0.614388,-0.005656745,0.7891303,-0.92559814,0.07940674,-0.32318115,0.052734375,0.009765625,0.029296875,4.8463817,-12.719736,-0.11711215,16.337442,-0.977478,0.10449219,0.0368042,-0.03125,0.046875,-0.061523438,1.5594689,-13.859836,-56.871037,11.0871105,0.6112671,0.37738037,0.68499756,0.033203125,-0.0029296875,-0.0146484375,15.41054,-16.156242,-128.49214,3.9247932,0.0,0.0,0.0,0.0,0.0,0.0,0.0,-14.84587,-128.56105,23.88396,0.0,0.0,0.0,0.0,0.0,0.0,0.0,0.614388,0.005656745,-0.7891303,-0.95703125,0.026367188,-0.29003906,0.078125,-0.119140625,-0.14941406,5.0651946,12.719736,0.11711215,-16.337442,-0.9746094,-0.06341553,-0.050598145,0.030273438,-0.0078125,-9.765625E-4,6.017703,10.475406,-56.703556,-12.288826,0.58117676,-0.42260742,0.76257324,0.27148438,0.7363281,0.3779297,82.156944,10.779863,-128.70796,-13.3491745,0.0,0.0,0.0,0.0,0.0,0.0,0.0,-4.8148975,-125.59646,-1.2141018,-0.9885864,-0.13543701,0.010559082,0.0029296875,1.0195312,0.58496094,0.0,0.12943149,45.003025,0.42336705,
0.09765624854480849,5,-0.84973145,-0.05053711,0.54852295,-0.017578125,-0.049804688,-0.14746094,0.0,0.0,0.0,0.0,0.0,0.0,0.0,0.0,0.0,0.0,0.0,-0.6123265,-0.0035390402,0.7908625,-0.90063477,0.068847656,-0.28515625,-0.022460938,0.0107421875,0.0107421875,4.9500513,-12.677056,-0.073269114,16.373306,-0.9490967,0.115234375,0.046875,-0.013671875,0.0087890625,0.033203125,1.4707347,-13.922044,-56.82756,11.136976,0.60357666,0.3959961,0.69903564,-0.005859375,-0.0029296875,-0.0146484375,15.13559,-16.236156,-128.4563,4.0363207,0.0,0.0,0.0,0.0,0.0,0.0,0.0,-14.821275,-128.52466,23.9898,0.0,0.0,0.0,0.0,0.0,0.0,0.0,0.6123265,0.0035390402,-0.7908625,-0.9540405,0.02532959,-0.29107666,0.08300781,-0.10449219,-0.13378906,4.769537,12.677056,0.073269114,-16.373306,-0.9614258,-0.05609131,-0.027832031,-0.06347656,-0.0078125,0.018554688,5.855246,10.577438,-56.76106,-12.446676,0.56573486,-0.41119385,0.73065186,-0.00390625,0.038085938,-0.016601562,81.110466,10.858908,-128.76564,-13.522648,0.0,0.0,0.0,0.0,0.0,0.0,0.0,-4.4947357,-125.57293,-1.1051788,-0.9724121,-0.1472168,0.006286621,0.021484375,0.60546875,0.3310547,0.0,0.17499867,45.007843,0.33689913,
0.11718749825377019,6,-0.8532715,-0.074401855,0.49279785,-0.0546875,-0.049804688,-0.12792969,0.0,0.0,0.0,0.0,0.0,0.0,0.0,0.0,0.0,0.0,0.0,-0.6127448,-9.872431E-4,0.79049087,-0.93273926,0.06542969,-0.2619629,-0.00390625,0.0107421875,0.047851562,5.009381,-12.685717,-0.020438993,16.36561,-0.9593506,0.10864258,0.049804688,-0.032226562,0.02734375,0.013671875,1.4495592,-13.970847,-56.778152,11.187994,0.6246338,0.39367676,0.6970215,-0.005859375,-0.0029296875,-0.0146484375,14.836931,-16.281776,-128.41025,4.148301,0.0,0.0,0.0,0.0,0.0,0.0,0.0,-14.786874,-128.48466,24.094292,0.0,0.0,0.0,0.0,0.0,0.0,0.0,0.6127448,9.872431E-4,-0.79049087,-0.9540405,0.034179688,-0.2859497,0.12207031,-0.08496094,-0.115234375,4.4792967,12.685717,0.020438993,-16.36561,-0.9657593,-0.0715332,-0.039733887,-0.025390625,0.03125,0.017578125,5.7495823,10.739957,-56.82667,-12.530241,0.58380127,-0.3959961,0.727478,0.013671875,0.0,0.0029296875,79.874016,10.997169,-128.8341,-13.658559,0.0,0.0,0.0,0.0,0.0,0.0,0.0,-4.0998545,-125.61755,-0.9352417,-0.9866333,-0.14050293,0.025390625,9.765625E-4,0.057617188,0.018554688,0.0,0.23359904,45.006256,0.23728134,
0.1367187479627319,7,-0.8341675,-0.086242676,0.49822998,0.020507812,-0.03125,-0.016601562,0.0,0.0,0.0,0.0,0.0,0.0,0.0,0.0,0.0,0.0,0.0,-0.6129059,9.1599824E-4,0.79028654,-0.90563965,0.06890869,-0.2692871,-0.07910156,0.029296875,0.0107421875,5.0440693,-12.689053,0.01896401,16.361382,-0.9654541,0.10662842,0.06561279,-0.032226562,0.045898438,0.033203125,1.3755815,-14.063534,-56.738476,11.215797,0.6364746,0.37677002,0.7076416,0.033203125,-0.021484375,-0.015625,14.586063,-16.338432,-128.37344,4.210911,0.0,0.0,0.0,0.0,0.0,0.0,0.0,-14.794329,-128.45255,24.153374,0.0,0.0,0.0,0.0,0.0,0.0,0.0,0.6129059,-9.1599824E-4,-0.79028654,-0.95910645,0.03314209,-0.27111816,0.111328125,-0.13183594,-0.14355469,4.2439938,12.689053,-0.01896401,-16.361382,-0.9530029,-0.08459473,-0.031921387,-0.025390625,0.01171875,0.017578125,5.6733665,10.895596,-56.872917,-12.617409,0.5653076,-0.39190674,0.7664795,-0.00390625,0.018554688,0.001953125,78.89442,11.143029,-128.87738,-13.8262005,0.0,0.0,0.0,0.0,0.0,0.0,0.0,-3.7343512,-125.65996,-0.8466053,-0.9783325,-0.12371826,-0.0041503906,-0.017578125,0.057617188,0.0,0.0,0.30464637,45.003254,0.1841062,
0.1562499976716936,8,-0.8064575,-0.05859375,0.52075195,0.020507812,-0.03125,0.001953125,0.0,0.0,0.0,0.0,0.0,0.0,0.0,0.0,0.0,0.0,0.0,-0.6109617,0.0011803777,0.7918366,-0.9147949,0.06121826,-0.28009033,-0.00390625,0.06542969,0.029296875,5.012821,-12.6488,0.024437472,16.39347,-0.97302246,0.0871582,0.061523438,-0.032226562,0.02734375,0.013671875,1.2985995,-14.11179,-56.73137,11.272037,0.5973511,0.38342285,0.69885254,0.033203125,0.016601562,-0.0146484375,14.344663,-16.353992,-128.37476,4.309005,0.0,0.0,0.0,0.0,0.0,0.0,0.0,-14.76813,-128.46014,24.249214,0.0,0.0,0.0,0.0,0.0,0.0,0.0,0.6109617,-0.0011803777,-0.7918366,-0.9429321,0.025268555,-0.28625488,0.12988281,-0.11328125,-0.14453125,4.0792394,12.6488,-0.024437472,-16.39347,-0.9673462,-0.057006836,-0.023803711,0.01171875,0.01171875,0.017578125,5.5740094,10.990803,-56.892216,-12.776682,0.5650635,-0.41967773,0.758667,0.013671875,0.0,0.0029296875,77.96541,11.217526,-128.89806,-14.073565,0.0,0.0,0.0,0.0,0.0,0.0,0.0,-3.4393778,-125.67239,-0.8482132,-0.98864746,-0.14526367,0.016296387,-0.037109375,0.0390625,-0.01953125,0.0,0.34213886,45.004585,0.19689837,
0.1757812473806553,9,-0.82373047,-0.04473877,0.5401001,0.020507812,-0.0126953125,0.001953125,0.0,0.0,0.0,0.0,0.0,0.0,0.0,0.0,0.0,0.0,0.0,-0.6106481,9.786049E-4,0.7921261,-0.94873047,0.07684326,-0.3149414,-0.041015625,-0.0068359375,0.047851562,5.0027275,-12.642311,0.020260155,16.399467,-0.97161865,0.099365234,0.03778076,-0.0126953125,0.02734375,0.013671875,1.2426955,-14.155128,-56.735,11.292876,0.6030884,0.36468506,0.7015991,-0.005859375,-0.001953125,0.00390625,13.858857,-16.356329,-128.38289,4.3629026,0.0,0.0,0.0,0.0,0.0,0.0,0.0,-14.630846,-128.47989,24.291325,0.0,0.0,0.0,0.0,0.0,0.0,0.0,0.6106481,-9.786049E-4,-0.7921261,-0.95202637,0.036132812,-0.28295898,0.1328125,-0.115234375,-0.12695312,3.9360676,12.642311,-0.020260155,-16.399467,-0.9673462,-0.057006836,-0.023803711,0.01171875,0.01171875,0.017578125,5.4218063,11.101099,-56.90119,-12.905798,0.5661011,-0.39575195,0.75653076,0.013671875,-0.018554688,0.021484375,77.04409,11.327823,-128.90703,-14.202681,0.0,0.0,0.0,0.0,0.0,0.0,0.0,-3.111967,-125.682686,-0.73919487,-0.98358154,-0.14331055,0.014343262,-0.017578125,0.01953125,0.018554688,0.0,0.33577973,45.006298,0.2032503,
0.19531249708961698,10,-0.84747314,-0.0625,0.51464844,0.057617188,0.005859375,-0.017578125,0.0,0.0,0.0,0.0,0.0,0.0,0.0,0.0,0.0,0.0,0.0,-0.60909295,0.0014414691,0.79337853,-0.94415283,0.03918457,-0.27978516,-0.00390625,0.028320312,0.029296875,5.034155,-12.610114,0.029842885,16.425394,-0.96569824,0.096069336,0.04272461,-0.013671875,0.0087890625,0.051757812,1.1793537,-14.142069,-56.724403,11.289103,0.59942627,0.3842163,0.7116699,0.013671875,-0.001953125,0.00390625,13.773268,-16.33122,-128.37761,4.39254,0.0,0.0,0.0,0.0,0.0,0.0,0.0,-14.608585,-128.47298,24.32049,0.0,0.0,0.0,0.0,0.0,0.0,0.0,0.60909295,-0.0014414691,-0.79337853,-0.95196533,0.018371582,-0.28033447,0.115234375,-0.1171875,-0.12792969,3.7815983,12.610114,-0.029842885,-16.425394,-0.96429443,-0.05621338,-0.0119018555,-0.026367188,-0.02734375,0.018554688,5.276372,11.17495,-56.918056,-13.044638,0.5319824,-0.41912842,0.7628174,0.013671875,0.0,0.0029296875,76.1617,11.447199,-128.91861,-14.319452,0.0,0.0,0.0,0.0,0.0,0.0,0.0,-2.8116446,-125.684654,-0.6701956,-0.965271,-0.13568115,0.010498047,9.765625E-4,9.765625E-4,0.017578125,0.0,0.36478776,45.008118,0.19828096,
0.21484374679857868,11,-0.8383789,-0.07727051,0.52716064,9.765625E-4,0.005859375,0.001953125,0.0,0.0,0.0,0.0,0.0,0.0,0.0,0.0,0.0,0.0,0.0,-0.60953134,0.0013275646,0.7929287,-0.9205322,0.08215332,-0.3045044,0.015625,0.0107421875,0.029296875,5.060783,-12.61919,0.027484706,16.416084,-0.9694824,0.10498047,0.050720215,0.0068359375,0.044921875,0.033203125,1.1232648,-14.219635,-56.725773,11.274272,0.61968994,0.390625,0.72454834,0.013671875,-0.0029296875,-0.0146484375,13.691395,-16.406984,-128.3837,4.398842,0.0,0.0,0.0,0.0,0.0,0.0,0.0,-14.674969,-128.48221,24.326267,0.0,0.0,0.0,0.0,0.0,0.0,0.0,0.60953134,-0.0013275646,-0.7929287,-0.9530029,0.026245117,-0.27624512,0.059570312,-0.15820312,-0.12890625,3.6693847,12.61919,-0.027484706,-16.416084,-0.95983887,-0.076660156,-0.027893066,-0.025390625,0.0126953125,-9.765625E-4,5.222847,11.338057,-56.92425,-13.112348,0.5617676,-0.42736816,0.74072266,-0.005859375,-0.07519531,0.0029296875,75.41217,11.586726,-128.92717,-14.466959,0.0,0.0,0.0,0.0,0.0,0.0,0.0,-2.4953394,-125.69341,-0.63137245,-0.9793091,-0.111083984,0.003112793,9.765625E-4,9.765625E-4,0.037109375,0.0,0.35313323,45.00418,0.19610822,
0.23437499650754037,12,-0.84942627,-0.062561035,0.5027466,0.01953125,0.005859375,-0.016601562,0.0,0.0,0.0,0.0,0.0,0.0,0.0,0.0,0.0,0.0,0.0,-0.6104259,0.0013211117,0.79224557,-0.9425049,0.087402344,-0.28234863,-0.060546875,-0.0068359375,0.029296875,5.072461,-12.637708,0.027351096,16.40194,-0.98376465,0.13000488,0.0637207,-0.032226562,0.02734375,0.051757812,1.0711887,-14.315782,-56.722065,11.266911,0.60253906,0.394104,0.6921387,0.033203125,-0.0029296875,-0.033203125,13.535564,-16.525675,-128.38187,4.431526,0.0,0.0,0.0,0.0,0.0,0.0,0.0,-14.750297,-128.48392,24.355532,0.0,0.0,0.0,0.0,0.0,0.0,0.0,0.6104259,-0.0013211117,-0.79224557,-0.9489746,0.020324707,-0.28430176,0.10058594,-0.12109375,-0.11230469,3.5210881,12.637708,-0.027351096,-16.40194,-0.9672241,-0.04925537,-0.019836426,-0.025390625,0.01171875,0.017578125,5.076515,11.491189,-56.9326,-13.220303,0.5701294,-0.39868164,0.75653076,0.0146484375,0.018554688,0.021484375,74.736,11.72424,-128.93922,-14.57932,0.0,0.0,0.0,0.0,0.0,0.0,0.0,-2.1732264,-125.70465,-0.56032753,-0.98150635,-0.13360596,0.012573242,-0.017578125,0.01953125,0.037109375,0.0,0.35259295,45.004368,0.19662598,
0.2539062462165021,13,-0.8475952,-0.05065918,0.5187378,0.020507812,-0.03125,0.001953125,0.0,0.0,0.0,0.0,0.0,0.0,0.0,0.0,0.0,0.0,0.0,-0.6090099,0.0013163757,0.79329294,-0.9105835,0.07293701,-0.27313232,0.015625,0.028320312,0.0107421875,5.0521035,-12.608393,0.027253062,16.423622,-0.9594116,0.10479736,0.04284668,-0.0107421875,0.1015625,0.013671875,1.0885845,-14.326494,-56.724686,11.314656,0.62054443,0.38391113,0.7077637,0.013671875,0.016601562,-0.0146484375,13.353798,-16.547752,-128.37984,4.467066,0.0,0.0,0.0,0.0,0.0,0.0,0.0,-14.7273245,-128.49089,24.386206,0.0,0.0,0.0,0.0,0.0,0.0,0.0,0.6090099,-0.0013163757,-0.79329294,-0.96209717,0.034179688,-0.2789917,0.11816406,-0.10058594,-0.13085938,3.4066854,12.608393,-0.027253062,-16.423622,-0.9476929,-0.06915283,-0.027954102,-0.025390625,0.0126953125,-9.765625E-4,4.9515553,11.543504,-56.940826,-13.344295,0.578125,-0.40454102,0.753479,0.032226562,9.765625E-4,0.0029296875,74.27389,11.780169,-128.946,-14.693131,0.0,0.0,0.0,0.0,0.0,0.0,0.0,-2.033226,-125.71715,-0.59111977,-0.9755249,-0.14086914,0.047302246,-0.056640625,0.01953125,0.018554688,0.0,0.35699135,45.00283,0.1993849,
0.2734374959254638,14,-0.85961914,-0.06439209,0.5386963,0.020507812,-0.0126953125,0.001953125,0.0,0.0,0.0,0.0,0.0,0.0,0.0,0.0,0.0,0.0,0.0,-0.60857725,0.0011692651,0.79368615,-0.9274292,0.09100342,-0.27960205,-0.00390625,0.0107421875,0.0107421875,5.0046463,-12.599436,0.024207413,16.431765,-0.97424316,0.11383057,0.06567383,-0.0126953125,0.02734375,0.033203125,1.039105,-14.413012,-56.73004,11.372866,0.5934448,0.38720703,0.7225952,0.013671875,0.016601562,0.00390625,13.237688,-16.612997,-128.39459,4.592627,0.0,0.0,0.0,0.0,0.0,0.0,0.0,-14.769186,-128.49278,24.51034,0.0,0.0,0.0,0.0,0.0,0.0,0.0,0.60857725,-0.0011692651,-0.79368615,-0.9540405,0.024291992,-0.27825928,0.09863281,-0.119140625,-0.12988281,3.3158202,12.599436,-0.024207413,-16.431765,-0.9593506,-0.0491333,-0.043762207,0.030273438,0.03125,0.016601562,4.848322,11.6414175,-56.944206,-13.4445305,0.5546875,-0.41540527,0.7347412,0.013671875,-0.018554688,0.0029296875,73.40366,11.887223,-128.94472,-14.799947,0.0,0.0,0.0,0.0,0.0,0.0,0.0,-1.7291422,-125.709625,-0.5062456,-0.97442627,-0.15661621,-0.022827148,-0.017578125,9.765625E-4,-9.765625E-4,0.0,0.367976,45.004852,0.21585262,
0.2929687456344255,15,-0.80944824,-0.048828125,0.50006104,0.01953125,0.005859375,-0.016601562,0.0,0.0,0.0,0.0,0.0,0.0,0.0,0.0,0.0,0.0,0.0,-0.6073408,0.0010302347,0.79457694,-0.9036255,0.07293701,-0.30187988,-0.00390625,0.046875,0.029296875,5.0164547,-12.573837,0.021329055,16.450205,-0.9382324,0.11022949,0.029052734,-0.0126953125,0.045898438,0.051757812,1.006971,-14.468724,-56.726883,11.393214,0.59228516,0.38146973,0.7037964,0.033203125,-0.001953125,0.00390625,12.961794,-16.668776,-128.39044,4.62097,0.0,0.0,0.0,0.0,0.0,0.0,0.0,-14.724268,-128.4855,24.528242,0.0,0.0,0.0,0.0,0.0,0.0,0.0,0.6073408,-0.0010302347,-0.79457694,-0.94799805,0.026245117,-0.27825928,0.1328125,-0.13378906,-0.10644531,3.225797,12.573837,-0.021329055,-16.450205,-0.9847412,-0.076049805,-0.030639648,-0.026367188,-0.0078125,0.037109375,4.7597513,11.747305,-56.949005,-13.545163,0.55908203,-0.428833,0.7626953,0.013671875,0.0,0.021484375,72.47295,11.997959,-128.9498,-14.917479,0.0,0.0,0.0,0.0,0.0,0.0,0.0,-1.3769817,-125.70505,-0.40242386,-0.9824829,-0.1307373,0.018615723,0.020507812,0.020507812,-9.765625E-4,0.0,0.3686856,45.002804,0.22345775,
0.3124999953433872,16,-0.8436279,-0.04864502,0.5305786,0.020507812,-0.03125,-0.016601562,0.0,0.0,0.0,0.0,0.0,0.0,0.0,0.0,0.0,0.0,0.0,-0.60879344,0.0012428649,0.7934894,-0.9276123,0.076171875,-0.26885986,-0.07910156,-0.025390625,0.029296875,4.991711,-12.60391,0.025731154,16.427689,-0.963562,0.10003662,0.040771484,-0.05078125,0.046875,0.032226562,1.0527625,-14.548141,-56.72919,11.4335785,0.6188965,0.35083008,0.6836548,0.013671875,-0.001953125,0.00390625,12.672955,-16.724009,-128.39374,4.6584377,0.0,0.0,0.0,0.0,0.0,0.0,0.0,-14.691921,-128.49298,24.558018,0.0,0.0,0.0,0.0,0.0,0.0,0.0,0.60879344,-0.0012428649,-0.7934894,-0.95910645,0.029296875,-0.2909546,0.09863281,-0.119140625,-0.12988281,3.0895247,12.60391,-0.025731154,-16.427689,-0.9586792,-0.07489014,-0.014953613,-0.026367188,0.01171875,0.036132812,4.6329074,11.87995,-56.959446,-13.629425,0.55804443,-0.39575195,0.75457764,-0.00390625,0.037109375,0.001953125,71.723114,12.149167,-128.96205,-14.991793,0.0,0.0,0.0,0.0,0.0,0.0,0.0,-1.0500994,-125.72198,-0.3166294,-0.9661865,-0.12097168,-1.2207031E-4,-0.037109375,0.01953125,-9.765625E-4,0.0,0.36248207,45.003826,0.20761845,
0.3320312450523489,17,-0.85162354,-0.05456543,0.53466797,0.01953125,-0.0126953125,-0.03515625,0.0,0.0,0.0,0.0,0.0,0.0,0.0,0.0,0.0,0.0,0.0,-0.6094394,5.5433915E-4,0.7930095,-0.93963623,0.07763672,-0.30621338,-0.041015625,0.029296875,0.047851562,4.9619107,-12.617283,0.01147654,16.417755,-0.9716797,0.12994385,0.04095459,-0.033203125,-0.009765625,0.033203125,1.0269821,-14.569194,-56.74308,11.421799,0.5924072,0.3812256,0.7362671,0.033203125,-0.0029296875,-0.0146484375,12.490024,-16.72481,-128.40921,4.671273,0.0,0.0,0.0,0.0,0.0,0.0,0.0,-14.647825,-128.50096,24.566559,0.0,0.0,0.0,0.0,0.0,0.0,0.0,0.6094394,-5.5433915E-4,-0.7930095,-0.9429321,0.022277832,-0.28631592,0.09863281,-0.119140625,-0.12988281,3.0288603,12.617283,-0.01147654,-16.417755,-0.9813843,-0.062683105,-0.00982666,-0.005859375,0.05078125,-0.001953125,4.5312505,11.985142,-56.951363,-13.7136135,0.5810547,-0.42541504,0.75457764,-0.022460938,0.018554688,0.001953125,71.44208,12.251125,-128.95346,-15.081478,0.0,0.0,0.0,0.0,0.0,0.0,0.0,-0.87942314,-125.722595,-0.34181023,-0.9816284,-0.16156006,-0.0079956055,-0.056640625,0.038085938,0.056640625,0.0,0.35186535,45.004307,0.2389542,
0.3515624947613106,18,-0.81817627,-0.099975586,0.52056885,-0.017578125,0.005859375,0.0029296875,0.0,0.0,0.0,0.0,0.0,0.0,0.0,0.0,0.0,0.0,0.0,-0.6101587,4.2116316E-4,0.7924248,-0.9227295,0.06829834,-0.2828369,-0.00390625,0.028320312,0.029296875,4.956538,-12.632178,0.008719385,16.405651,-0.9758911,0.12408447,0.045898438,-0.05078125,0.046875,0.032226562,0.962255,-14.627163,-56.745228,11.415743,0.612854,0.41046143,0.7011719,0.052734375,-0.021484375,-0.015625,12.321218,-16.797817,-128.41933,4.746655,0.0,0.0,0.0,0.0,0.0,0.0,0.0,-14.6735935,-128.5196,24.636477,0.0,0.0,0.0,0.0,0.0,0.0,0.0,0.6101587,-4.2116316E-4,-0.7924248,-0.9550171,0.02722168,-0.27520752,0.10058594,-0.10253906,-0.13183594,2.9678807,12.632178,-0.008719385,-16.405651,-0.95513916,-0.045654297,-0.012023926,-0.025390625,0.01171875,0.017578125,4.4509587,12.114638,-56.95342,-13.769753,0.5778198,-0.42419434,0.739624,-0.00390625,0.038085938,-0.016601562,70.65783,12.387648,-128.95447,-15.135589,0.0,0.0,0.0,0.0,0.0,0.0,0.0,-0.5559263,-125.71957,-0.2303009,-0.9724121,-0.14642334,0.021240234,-0.017578125,9.765625E-4,0.017578125,0.0,0.3543311,45.00311,0.24891266,
0.37109374447027227,19,-0.8625488,-0.05456543,0.51898193,0.01953125,0.024414062,-0.016601562,0.0,0.0,0.0,0.0,0.0,0.0,0.0,0.0,0.0,0.0,0.0,-0.60980666,2.551761E-4,0.7927323,-0.9175415,0.08001709,-0.2857666,-0.00390625,0.028320312,-0.0078125,5.004098,-12.624888,0.0052829357,16.412016,-0.9769287,0.12243652,0.028015137,-0.032226562,0.02734375,0.033203125,0.9213235,-14.656455,-56.747093,11.418526,0.6121826,0.37158203,0.67407227,0.013671875,0.036132812,0.00390625,12.146776,-16.81069,-128.4252,4.785555,0.0,0.0,0.0,0.0,0.0,0.0,0.0,-14.637959,-128.52823,24.670385,0.0,0.0,0.0,0.0,0.0,0.0,0.0,0.60980666,-2.551761E-4,-0.7927323,-0.9530029,0.021362305,-0.2852173,0.1484375,-0.12988281,-0.12207031,2.8754866,12.624888,-0.0052829357,-16.412016,-0.9637451,-0.08068848,-0.0059814453,-0.025390625,0.01171875,0.017578125,4.3934245,12.237396,-56.954346,-13.847148,0.5680542,-0.41467285,0.7565918,0.0146484375,0.01953125,0.001953125,69.90441,12.541267,-128.95312,-15.240595,0.0,0.0,0.0,0.0,0.0,0.0,0.0,-0.2576275,-125.720314,-0.21341133,-0.96313477,-0.12011719,0.010864258,0.0390625,9.765625E-4,0.037109375,0.0,0.32186204,45.004738,0.2331045,
0.39062499417923396,20,-0.8737793,-0.038757324,0.53131104,0.020507812,-0.03125,-0.016601562,0.0,0.0,0.0,0.0,0.0,0.0,0.0,0.0,0.0,0.0,0.0,-0.6130116,-1.554531E-4,0.7902799,-0.9215088,0.084106445,-0.2994995,-0.022460938,-0.0078125,0.029296875,4.9964576,-12.691241,-0.003218357,16.361244,-0.9511719,0.11187744,0.017089844,-0.032226562,0.045898438,0.033203125,0.9255615,-14.741889,-56.75481,11.383183,0.6333618,0.3739624,0.6977539,0.013671875,-0.001953125,0.00390625,12.056514,-16.933697,-128.43562,4.7654724,0.0,0.0,0.0,0.0,0.0,0.0,0.0,-14.72825,-128.55331,24.646107,0.0,0.0,0.0,0.0,0.0,0.0,0.0,0.6130116,1.554531E-4,-0.7902799,-0.9500122,0.033203125,-0.28503418,0.061523438,-0.12207031,-0.15136719,2.8238988,12.691241,0.003218357,-16.361244,-0.96154785,-0.064941406,-0.026855469,-0.044921875,-0.0078125,0.037109375,4.3429365,12.387227,-56.94983,-13.858196,0.54766846,-0.42749023,0.73883057,-0.00390625,0.037109375,0.001953125,69.25462,12.700249,-128.94867,-15.271835,0.0,0.0,0.0,0.0,0.0,0.0,0.0,0.060022354,-125.709785,-0.110393524,-0.960083,-0.11999512,-0.0040893555,9.765625E-4,0.0390625,0.018554688,0.0,0.29895827,45.00569,0.24075161,
0.41015624388819566,21,-0.8324585,-0.061523438,0.5153198,-0.0546875,-0.0126953125,0.0029296875,0.0,0.0,0.0,0.0,0.0,0.0,0.0,0.0,0.0,0.0,0.0,-0.61127216,-6.8566296E-5,0.7916424,-0.9414673,0.09033203,-0.28430176,-0.09765625,-0.0068359375,0.0107421875,4.96274,-12.655229,-0.0014195316,16.389454,-0.96551514,0.13653564,0.051940918,-0.013671875,0.0087890625,0.013671875,0.90935194,-14.75365,-56.75585,11.441141,0.6333618,0.3739624,0.6977539,0.013671875,-0.001953125,0.00390625,11.998794,-16.956688,-128.43518,4.874469,0.0,0.0,0.0,0.0,0.0,0.0,0.0,-14.751241,-128.55287,24.755104,0.0,0.0,0.0,0.0,0.0,0.0,0.0,0.61127216,6.8566296E-5,-0.7916424,-0.9590454,0.022338867,-0.2802124,0.095703125,-0.13671875,-0.12792969,2.798623,12.655229,0.0014195316,-16.389454,-0.96777344,-0.076538086,-0.025817871,-0.025390625,0.03125,0.017578125,4.3139777,12.450688,-56.95523,-13.930939,0.5687866,-0.4192505,0.7366333,-0.0048828125,0.0,0.001953125,68.80336,12.763908,-128.95558,-15.367342,0.0,0.0,0.0,0.0,0.0,0.0,0.0,0.22237587,-125.71184,-0.12336445,-0.9814453,-0.12188721,0.012817383,-0.037109375,0.057617188,0.018554688,0.0,0.32029057,45.006065,0.25121266,
0.42968749359715736,22,-0.8265991,-0.048706055,0.5202637,0.01953125,0.024414062,0.020507812,0.0,0.0,0.0,0.0,0.0,0.0,0.0,0.0,0.0,0.0,0.0,-0.61036646,2.3055461E-4,0.79234993,-0.9368286,0.064697266,-0.29351807,-0.041015625,0.029296875,0.0107421875,4.9528213,-12.636479,0.0047732033,16.4041,-0.9684448,0.10675049,0.06262207,-0.032226562,0.02734375,0.051757812,0.88470197,-14.746616,-56.74794,11.458696,0.60217285,0.37158203,0.69873047,0.013671875,-0.0029296875,-0.0146484375,11.731578,-16.897343,-128.43198,4.9221344,0.0,0.0,0.0,0.0,0.0,0.0,0.0,-14.637938,-128.56471,24.795876,0.0,0.0,0.0,0.0,0.0,0.0,0.0,0.61036646,-2.3055461E-4,-0.79234993,-0.9439697,0.02331543,-0.28826904,0.08300781,-0.10449219,-0.13378906,2.7342334,12.636479,-0.0047732033,-16.4041,-0.9574585,-0.06323242,-0.011962891,-0.08203125,0.01171875,0.037109375,4.240624,12.488081,-56.96238,-14.0186205,0.5723877,-0.40496826,0.77648926,0.013671875,9.765625E-4,-0.016601562,68.3844,12.779731,-128.96179,-15.456757,0.0,0.0,0.0,0.0,0.0,0.0,0.0,0.36456013,-125.71734,-0.11227989,-0.97442627,-0.14440918,0.016296387,-0.055664062,0.057617188,0.018554688,0.0,0.34411478,45.00621,0.2519843,
0.44921874330611905,23,-0.8185425,-0.058532715,0.5299072,9.765625E-4,-0.0126953125,0.001953125,0.0,0.0,0.0,0.0,0.0,0.0,0.0,0.0,0.0,0.0,0.0,-0.60950744,4.439255E-4,0.7929916,-0.94091797,0.0569458,-0.30340576,-0.022460938,0.046875,0.0107421875,4.9877057,-12.618695,0.009190631,16.417385,-0.9633179,0.10900879,0.033935547,-0.032226562,0.045898438,0.033203125,0.88536525,-14.73966,-56.740433,11.456994,0.62701416,0.35455322,0.6876831,0.013671875,-0.0029296875,-0.0146484375,11.428132,-16.864061,-128.42746,4.897634,0.0,0.0,0.0,0.0,0.0,0.0,0.0,-14.511555,-128.56932,24.762295,0.0,0.0,0.0,0.0,0.0,0.0,0.0,0.60950744,-4.439255E-4,-0.7929916,-0.96313477,0.032287598,-0.28295898,0.07910156,-0.13867188,-0.12988281,2.63834,12.618695,-0.009190631,-16.417385,-0.9760132,-0.09100342,-0.022766113,-0.025390625,0.01171875,0.017578125,4.154589,12.523513,-56.97127,-14.116781,0.55755615,-0.4111328,0.7216797,0.013671875,-0.018554688,0.0029296875,67.62401,12.786146,-128.96739,-15.5542555,0.0,0.0,0.0,0.0,0.0,0.0,0.0,0.5638809,-125.71478,-0.057810783,-0.9703369,-0.13867188,0.02142334,-0.056640625,0.038085938,0.038085938,0.0,0.34291,45.005608,0.23837212,
0.46874999301508075,24,-0.8265991,-0.061462402,0.5380249,0.01953125,0.005859375,0.001953125,0.0,0.0,0.0,0.0,0.0,0.0,0.0,0.0,0.0,0.0,0.0,-0.60854733,7.0111407E-4,0.7936713,-0.9187012,0.066223145,-0.27697754,-0.00390625,0.0107421875,0.0107421875,4.9820857,-12.598816,0.014515236,16.431456,-0.9650879,0.11590576,0.038879395,-0.032226562,0.02734375,0.033203125,0.8645667,-14.740612,-56.73463,11.466391,0.5963135,0.385437,0.6860962,0.013671875,-0.0029296875,-0.0146484375,11.425581,-16.90457,-128.42433,4.926237,0.0,0.0,0.0,0.0,0.0,0.0,0.0,-14.525545,-128.56369,24.785658,0.0,0.0,0.0,0.0,0.0,0.0,0.0,0.60854733,-7.0111407E-4,-0.7936713,-0.94799805,0.023376465,-0.2980957,0.08105469,-0.12207031,-0.13183594,2.6205487,12.598816,-0.014515236,-16.431456,-0.94976807,-0.07293701,-0.030944824,-0.025390625,0.01171875,0.017578125,4.068616,12.599115,-56.9802,-14.175009,0.5461426,-0.40307617,0.7636719,-0.0048828125,-0.018554688,0.0029296875,67.37157,12.876131,-128.98279,-15.557794,0.0,0.0,0.0,0.0,0.0,0.0,0.0,0.6987934,-125.726906,-0.025582314,-0.98547363,-0.118896484,0.008911133,-0.037109375,0.01953125,-9.765625E-4,0.0,0.36908787,45.003326,0.24324296,
0.48828124272404244,25,-0.8275757,-0.052612305,0.5262451,0.020507812,-0.049804688,-0.016601562,0.0,0.0,0.0,0.0,0.0,0.0,0.0,0.0,0.0,0.0,0.0,-0.6069937,7.6102605E-4,0.7948864,-0.9413452,0.09710693,-0.26348877,-0.00390625,0.028320312,0.0107421875,4.958,-12.566652,0.015755603,16.456614,-0.95147705,0.10430908,0.057739258,-0.032226562,0.02734375,0.051757812,0.8697567,-14.724875,-56.737015,11.51159,0.6018677,0.40655518,0.72869873,0.033203125,-0.0029296875,-0.0146484375,11.384634,-16.906319,-128.42297,4.990658,0.0,0.0,0.0,0.0,0.0,0.0,0.0,-14.514833,-128.55345,24.849163,0.0,0.0,0.0,0.0,0.0,0.0,0.0,0.6069937,-7.6102605E-4,-0.7948864,-0.95098877,0.025268555,-0.2772827,0.10058594,-0.10253906,-0.13183594,2.5736701,12.566652,-0.015755603,-16.456614,-0.9437256,-0.07324219,-0.015075684,-0.026367188,-0.0078125,0.017578125,3.987032,12.61277,-56.97887,-14.265388,0.5477905,-0.43658447,0.7458496,0.013671875,0.0,0.0029296875,66.81053,12.902435,-128.97728,-15.626237,0.0,0.0,0.0,0.0,0.0,0.0,0.0,0.8894768,-125.72136,0.032776833,-0.9824829,-0.13452148,0.01159668,-0.037109375,0.01953125,0.018554688,0.0,0.38080835,45.004154,0.24770701,
0.5078124924330042,26,-0.8389282,-0.021057129,0.53674316,0.020507812,-0.0126953125,0.001953125,0.0,0.0,0.0,0.0,0.0,0.0,0.0,0.0,0.0,0.0,0.0,-0.6057062,0.0011061854,0.7958775,-0.90856934,0.07489014,-0.276062,-0.060546875,0.0107421875,0.0107421875,4.9250546,-12.539997,0.022901466,16.477133,-0.96051025,0.10369873,0.051757812,-0.013671875,0.0087890625,0.013671875,0.8793776,-14.712107,-56.72885,11.5367565,0.6262207,0.36517334,0.7084961,0.013671875,0.016601562,-0.0146484375,11.388888,-16.879677,-128.41432,5.0086527,0.0,0.0,0.0,0.0,0.0,0.0,0.0,-14.508721,-128.5447,24.869274,0.0,0.0,0.0,0.0,0.0,0.0,0.0,0.6057062,-0.0011061854,-0.7958775,-0.94696045,0.018371582,-0.27941895,0.15039062,-0.11328125,-0.125,2.5222776,12.539997,-0.022901466,-16.477133,-0.9696045,-0.06768799,-0.022827148,-0.025390625,0.03125,0.017578125,3.8744922,12.658525,-56.99435,-14.3845005,0.5479126,-0.3867798,0.74560547,-0.00390625,0.018554688,0.001953125,66.71031,12.946463,-128.99292,-15.722957,0.0,0.0,0.0,0.0,0.0,0.0,0.0,0.9620676,-125.741974,-0.0398674,-0.989624,-0.13372803,0.028564453,9.765625E-4,-0.037109375,-0.001953125,0.0,0.4239296,45.00405,0.26008266,
0.5273437421419659,27,-0.83361816,-0.062438965,0.5500488,0.020507812,-0.0126953125,0.001953125,0.0,0.0,0.0,0.0,0.0,0.0,0.0,0.0,0.0,0.0,0.0,-0.6042633,0.0011408329,0.7969534,-0.9320679,0.04486084,-0.28289795,-0.00390625,0.028320312,0.0107421875,4.92756,-12.510123,0.023618773,16.499407,-0.95751953,0.103393555,0.06463623,-0.051757812,0.009765625,0.033203125,0.80137444,-14.651303,-56.72353,11.52607,0.6304321,0.37390137,0.70758057,0.013671875,-0.021484375,-0.034179688,11.227177,-16.807947,-128.41876,5.0548377,0.0,0.0,0.0,0.0,0.0,0.0,0.0,-14.40212,-128.55492,24.911238,0.0,0.0,0.0,0.0,0.0,0.0,0.0,0.6042633,-0.0011408329,-0.7969534,-0.95098877,0.026245117,-0.27923584,0.1328125,-0.115234375,-0.12695312,2.4984186,12.510123,-0.023618773,-16.499407,-0.97961426,-0.07244873,-0.01776123,-0.025390625,0.01171875,0.017578125,3.8176215,12.69098,-56.99163,-14.4685135,0.552063,-0.3748169,0.7515259,-0.0048828125,-0.018554688,0.0029296875,66.4921,12.990295,-128.99548,-15.808071,0.0,0.0,0.0,0.0,0.0,0.0,0.0,1.0326548,-125.746666,-0.10612965,-0.97021484,-0.122802734,-0.0021362305,-0.017578125,9.765625E-4,-9.765625E-4,0.0,0.44093356,45.00311,0.2699015,
0.5468749918509276,28,-0.866333,-0.07727051,0.5039673,0.020507812,-0.0126953125,0.001953125,0.0,0.0,0.0,0.0,0.0,0.0,0.0,0.0,0.0,0.0,0.0,-0.6046198,0.0011351504,0.796701,-0.9225464,0.084228516,-0.31433105,-0.00390625,0.009765625,-0.0078125,4.965621,-12.517506,0.02350113,16.49418,-0.95391846,0.08947754,0.059631348,-0.0126953125,0.02734375,0.033203125,0.77024794,-14.732661,-56.722645,11.515312,0.5852051,0.3756714,0.71746826,0.013671875,-0.0029296875,-0.0146484375,11.092476,-16.835827,-128.41768,5.081069,0.0,0.0,0.0,0.0,0.0,0.0,0.0,-14.421257,-128.5548,24.936077,0.0,0.0,0.0,0.0,0.0,0.0,0.0,0.6046198,-0.0011351504,-0.796701,-0.95703125,0.023376465,-0.29309082,0.115234375,-0.1171875,-0.12792969,2.4408798,12.517506,-0.02350113,-16.49418,-0.98168945,-0.07525635,-0.01977539,-0.025390625,0.01171875,0.017578125,3.749723,12.764534,-56.99711,-14.5364685,0.57592773,-0.4293213,0.7456665,-0.0234375,-0.01953125,0.001953125,65.9896,13.101574,-128.99771,-15.878598,0.0,0.0,0.0,0.0,0.0,0.0,0.0,1.2266006,-125.757675,-0.11134434,-1.006897,-0.13824463,0.01550293,-0.07519531,0.038085938,-9.765625E-4,0.0,0.43415877,45.00385,0.26536286,
0.5664062415598893,29,-0.8737793,-0.028930664,0.5145874,0.01953125,-0.0126953125,-0.016601562,0.0,0.0,0.0,0.0,0.0,0.0,0.0,0.0,0.0,0.0,0.0,-0.6070473,5.72158E-4,0.7948242,-0.9446411,0.081604004,-0.30010986,-0.022460938,0.029296875,0.029296875,4.9833045,-12.5677595,0.011845438,16.455324,-0.9458618,0.09106445,0.06854248,-0.032226562,0.02734375,0.033203125,0.7346201,-14.805321,-56.730556,11.471733,0.6254883,0.37982178,0.7155762,-0.005859375,-0.0029296875,-0.0146484375,10.942205,-16.894056,-128.43202,5.081171,0.0,0.0,0.0,0.0,0.0,0.0,0.0,-14.447183,-128.57262,24.933737,0.0,0.0,0.0,0.0,0.0,0.0,0.0,0.6070473,-5.72158E-4,-0.7948242,-0.9530029,0.01940918,-0.2932129,0.06542969,-0.10644531,-0.13574219,2.3926923,12.5677595,-0.011845438,-16.455324,-0.9614258,-0.060058594,-0.023864746,-0.026367188,-0.0078125,0.017578125,3.6412084,12.850186,-56.984535,-14.556244,0.58709717,-0.41741943,0.75549316,-0.0048828125,-0.018554688,-0.016601562,65.2381,13.1943655,-128.98811,-15.832013,0.0,0.0,0.0,0.0,0.0,0.0,0.0,1.5196896,-125.73829,0.08307743,-0.9784546,-0.12786865,0.020690918,-0.07519531,-0.056640625,-0.001953125,0.0,0.4003793,45.003063,0.27339417,
0.585937491268851,30,-0.82629395,-0.07733154,0.5140381,0.020507812,-0.049804688,0.020507812,0.0,0.0,0.0,0.0,0.0,0.0,0.0,0.0,0.0,0.0,0.0,-0.6082424,-5.8501028E-6,0.79392755,-0.9258423,0.057373047,-0.25030518,0.015625,-0.0078125,-0.0078125,4.89877,-12.592503,-1.2111431E-4,16.436764,-0.9666748,0.097839355,0.06060791,-0.032226562,0.045898438,0.033203125,0.745461,-14.809264,-56.753258,11.506811,0.604126,0.36468506,0.7015991,0.013671875,-0.0029296875,-0.033203125,10.693802,-16.856869,-128.4609,5.1736217,0.0,0.0,0.0,0.0,0.0,0.0,0.0,-14.348335,-128.60414,25.018814,0.0,0.0,0.0,0.0,0.0,0.0,0.0,0.6082424,5.8501028E-6,-0.79392755,-0.9591675,0.04296875,-0.25805664,0.10058594,-0.10253906,-0.13183594,2.397024,12.592503,1.2111431E-4,-16.436764,-0.9680176,-0.092285156,-0.013916016,-0.025390625,0.0126953125,-9.765625E-4,3.5694673,12.924798,-56.977337,-14.578606,0.56207275,-0.43676758,0.76275635,-0.0048828125,-0.01953125,0.021484375,64.69437,13.303394,-128.97925,-15.8119335,0.0,0.0,0.0,0.0,0.0,0.0,0.0,1.738267,-125.727844,0.1802063,-0.9713745,-0.14324951,-0.0045776367,-0.037109375,0.01953125,0.037109375,0.0,0.39001435,45.003613,0.2991287,
0.6054687409778127,31,-0.8366699,-0.04864502,0.53045654,-0.016601562,-0.03125,0.040039062,0.0,0.0,0.0,0.0,0.0,0.0,0.0,0.0,0.0,0.0,0.0,-0.60876155,-0.0012902939,0.7935242,-0.9343262,0.099121094,-0.3001709,-0.022460938,0.028320312,0.0107421875,4.8379264,-12.603251,-0.026713086,16.42841,-0.9436035,0.09906006,0.05871582,-0.08984375,0.029296875,0.032226562,0.72577685,-14.83203,-56.778557,11.506464,0.6035156,0.3880005,0.7186279,0.013671875,0.016601562,-0.0146484375,10.606768,-16.858564,-128.49088,5.215694,0.0,0.0,0.0,0.0,0.0,0.0,0.0,-14.344532,-128.63611,25.058151,0.0,0.0,0.0,0.0,0.0,0.0,0.0,0.60876155,0.0012902939,-0.7935242,-0.9540405,0.032104492,-0.26818848,0.07910156,-0.13867188,-0.12988281,2.465613,12.603251,0.026713086,-16.42841,-0.9647827,-0.072509766,-0.038757324,-0.026367188,0.03125,0.036132812,3.5369558,13.032195,-56.95075,-14.59586,0.56658936,-0.39404297,0.71759033,-0.0048828125,-0.038085938,0.0029296875,64.217155,13.4271345,-128.95862,-15.805603,0.0,0.0,0.0,0.0,0.0,0.0,0.0,1.9428558,-125.71224,0.24638748,-0.98968506,-0.1519165,0.0051879883,-0.037109375,-0.018554688,0.055664062,0.0,0.3686483,45.003223,0.35598952,
0.6249999906867744,32,-0.8546753,-0.054504395,0.5406494,0.020507812,-0.049804688,0.020507812,0.0,0.0,0.0,0.0,0.0,0.0,0.0,0.0,0.0,0.0,0.0,-0.61067814,-0.0016305058,0.79210955,-0.92077637,0.062438965,-0.2937622,-0.09765625,0.01171875,0.029296875,4.7989774,-12.642929,-0.03375653,16.399122,-0.96502686,0.119628906,0.05480957,-0.032226562,0.02734375,0.013671875,0.7569224,-14.906793,-56.787224,11.526475,0.61846924,0.38604736,0.6860962,0.033203125,-0.021484375,-0.015625,10.547437,-16.961063,-128.50186,5.2613993,0.0,0.0,0.0,0.0,0.0,0.0,0.0,-14.421145,-128.64708,25.101135,0.0,0.0,0.0,0.0,0.0,0.0,0.0,0.61067814,0.0016305058,-0.79210955,-0.9459839,0.029296875,-0.29901123,0.078125,-0.119140625,-0.14941406,2.4427235,12.642929,0.03375653,-16.399122,-0.96990967,-0.082336426,-0.026794434,-0.0625,0.0126953125,-9.765625E-4,3.4880142,13.113873,-56.943626,-14.6147995,0.54833984,-0.40527344,0.7786255,-0.0048828125,-0.038085938,0.0029296875,64.20809,13.51874,-128.94585,-15.816979,0.0,0.0,0.0,0.0,0.0,0.0,0.0,2.0167198,-125.695114,0.22315311,-0.95910645,-0.12799072,0.013671875,-0.037109375,9.765625E-4,0.037109375,0.0,0.3553797,45.00538,0.3666212,
0.6445312403957361,33,-0.85443115,-0.07720947,0.5324707,-0.017578125,-0.03125,0.001953125,0.0,0.0,0.0,0.0,0.0,0.0,0.0,0.0,0.0,0.0,0.0,-0.61106217,-0.0019403442,0.79176605,-0.90753174,0.07885742,-0.28692627,-0.09765625,0.047851562,0.0107421875,4.787452,-12.650882,-0.040171143,16.392012,-0.96221924,0.11254883,0.059753418,-0.032226562,0.02734375,0.033203125,0.81469357,-14.9998865,-56.795105,11.575661,0.62731934,0.3690796,0.7124634,0.013671875,0.016601562,-0.033203125,10.388,-17.053104,-128.51157,5.336241,0.0,0.0,0.0,0.0,0.0,0.0,0.0,-14.456017,-128.6607,25.169062,0.0,0.0,0.0,0.0,0.0,0.0,0.0,0.61106217,0.0019403442,-0.79176605,-0.9570923,0.04107666,-0.28186035,0.076171875,-0.1171875,-0.16699219,2.4192939,12.650882,0.040171143,-16.392012,-0.9555664,-0.061035156,-0.035827637,-0.026367188,0.01171875,0.036132812,3.470062,13.147737,-56.93888,-14.63621,0.55285645,-0.38458252,0.739563,-0.0048828125,-0.038085938,0.021484375,63.984722,13.535463,-128.94618,-15.843413,0.0,0.0,0.0,0.0,0.0,0.0,0.0,2.0948257,-125.69672,0.2389307,-0.9795532,-0.14935303,0.024169922,-0.056640625,0.0,0.056640625,0.0,0.33539492,45.00386,0.369137,
0.6640624901046978,34,-0.83947754,-0.07720947,0.5401001,-0.017578125,-0.0126953125,0.0029296875,0.0,0.0,0.0,0.0,0.0,0.0,0.0,0.0,0.0,0.0,0.0,-0.6104028,-0.0014847473,0.7923365,-0.9227905,0.062438965,-0.28686523,-0.022460938,0.06542969,0.0107421875,4.7943215,-12.637232,-0.030738875,16.403822,-0.96276855,0.09552002,0.074523926,-0.08984375,0.029296875,-0.0048828125,0.7778319,-14.984067,-56.784893,11.568914,0.6255493,0.3857422,0.7097168,0.013671875,-0.0029296875,-0.0146484375,10.375927,-17.019386,-128.50447,5.359994,0.0,0.0,0.0,0.0,0.0,0.0,0.0,-14.44938,-128.66216,25.197056,0.0,0.0,0.0,0.0,0.0,0.0,0.0,0.6104028,0.0014847473,-0.7923365,-0.9540405,0.03515625,-0.28399658,0.08300781,-0.10449219,-0.13378906,2.3945732,12.637232,0.030738875,-16.403822,-0.965271,-0.053222656,-0.018859863,-0.0625,0.0126953125,-9.765625E-4,3.4254842,13.1477165,-56.947014,-14.690776,0.5601196,-0.42785645,0.76672363,-0.0048828125,-0.018554688,0.0029296875,63.689507,13.538464,-128.94876,-15.892587,0.0,0.0,0.0,0.0,0.0,0.0,0.0,2.1801977,-125.7085,0.25178814,-0.9824829,-0.1315918,0.010620117,-0.056640625,-0.018554688,0.037109375,0.0,0.36393458,45.005848,0.36470497,
0.6835937398136595,35,-0.8275757,-0.058532715,0.53411865,0.001953125,-0.03125,0.020507812,0.0,0.0,0.0,0.0,0.0,0.0,0.0,0.0,0.0,0.0,0.0,-0.6085371,-0.0014733966,0.79370886,-0.94970703,0.07678223,-0.29119873,-0.060546875,-0.0068359375,0.0107421875,4.7425165,-12.598603,-0.030503877,16.432234,-0.947937,0.087402344,0.053649902,-0.0703125,0.047851562,0.013671875,0.76923114,-14.89699,-56.785885,11.6110735,0.60736084,0.38226318,0.69195557,0.033203125,-0.021484375,-0.015625,10.197787,-16.924026,-128.50961,5.4140415,0.0,0.0,0.0,0.0,0.0,0.0,0.0,-14.292098,-128.66461,25.242449,0.0,0.0,0.0,0.0,0.0,0.0,0.0,0.6085371,0.0014733966,-0.79370886,-0.9530029,0.02331543,-0.28619385,0.061523438,-0.12207031,-0.15136719,2.4115958,12.598603,0.030503877,-16.432234,-0.95544434,-0.061279297,-0.015991211,-0.06347656,0.01171875,0.017578125,3.4142632,13.173762,-56.947174,-14.753318,0.5690918,-0.42163086,0.75860596,-0.0048828125,-0.018554688,-0.016601562,63.1875,13.5637045,-128.95125,-15.969072,0.0,0.0,0.0,0.0,0.0,0.0,0.0,2.3487444,-125.700584,0.27093887,-0.9874878,-0.122680664,8.544922E-4,-0.037109375,9.765625E-4,-9.765625E-4,0.0,0.38008946,45.00343,0.37495664,
0.7031249895226211,36,-0.8364868,-0.05859375,0.5124512,-0.016601562,-0.049804688,0.020507812,0.0,0.0,0.0,0.0,0.0,0.0,0.0,0.0,0.0,0.0,0.0,-0.60870546,-9.301575E-4,0.7935338,-0.9329834,0.048828125,-0.2828369,-0.022460938,0.0107421875,0.029296875,4.7469344,-12.602089,-0.019257136,16.42861,-0.9614258,0.10632324,0.07458496,-0.032226562,0.02734375,0.013671875,0.71791565,-14.861958,-56.779373,11.61292,0.59558105,0.39611816,0.70495605,-0.005859375,-0.021484375,-0.015625,10.061926,-16.865477,-128.50653,5.484507,0.0,0.0,0.0,0.0,0.0,0.0,0.0,-14.209324,-128.65138,25.308226,0.0,0.0,0.0,0.0,0.0,0.0,0.0,0.60870546,9.301575E-4,-0.7935338,-0.9610596,0.022338867,-0.27923584,0.078125,-0.10058594,-0.16894531,2.3796504,12.602089,0.019257136,-16.42861,-0.9557495,-0.07287598,-0.022949219,-0.06347656,-0.0078125,0.037109375,3.4125423,13.228404,-56.960064,-14.78608,0.55566406,-0.3862915,0.72558594,0.013671875,-0.018554688,0.0029296875,63.01221,13.622155,-128.96591,-16.032738,0.0,0.0,0.0,0.0,0.0,0.0,0.0,2.4467497,-125.72107,0.2358551,-0.9621582,-0.1270752,0.02166748,-0.07519531,0.01953125,0.018554688,0.0,0.38834417,45.00189,0.3506417,
0.7226562392315828,37,-0.8526001,-0.070251465,0.550354,0.020507812,-0.0126953125,0.0390625,0.0,0.0,0.0,0.0,0.0,0.0,0.0,0.0,0.0,0.0,0.0,-0.6097544,-0.0011668019,0.79274917,-0.94262695,0.078552246,-0.29034424,-0.09765625,0.029296875,-0.0078125,4.74776,-12.623807,-0.024156418,16.412365,-0.9487915,0.09320068,0.066589355,-0.05078125,0.046875,0.032226562,0.7228051,-14.913257,-56.78253,11.60272,0.6188965,0.40533447,0.7237549,-0.005859375,-0.0029296875,-0.0146484375,10.028464,-16.923841,-128.51208,5.48538,0.0,0.0,0.0,0.0,0.0,0.0,0.0,-14.278423,-128.66144,25.310646,0.0,0.0,0.0,0.0,0.0,0.0,0.0,0.6097544,0.0011668019,-0.79274917,-0.96307373,0.0134887695,-0.2774048,0.06542969,-0.10644531,-0.13574219,2.3677766,12.623807,0.024156418,-16.412365,-0.96343994,-0.05895996,-0.030822754,-0.025390625,0.01171875,0.017578125,3.3917677,13.280739,-56.957394,-14.803971,0.5463867,-0.39038086,0.77856445,0.032226562,9.765625E-4,0.0029296875,63.24766,13.677606,-128.9617,-16.058933,0.0,0.0,0.0,0.0,0.0,0.0,0.0,2.4410954,-125.72014,0.16989899,-0.9846802,-0.15142822,0.0390625,-0.07519531,-0.018554688,0.017578125,0.0,0.37984893,45.002663,0.3584031,
0.7421874889405445,38,-0.8303833,-0.06945801,0.51519775,-0.055664062,0.024414062,0.00390625,0.0,0.0,0.0,0.0,0.0,0.0,0.0,0.0,0.0,0.0,0.0,-0.611033,-7.10638E-4,0.7918269,-0.9196167,0.07305908,-0.26898193,-0.060546875,0.0107421875,0.0107421875,4.76966,-12.650277,-0.0147124175,16.393272,-0.9684448,0.105773926,0.060668945,-0.032226562,0.045898438,0.033203125,0.694925,-14.950251,-56.775177,11.608585,0.6125488,0.38690186,0.7156372,0.033203125,-0.059570312,-0.015625,9.9895,-16.942646,-128.51463,5.572609,0.0,0.0,0.0,0.0,0.0,0.0,0.0,-14.312774,-128.65846,25.40198,0.0,0.0,0.0,0.0,0.0,0.0,0.0,0.611033,7.10638E-4,-0.7918269,-0.95196533,0.012451172,-0.27947998,0.08300781,-0.10449219,-0.13378906,2.286874,12.650277,0.0147124175,-16.393272,-0.96539307,-0.105895996,-0.025878906,-0.0625,0.05078125,0.017578125,3.3651686,13.330727,-56.968033,-14.844907,0.57580566,-0.40216064,0.73254395,0.013671875,9.765625E-4,-0.016601562,63.40553,13.72314,-128.97159,-16.133303,0.0,0.0,0.0,0.0,0.0,0.0,0.0,2.4319658,-125.73748,0.058898926,-0.97436523,-0.13079834,0.018615723,-0.056640625,9.765625E-4,0.017578125,0.0,0.37137145,45.0052,0.32696873,
0.7617187386495062,39,-0.8192749,-0.08227539,0.513855,0.020507812,-0.03125,0.001953125,0.0,0.0,0.0,0.0,0.0,0.0,0.0,0.0,0.0,0.0,0.0,-0.6106038,-3.3308053E-4,0.7921558,-0.93170166,0.06933594,-0.26190186,-0.00390625,0.0107421875,0.029296875,4.755016,-12.641392,-0.0068958015,16.40008,-0.9607544,0.09460449,0.064575195,-0.03125,0.045898438,0.013671875,0.68499887,-14.925431,-56.766567,11.627623,0.621521,0.38684082,0.70184326,0.013671875,-0.001953125,0.00390625,9.911137,-16.886892,-128.50356,5.6258693,0.0,0.0,0.0,0.0,0.0,0.0,0.0,-14.255379,-128.65286,25.453798,0.0,0.0,0.0,0.0,0.0,0.0,0.0,0.6106038,3.3308053E-4,-0.7921558,-0.95703125,0.02130127,-0.274292,0.10058594,-0.10253906,-0.13183594,2.2727947,12.641392,0.0068958015,-16.40008,-0.9445801,-0.06335449,-0.023986816,-0.025390625,0.01171875,0.017578125,3.3378298,13.359376,-56.97716,-14.892029,0.57580566,-0.40216064,0.73254395,0.013671875,9.765625E-4,-0.016601562,63.571728,13.727377,-128.98158,-16.17873,0.0,0.0,0.0,0.0,0.0,0.0,0.0,2.436203,-125.747475,0.013471603,-0.97436523,-0.13360596,0.006591797,-0.017578125,0.020507812,-9.765625E-4,0.0,0.3877918,45.00503,0.3178383,
0.7812499883584679,40,-0.8463135,-0.08416748,0.5213623,-0.017578125,-0.0126953125,0.0029296875,0.0,0.0,0.0,0.0,0.0,0.0,0.0,0.0,0.0,0.0,0.0,-0.60990506,-7.064454E-5,0.7926547,-0.93084717,0.057678223,-0.28674316,-0.022460938,0.0107421875,0.029296875,4.7273746,-12.626927,-0.001462562,16.41041,-0.96661377,0.09979248,0.06060791,-0.032226562,0.02734375,0.033203125,0.6723125,-14.8915,-56.76129,11.643267,0.60565186,0.39587402,0.71087646,0.013671875,-0.021484375,0.0029296875,9.894575,-16.841429,-128.50618,5.6591454,0.0,0.0,0.0,0.0,0.0,0.0,0.0,-14.215027,-128.64616,25.487402,0.0,0.0,0.0,0.0,0.0,0.0,0.0,0.60990506,7.064454E-5,-0.7926547,-0.94696045,0.024291992,-0.28723145,0.12988281,-0.11328125,-0.14453125,2.2965248,12.626927,0.001462562,-16.41041,-0.94940186,-0.05645752,-0.021972656,-0.025390625,0.03125,0.017578125,3.3429286,13.402362,-56.984066,-14.936452,0.5800171,-0.43847656,0.75665283,-0.00390625,0.018554688,0.021484375,63.547935,13.771988,-128.98592,-16.254683,0.0,0.0,0.0,0.0,0.0,0.0,0.0,2.4463625,-125.75253,-0.08610153,-0.9876709,-0.14526367,0.017333984,-0.017578125,0.01953125,0.037109375,0.0,0.41206318,45.0034,0.32107133,
0.8007812380674296,41,-0.8464966,-0.074279785,0.5363159,0.020507812,-0.049804688,0.001953125,0.0,0.0,0.0,0.0,0.0,0.0,0.0,0.0,0.0,0.0,0.0,-0.6083497,3.890912E-4,0.79390734,-0.9477539,0.07281494,-0.29919434,-0.00390625,0.029296875,0.047851562,4.7266703,-12.594723,0.008055393,16.436344,-0.97198486,0.08886719,0.07446289,-0.0126953125,0.045898438,0.051757812,0.6180231,-14.826504,-56.753414,11.648954,0.6112671,0.37835693,0.684021,0.013671875,-0.021484375,-0.015625,9.727669,-16.744017,-128.50049,5.710524,0.0,0.0,0.0,0.0,0.0,0.0,0.0,-14.079219,-128.64825,25.534124,0.0,0.0,0.0,0.0,0.0,0.0,0.0,0.6083497,-3.890912E-4,-0.79390734,-0.96209717,0.02734375,-0.28308105,0.115234375,-0.1171875,-0.12792969,2.325826,12.594723,-0.008055393,-16.436344,-0.96417236,-0.057434082,0.012878418,-0.0068359375,0.049804688,0.03515625,3.3139892,13.412475,-56.989704,-14.976739,0.56481934,-0.399292,0.73358154,0.013671875,0.0,0.0029296875,63.091625,13.785668,-128.9906,-16.261776,0.0,0.0,0.0,0.0,0.0,0.0,0.0,2.5877752,-125.75592,-0.005710602,-0.9702759,-0.12878418,0.008666992,9.765625E-4,0.057617188,0.0,0.0,0.4411906,45.005238,0.31601548,
0.8203124877763913,42,-0.850647,-0.059448242,0.5385742,0.01953125,0.005859375,0.001953125,0.0,0.0,0.0,0.0,0.0,0.0,0.0,0.0,0.0,0.0,0.0,-0.60807717,6.749891E-4,0.7941137,-0.92285156,0.05444336,-0.26812744,0.015625,0.028320312,0.029296875,4.726753,-12.589082,0.013974357,16.440615,-0.97369385,0.098083496,0.059631348,-0.0146484375,-0.029296875,0.051757812,0.6205508,-14.839959,-56.74602,11.644738,0.6092529,0.3713379,0.7085571,0.033203125,-0.001953125,0.00390625,9.447581,-16.730722,-128.49649,5.715703,0.0,0.0,0.0,0.0,0.0,0.0,0.0,-13.982989,-128.65385,25.526928,0.0,0.0,0.0,0.0,0.0,0.0,0.0,0.60807717,-6.749891E-4,-0.7941137,-0.95806885,0.024353027,-0.2890625,0.08496094,-0.087890625,-0.13671875,2.3261626,12.589082,-0.013974357,-16.440615,-0.960022,-0.03753662,-0.031799316,-0.026367188,0.01171875,0.036132812,3.2563617,13.429745,-56.996292,-15.026194,0.56707764,-0.40966797,0.75756836,0.032226562,-0.018554688,0.021484375,63.177063,13.786349,-128.9975,-16.27958,0.0,0.0,0.0,0.0,0.0,0.0,0.0,2.589385,-125.76175,-0.02215004,-0.98864746,-0.144104,0.0034179688,-0.037109375,0.038085938,0.037109375,0.0,0.46639222,45.00489,0.31887707,
0.839843737485353,43,-0.8568115,-0.042663574,0.5487671,0.020507812,-0.0126953125,0.001953125,0.0,0.0,0.0,0.0,0.0,0.0,0.0,0.0,0.0,0.0,0.0,-0.6064661,9.3576685E-4,0.79527736,-0.9376221,0.07751465,-0.29138184,0.015625,-0.0078125,0.029296875,4.778031,-12.555731,0.019373272,16.464706,-0.9671631,0.082092285,0.05456543,0.0068359375,0.044921875,0.013671875,0.64649564,-14.839064,-56.7385,11.667218,0.60095215,0.41748047,0.7091675,-0.025390625,-0.021484375,-0.015625,9.369994,-16.701206,-128.49002,5.740094,0.0,0.0,0.0,0.0,0.0,0.0,0.0,-13.940985,-128.64682,25.549854,0.0,0.0,0.0,0.0,0.0,0.0,0.0,0.6064661,-9.3576685E-4,-0.79527736,-0.95806885,0.02130127,-0.2713623,0.08105469,-0.12207031,-0.13183594,2.3020577,12.555731,-0.019373272,-16.464706,-0.9614868,-0.0690918,-6.1035156E-5,-0.06347656,0.01171875,0.017578125,3.2197223,13.457162,-57.004257,-15.082355,0.56365967,-0.40716553,0.72662354,0.015625,0.076171875,0.001953125,62.726543,13.849607,-129.0095,-16.31553,0.0,0.0,0.0,0.0,0.0,0.0,0.0,2.7306204,-125.771576,-0.005493164,-0.97436523,-0.1270752,0.029663086,0.020507812,9.765625E-4,0.017578125,0.0,0.45257837,45.002808,0.29217649,
0.8593749871943147,44,-0.87158203,-0.04864502,0.51135254,0.057617188,-0.03125,-0.017578125,0.0,0.0,0.0,0.0,0.0,0.0,0.0,0.0,0.0,0.0,0.0,-0.60738844,0.0010291771,0.7945425,-0.9104614,0.08392334,-0.29571533,0.015625,0.028320312,0.029296875,4.7804084,-12.574823,0.021307157,16.449492,-0.98864746,0.09979248,0.046691895,-0.0126953125,0.045898438,0.033203125,0.66352355,-14.88929,-56.736248,11.662061,0.61602783,0.35864258,0.6936035,-0.005859375,-0.001953125,0.00390625,9.324766,-16.755363,-128.48131,5.7434583,0.0,0.0,0.0,0.0,0.0,0.0,0.0,-13.973759,-128.63107,25.55139,0.0,0.0,0.0,0.0,0.0,0.0,0.0,0.60738844,-0.0010291771,-0.7945425,-0.9449463,0.02331543,-0.28625488,0.11816406,-0.119140625,-0.11035156,2.3092732,12.574823,-0.021307157,-16.449492,-0.96466064,-0.068725586,-0.031799316,0.01171875,0.03125,0.016601562,3.2276173,13.5245495,-57.003395,-15.101299,0.59606934,-0.4102173,0.7484131,0.013671875,0.0,0.021484375,62.53589,13.886695,-129.00764,-16.357569,0.0,0.0,0.0,0.0,0.0,0.0,0.0,2.878149,-125.767586,0.027072906,-0.9763794,-0.12792969,0.020690918,9.765625E-4,0.01953125,0.018554688,0.0,0.45611954,45.001694,0.29038978,
0.8789062369032764,45,-0.8154297,-0.058654785,0.50805664,0.057617188,-0.03125,9.765625E-4,0.0,0.0,0.0,0.0,0.0,0.0,0.0,0.0,0.0,0.0,0.0,-0.6077153,3.9999373E-4,0.7944077,-0.93444824,0.093322754,-0.3170166,-0.041015625,0.029296875,0.029296875,4.7717133,-12.581592,0.008281121,16.446701,-0.97528076,0.10876465,0.014038086,-0.032226562,0.045898438,0.051757812,0.70192915,-14.9133005,-56.74763,11.654188,0.5821533,0.37579346,0.7047119,0.013671875,-0.0029296875,-0.033203125,9.335805,-16.817602,-128.48952,5.659743,0.0,0.0,0.0,0.0,0.0,0.0,0.0,-14.009138,-128.63425,25.46307,0.0,0.0,0.0,0.0,0.0,0.0,0.0,0.6077153,-3.9999373E-4,-0.7944077,-0.95910645,0.038085938,-0.27398682,0.095703125,-0.1171875,-0.14746094,2.336154,12.581592,-0.008281121,-16.446701,-0.9717407,-0.03265381,-0.00592041,-0.025390625,0.05078125,0.016601562,3.2401488,13.571466,-56.990013,-15.109698,0.56591797,-0.41046143,0.7446289,-0.00390625,0.018554688,0.001953125,61.99258,13.913815,-128.99423,-16.371767,0.0,0.0,0.0,0.0,0.0,0.0,0.0,3.0250902,-125.74875,0.08977699,-0.97735596,-0.12573242,0.0037841797,-0.017578125,0.020507812,-9.765625E-4,0.0,0.4398477,45.005795,0.31381887,
0.8984374866122381,46,-0.84246826,-0.03894043,0.48303223,0.020507812,-0.03125,0.001953125,0.0,0.0,0.0,0.0,0.0,0.0,0.0,0.0,0.0,0.0,0.0,-0.60922647,5.503902E-4,0.7931566,-0.9147949,0.061401367,-0.30969238,-0.041015625,0.06542969,0.047851562,4.84432,-12.612878,0.011394777,16.4208,-0.9852295,0.11425781,0.060668945,-0.051757812,0.028320312,0.051757812,0.7433581,-15.071155,-56.73652,11.610331,0.58721924,0.3786621,0.7027588,-0.025390625,-0.021484375,0.0029296875,9.415988,-16.984331,-128.48045,5.630889,0.0,0.0,0.0,0.0,0.0,0.0,0.0,-14.207435,-128.61826,25.440079,0.0,0.0,0.0,0.0,0.0,0.0,0.0,0.60922647,-5.503902E-4,-0.7931566,-0.9561157,0.037109375,-0.27697754,0.091796875,-0.15136719,-0.14257812,2.3672805,12.612878,-0.011394777,-16.4208,-0.96466064,-0.072753906,-0.015930176,-0.025390625,0.01171875,0.017578125,3.2455218,13.659014,-56.995995,-15.086655,0.5596924,-0.4163208,0.732666,0.013671875,0.0,0.0029296875,61.812775,13.997196,-129.00159,-16.331629,0.0,0.0,0.0,0.0,0.0,0.0,0.0,3.1734104,-125.751434,0.17337608,-0.98046875,-0.13250732,0.004638672,-0.037109375,-0.018554688,0.017578125,0.0,0.44115716,45.002514,0.30762613,
0.9179687363211998,47,-0.838501,-0.0625,0.5184326,0.057617188,-0.0126953125,0.01953125,0.0,0.0,0.0,0.0,0.0,0.0,0.0,0.0,0.0,0.0,0.0,-0.6085836,4.520933E-4,0.79364556,-0.94262695,0.07751465,-0.2755127,-0.060546875,0.046875,0.0107421875,4.844684,-12.599566,0.009359725,16.430923,-0.9795532,0.099731445,0.030822754,-0.032226562,0.02734375,0.033203125,0.79524666,-15.093256,-56.73887,11.621975,0.61950684,0.38500977,0.6949463,0.033203125,-0.001953125,0.00390625,9.300814,-16.9787,-128.48209,5.6187706,0.0,0.0,0.0,0.0,0.0,0.0,0.0,-14.168228,-128.62134,25.421986,0.0,0.0,0.0,0.0,0.0,0.0,0.0,0.6085836,-4.520933E-4,-0.79364556,-0.940979,0.034179688,-0.29003906,0.11816406,-0.10058594,-0.13085938,2.3936737,12.599566,-0.009359725,-16.430923,-0.96343994,-0.061035156,-0.022888184,-0.025390625,0.05078125,0.016601562,3.2529328,13.670639,-56.990623,-15.100746,0.5466919,-0.44055176,0.7418823,0.0146484375,0.038085938,0.021484375,61.297184,14.017982,-128.99304,-16.352127,0.0,0.0,0.0,0.0,0.0,0.0,0.0,3.3213816,-125.73911,0.23516655,-0.9784546,-0.13555908,0.010559082,-0.017578125,0.01953125,0.018554688,0.0,0.44573802,45.00225,0.31616586,
0.9374999860301615,48,-0.8356323,-0.06829834,0.55596924,0.020507812,-0.03125,0.001953125,0.0,0.0,0.0,0.0,0.0,0.0,0.0,0.0,0.0,0.0,0.0,-0.60784286,7.6692784E-4,0.7942421,-0.92089844,0.052490234,-0.27508545,-0.022460938,0.046875,0.047851562,4.812348,-12.584232,0.015877793,16.443275,-0.96569824,0.12805176,0.026062012,-0.032226562,0.045898438,0.033203125,0.7932757,-15.057169,-56.737362,11.642844,0.62384033,0.40130615,0.72369385,0.013671875,-0.021484375,-0.015625,9.267537,-16.96553,-128.4774,5.612584,0.0,0.0,0.0,0.0,0.0,0.0,0.0,-14.131903,-128.62189,25.413624,0.0,0.0,0.0,0.0,0.0,0.0,0.0,0.60784286,-7.6692784E-4,-0.7942421,-0.95306396,0.03326416,-0.3008423,0.09765625,-0.08105469,-0.16992188,2.4051754,12.584232,-0.015877793,-16.443275,-0.95983887,-0.07659912,-0.03186035,-0.025390625,0.01171875,0.017578125,3.2736306,13.6565485,-56.998974,-15.133362,0.5621338,-0.39678955,0.7585449,0.0146484375,0.038085938,0.001953125,61.760567,13.953993,-129.00089,-16.418207,0.0,0.0,0.0,0.0,0.0,0.0,0.0,3.177082,-125.761795,0.12048149,-0.9755249,-0.14837646,0.022216797,9.765625E-4,9.765625E-4,0.037109375,0.0,0.47247505,45.003014,0.31813544,
0.9570312357391232,49,-0.8306885,-0.050598145,0.545166,0.01953125,-0.0126953125,-0.016601562,0.0,0.0,0.0,0.0,0.0,0.0,0.0,0.0,0.0,0.0,0.0,-0.60766184,9.0026436E-4,0.79439694,-0.93273926,0.06945801,-0.27770996,-0.041015625,-0.0068359375,0.029296875,4.807705,-12.580485,0.018638257,16.44648,-0.979126,0.11633301,0.043823242,-0.032226562,0.02734375,0.033203125,0.76438266,-15.050712,-56.730515,11.6546,0.6091919,0.36950684,0.6967163,0.013671875,-0.0029296875,-0.0146484375,9.173311,-17.008556,-128.47205,5.6405215,0.0,0.0,0.0,0.0,0.0,0.0,0.0,-14.121063,-128.62161,25.432945,0.0,0.0,0.0,0.0,0.0,0.0,0.0,0.60766184,-9.0026436E-4,-0.79439694,-0.9570923,0.029296875,-0.28900146,0.026367188,-0.107421875,-0.17382812,2.3560095,12.580485,-0.018638257,-16.44648,-0.9794922,-0.06652832,-0.018798828,-0.0625,0.0126953125,-9.765625E-4,3.2081487,13.620495,-56.99876,-15.171904,0.5618286,-0.4064331,0.73864746,0.0146484375,0.038085938,0.001953125,61.70233,13.918066,-129.0044,-16.429096,0.0,0.0,0.0,0.0,0.0,0.0,0.0,3.1468801,-125.76985,0.11220169,-0.97442627,-0.1472168,0.008300781,9.765625E-4,0.01953125,0.018554688,0.0,0.47619724,45.003593,0.3132587,
0.9765624854480849,50,-0.8555908,-0.066345215,0.5465088,0.020507812,-0.0126953125,0.020507812,0.0,0.0,0.0,0.0,0.0,0.0,0.0,0.0,0.0,0.0,0.0,-0.60802054,0.0010349546,0.7941233,-0.91967773,0.0703125,-0.30462646,-0.00390625,0.0107421875,0.0107421875,4.82032,-12.587912,0.021426765,16.440813,-0.9710083,0.120666504,0.064697266,-0.0126953125,0.045898438,0.051757812,0.78807867,-15.10474,-56.72905,11.649309,0.60943604,0.38305664,0.71362305,0.013671875,-0.021484375,0.0029296875,9.352106,-17.062845,-128.46844,5.6414585,0.0,0.0,0.0,0.0,0.0,0.0,0.0,-14.2445545,-128.61186,25.443596,0.0,0.0,0.0,0.0,0.0,0.0,0.0,0.60802054,-0.0010349546,-0.7941233,-0.95495605,0.0076293945,-0.29534912,0.06640625,-0.12597656,-0.11621094,2.3471036,12.587912,-0.021426765,-16.440813,-0.96154785,-0.063964844,-0.025878906,-0.044921875,0.01171875,0.017578125,3.2231255,13.634436,-57.005196,-15.197874,0.55578613,-0.4255371,0.7437744,-0.0048828125,0.0,0.001953125,61.273827,13.928988,-129.00916,-16.511045,0.0,0.0,0.0,0.0,0.0,0.0,0.0,3.2697906,-125.76356,0.10097885,-0.9673462,-0.14642334,0.012268066,9.765625E-4,0.01953125,0.018554688,0.0,0.4860838,45.003525,0.31351852,
0.9960937351570466,51,-0.8381958,-0.09802246,0.5130615,0.01953125,-0.0126953125,-0.016601562,0.0,0.0,0.0,0.0,0.0,0.0,0.0,0.0,0.0,0.0,0.0,-0.6072229,0.0011675404,0.79471344,-0.93865967,0.07458496,-0.29632568,-0.022460938,0.06542969,0.0107421875,4.8426213,-12.571397,0.02417171,16.453032,-0.95910645,0.117492676,0.05279541,-0.0126953125,0.045898438,0.033203125,0.8052718,-15.123133,-56.722095,11.6443,0.59588623,0.4105835,0.72680664,-0.005859375,0.016601562,0.00390625,9.395968,-17.074242,-128.46184,5.628944,0.0,0.0,0.0,0.0,0.0,0.0,0.0,-14.276253,-128.60164,25.433643,0.0,0.0,0.0,0.0,0.0,0.0,0.0,0.6072229,-0.0011675404,-0.79471344,-0.96203613,0.0134887695,-0.28234863,0.13769531,-0.10058594,-0.111328125,2.3527672,12.571397,-0.02417171,-16.453032,-0.96343994,-0.057006836,-0.031799316,-0.025390625,0.01171875,0.017578125,3.2336166,13.658947,-57.010235,-15.263041,0.5616455,-0.43121338,0.7317505,0.032226562,9.765625E-4,0.0029296875,60.99475,13.9278965,-129.01108,-16.625248,0.0,0.0,0.0,0.0,0.0,0.0,0.0,3.368166,-125.76716,0.049264908,-0.9661865,-0.12585449,0.002746582,-0.017578125,9.765625E-4,-9.765625E-4,0.0,0.498523,45.00267,0.31479543,
1.0156249848660084,52,-0.82263184,-0.05456543,0.539978,0.057617188,0.005859375,0.020507812,0.0,0.0,0.0,0.0,0.0,0.0,0.0,0.0,0.0,0.0,0.0,-0.60727066,0.0012398479,0.7947083,-0.9359741,0.05279541,-0.28570557,-0.022460938,-0.0078125,0.0107421875,4.7939944,-12.572385,0.0256687,16.452927,-0.9614868,0.10205078,0.03387451,-0.032226562,0.045898438,0.033203125,0.8118062,-15.096979,-56.72376,11.6594925,0.6235962,0.38781738,0.7008667,0.033203125,-0.0029296875,-0.0146484375,9.426773,-17.072548,-128.45572,5.6056767,0.0,0.0,0.0,0.0,0.0,0.0,0.0,-14.276793,-128.59615,25.410685,0.0,0.0,0.0,0.0,0.0,0.0,0.0,0.60727066,-0.0012398479,-0.7947083,-0.9499512,0.012512207,-0.29333496,0.16308594,-0.12597656,-0.13867188,2.3633087,12.572385,-0.0256687,-16.452927,-0.9603882,-0.05316162,-0.031799316,-0.026367188,0.03125,0.036132812,3.2563617,13.684679,-57.009888,-15.317932,0.56689453,-0.4104004,0.74157715,-0.0048828125,0.0,0.001953125,60.80714,13.9221325,-129.01178,-16.753757,0.0,0.0,0.0,0.0,0.0,0.0,0.0,3.4421864,-125.77162,-0.026464462,-0.9956665,-0.12756348,0.009765625,-0.037109375,0.057617188,0.038085938,0.0,0.5187518,45.00349,0.3261892,
1.03515623457497,53,-0.8587036,-0.054504395,0.5427246,0.076171875,0.005859375,-0.036132812,0.0,0.0,0.0,0.0,0.0,0.0,0.0,0.0,0.0,0.0,0.0,-0.60726774,0.0010995567,0.7947284,-0.9307251,0.06750488,-0.28466797,-0.041015625,0.0107421875,0.029296875,4.8036284,-12.572324,0.022764236,16.453342,-0.9515381,0.10144043,0.05078125,-0.032226562,0.045898438,0.033203125,0.8275619,-15.111776,-56.72774,11.670944,0.6265869,0.38372803,0.7145996,0.013671875,0.016601562,0.022460938,9.363951,-17.082478,-128.46031,5.6233425,0.0,0.0,0.0,0.0,0.0,0.0,0.0,-14.275831,-128.61137,25.427462,0.0,0.0,0.0,0.0,0.0,0.0,0.0,0.60726774,-0.0010995567,-0.7947284,-0.9530029,0.018432617,-0.28729248,0.12890625,-0.14941406,-0.12207031,2.3502703,12.572324,-0.022764236,-16.453342,-0.9612427,-0.05340576,-0.0079956055,-0.025390625,0.01171875,0.017578125,3.2499824,13.727455,-57.00843,-15.3574095,0.55426025,-0.38909912,0.7685547,-0.00390625,0.018554688,0.001953125,60.86609,13.979666,-129.00813,-16.816425,0.0,0.0,0.0,0.0,0.0,0.0,0.0,3.4618702,-125.77844,-0.11161232,-0.96032715,-0.15350342,0.029052734,-0.07519531,0.01953125,-9.765625E-4,0.0,0.50209284,45.00434,0.32139274,
1.0546874842839318,54,-0.8643799,-0.062561035,0.49017334,0.076171875,0.005859375,-0.036132812,0.0,0.0,0.0,0.0,0.0,0.0,0.0,0.0,0.0,0.0,0.0,-0.60654634,0.0013862033,0.79517823,-0.91290283,0.051452637,-0.2949829,-0.041015625,0.029296875,0.029296875,4.850463,-12.557389,0.028698705,16.462654,-0.9541626,0.115112305,0.06573486,0.0068359375,0.044921875,0.033203125,0.8067285,-15.11426,-56.718372,11.646016,0.59954834,0.39300537,0.71673584,0.013671875,-0.021484375,-0.015625,9.290813,-17.080427,-128.4509,5.6126375,0.0,0.0,0.0,0.0,0.0,0.0,0.0,-14.250494,-128.58669,25.412788,0.0,0.0,0.0,0.0,0.0,0.0,0.0,0.60654634,-0.0013862033,-0.79517823,-0.95202637,0.034240723,-0.29193115,0.11816406,-0.10058594,-0.13085938,2.3292737,12.557389,-0.028698705,-16.462654,-0.9683838,-0.057006836,-0.023803711,-0.025390625,0.0126953125,-9.765625E-4,3.2072942,13.686872,-57.014385,-15.367625,0.5638428,-0.40740967,0.7406006,0.013671875,0.0,0.0029296875,61.004612,13.929071,-129.01543,-16.779142,0.0,0.0,0.0,0.0,0.0,0.0,0.0,3.3624935,-125.787315,-0.10462761,-0.9682617,-0.14025879,-0.009521484,0.020507812,0.020507812,-9.765625E-4,0.0,0.510268,45.000732,0.31077436,
1.0742187339928935,55,-0.8538208,-0.0368042,0.53985596,0.01953125,0.005859375,-0.016601562,0.0,0.0,0.0,0.0,0.0,0.0,0.0,0.0,0.0,0.0,0.0,-0.6063252,6.4631226E-4,0.7954602,-0.9404297,0.09338379,-0.30303955,0.052734375,0.009765625,0.047851562,4.8436327,-12.552812,0.013380673,16.468493,-0.96240234,0.10760498,0.05871582,0.026367188,0.026367188,0.0146484375,0.842791,-15.155695,-56.730232,11.652426,0.5894165,0.3914795,0.6861572,0.013671875,-0.09863281,-0.015625,9.233588,-17.111534,-128.46681,5.6172543,0.0,0.0,0.0,0.0,0.0,0.0,0.0,-14.272036,-128.61069,25.41642,0.0,0.0,0.0,0.0,0.0,0.0,0.0,0.6063252,-6.4631226E-4,-0.7954602,-0.95910645,0.031311035,-0.29486084,0.15039062,-0.13183594,-0.10546875,2.3224576,12.552812,-0.013380673,-16.468493,-0.9735718,-0.0625,-0.043640137,-0.0078125,-0.0078125,0.017578125,3.1954305,13.681454,-57.000996,-15.39491,0.56500244,-0.3935547,0.746521,-0.0048828125,0.0,0.001953125,61.04662,13.914565,-128.99844,-16.813738,0.0,0.0,0.0,0.0,0.0,0.0,0.0,3.3687696,-125.77844,-0.12352562,-0.9925537,-0.11199951,0.007080078,0.040039062,0.07714844,0.018554688,0.0,0.49378583,45.00473,0.33981293,
1.0937499837018552,56,-0.8493042,-0.08618164,0.5183716,0.01953125,-0.0126953125,-0.016601562,0.0,0.0,0.0,0.0,0.0,0.0,0.0,0.0,0.0,0.0,0.0,-0.60626024,3.5514636E-4,0.79544216,-0.9224243,0.09307861,-0.30926514,0.052734375,0.045898438,0.029296875,4.841245,-12.551468,0.0073526273,16.468119,-0.97283936,0.093933105,0.06854248,-0.0126953125,0.02734375,0.013671875,0.9329317,-15.236406,-56.736515,11.684799,0.61083984,0.3449707,0.7033081,-0.005859375,-0.001953125,0.00390625,9.135833,-17.17024,-128.47447,5.6510134,0.0,0.0,0.0,0.0,0.0,0.0,0.0,-14.2985935,-128.62352,25.445866,0.0,0.0,0.0,0.0,0.0,0.0,0.0,0.60626024,-3.5514636E-4,-0.79544216,-0.9510498,0.030212402,-0.28411865,0.0859375,-0.10644531,-0.11621094,2.3356512,12.551468,-0.0073526273,-16.468119,-0.95770264,-0.0748291,-0.018920898,0.0107421875,-0.0078125,0.017578125,3.1984313,13.69343,-56.995605,-15.3904915,0.57110596,-0.40856934,0.75457764,0.013671875,0.0,0.0029296875,60.983337,13.913786,-128.99706,-16.794691,0.0,0.0,0.0,0.0,0.0,0.0,0.0,3.3974648,-125.777725,-0.08628845,-0.9783325,-0.11798096,0.0059814453,-0.017578125,-0.017578125,-9.765625E-4,0.0,0.4854246,45.002323,0.34988245,
1.1132812334108169,57,-0.8493042,-0.08618164,0.5183716,0.01953125,-0.0126953125,-0.016601562,0.0,0.0,0.0,0.0,0.0,0.0,0.0,0.0,0.0,0.0,0.0,-0.60626024,3.5514636E-4,0.79544216,-0.9406738,0.07763672,-0.29925537,-0.00390625,0.028320312,0.0107421875,4.8437133,-12.551468,0.0073526273,16.468119,-0.97265625,0.09906006,0.057617188,-0.0126953125,0.02734375,0.013671875,0.9149297,-15.232441,-56.73809,11.680063,0.6074219,0.3781128,0.72540283,-0.005859375,-0.021484375,-0.015625,9.185856,-17.18828,-128.47467,5.6448917,0.0,0.0,0.0,0.0,0.0,0.0,0.0,-14.329615,-128.62047,25.442081,0.0,0.0,0.0,0.0,0.0,0.0,0.0,0.60626024,-3.5514636E-4,-0.79544216,-0.95202637,0.02923584,-0.28015137,0.10058594,-0.10253906,-0.13183594,2.3630602,12.551468,-0.0073526273,-16.468119,-0.96136475,-0.05621338,-0.019897461,-0.025390625,0.03125,0.017578125,3.2062564,13.72432,-56.992474,-15.384611,0.55371094,-0.3973999,0.732605,0.013671875,-0.018554688,0.0029296875,60.651752,13.934678,-128.99742,-16.768782,0.0,0.0,0.0,0.0,0.0,0.0,0.0,3.523593,-125.78422,0.005548477,-0.97436523,-0.13372803,0.015563965,-0.037109375,0.057617188,0.018554688,0.0,0.4854246,45.002323,0.34988245,
1.1328124831197786,58,-0.8356323,-0.066345215,0.5500488,0.076171875,-0.03125,-0.017578125,0.0,0.0,0.0,0.0,0.0,0.0,0.0,0.0,0.0,0.0,0.0,-0.60306394,3.5633054E-4,0.7978622,-0.9445801,0.08148193,-0.27246094,0.015625,0.009765625,0.0107421875,4.7530794,-12.485294,0.0073771393,16.51822,-0.98895264,0.088012695,0.03967285,-0.0126953125,0.045898438,0.07128906,0.92999065,-15.148236,-56.739254,11.75597,0.62561035,0.3887329,0.69989014,0.013671875,0.036132812,-0.0146484375,9.200776,-17.106798,-128.47493,5.7008524,0.0,0.0,0.0,0.0,0.0,0.0,0.0,-14.245487,-128.62584,25.498207,0.0,0.0,0.0,0.0,0.0,0.0,0.0,0.60306394,-3.5633054E-4,-0.7978622,-0.95098877,0.018371582,-0.2833252,0.115234375,-0.1171875,-0.12792969,2.432928,12.485294,-0.0073771393,-16.51822,-0.97442627,-0.058776855,-0.026733398,0.01171875,0.01171875,0.017578125,3.193776,13.680443,-56.992374,-15.4592,0.5421753,-0.4102173,0.7706909,0.013671875,-0.018554688,-0.016601562,60.623043,13.885683,-128.9952,-16.840332,0.0,0.0,0.0,0.0,0.0,0.0,0.0,3.4889622,-125.77934,-0.05779457,-0.9816284,-0.1609497,0.018920898,9.765625E-4,0.020507812,-9.765625E-4,0.0,0.5299835,45.001354,0.38049006,
1.1523437328287403,59,-0.84368896,-0.054504395,0.54241943,0.057617188,-0.03125,-0.036132812,0.0,0.0,0.0,0.0,0.0,0.0,0.0,0.0,0.0,0.0,0.0,-0.60264945,-3.4591928E-4,0.7981729,-0.93255615,0.0814209,-0.3032837,-0.041015625,0.047851562,0.047851562,4.734,-12.476712,-0.007161606,16.524652,-0.9628906,0.12371826,0.04095459,-0.032226562,0.02734375,-0.0048828125,0.93857783,-15.155048,-56.752625,11.760984,0.60668945,0.40386963,0.6873169,0.033203125,-0.0029296875,-0.0146484375,9.213369,-17.11361,-128.4883,5.705867,0.0,0.0,0.0,0.0,0.0,0.0,0.0,-14.256872,-128.63765,25.501846,0.0,0.0,0.0,0.0,0.0,0.0,0.0,0.60264945,3.4591928E-4,-0.7981729,-0.95910645,0.029296875,-0.2810669,0.111328125,-0.13183594,-0.14355469,2.4565465,12.476712,0.007161606,-16.524652,-0.95080566,-0.0758667,-0.029907227,0.0126953125,0.03125,-0.001953125,3.1831536,13.709064,-56.978405,-15.491456,0.55792236,-0.41864014,0.7496948,-0.00390625,0.0,0.021484375,60.199238,13.9108095,-128.9818,-16.864477,0.0,0.0,0.0,0.0,0.0,0.0,0.0,3.6269245,-125.758514,-0.012960434,-0.97540283,-0.14038086,0.005432129,0.020507812,0.001953125,-0.020507812,0.0,0.5172006,45.001152,0.4100082,
1.171874982537702,60,-0.8555908,-0.042785645,0.50115967,0.01953125,0.005859375,-0.016601562,0.0,0.0,0.0,0.0,0.0,0.0,0.0,0.0,0.0,0.0,0.0,-0.6034601,-2.2756774E-4,0.7975765,-0.9384155,0.09423828,-0.2892456,-0.041015625,0.047851562,0.047851562,4.7546453,-12.493494,-0.0047113495,16.512304,-0.9636841,0.12884521,0.032043457,-0.032226562,0.0087890625,0.033203125,0.94976926,-15.231526,-56.749012,11.764918,0.600708,0.3988037,0.72076416,0.033203125,0.016601562,-0.0146484375,9.333363,-17.239845,-128.48404,5.732234,0.0,0.0,0.0,0.0,0.0,0.0,0.0,-14.412211,-128.63069,25.533596,0.0,0.0,0.0,0.0,0.0,0.0,0.0,0.6034601,2.2756774E-4,-0.7975765,-0.95202637,0.021362305,-0.28723145,0.16992188,-0.11328125,-0.10546875,2.4610043,12.493494,0.0047113495,-16.512304,-0.96569824,-0.064575195,-0.05065918,-0.0068359375,0.01171875,0.017578125,3.2082708,13.75333,-56.981228,-15.494026,0.567688,-0.4121704,0.72961426,-0.0048828125,-0.018554688,0.0029296875,59.781376,13.956009,-128.9809,-16.903555,0.0,0.0,0.0,0.0,0.0,0.0,0.0,3.7875328,-125.762634,0.019107819,-0.9783325,-0.12463379,-0.0071411133,0.040039062,0.0390625,-9.765625E-4,0.0,0.515424,45.001823,0.40281874,
1.1914062322466636,61,-0.82855225,-0.055603027,0.5222168,0.020507812,-0.0126953125,0.001953125,0.0,0.0,0.0,0.0,0.0,0.0,0.0,0.0,0.0,0.0,0.0,-0.604021,-4.0703267E-4,0.79713607,-0.94592285,0.0569458,-0.28552246,-0.00390625,-0.0078125,0.029296875,4.7520075,-12.505107,-0.008426841,16.503187,-0.9789429,0.121276855,0.040893555,-0.032226562,0.02734375,0.033203125,0.9421154,-15.211979,-56.756912,11.766074,0.6195679,0.38983154,0.7019043,0.013671875,-0.0029296875,-0.0146484375,9.203318,-17.208506,-128.49437,5.733856,0.0,0.0,0.0,0.0,0.0,0.0,0.0,-14.351644,-128.64217,25.53138,0.0,0.0,0.0,0.0,0.0,0.0,0.0,0.604021,4.0703267E-4,-0.79713607,-0.9540405,0.021362305,-0.2783203,0.08300781,-0.12402344,-0.11425781,2.4367867,12.505107,0.008426841,-16.503187,-0.9639282,-0.084472656,-0.019897461,0.0107421875,-0.0078125,0.017578125,3.1728046,13.794541,-56.97601,-15.515674,0.55029297,-0.40515137,0.7736206,-0.022460938,-9.765625E-4,0.021484375,59.502373,14.0351515,-128.97559,-16.913973,0.0,0.0,0.0,0.0,0.0,0.0,0.0,3.8850546,-125.75832,0.019004822,-0.97943115,-0.12670898,0.0037841797,0.020507812,0.0390625,0.018554688,0.0,0.49235505,45.001583,0.39605528,
1.2109374819556253,62,-0.8317871,-0.04663086,0.5541382,0.01953125,-0.0126953125,-0.016601562,0.0,0.0,0.0,0.0,0.0,0.0,0.0,0.0,0.0,0.0,0.0,-0.60476124,-7.0500886E-4,0.7966221,-0.91778564,0.06036377,-0.29089355,0.015625,0.064453125,0.0107421875,4.752544,-12.520431,-0.0145958755,16.492546,-0.97302246,0.119140625,0.039916992,-0.032226562,0.02734375,0.033203125,0.96103406,-15.262948,-56.757195,11.747807,0.614624,0.38879395,0.7196045,0.013671875,-0.059570312,-0.015625,9.08891,-17.253073,-128.49223,5.722308,0.0,0.0,0.0,0.0,0.0,0.0,0.0,-14.363637,-128.64658,25.515514,0.0,0.0,0.0,0.0,0.0,0.0,0.0,0.60476124,7.0500886E-4,-0.7966221,-0.95098877,0.02331543,-0.28424072,0.12011719,-0.12109375,-0.09375,2.463707,12.520431,0.0145958755,-16.492546,-0.95544434,-0.06329346,-0.007019043,0.0107421875,-0.045898438,0.018554688,3.1823542,13.834159,-56.97009,-15.519729,0.57580566,-0.39709473,0.7294922,-0.0048828125,0.0,0.001953125,59.408287,14.088843,-128.97191,-16.94134,0.0,0.0,0.0,0.0,0.0,0.0,0.0,3.9382553,-125.750626,-0.008405685,-0.9814453,-0.12841797,-0.011230469,9.765625E-4,0.05859375,-0.01953125,0.0,0.49423304,45.003098,0.4150281,
1.230468731664587,63,-0.8517456,-0.04272461,0.5387573,0.01953125,0.005859375,0.001953125,0.0,0.0,0.0,0.0,0.0,0.0,0.0,0.0,0.0,0.0,0.0,-0.6035732,-4.0560262E-4,0.7975732,-0.94207764,0.045043945,-0.27679443,-0.060546875,-0.025390625,0.029296875,4.7526264,-12.495835,-0.008397229,16.512238,-0.9746704,0.097351074,0.04473877,-0.0126953125,0.045898438,0.013671875,0.95981157,-15.226471,-56.75196,11.759244,0.6046753,0.3977661,0.71777344,0.013671875,-0.021484375,0.021484375,9.128151,-17.202848,-128.4856,5.72497,0.0,0.0,0.0,0.0,0.0,0.0,0.0,-14.32715,-128.62769,25.518705,0.0,0.0,0.0,0.0,0.0,0.0,0.0,0.6035732,4.0560262E-4,-0.7975732,-0.96014404,0.039123535,-0.27294922,0.10253906,-0.10449219,-0.115234375,2.4519207,12.495835,0.008397229,-16.512238,-0.97454834,-0.062561035,-0.03967285,-0.026367188,-0.0078125,0.017578125,3.1549222,13.785468,-56.976868,-15.545664,0.5650635,-0.4286499,0.758667,-0.0048828125,0.0,0.001953125,59.2102,14.041319,-128.97714,-16.953161,0.0,0.0,0.0,0.0,0.0,0.0,0.0,3.9625416,-125.75341,0.021360397,-0.9834595,-0.13806152,-0.020385742,0.020507812,0.05859375,-0.01953125,0.0,0.51004523,45.004784,0.40886992,
1.2499999813735487,64,-0.82525635,-0.094055176,0.52575684,0.020507812,-0.0126953125,0.001953125,0.0,0.0,0.0,0.0,0.0,0.0,0.0,0.0,0.0,0.0,0.0,-0.60427386,-5.102623E-4,0.7969431,-0.91748047,0.08404541,-0.29858398,-0.022460938,0.029296875,0.029296875,4.789988,-12.510342,-0.010564012,16.499193,-0.9772339,0.11291504,0.06762695,-0.08984375,0.029296875,0.013671875,0.9255615,-15.247843,-56.751957,11.721514,0.61486816,0.34692383,0.6954346,0.013671875,0.016601562,-0.0146484375,8.881993,-17.230408,-128.48853,5.722176,0.0,0.0,0.0,0.0,0.0,0.0,0.0,-14.270317,-128.63943,25.503407,0.0,0.0,0.0,0.0,0.0,0.0,0.0,0.60427386,5.102623E-4,-0.7969431,-0.95806885,0.03125,-0.27905273,0.11621094,-0.13671875,-0.10839844,2.465216,12.510342,0.010564012,-16.499193,-0.9734497,-0.060791016,-0.023803711,-0.026367188,0.01171875,0.036132812,3.160502,13.827859,-56.97173,-15.520067,0.56134033,-0.37908936,0.7694092,0.0146484375,0.0,0.040039062,59.375416,14.082978,-128.97426,-16.900225,0.0,0.0,0.0,0.0,0.0,0.0,0.0,3.9285212,-125.75663,0.029520035,-0.9581909,-0.13970947,0.016418457,0.05859375,0.05859375,0.018554688,0.0,0.4963435,45.00141,0.40516058,
1.2695312310825104,65,-0.8227539,-0.046691895,0.5460205,0.01953125,0.005859375,0.0390625,0.0,0.0,0.0,0.0,0.0,0.0,0.0,0.0,0.0,0.0,0.0,-0.60515213,-0.0010429439,0.7963115,-0.9456177,0.07965088,-0.29125977,-0.00390625,0.028320312,0.029296875,4.81479,-12.528526,-0.02159217,16.486116,-0.97125244,0.11022949,0.037841797,-0.032226562,0.0087890625,0.033203125,0.9464671,-15.281866,-56.760384,11.721431,0.6069336,0.35491943,0.69262695,0.013671875,-0.021484375,-0.015625,8.743163,-17.26928,-128.49632,5.71587,0.0,0.0,0.0,0.0,0.0,0.0,0.0,-14.241774,-128.64955,25.487053,0.0,0.0,0.0,0.0,0.0,0.0,0.0,0.60515213,0.0010429439,-0.7963115,-0.95098877,0.027282715,-0.29107666,0.11621094,-0.13671875,-0.10839844,2.425354,12.528526,0.02159217,-16.486116,-0.96569824,-0.07159424,-0.030822754,-0.026367188,-0.0078125,0.017578125,3.147156,13.858044,-56.9623,-15.510104,0.5900879,-0.41827393,0.7504883,0.0146484375,0.018554688,0.040039062,59.071873,14.098003,-128.96236,-16.858088,0.0,0.0,0.0,0.0,0.0,0.0,0.0,4.086116,-125.743324,0.15631485,-0.9683838,-0.1482544,0.0072631836,9.765625E-4,0.057617188,0.0,0.0,0.4516364,45.003185,0.40215987,
1.2890624807914721,66,-0.83966064,-0.042785645,0.52264404,0.01953125,0.024414062,0.001953125,0.0,0.0,0.0,0.0,0.0,0.0,0.0,0.0,0.0,0.0,0.0,-0.603425,-9.759385E-4,0.7976014,-0.9154053,0.089904785,-0.29559326,0.015625,0.0107421875,0.047851562,4.7779903,-12.492767,-0.020204952,16.512821,-0.96551514,0.10131836,0.023925781,-0.0703125,0.046875,0.032226562,0.95777065,-15.272119,-56.761505,11.758301,0.5934448,0.3791504,0.7529907,0.013671875,-0.021484375,0.0029296875,8.78787,-17.279758,-128.50279,5.7565613,0.0,0.0,0.0,0.0,0.0,0.0,0.0,-14.257641,-128.64375,25.529657,0.0,0.0,0.0,0.0,0.0,0.0,0.0,0.603425,9.759385E-4,-0.7976014,-0.9499512,0.013549805,-0.3022461,0.111328125,-0.15136719,-0.12402344,2.4771757,12.492767,0.020204952,-16.512821,-0.95147705,-0.059265137,-0.029907227,-0.025390625,0.01171875,0.017578125,3.1297529,13.844909,-56.961536,-15.557307,0.5601196,-0.42382812,0.7626953,-0.0048828125,-0.038085938,0.0029296875,58.931625,14.071026,-128.9654,-16.881805,0.0,0.0,0.0,0.0,0.0,0.0,0.0,4.1344614,-125.74186,0.17627716,-0.982605,-0.15570068,-0.0078125,-0.017578125,0.05859375,-0.01953125,0.0,0.48328185,45.001976,0.42069075,
1.3085937305004338,67,-0.850647,-0.030944824,0.50512695,9.765625E-4,-0.0126953125,0.001953125,0.0,0.0,0.0,0.0,0.0,0.0,0.0,0.0,0.0,0.0,0.0,-0.60550404,-0.0019446961,0.7960545,-0.93969727,0.07562256,-0.3022461,-0.00390625,-0.043945312,0.0107421875,4.7917876,-12.535811,-0.04026124,16.480795,-0.9764404,0.10443115,0.03881836,-0.0703125,0.06640625,0.032226562,0.95552063,-15.345609,-56.78187,11.717223,0.60754395,0.39300537,0.6960449,-0.025390625,-0.001953125,0.00390625,8.811512,-17.351423,-128.51912,5.7558784,0.0,0.0,0.0,0.0,0.0,0.0,0.0,-14.360727,-128.66348,25.532354,0.0,0.0,0.0,0.0,0.0,0.0,0.0,0.60550404,0.0019446961,-0.7960545,-0.954895,-0.0032348633,-0.29852295,0.13574219,-0.1171875,-0.109375,2.4162986,12.535811,0.04026124,-16.480795,-0.95880127,-0.07678223,-0.021911621,-0.025390625,0.01171875,0.017578125,3.0826104,13.881815,-56.94164,-15.588406,0.57421875,-0.40875244,0.7655029,-0.00390625,0.037109375,0.020507812,58.539593,14.111254,-128.94238,-16.930346,0.0,0.0,0.0,0.0,0.0,0.0,0.0,4.269165,-125.71743,0.1816864,-0.9885864,-0.13452148,0.014587402,9.765625E-4,0.057617188,0.0,0.0,0.44479698,45.003254,0.44826585,
1.3281249802093955,68,-0.8424072,-0.062561035,0.5065918,0.020507812,-0.03125,0.001953125,0.0,0.0,0.0,0.0,0.0,0.0,0.0,0.0,0.0,0.0,0.0,-0.6087589,-0.0020276473,0.79358,-0.916687,0.068237305,-0.29382324,-0.022460938,-0.0078125,0.0107421875,4.8544197,-12.603197,-0.041978583,16.429567,-0.989624,0.09729004,0.016906738,-0.032226562,0.02734375,0.033203125,0.99386597,-15.435976,-56.778587,11.649402,0.604126,0.37579346,0.64953613,0.013671875,-0.001953125,0.00390625,8.861776,-17.426874,-128.51389,5.64166,0.0,0.0,0.0,0.0,0.0,0.0,0.0,-14.461227,-128.65292,25.422962,0.0,0.0,0.0,0.0,0.0,0.0,0.0,0.6087589,0.0020276473,-0.79358,-0.95098877,0.02722168,-0.2703247,0.0859375,-0.10644531,-0.11621094,2.3620663,12.603197,0.041978583,-16.429567,-0.9638672,-0.08251953,-0.021911621,-0.025390625,0.01171875,0.017578125,3.1015406,13.965329,-56.94054,-15.57586,0.539978,-0.42596436,0.7588501,-0.0048828125,0.0,0.001953125,58.438892,14.1996355,-128.93944,-16.985256,0.0,0.0,0.0,0.0,0.0,0.0,0.0,4.368325,-125.71207,0.13393402,-0.9651489,-0.12298584,0.0078125,0.040039062,0.0390625,-9.765625E-4,0.0,0.4137679,45.00414,0.43239167,
1.3476562299183572,69,-0.8498535,-0.019104004,0.52508545,0.020507812,-0.03125,0.020507812,0.0,0.0,0.0,0.0,0.0,0.0,0.0,0.0,0.0,0.0,0.0,-0.608812,-0.0018311783,0.79347336,-0.9251709,0.031921387,-0.2831421,0.015625,0.028320312,0.047851562,4.882627,-12.604296,-0.03791107,16.427359,-0.982605,0.10046387,0.051635742,0.025390625,0.026367188,0.033203125,0.9373261,-15.407173,-56.77057,11.599849,0.57177734,0.41809082,0.69836426,-0.005859375,-0.001953125,0.041015625,9.075171,-17.395111,-128.50897,5.6058116,0.0,0.0,0.0,0.0,0.0,0.0,0.0,-14.529076,-128.63657,25.402288,0.0,0.0,0.0,0.0,0.0,0.0,0.0,0.608812,0.0018311783,-0.79347336,-0.9561157,0.038085938,-0.2680664,0.103515625,-0.12402344,-0.09472656,2.3851547,12.604296,0.03791107,-16.427359,-0.9515381,-0.060180664,-0.031921387,-0.0078125,0.01171875,0.036132812,3.1905255,13.986326,-56.941616,-15.570237,0.5808716,-0.41210938,0.73553467,0.0146484375,0.037109375,0.040039062,58.677998,14.168613,-128.9375,-17.059217,0.0,0.0,0.0,0.0,0.0,0.0,0.0,4.3675117,-125.71265,0.075984955,-0.97125244,-0.12005615,0.008911133,9.765625E-4,0.057617188,0.018554688,0.0,0.4220324,45.00173,0.42766982,
1.367187479627319,70,-0.829834,-0.032836914,0.5423584,0.020507812,-0.03125,0.001953125,0.0,0.0,0.0,0.0,0.0,0.0,0.0,0.0,0.0,0.0,0.0,-0.610556,-0.002680141,0.7922008,-0.9098511,0.053344727,-0.29699707,-0.00390625,-0.0078125,0.029296875,4.8600254,-12.640402,-0.055487227,16.40101,-0.99157715,0.10089111,0.044677734,-0.0126953125,0.064453125,0.051757812,0.8842595,-15.432547,-56.78598,11.528676,0.61724854,0.3713379,0.69573975,-0.025390625,-0.041015625,0.021484375,9.093189,-17.452536,-128.52103,5.5287986,0.0,0.0,0.0,0.0,0.0,0.0,0.0,-14.592959,-128.66367,25.325592,0.0,0.0,0.0,0.0,0.0,0.0,0.0,0.610556,0.002680141,-0.7922008,-0.9540405,0.026367188,-0.29205322,0.09375,-0.13476562,-0.14550781,2.4586172,12.640402,0.055487227,-16.40101,-0.95965576,-0.064819336,-0.042785645,-0.026367188,0.01171875,0.036132812,3.28825,14.051381,-56.926655,-15.525962,0.5640869,-0.39971924,0.75653076,0.032226562,9.765625E-4,0.021484375,58.71482,14.210122,-128.92432,-17.099768,0.0,0.0,0.0,0.0,0.0,0.0,0.0,4.42649,-125.70202,0.047418594,-0.9713135,-0.13458252,0.0036010742,-0.037109375,0.057617188,0.038085938,0.0,0.42296156,45.00375,0.47823498,
1.3867187293362806,71,-0.85150146,-0.0703125,0.53448486,0.001953125,-0.03125,0.020507812,0.0,0.0,0.0,0.0,0.0,0.0,0.0,0.0,0.0,0.0,0.0,-0.6085724,-0.0031593028,0.7936616,-0.9310303,0.04486084,-0.28881836,0.0146484375,-0.0078125,0.06640625,4.862081,-12.599337,-0.06540736,16.431255,-0.9819336,0.08856201,0.051574707,0.044921875,0.043945312,0.051757812,0.922597,-15.4120035,-56.79274,11.536316,0.6187134,0.39562988,0.70788574,-0.025390625,-0.021484375,0.021484375,9.120549,-17.410294,-128.5241,5.4887714,0.0,0.0,0.0,0.0,0.0,0.0,0.0,-14.580412,-128.67847,25.289389,0.0,0.0,0.0,0.0,0.0,0.0,0.0,0.6085724,0.0031593028,-0.7936616,-0.9590454,0.0234375,-0.29797363,0.03125,-0.12988281,-0.119140625,2.4730637,12.599337,0.06540736,-16.431255,-0.9645386,-0.06286621,-0.026855469,-0.06347656,-0.0078125,0.018554688,3.323487,14.014183,-56.91863,-15.568492,0.55682373,-0.39245605,0.7355957,0.05078125,9.765625E-4,0.021484375,58.40165,14.178376,-128.90994,-17.209625,0.0,0.0,0.0,0.0,0.0,0.0,0.0,4.480482,-125.69342,-0.013065338,-0.99072266,-0.15460205,-0.013793945,9.765625E-4,0.057617188,0.056640625,0.0,0.42261565,45.00126,0.5031928,
1.4062499790452423,72,-0.84869385,-0.05847168,0.54644775,0.020507812,-0.03125,0.020507812,0.0,0.0,0.0,0.0,0.0,0.0,0.0,0.0,0.0,0.0,0.0,-0.60929286,-0.0032903475,0.7930771,-0.9406128,0.07965088,-0.3110962,-0.022460938,-0.0078125,0.029296875,4.8517146,-12.614251,-0.0681204,16.419155,-0.9873657,0.10876465,0.03881836,-0.032226562,0.02734375,0.033203125,0.95674855,-15.436249,-56.796394,11.526519,0.60980225,0.34906006,0.6836548,-0.005859375,-0.001953125,0.00390625,9.092303,-17.44575,-128.52493,5.4089813,0.0,0.0,0.0,0.0,0.0,0.0,0.0,-14.576115,-128.67946,25.203943,0.0,0.0,0.0,0.0,0.0,0.0,0.0,0.60929286,0.0032903475,-0.7930771,-0.95092773,0.008544922,-0.28845215,0.0703125,-0.111328125,-0.10058594,2.470292,12.614251,0.0681204,-16.419155,-0.9764404,-0.05657959,-0.04559326,-0.026367188,-0.0078125,0.037109375,3.3666227,14.015869,-56.915108,-15.560249,0.5601196,-0.39282227,0.7585449,0.0146484375,0.0,0.040039062,58.472294,14.143956,-128.90912,-17.257692,0.0,0.0,0.0,0.0,0.0,0.0,0.0,4.464326,-125.68964,-0.05243683,-0.98657227,-0.14849854,-0.040527344,0.0390625,0.020507812,0.037109375,0.0,0.42496097,45.000015,0.51318,
1.425781228754204,73,-0.85980225,-0.026977539,0.5192261,-0.017578125,-0.03125,0.001953125,0.0,0.0,0.0,0.0,0.0,0.0,0.0,0.0,0.0,0.0,0.0,-0.6116357,-0.0036202858,0.79128784,-0.9125366,0.07702637,-0.2937622,-0.041015625,0.046875,0.029296875,4.936418,-12.662754,-0.07495115,16.382113,-0.9559326,0.120910645,0.018127441,-0.09082031,-0.0078125,0.032226562,0.97958744,-15.558546,-56.79458,11.476872,0.59173584,0.3493042,0.6895752,0.013671875,-0.001953125,0.022460938,9.059374,-17.616896,-128.51813,5.348604,0.0,0.0,0.0,0.0,0.0,0.0,0.0,-14.705271,-128.68054,25.137121,0.0,0.0,0.0,0.0,0.0,0.0,0.0,0.6116357,0.0036202858,-0.79128784,-0.9468384,-0.0032958984,-0.29071045,0.09082031,-0.111328125,-0.08105469,2.3998802,12.662754,0.07495115,-16.382113,-0.96380615,-0.08068848,-0.010925293,-0.064453125,-0.02734375,0.037109375,3.3664482,14.0631485,-56.912937,-15.555094,0.5822754,-0.4036255,0.7624512,0.0146484375,0.0,0.059570312,58.849926,14.175452,-128.90706,-17.284441,0.0,0.0,0.0,0.0,0.0,0.0,0.0,4.415592,-125.69974,-0.12012863,-0.98461914,-0.1583252,-0.030822754,9.765625E-4,0.0390625,0.037109375,0.0,0.38380766,45.00113,0.5025572,
1.4453124784631657,74,-0.8534546,-0.06640625,0.51672363,0.020507812,-0.0126953125,0.020507812,0.0,0.0,0.0,0.0,0.0,0.0,0.0,0.0,0.0,0.0,0.0,-0.6120309,-0.0036611801,0.7910157,-0.956604,0.081726074,-0.2732544,-0.060546875,0.01171875,0.047851562,4.878332,-12.6709385,-0.075797774,16.376478,-0.9631958,0.115356445,0.072631836,-0.08984375,0.047851562,0.051757812,0.9737772,-15.572202,-56.80118,11.504065,0.6043701,0.38330078,0.6949463,-0.005859375,-0.07910156,0.0029296875,8.99119,-17.616314,-128.53058,5.4594555,0.0,0.0,0.0,0.0,0.0,0.0,0.0,-14.720189,-128.69577,25.251741,0.0,0.0,0.0,0.0,0.0,0.0,0.0,0.6120309,0.0036611801,-0.7910157,-0.9590454,0.014343262,-0.26055908,0.08300781,-0.12402344,-0.11425781,2.4438448,12.6709385,0.075797774,-16.376478,-0.9656372,-0.064697266,-0.036743164,-0.08300781,-0.0078125,0.037109375,3.357655,14.087183,-56.910748,-15.5525055,0.6243286,-0.42211914,0.76226807,-0.07910156,-0.059570312,0.078125,58.627003,14.202457,-128.90617,-17.262684,0.0,0.0,0.0,0.0,0.0,0.0,0.0,4.504075,-125.685684,-0.06615639,-1.0027466,-0.13494873,-0.020324707,-0.056640625,0.01953125,-0.01953125,0.0,0.40309513,45.001965,0.52017546,
1.4648437281721274,75,-0.83966064,-0.028076172,0.49798584,-0.018554688,0.061523438,0.0029296875,0.0,0.0,0.0,0.0,0.0,0.0,0.0,0.0,0.0,0.0,0.0,-0.6123628,-0.0036240001,0.7907945,-0.9445801,0.083496094,-0.28033447,-0.1171875,-0.005859375,0.047851562,4.824829,-12.67781,-0.07502803,16.371897,-0.9555664,0.065979004,0.04852295,0.026367188,0.06347656,0.033203125,1.0662451,-15.559048,-56.80394,11.541818,0.59020996,0.37963867,0.6929321,-0.064453125,-0.021484375,0.040039062,8.6695,-17.476255,-128.53998,5.4956174,0.0,0.0,0.0,0.0,0.0,0.0,0.0,-14.524272,-128.70483,25.279099,0.0,0.0,0.0,0.0,0.0,0.0,0.0,0.6123628,0.0036240001,-0.7907945,-0.94799805,0.025268555,-0.2772827,0.13085938,-0.13183594,-0.12402344,2.4905722,12.67781,0.07502803,-16.371897,-0.97076416,-0.07244873,-0.034729004,-0.044921875,-0.0078125,0.037109375,3.3158202,14.141616,-56.905273,-15.546829,0.5350342,-0.42114258,0.76483154,-0.0048828125,-0.038085938,0.041015625,58.298935,14.29611,-128.90514,-17.18142,0.0,0.0,0.0,0.0,0.0,0.0,0.0,4.658289,-125.65958,0.043100357,-0.97436523,-0.13342285,-0.0053710938,-0.056640625,-0.017578125,-0.0390625,0.0,0.40880007,45.003147,0.52279747,
1.484374977881089,76,-0.8088989,-0.021057129,0.54003906,-0.017578125,-0.0126953125,0.021484375,0.0,0.0,0.0,0.0,0.0,0.0,0.0,0.0,0.0,0.0,0.0,-0.6157745,-0.004842662,0.7881322,-0.93865967,0.07244873,-0.26379395,-0.07910156,-0.061523438,0.029296875,4.695443,-12.748443,-0.100258105,16.316778,-0.97473145,0.12738037,0.023071289,-0.032226562,0.02734375,0.033203125,1.042677,-15.525081,-56.838226,11.532406,0.6092529,0.37548828,0.6829834,-0.025390625,-0.001953125,0.022460938,8.651061,-17.438763,-128.57188,5.4330997,0.0,0.0,0.0,0.0,0.0,0.0,0.0,-14.465791,-128.7407,25.21332,0.0,0.0,0.0,0.0,0.0,0.0,0.0,0.6157745,0.004842662,-0.7881322,-0.94799805,0.025268555,-0.2772827,0.13085938,-0.13183594,-0.12402344,2.5000634,12.748443,0.100258105,-16.316778,-0.97125244,-0.10192871,-0.018859863,-0.06347656,0.01171875,0.037109375,3.267645,14.212249,-56.880043,-15.491711,0.5722046,-0.41674805,0.7645874,-0.00390625,0.018554688,0.021484375,58.41925,14.400001,-128.87778,-17.07534,0.0,0.0,0.0,0.0,0.0,0.0,0.0,4.6875334,-125.64307,0.10965729,-0.97839355,-0.13690186,-0.03729248,-0.09472656,0.076171875,-0.01953125,0.0,0.37943333,45.00272,0.5729729,
1.5039062275900508,77,-0.8557129,-0.04272461,0.53289795,0.020507812,-0.049804688,0.020507812,0.0,0.0,0.0,0.0,0.0,0.0,0.0,0.0,0.0,0.0,0.0,-0.6191264,-0.005353623,0.7854623,-0.9291992,0.105895996,-0.29125977,-0.07910156,-0.0068359375,0.0107421875,4.6920204,-12.817835,-0.11083659,16.261505,-0.96539307,0.105285645,0.023986816,-0.12792969,0.06738281,0.05078125,1.0662451,-15.588032,-56.8534,11.510199,0.619812,0.40753174,0.6873779,-0.005859375,-0.001953125,0.041015625,8.761903,-17.522675,-128.58133,5.3762965,0.0,0.0,0.0,0.0,0.0,0.0,0.0,-14.582977,-128.75595,25.161568,0.0,0.0,0.0,0.0,0.0,0.0,0.0,0.6191264,0.005353623,-0.7854623,-0.95910645,0.02923584,-0.27416992,0.018554688,-0.1171875,-0.10644531,2.552593,12.817835,0.11083659,-16.261505,-0.9536133,-0.06915283,-0.011047363,-0.064453125,0.01171875,0.055664062,3.3533373,14.300349,-56.868034,-15.309985,0.5671387,-0.4086914,0.7585449,-0.00390625,0.018554688,0.001953125,58.261868,14.536643,-128.86578,-16.874823,0.0,0.0,0.0,0.0,0.0,0.0,0.0,4.7876005,-125.6254,0.28784752,-0.9847412,-0.16497803,0.035827637,-0.19042969,-0.038085938,0.037109375,0.0,0.33604676,45.0018,0.57161,
1.5234374772990125,78,-0.8335571,-0.048706055,0.51049805,-0.0546875,-0.03125,0.040039062,0.0,0.0,0.0,0.0,0.0,0.0,0.0,0.0,0.0,0.0,0.0,-0.6228109,-0.0057232464,0.7825744,-0.9124756,0.08392334,-0.28979492,-0.2109375,0.030273438,0.030273438,4.711893,-12.894118,-0.118488945,16.201715,-0.9608154,0.09118652,0.028869629,-0.1484375,0.048828125,0.0703125,1.2075557,-15.731378,-56.864445,11.512805,0.6071167,0.36865234,0.68585205,-0.044921875,0.017578125,0.041015625,8.637678,-17.640224,-128.5909,5.3154244,0.0,0.0,0.0,0.0,0.0,0.0,0.0,-14.68624,-128.77135,25.098412,0.0,0.0,0.0,0.0,0.0,0.0,0.0,0.6228109,0.0057232464,-0.7825744,-0.9439697,0.02520752,-0.2713623,0.061523438,-0.140625,-0.13085938,2.5356672,12.894118,0.118488945,-16.201715,-0.9573364,-0.049194336,-0.043762207,-0.064453125,-0.0078125,0.055664062,3.3945951,14.388519,-56.86119,-15.214813,0.57366943,-0.42303467,0.72662354,-0.00390625,0.018554688,0.021484375,58.059757,14.607,-128.85376,-16.77581,0.0,0.0,0.0,0.0,0.0,0.0,0.0,4.94878,-125.59875,0.43620682,-0.92266846,-0.14978027,0.010131836,-0.037109375,-0.09375,0.016601562,0.0,0.2925155,45.003395,0.561924,
1.5429687270079742,79,-0.8287964,-0.026977539,0.52948,0.020507812,-0.0126953125,0.0390625,0.0,0.0,0.0,0.0,0.0,0.0,0.0,0.0,0.0,0.0,0.0,-0.6271104,-0.0066168224,0.7791209,-0.8921509,0.028259277,-0.27282715,-0.24902344,-0.0234375,0.01171875,4.719661,-12.983131,-0.13698871,16.130219,-0.9579468,0.08605957,0.0357666,-0.09082031,0.029296875,0.051757812,1.2883117,-15.798937,-56.87979,11.446474,0.6033325,0.37524414,0.7283325,-0.083984375,0.055664062,0.059570312,8.685029,-17.620863,-128.60062,5.181023,0.0,0.0,0.0,0.0,0.0,0.0,0.0,-14.74074,-128.77122,24.974684,0.0,0.0,0.0,0.0,0.0,0.0,0.0,0.6271104,0.0066168224,-0.7791209,-0.93084717,0.016357422,-0.29345703,0.048828125,-0.109375,-0.13769531,2.4938707,12.983131,0.13698871,-16.130219,-0.96203613,-0.084228516,-0.045715332,-0.08300781,-0.02734375,0.037109375,3.4395728,14.480634,-56.842575,-15.14986,0.5817261,-0.4180298,0.7305908,0.0146484375,-0.01953125,0.059570312,57.724823,14.654404,-128.8411,-16.756165,0.0,0.0,0.0,0.0,0.0,0.0,0.0,5.126646,-125.57637,0.5254688,-0.930542,-0.09820557,0.01928711,0.040039062,0.059570312,-0.07714844,0.0,0.2386103,45.003365,0.5742552,
1.5624999767169359,80,-0.8164673,-0.07330322,0.53570557,-0.0546875,0.005859375,0.041015625,0.0,0.0,0.0,0.0,0.0,0.0,0.0,0.0,0.0,0.0,0.0,-0.6249253,-0.0063559166,0.78087366,-0.93536377,0.020202637,-0.26428223,-0.022460938,-0.0078125,0.029296875,4.6997795,-12.937891,-0.13158718,16.166504,-0.9595947,0.097229004,0.019958496,-0.033203125,0.0087890625,0.051757812,1.1920614,-15.64625,-56.86988,11.391127,0.60723877,0.37652588,0.6810303,-0.044921875,0.036132812,0.041015625,8.723595,-17.472397,-128.58762,5.056156,0.0,0.0,0.0,0.0,0.0,0.0,0.0,-14.596552,-128.76033,24.851154,0.0,0.0,0.0,0.0,0.0,0.0,0.0,0.6249253,0.0063559166,-0.78087366,-0.9389038,0.014404297,-0.293396,0.068359375,-0.109375,-0.11816406,2.5105324,12.937891,0.13158718,-16.166504,-0.99658203,-0.06390381,-0.04547119,-0.06542969,-0.02734375,0.07519531,3.4676914,14.406839,-56.846195,-15.204132,0.546875,-0.42474365,0.7498169,0.033203125,0.038085938,0.040039062,57.495995,14.536315,-128.84471,-16.869297,0.0,0.0,0.0,0.0,0.0,0.0,0.0,5.1212044,-125.57721,0.47428322,-0.9873657,-0.0927124,0.020507812,0.020507812,0.059570312,-0.13378906,0.0,0.27843672,45.002834,0.58913046,
1.5820312264258976,81,-0.859375,-0.076293945,0.5187378,0.020507812,-0.0126953125,0.020507812,0.0,0.0,0.0,0.0,0.0,0.0,0.0,0.0,0.0,0.0,0.0,-0.62464774,-0.006378363,0.7810447,-0.9370117,0.047912598,-0.2857666,0.052734375,0.046875,0.08496094,4.750812,-12.932145,-0.1320519,16.170046,-0.97491455,0.0892334,0.058532715,-0.072265625,-0.0087890625,0.0703125,1.0928903,-15.533718,-56.875736,11.336484,0.6203003,0.3762207,0.6898804,-0.025390625,0.036132812,0.022460938,8.593474,-17.339577,-128.59175,5.0014176,0.0,0.0,0.0,0.0,0.0,0.0,0.0,-14.4315195,-128.75946,24.7912,0.0,0.0,0.0,0.0,0.0,0.0,0.0,0.62464774,0.006378363,-0.7810447,-0.9489136,0.0017700195,-0.3192749,0.07324219,-0.09375,-0.10253906,2.2893548,12.932145,0.1320519,-16.170046,-0.9836426,-0.07220459,-0.029663086,-0.083984375,-0.02734375,0.07519531,3.3094964,14.264926,-56.853497,-15.299776,0.57836914,-0.41485596,0.77453613,-0.021484375,0.036132812,0.05859375,57.86104,14.3733015,-128.84949,-16.939114,0.0,0.0,0.0,0.0,0.0,0.0,0.0,4.8487253,-125.58632,0.3456955,-0.97406006,-0.074401855,0.021850586,-0.017578125,0.059570312,-0.15332031,0.0,0.24205282,45.001617,0.5610875,
1.6015624761348592,82,-0.8585205,-0.07714844,0.54644775,0.020507812,-0.03125,0.001953125,0.0,0.0,0.0,0.0,0.0,0.0,0.0,0.0,0.0,0.0,0.0,-0.6223464,-0.0056943707,0.78296894,-0.973938,0.06439209,-0.28399658,-0.09765625,0.047851562,0.06640625,4.723851,-12.8845005,-0.11789113,16.209885,-0.98986816,0.12786865,0.085510254,-0.111328125,-0.0078125,0.08984375,0.9861574,-15.448239,-56.859802,11.350846,0.6243286,0.37512207,0.69384766,-0.064453125,0.055664062,0.022460938,8.444735,-17.289179,-128.58215,5.0938644,0.0,0.0,0.0,0.0,0.0,0.0,0.0,-14.376389,-128.76427,24.88153,0.0,0.0,0.0,0.0,0.0,0.0,0.0,0.6223464,0.0056943707,-0.78296894,-0.9639282,-0.021911621,-0.3027954,0.055664062,-0.09667969,-0.10449219,2.2605333,12.8845005,0.11789113,-16.209885,-0.95599365,-0.083496094,-0.037841797,-0.028320312,-0.06640625,0.07519531,3.262968,14.177194,-56.869698,-15.408756,0.60717773,-0.394104,0.74627686,-0.059570312,-0.021484375,0.078125,58.25446,14.2502985,-128.86206,-17.076712,0.0,0.0,0.0,0.0,0.0,0.0,0.0,4.63968,-125.59873,0.15977478,-0.9589844,-0.10925293,-0.00982666,0.020507812,0.001953125,-0.020507812,0.0,0.29413015,45.00427,0.5610974,
1.621093725843821,83,-0.85491943,-0.019042969,0.52911377,0.057617188,-0.0126953125,-0.091796875,0.0,0.0,0.0,0.0,0.0,0.0,0.0,0.0,0.0,0.0,0.0,-0.62200016,-0.005177157,0.7832746,-0.977478,0.0927124,-0.23327637,-0.00390625,-0.061523438,0.047851562,4.629143,-12.877331,-0.107183196,16.216211,-0.9697876,0.09552002,0.087402344,-0.09082031,0.029296875,0.10839844,0.8688563,-15.333304,-56.858707,11.414752,0.6030884,0.36572266,0.692749,-0.064453125,0.036132812,0.022460938,8.232657,-17.183481,-128.5939,5.308655,0.0,0.0,0.0,0.0,0.0,0.0,0.0,-14.2579365,-128.77446,25.09419,0.0,0.0,0.0,0.0,0.0,0.0,0.0,0.62200016,0.005177157,-0.7832746,-0.9619751,-0.0051879883,-0.29553223,0.13183594,-0.07519531,-0.06542969,2.1756485,12.877331,0.107183196,-16.216211,-0.9793701,-0.059753418,-0.015808105,-0.028320312,-0.06640625,0.056640625,3.1721873,14.106577,-56.88083,-15.47764,0.56152344,-0.4039917,0.71466064,-0.021484375,0.017578125,0.078125,58.215145,14.176688,-128.87463,-17.137363,0.0,0.0,0.0,0.0,0.0,0.0,0.0,4.5745993,-125.5867,0.0985775,-0.94610596,-0.16027832,0.014953613,-0.017578125,0.095703125,0.038085938,0.0,0.3124967,45.00528,0.5456227,
1.6406249755527826,84,-0.8360596,-0.022888184,0.57336426,0.09472656,-0.0126953125,-0.09277344,0.0,0.0,0.0,0.0,0.0,0.0,0.0,0.0,0.0,0.0,0.0,-0.6200211,-0.006140147,0.7847793,-0.94592285,0.13165283,-0.26013184,0.09082031,-0.1171875,0.06542969,4.3133874,-12.836358,-0.12712008,16.247364,-0.9746704,0.09820557,0.054626465,-0.032226562,0.045898438,0.0703125,0.92725134,-15.163993,-56.900467,11.637256,0.6034546,0.39019775,0.69403076,-0.044921875,-0.001953125,0.041015625,8.3079195,-16.964941,-128.64452,5.609743,0.0,0.0,0.0,0.0,0.0,0.0,0.0,-14.139931,-128.82095,25.411224,0.0,0.0,0.0,0.0,0.0,0.0,0.0,0.6200211,0.006140147,-0.7847793,-0.9741211,0.011474609,-0.25854492,0.125,-0.10644531,-0.078125,2.2297604,12.836358,0.12712008,-16.247364,-0.9640503,-0.045532227,-0.0059814453,-0.028320312,-0.028320312,0.09375,3.1096094,14.023881,-56.86103,-15.490282,0.56829834,-0.40490723,0.7685547,-0.05859375,0.016601562,0.07714844,58.065502,14.111819,-128.85913,-17.076036,0.0,0.0,0.0,0.0,0.0,0.0,0.0,4.5329866,-125.54975,0.16970062,-0.96539307,-0.15710449,0.012023926,-0.07519531,0.17089844,0.0390625,0.0,0.32894844,45.00234,0.61198854,
1.6601562252617443,85,-0.8475342,-0.040893555,0.49505615,0.09472656,0.024414062,-0.0546875,0.0,0.0,0.0,0.0,0.0,0.0,0.0,0.0,0.0,0.0,0.0,-0.6201085,-0.0066629206,0.7846576,-0.91571045,0.13879395,-0.24182129,-0.13574219,-0.115234375,0.06640625,4.0930424,-12.838169,-0.1379431,16.244844,-0.9675293,0.13745117,0.058898926,-0.032226562,0.045898438,0.08984375,1.0150999,-15.115043,-56.926132,11.8431635,0.618042,0.35357666,0.7113037,-0.044921875,0.017578125,0.041015625,8.290245,-17.01728,-128.66815,5.8852634,0.0,0.0,0.0,0.0,0.0,0.0,0.0,-14.198278,-128.85509,25.686647,0.0,0.0,0.0,0.0,0.0,0.0,0.0,0.6201085,0.0066629206,-0.7846576,-0.9661255,0.030212402,-0.26123047,0.19335938,-0.15332031,-0.029296875,2.3359864,12.838169,0.1379431,-16.244844,-0.96087646,-0.09173584,0.01586914,0.0087890625,-0.028320312,0.09277344,3.1045058,14.060106,-56.849697,-15.373224,0.53308105,-0.40216064,0.76275635,-0.059570312,-0.0029296875,0.07714844,57.591404,14.265515,-128.83693,-16.8467,0.0,0.0,0.0,0.0,0.0,0.0,0.0,4.6895046,-125.48896,0.394104,-0.97821045,-0.09460449,0.007507324,-0.1328125,0.16992188,0.05859375,0.0,0.31257114,45.00051,0.6291443,
1.679687474970706,86,-0.8774414,-0.06842041,0.50531006,0.056640625,0.04296875,0.001953125,0.0,0.0,0.0,0.0,0.0,0.0,0.0,0.0,0.0,0.0,0.0,-0.6221785,-0.0070050745,0.78303695,-0.8876343,0.06768799,-0.29821777,-0.13574219,-0.078125,0.08496094,4.0548263,-12.881024,-0.14502676,16.211292,-0.98187256,0.1227417,0.020080566,-0.109375,0.047851562,0.051757812,1.1199499,-15.199165,-56.940937,11.913673,0.61242676,0.37902832,0.72540283,-0.044921875,-0.021484375,0.040039062,8.338023,-17.162043,-128.68564,5.9465456,0.0,0.0,0.0,0.0,0.0,0.0,0.0,-14.377877,-128.87923,25.75256,0.0,0.0,0.0,0.0,0.0,0.0,0.0,0.6221785,0.0070050745,-0.78303695,-0.96624756,0.059753418,-0.2546997,0.22265625,-0.14453125,-0.060546875,2.4340541,12.881024,0.14502676,-16.211292,-0.9718628,-0.040649414,0.008972168,0.028320312,0.009765625,0.091796875,3.1243062,14.173582,-56.836555,-15.21343,0.59002686,-0.43829346,0.7536011,-0.07910156,-0.040039062,0.05859375,57.328033,14.438648,-128.8398,-16.540108,0.0,0.0,0.0,0.0,0.0,0.0,0.0,4.851719,-125.47526,0.69106674,-0.9833374,-0.11004639,-0.0028076172,-0.15136719,0.2265625,0.13574219,0.0,0.27330613,45.001698,0.6197478,
1.6992187246796677,87,-0.8703003,-0.064575195,0.47937012,9.765625E-4,0.024414062,0.021484375,0.0,0.0,0.0,0.0,0.0,0.0,0.0,0.0,0.0,0.0,0.0,-0.62344635,-0.006378726,0.7820393,-0.894104,0.10736084,-0.3204956,-0.17382812,0.0126953125,0.047851562,4.287108,-12.907273,-0.13205941,16.19064,-0.9645386,0.13476562,0.034057617,-0.12890625,0.030273438,0.05078125,1.176696,-15.422604,-56.91651,11.940054,0.61883545,0.34179688,0.71209717,-0.044921875,0.036132812,0.022460938,8.269447,-17.47144,-128.66315,6.0054703,0.0,0.0,0.0,0.0,0.0,0.0,0.0,-14.645925,-128.85014,25.805819,0.0,0.0,0.0,0.0,0.0,0.0,0.0,0.62344635,0.006378726,-0.7820393,-0.9562988,0.09124756,-0.24725342,0.13769531,-0.13867188,-0.07128906,2.4477663,12.907273,0.13205941,-16.19064,-0.96746826,-0.022277832,0.015930176,-0.02734375,-0.0078125,0.055664062,3.230285,14.233842,-56.84658,-14.97617,0.55810547,-0.42791748,0.76672363,-0.059570312,-0.0029296875,0.07714844,57.116005,14.508189,-128.85178,-16.162094,0.0,0.0,0.0,0.0,0.0,0.0,0.0,4.949107,-125.4468,1.0748806,-0.9837036,-0.17150879,0.01171875,-0.22851562,0.20703125,0.11621094,0.0,0.18643898,45.003666,0.515704,
1.7187499743886294,88,-0.83380127,-0.1060791,0.458313,-0.017578125,0.005859375,0.021484375,0.0,0.0,0.0,0.0,0.0,0.0,0.0,0.0,0.0,0.0,0.0,-0.6245661,-0.004795622,0.78110516,-0.93322754,0.1048584,-0.2675171,-0.2109375,0.048828125,0.01171875,4.4039326,-12.930455,-0.09928425,16.171299,-0.96746826,0.13928223,0.06982422,-0.11035156,0.0107421875,0.0703125,1.1810118,-15.537241,-56.89061,11.965322,0.6086426,0.33422852,0.7061157,-0.025390625,0.036132812,0.022460938,7.9559135,-17.616993,-128.63837,6.1175585,0.0,0.0,0.0,0.0,0.0,0.0,0.0,-14.68658,-128.83313,25.90327,0.0,0.0,0.0,0.0,0.0,0.0,0.0,0.6245661,0.004795622,-0.78110516,-0.9423828,0.13568115,-0.27026367,0.15039062,-0.13183594,-0.10546875,2.533582,12.930455,0.09928425,-16.171299,-0.9510498,0.0048828125,-6.1035156E-5,-0.064453125,0.030273438,0.07421875,3.3735359,14.281418,-56.87184,-14.740626,0.5534668,-0.45819092,0.7289429,-0.078125,-0.041015625,0.078125,56.907852,14.549236,-128.879,-15.836616,0.0,0.0,0.0,0.0,0.0,0.0,0.0,5.0909767,-125.4318,1.4501143,-0.977478,-0.15551758,-0.029785156,-0.055664062,0.2841797,0.1171875,0.0,0.18074173,45.00287,0.42081642,
1.7382812240975911,89,-0.86712646,-0.105895996,0.508667,-0.017578125,0.024414062,0.05859375,0.0,0.0,0.0,0.0,0.0,0.0,0.0,0.0,0.0,0.0,0.0,-0.625648,-0.005270627,0.7802668,-0.9519043,0.13061523,-0.23535156,0.015625,0.046875,0.047851562,4.3721523,-12.952854,-0.10911833,16.153942,-0.9527588,0.1305542,0.087646484,-0.12890625,0.048828125,0.05078125,1.1735319,-15.550301,-56.906075,12.036667,0.59265137,0.34039307,0.7052002,-0.005859375,0.016601562,0.00390625,7.704973,-17.655062,-128.6622,6.2950964,0.0,0.0,0.0,0.0,0.0,0.0,0.0,-14.654437,-128.84854,26.069786,0.0,0.0,0.0,0.0,0.0,0.0,0.0,0.625648,0.005270627,-0.7802668,-0.9434204,0.15545654,-0.27581787,-0.038085938,-0.10058594,-0.16601562,2.6215942,12.952854,0.10911833,-16.153942,-0.961853,0.0119018555,0.0049438477,-0.13867188,0.01171875,0.055664062,3.4492927,14.250449,-56.85619,-14.513011,0.54138184,-0.46624756,0.7280884,-0.0048828125,-0.038085938,0.041015625,56.73539,14.417157,-128.86372,-15.433005,0.0,0.0,0.0,0.0,0.0,0.0,0.0,5.050149,-125.38468,1.894887,-0.9785156,-0.15301514,0.006164551,0.05859375,0.17089844,0.13476562,0.0,0.13063559,45.004246,0.40874797,
1.7578124738065528,90,-0.8452759,-0.08618164,0.50842285,-0.017578125,0.024414062,0.021484375,0.0,0.0,0.0,0.0,0.0,0.0,0.0,0.0,0.0,0.0,0.0,-0.62289107,-0.004064014,0.7825546,-0.960022,0.120666504,-0.18591309,0.034179688,-0.08105469,0.028320312,4.1585946,-12.895778,-0.08413769,16.201307,-0.935791,0.12908936,0.081726074,-0.08984375,0.047851562,0.08886719,1.2357475,-15.407013,-56.898323,12.303358,0.571228,0.37469482,0.7470703,-0.025390625,0.036132812,0.00390625,7.738981,-17.518515,-128.6671,6.714658,0.0,0.0,0.0,0.0,0.0,0.0,0.0,-14.580309,-128.83281,26.499634,0.0,0.0,0.0,0.0,0.0,0.0,0.0,0.62289107,0.004064014,-0.7825546,-0.9523926,0.12805176,-0.30895996,-0.041015625,-0.11816406,-0.1640625,2.7183657,12.895778,0.08413769,-16.201307,-0.99432373,-0.01763916,0.008178711,-0.17480469,0.03125,0.037109375,3.4469647,14.139068,-56.876232,-14.386933,0.5385742,-0.4335327,0.7349243,-0.0048828125,0.0,0.001953125,56.34926,14.282058,-128.89116,-15.10717,0.0,0.0,0.0,0.0,0.0,0.0,0.0,4.980262,-125.39296,2.2517853,-0.96313477,-0.13323975,-0.03527832,-0.017578125,0.1328125,0.057617188,0.0,0.16722628,45.00723,0.3668418,
1.7773437235155145,91,-0.8452759,-0.08618164,0.50842285,-0.017578125,0.024414062,0.021484375,0.0,0.0,0.0,0.0,0.0,0.0,0.0,0.0,0.0,0.0,0.0,-0.62289107,-0.004064014,0.7825546,-0.9296875,0.14007568,-0.24157715,-0.09765625,-0.04296875,0.0107421875,3.9912539,-12.895778,-0.08413769,16.201307,-0.9394531,0.14025879,0.07287598,-0.032226562,0.045898438,0.033203125,1.3073103,-15.371369,-56.91367,12.479813,0.62231445,0.3701172,0.71643066,-0.005859375,-0.001953125,0.00390625,7.6145296,-17.484312,-128.69275,7.0069847,0.0,0.0,0.0,0.0,0.0,0.0,0.0,-14.52262,-128.86087,26.78782,0.0,0.0,0.0,0.0,0.0,0.0,0.0,0.62289107,0.004064014,-0.7825546,-0.9622803,0.07281494,-0.30889893,-0.09472656,-0.14160156,-0.16601562,2.7921808,12.895778,0.08413769,-16.201307,-0.9741211,-0.014587402,0.043823242,-0.13769531,0.05078125,0.036132812,3.4088113,14.092104,-56.877575,-14.271849,0.5666504,-0.43017578,0.7317505,0.013671875,0.0,0.0029296875,55.82179,14.240229,-128.88876,-14.824909,0.0,0.0,0.0,0.0,0.0,0.0,0.0,5.007985,-125.383026,2.5712128,-0.9663086,-0.1451416,-0.01159668,0.001953125,0.115234375,0.0,0.0,0.16722628,45.00723,0.3668418,
1.7968749732244762,92,-0.86083984,-0.12176514,0.47857666,0.01953125,0.04296875,-0.016601562,0.0,0.0,0.0,0.0,0.0,0.0,0.0,0.0,0.0,0.0,0.0,-0.6199398,2.544503E-4,0.7847905,-0.95422363,0.107177734,-0.25726318,-0.1171875,-0.024414062,0.047851562,4.1076574,-12.834676,0.0052679107,16.247595,-0.9390869,0.11767578,0.062805176,0.0068359375,0.06347656,0.051757812,1.3929696,-15.276878,-56.838596,12.652313,0.62420654,0.36431885,0.69958496,-0.005859375,-0.001953125,0.022460938,7.6434946,-17.417255,-128.6183,7.2148647,0.0,0.0,0.0,0.0,0.0,0.0,0.0,-14.492182,-128.78267,27.002155,0.0,0.0,0.0,0.0,0.0,0.0,0.0,0.6199398,-2.544503E-4,-0.7847905,-0.9489746,0.017456055,-0.3001709,0.01171875,-0.13085938,-0.13867188,2.556654,12.834676,-0.0052679107,-16.247595,-0.9729004,-0.04248047,0.0010375977,-0.08203125,0.01171875,0.018554688,3.3284316,14.043833,-56.966866,-14.31441,0.5609131,-0.4395752,0.75177,0.06933594,0.040039062,-0.03515625,55.62953,14.204718,-128.97723,-14.748511,0.0,0.0,0.0,0.0,0.0,0.0,0.0,5.014948,-125.46462,2.6689348,-0.9855957,-0.16021729,-0.037841797,-0.15136719,0.05859375,-0.15332031,0.0,0.1817702,45.004433,0.12899646,
1.816406222933438,93,-0.8569946,-0.11383057,0.49346924,0.056640625,0.08105469,-0.03515625,0.0,0.0,0.0,0.0,0.0,0.0,0.0,0.0,0.0,0.0,0.0,-0.61662245,0.003119174,0.78746367,-0.9436035,0.082458496,-0.27941895,-0.041015625,-0.0625,-0.0078125,4.3466334,-12.765997,0.064576566,16.302938,-0.9723511,0.10809326,0.04876709,0.046875,0.099609375,0.051757812,1.374443,-15.167522,-56.775997,12.683967,0.5722656,0.38580322,0.7008667,-0.044921875,-0.041015625,0.0029296875,7.6810184,-17.324518,-128.55235,7.227625,0.0,0.0,0.0,0.0,0.0,0.0,0.0,-14.432745,-128.72237,27.019957,0.0,0.0,0.0,0.0,0.0,0.0,0.0,0.61662245,-0.003119174,-0.78746367,-0.9468994,0.0025634766,-0.28070068,0.08300781,-0.12402344,-0.11425781,2.2928572,12.765997,-0.064576566,-16.302938,-0.9801636,-0.052978516,-0.0078125,-0.0625,0.03125,0.017578125,3.2628481,13.991941,-57.030132,-14.420119,0.5834961,-0.42767334,0.71362305,0.032226562,0.001953125,-0.053710938,55.19749,14.172417,-129.045,-14.824909,0.0,0.0,0.0,0.0,0.0,0.0,0.0,5.0808697,-125.528404,2.6412659,-0.9611206,-0.14105225,-0.031433105,-0.20898438,0.13476562,-0.22851562,0.0,0.14112689,45.007195,-0.067766,
1.8359374726423996,94,-0.85424805,-0.107788086,0.54211426,0.13183594,0.061523438,-0.018554688,0.0,0.0,0.0,0.0,0.0,0.0,0.0,0.0,0.0,0.0,0.0,-0.6124467,0.0046027293,0.79065657,-0.9089966,0.040283203,-0.24969482,0.0146484375,-0.080078125,0.028320312,4.3452363,-12.679546,0.09529076,16.369043,-0.97161865,0.097595215,0.022888184,0.123046875,0.060546875,0.0146484375,1.4049993,-14.988833,-56.74821,12.730322,0.5722656,0.38580322,0.7008667,-0.044921875,-0.041015625,0.0029296875,7.7754908,-17.20805,-128.51552,7.1904554,0.0,0.0,0.0,0.0,0.0,0.0,0.0,-14.316277,-128.68553,26.982788,0.0,0.0,0.0,0.0,0.0,0.0,0.0,0.6124467,-0.0046027293,-0.79065657,-0.95599365,0.016357422,-0.2694702,0.15039062,-0.15136719,-0.08496094,2.2884996,12.679546,-0.09529076,-16.369043,-0.95825195,-0.0513916,-0.018920898,-0.0068359375,0.03125,0.016601562,3.271477,13.969692,-57.05901,-14.529206,0.54974365,-0.41149902,0.73669434,0.051757812,0.0390625,-0.016601562,55.56691,14.127207,-129.07089,-14.945983,0.0,0.0,0.0,0.0,0.0,0.0,0.0,4.9762535,-125.562965,2.490653,-0.94989014,-0.12573242,-0.0211792,-0.1328125,0.11621094,-0.24804688,0.0,0.18552034,45.00509,-0.11828763,
1.8554687223513613,95,-0.83496094,-0.12561035,0.5177002,0.13183594,0.061523438,-0.018554688,0.0,0.0,0.0,0.0,0.0,0.0,0.0,0.0,0.0,0.0,0.0,-0.60747045,0.0052665905,0.7944941,-0.89263916,0.06768799,-0.27838135,0.072265625,-0.0087890625,0.009765625,4.4135284,-12.576522,0.10903475,16.448492,-0.9624634,0.13781738,0.026184082,0.103515625,0.041992188,0.033203125,1.3925481,-14.864899,-56.73404,12.7515745,0.5845947,0.34051514,0.7052002,-0.064453125,0.016601562,0.00390625,8.068352,-17.19522,-128.49432,7.150261,0.0,0.0,0.0,0.0,0.0,0.0,0.0,-14.33894,-128.673,26.947163,0.0,0.0,0.0,0.0,0.0,0.0,0.0,0.60747045,-0.0052665905,-0.7944941,-0.9550781,0.031311035,-0.2979126,0.1953125,-0.15722656,-0.11328125,2.2840478,12.576522,-0.10903475,-16.448492,-0.95648193,-0.05810547,-0.035827637,-0.005859375,0.0703125,-0.0029296875,3.303694,13.921194,-57.070396,-14.641772,0.5456543,-0.44354248,0.74090576,0.013671875,0.0,0.0029296875,55.652363,14.048271,-129.08377,-15.090908,0.0,0.0,0.0,0.0,0.0,0.0,0.0,4.8832283,-125.57321,2.3392887,-0.9347534,-0.122558594,0.023742676,0.040039062,0.11816406,-0.24804688,0.0,0.1965507,45.005383,-0.14805163,
1.874999972060323,96,-0.8293457,-0.109680176,0.56536865,0.16992188,-0.0126953125,-0.09375,0.0,0.0,0.0,0.0,0.0,0.0,0.0,0.0,0.0,0.0,0.0,-0.59933555,0.0061215833,0.80065036,-0.88690186,0.044921875,-0.27374268,0.109375,-0.08105469,0.028320312,4.4362807,-12.408104,0.12673575,16.575945,-0.9595337,0.13470459,0.027160645,0.06542969,0.043945312,0.0146484375,1.4148537,-14.679195,-56.713303,12.842981,0.6168213,0.34490967,0.6954346,-0.044921875,0.036132812,0.00390625,8.168516,-17.14629,-128.46353,7.1750593,0.0,0.0,0.0,0.0,0.0,0.0,0.0,-14.242933,-128.65384,26.964897,0.0,0.0,0.0,0.0,0.0,0.0,0.0,0.59933555,-0.0061215833,-0.80065036,-0.94189453,0.02154541,-0.33477783,0.18359375,-0.1640625,-0.07910156,2.294905,12.408104,-0.12673575,-16.575945,-0.98724365,-0.047607422,-0.03955078,0.030273438,0.03125,0.016601562,3.3495986,13.753493,-57.087753,-14.781689,0.56500244,-0.39160156,0.74749756,0.013671875,0.01953125,-0.016601562,56.39362,13.819394,-129.0983,-15.277344,0.0,0.0,0.0,0.0,0.0,0.0,0.0,4.498808,-125.60861,2.0734081,-0.91430664,-0.1182251,-0.0289917,0.15527344,0.13769531,-0.22949219,0.0,0.23658004,45.0054,-0.16700608,
1.8945312217692847,97,-0.87609863,-0.11669922,0.51867676,0.24414062,0.005859375,-0.11425781,0.0,0.0,0.0,0.0,0.0,0.0,0.0,0.0,0.0,0.0,0.0,-0.5910455,0.0070378836,0.80675477,-0.91674805,0.064331055,-0.2947998,0.2607422,0.0625,0.028320312,4.591584,-12.236475,0.14570601,16.702326,-0.9770508,0.117370605,0.033935547,0.103515625,0.0234375,0.033203125,1.3461026,-14.559734,-56.68308,12.810333,0.62646484,0.381958,0.6870117,-0.064453125,0.0546875,-0.0146484375,8.43056,-17.101408,-128.4199,7.0256615,0.0,0.0,0.0,0.0,0.0,0.0,0.0,-14.235979,-128.61858,26.819677,0.0,0.0,0.0,0.0,0.0,0.0,0.0,0.5910455,-0.0070378836,-0.80675477,-0.9307251,-0.012878418,-0.36224365,0.25878906,-0.10449219,-0.07910156,2.2378213,12.236475,-0.14570601,-16.702326,-0.97924805,-0.043762207,-0.051574707,0.08691406,0.01171875,-0.001953125,3.3571885,13.512497,-57.103706,-14.967924,0.57092285,-0.4404297,0.7496948,0.013671875,0.0,0.021484375,57.054737,13.444433,-129.11263,-15.52211,0.0,0.0,0.0,0.0,0.0,0.0,0.0,4.160083,-125.63036,1.8498268,-0.9610596,-0.11779785,-0.024963379,0.21289062,0.25195312,-0.265625,0.0,0.28778,45.004063,-0.18176803,
1.9140624714782464,98,-0.8578491,-0.1394043,0.5140381,0.31933594,0.0068359375,-0.13378906,0.0,0.0,0.0,0.0,0.0,0.0,0.0,0.0,0.0,0.0,0.0,-0.58349943,0.008130859,0.81221426,-0.9510498,0.05114746,-0.2874756,0.16601562,0.08203125,0.06542969,4.8119,-12.080246,0.16833399,16.815353,-0.96313477,0.1149292,0.03491211,0.12207031,-0.013671875,0.0146484375,1.1879505,-14.503502,-56.640438,12.738862,0.6030884,0.3626709,0.70648193,-0.064453125,0.016601562,0.00390625,8.572009,-17.120674,-128.37372,6.912112,0.0,0.0,0.0,0.0,0.0,0.0,0.0,-14.235914,-128.57535,26.704956,0.0,0.0,0.0,0.0,0.0,0.0,0.0,0.58349943,-0.008130859,-0.81221426,-0.92871094,-0.010986328,-0.34936523,0.2548828,-0.15722656,-0.0546875,2.126885,12.080246,-0.16833399,-16.815353,-0.97106934,-0.037231445,-0.03967285,0.19921875,-0.0078125,-0.040039062,3.328961,13.254621,-57.136868,-15.160469,0.56573486,-0.39715576,0.7265625,-0.00390625,-9.765625E-4,0.040039062,58.052906,13.048356,-129.14606,-15.76779,0.0,0.0,0.0,0.0,0.0,0.0,0.0,3.7163334,-125.68157,1.5821705,-1.0067749,-0.13354492,-0.05114746,0.15527344,0.23242188,-0.265625,0.0,0.33360296,45.003437,-0.210855,
1.933593721187208,99,-0.86535645,-0.076293945,0.50891113,0.31933594,-0.049804688,-0.13378906,0.0,0.0,0.0,0.0,0.0,0.0,0.0,0.0,0.0,0.0,0.0,-0.57747066,0.0083983475,0.81659704,-0.9501953,0.11413574,-0.28100586,0.3544922,0.13476562,0.083984375,4.9642005,-11.955431,0.17387185,16.90609,-0.9723511,0.14196777,0.036071777,0.140625,-0.033203125,-0.022460938,1.0400462,-14.470978,-56.62643,12.713412,0.6189575,0.3446045,0.73187256,-0.044921875,-0.0029296875,-0.033203125,8.760917,-17.235664,-128.35452,6.928131,0.0,0.0,0.0,0.0,0.0,0.0,0.0,-14.314236,-128.55452,26.715769,0.0,0.0,0.0,0.0,0.0,0.0,0.0,0.57747066,-0.0083983475,-0.81659704,-0.94592285,0.008666992,-0.3171997,0.32910156,-0.11425781,-0.052734375,2.0445921,11.955431,-0.17387185,-16.90609,-0.98095703,-0.04522705,1.2207031E-4,0.19921875,-0.045898438,-0.05859375,3.262068,13.0613165,-57.145756,-15.296659,0.5918579,-0.41601562,0.7344971,-0.041992188,-0.040039062,0.059570312,58.952393,12.815204,-129.15787,-15.89153,0.0,0.0,0.0,0.0,0.0,0.0,0.0,3.3494434,-125.705124,1.3877153,-1.0237427,-0.10345459,-0.10827637,0.001953125,0.1171875,-0.20996094,0.0,0.34207037,45.006565,-0.22097212,
1.9531249708961698,100,-0.86535645,-0.076293945,0.50891113,0.31933594,-0.049804688,-0.13378906,0.0,0.0,0.0,0.0,0.0,0.0,0.0,0.0,0.0,0.0,0.0,-0.57747066,0.0083983475,0.81659704,-0.96343994,0.16729736,-0.2368164,0.54296875,0.059570312,0.045898438,5.0413885,-11.955431,0.17387185,16.90609,-0.96087646,0.12542725,0.053833008,0.16113281,0.00390625,-0.022460938,0.9350269,-14.566725,-56.613632,12.674686,0.638855,0.33355713,0.72088623,0.013671875,-0.021484375,-0.034179688,8.896315,-17.383343,-128.34875,6.9576735,0.0,0.0,0.0,0.0,0.0,0.0,0.0,-14.462049,-128.54637,26.744825,0.0,0.0,0.0,0.0,0.0,0.0,0.0,0.57747066,-0.0083983475,-0.81659704,-0.9571533,0.05682373,-0.26672363,0.3564453,-0.16113281,-0.041992188,2.1150734,11.955431,-0.17387185,-16.90609,-0.9633789,-0.022521973,0.031799316,0.27441406,-0.0068359375,-0.059570312,3.2245224,13.102202,-57.145782,-15.236878,0.5536499,-0.47839355,0.74401855,-0.059570312,-0.001953125,0.05859375,58.403767,12.92004,-129.1589,-15.708258,0.0,0.0,0.0,0.0,0.0,0.0,0.0,3.6535206,-125.67927,1.6740932,-0.99438477,-0.13446045,-0.14587402,0.0390625,-0.016601562,-0.05859375,0.0,0.34207037,45.006565,-0.22097212,
1.9726562206051315,101,-0.8178711,-0.0033569336,0.51464844,0.16894531,0.025390625,-0.14941406,0.0,0.0,0.0,0.0,0.0,0.0,0.0,0.0,0.0,0.0,0.0,-0.56866324,0.007569882,0.8228051,-0.927063,0.19036865,-0.26385498,0.3359375,0.0078125,0.06542969,4.863652,-11.773092,0.15672003,17.034618,-0.9569702,0.15844727,0.08581543,0.14257812,0.060546875,-0.0234375,1.030596,-14.465973,-56.637985,12.961792,0.58343506,0.32574463,0.7266846,-0.005859375,-0.021484375,-0.034179688,9.029851,-17.39017,-128.37445,7.318639,0.0,0.0,0.0,0.0,0.0,0.0,0.0,-14.440498,-128.57076,27.102009,0.0,0.0,0.0,0.0,0.0,0.0,0.0,0.56866324,-0.007569882,-0.8228051,-0.9574585,0.12567139,-0.22583008,0.4501953,-0.11816406,-0.020507812,2.3473537,11.773092,-0.15672003,-17.034618,-0.9782715,-0.020263672,0.037841797,0.21777344,-0.0068359375,-0.059570312,3.292653,12.9961815,-57.122612,-15.1996155,0.56396484,-0.43658447,0.75372314,-0.0048828125,0.0,0.001953125,57.91058,12.899107,-129.13492,-15.555468,0.0,0.0,0.0,0.0,0.0,0.0,0.0,3.7741394,-125.631584,1.8965054,-0.987854,-0.21710205,-0.08093262,-0.037109375,0.15039062,0.19140625,0.0,0.35871562,45.008236,-0.16616169,
1.9921874703140932,102,-0.8390503,0.013427734,0.5132446,0.13183594,0.025390625,-0.09277344,0.0,0.0,0.0,0.0,0.0,0.0,0.0,0.0,0.0,0.0,0.0,-0.5660901,0.006052494,0.8245555,-0.93273926,0.21624756,-0.28918457,0.18457031,-0.045898438,0.009765625,4.671309,-11.71982,0.12530538,17.070856,-0.9400635,0.1159668,0.044921875,0.08496094,0.061523438,-0.0234375,1.186467,-14.577127,-56.672142,13.188619,0.5877075,0.3433838,0.7081909,0.033203125,-0.021484375,-0.015625,8.961291,-17.569048,-128.40387,7.5748863,0.0,0.0,0.0,0.0,0.0,0.0,0.0,-14.527988,-128.60115,27.34387,0.0,0.0,0.0,0.0,0.0,0.0,0.0,0.5660901,-0.006052494,-0.8245555,-0.9869385,0.19873047,-0.215271,0.36914062,-0.17382812,-0.055664062,2.7530684,11.71982,-0.12530538,-17.070856,-0.9468994,-0.054382324,0.055480957,0.14453125,0.032226562,-0.078125,3.5419347,13.031065,-57.075714,-14.892015,0.54296875,-0.4449463,0.7628784,0.013671875,-0.018554688,-0.016601562,57.41037,13.085793,-129.085,-15.199715,0.0,0.0,0.0,0.0,0.0,0.0,0.0,3.9880238,-125.563805,2.2636662,-0.98272705,-0.21026611,-0.08880615,-0.07519531,0.036132812,0.22851562,0.0,0.36947945,45.007107,-0.07670393,
2.011718720023055,103,-0.8275757,-0.05065918,0.5262451,0.09472656,0.04296875,-0.017578125,0.0,0.0,0.0,0.0,0.0,0.0,0.0,0.0,0.0,0.0,0.0,-0.56560314,0.0045306203,0.8248283,-0.88586426,0.19769287,-0.30889893,-0.07910156,-0.0078125,-0.026367188,4.590688,-11.709736,0.09379788,17.076504,-0.97454834,0.13427734,0.02508545,0.0078125,0.045898438,-0.061523438,1.40249,-14.747892,-56.70648,13.395086,0.6221924,0.36535645,0.6986084,0.013671875,0.016601562,-0.051757812,9.11266,-17.819715,-128.44086,7.7631636,0.0,0.0,0.0,0.0,0.0,0.0,0.0,-14.789385,-128.64497,27.533043,0.0,0.0,0.0,0.0,0.0,0.0,0.0,0.56560314,-0.0045306203,-0.8248283,-0.97772217,0.1663208,-0.25061035,0.13671875,-0.19628906,-0.13085938,3.0640743,11.709736,-0.09379788,-17.076504,-0.9480591,-0.001159668,0.012817383,0.12597656,0.032226562,-0.059570312,3.7682154,13.123952,-57.029457,-14.58814,0.5634155,-0.48199463,0.72802734,0.032226562,0.020507812,-0.0546875,56.76692,13.257337,-129.04816,-14.799513,0.0,0.0,0.0,0.0,0.0,0.0,0.0,4.3272085,-125.49989,2.7438965,-1.0006714,-0.15045166,-0.10534668,0.040039062,0.11328125,0.22949219,0.0,0.3153015,45.00494,-0.030994058,
