TOTAL_TIME,0m54s
TOTAL_FRAMES,2763
SELECTED_FRAMES,2763
NO_OF_JOINTS,12
FREQUENCY,51.2
DESCRIPTION,Capture 12
TIME_STAMP,Oct 11, 2010

Time,Frame,Pelvis_accelX_Pelvis,Pelvis_accelY_Pelvis,Pelvis_accelZ_Pelvis,Pelvis_gyroX_Pelvis,Pelvis_gyroY_Pelvis,Pelvis_gyroZ_Pelvis,Pelvis_Joint angle_Pelvis,Pelvis_Relative pos X_Pelvis,Pelvis_Relative pos Y_Pelvis,Pelvis_Relative pos Z_Pelvis,RightPelvis_accelX_RightPelvis,RightPelvis_accelY_RightPelvis,RightPelvis_accelZ_RightPelvis,RightPelvis_gyroX_RightPelvis,RightPelvis_gyroY_RightPelvis,RightPelvis_gyroZ_RightPelvis,RightPelvis_Joint angle_RightPelvis,RightPelvis_Relative pos X_RightPelvis,RightPelvis_Relative pos Y_RightPelvis,RightPelvis_Relative pos Z_RightPelvis,RightUpLeg_accelX_RightUpLeg,RightUpLeg_accelY_RightUpLeg,RightUpLeg_accelZ_RightUpLeg,RightUpLeg_gyroX_RightUpLeg,RightUpLeg_gyroY_RightUpLeg,RightUpLeg_gyroZ_RightUpLeg,RightUpLeg_Joint angle_RightUpLeg,RightUpLeg_Relative pos X_RightUpLeg,RightUpLeg_Relative pos Y_RightUpLeg,RightUpLeg_Relative pos Z_RightUpLeg,RightLeg_accelX_RightLeg,RightLeg_accelY_RightLeg,RightLeg_accelZ_RightLeg,RightLeg_gyroX_RightLeg,RightLeg_gyroY_RightLeg,RightLeg_gyroZ_RightLeg,RightLeg_Joint angle_RightLeg,RightLeg_Relative pos X_RightLeg,RightLeg_Relative pos Y_RightLeg,RightLeg_Relative pos Z_RightLeg,RightFoot_accelX_RightFoot,RightFoot_accelY_RightFoot,RightFoot_accelZ_RightFoot,RightFoot_gyroX_RightFoot,RightFoot_gyroY_RightFoot,RightFoot_gyroZ_RightFoot,RightFoot_Joint angle_RightFoot,RightFoot_Relative pos X_RightFoot,RightFoot_Relative pos Y_RightFoot,RightFoot_Relative pos Z_RightFoot,RightFootEnd_accelX_RightFootEnd,RightFootEnd_accelY_RightFootEnd,RightFootEnd_accelZ_RightFootEnd,RightFootEnd_gyroX_RightFootEnd,RightFootEnd_gyroY_RightFootEnd,RightFootEnd_gyroZ_RightFootEnd,RightFootEnd_Joint angle_RightFootEnd,RightFootEnd_Relative pos X_RightFootEnd,RightFootEnd_Relative pos Y_RightFootEnd,RightFootEnd_Relative pos Z_RightFootEnd,LeftPelvis_accelX_LeftPelvis,LeftPelvis_accelY_LeftPelvis,LeftPelvis_accelZ_LeftPelvis,LeftPelvis_gyroX_LeftPelvis,LeftPelvis_gyroY_LeftPelvis,LeftPelvis_gyroZ_LeftPelvis,LeftPelvis_Joint angle_LeftPelvis,LeftPelvis_Relative pos X_LeftPelvis,LeftPelvis_Relative pos Y_LeftPelvis,LeftPelvis_Relative pos Z_LeftPelvis,LeftUpLeg_accelX_LeftUpLeg,LeftUpLeg_accelY_LeftUpLeg,LeftUpLeg_accelZ_LeftUpLeg,LeftUpLeg_gyroX_LeftUpLeg,LeftUpLeg_gyroY_LeftUpLeg,LeftUpLeg_gyroZ_LeftUpLeg,LeftUpLeg_Joint angle_LeftUpLeg,LeftUpLeg_Relative pos X_LeftUpLeg,LeftUpLeg_Relative pos Y_LeftUpLeg,LeftUpLeg_Relative pos Z_LeftUpLeg,LeftLeg_accelX_LeftLeg,LeftLeg_accelY_LeftLeg,LeftLeg_accelZ_LeftLeg,LeftLeg_gyroX_LeftLeg,LeftLeg_gyroY_LeftLeg,LeftLeg_gyroZ_LeftLeg,LeftLeg_Joint angle_LeftLeg,LeftLeg_Relative pos X_LeftLeg,LeftLeg_Relative pos Y_LeftLeg,LeftLeg_Relative pos Z_LeftLeg,LeftFoot_accelX_LeftFoot,LeftFoot_accelY_LeftFoot,LeftFoot_accelZ_LeftFoot,LeftFoot_gyroX_LeftFoot,LeftFoot_gyroY_LeftFoot,LeftFoot_gyroZ_LeftFoot,LeftFoot_Joint angle_LeftFoot,LeftFoot_Relative pos X_LeftFoot,LeftFoot_Relative pos Y_LeftFoot,LeftFoot_Relative pos Z_LeftFoot,LeftFootEnd_accelX_LeftFootEnd,LeftFootEnd_accelY_LeftFootEnd,LeftFootEnd_accelZ_LeftFootEnd,LeftFootEnd_gyroX_LeftFootEnd,LeftFootEnd_gyroY_LeftFootEnd,LeftFootEnd_gyroZ_LeftFootEnd,LeftFootEnd_Joint angle_LeftFootEnd,LeftFootEnd_Relative pos X_LeftFootEnd,LeftFootEnd_Relative pos Y_LeftFootEnd,LeftFootEnd_Relative pos Z_LeftFootEnd,Spine_accelX_Spine,Spine_accelY_Spine,Spine_accelZ_Spine,Spine_gyroX_Spine,Spine_gyroY_Spine,Spine_gyroZ_Spine,Spine_Joint angle_Spine,Spine_Relative pos X_Spine,Spine_Relative pos Y_Spine,Spine_Relative pos Z_Spine,
0.0,0,0.0,0.0,0.0,0.0,0.0,0.0,0.0,0.0,0.0,0.0,0.0,0.0,0.0,0.0,0.0,0.0,0.0,0.0,0.0,0.0,0.0,0.0,0.0,0.0,0.0,0.0,NaN,0.0,0.0,0.0,0.0,0.0,0.0,0.0,0.0,0.0,NaN,0.0,0.0,0.0,0.0,0.0,0.0,0.0,0.0,0.0,NaN,0.0,0.0,0.0,0.0,0.0,0.0,0.0,0.0,0.0,0.0,0.0,0.0,0.0,0.0,0.0,0.0,0.0,0.0,0.0,0.0,0.0,0.0,0.0,0.0,0.0,0.0,0.0,0.0,0.0,NaN,0.0,0.0,0.0,0.0,0.0,0.0,0.0,0.0,0.0,NaN,0.0,0.0,0.0,0.0,0.0,0.0,0.0,0.0,0.0,NaN,0.0,0.0,0.0,0.0,0.0,0.0,0.0,0.0,0.0,0.0,0.0,0.0,0.0,0.0,0.0,0.0,0.0,0.0,0.0,0.0,0.0,0.0,0.0,
0.0195312497089617,1,0.0,0.0,0.0,0.0,0.0,0.0,0.0,0.0,0.0,0.0,0.0,0.0,0.0,0.0,0.0,0.0,0.0,0.0,0.0,0.0,0.0,0.0,0.0,0.0,0.0,0.0,NaN,0.0,0.0,0.0,0.0,0.0,0.0,0.0,0.0,0.0,NaN,0.0,0.0,0.0,0.0,0.0,0.0,0.0,0.0,0.0,NaN,0.0,0.0,0.0,0.0,0.0,0.0,0.0,0.0,0.0,0.0,0.0,0.0,0.0,0.0,0.0,0.0,0.0,0.0,0.0,0.0,0.0,0.0,0.0,0.0,0.0,0.0,0.0,0.0,0.0,NaN,0.0,0.0,0.0,0.0,0.0,0.0,0.0,0.0,0.0,NaN,0.0,0.0,0.0,0.0,0.0,0.0,0.0,0.0,0.0,NaN,0.0,0.0,0.0,0.0,0.0,0.0,0.0,0.0,0.0,0.0,0.0,0.0,0.0,0.0,0.0,0.0,0.0,0.0,0.0,0.0,0.0,0.0,0.0,
0.0390624994179234,2,0.0,0.0,0.0,0.0,0.0,0.0,0.0,0.0,0.0,0.0,0.0,0.0,0.0,0.0,0.0,0.0,0.0,0.0,0.0,0.0,0.0,0.0,0.0,0.0,0.0,0.0,NaN,0.0,0.0,0.0,0.0,0.0,0.0,0.0,0.0,0.0,NaN,0.0,0.0,0.0,0.0,0.0,0.0,0.0,0.0,0.0,NaN,0.0,0.0,0.0,0.0,0.0,0.0,0.0,0.0,0.0,0.0,0.0,0.0,0.0,0.0,0.0,0.0,0.0,0.0,0.0,0.0,0.0,0.0,0.0,0.0,0.0,0.0,0.0,0.0,0.0,NaN,0.0,0.0,0.0,0.0,0.0,0.0,0.0,0.0,0.0,NaN,0.0,0.0,0.0,0.0,0.0,0.0,0.0,0.0,0.0,NaN,0.0,0.0,0.0,0.0,0.0,0.0,0.0,0.0,0.0,0.0,0.0,0.0,0.0,0.0,0.0,0.0,0.0,0.0,0.0,0.0,0.0,0.0,0.0,
0.0585937491268851,3,-0.8218384,-0.014221191,0.51556396,-0.017578125,-0.0126953125,-0.09082031,0.0,0.0,0.0,0.0,0.0,0.0,0.0,0.0,0.0,0.0,0.0,0.021888644,-0.03787666,-0.9991972,-0.94403076,-0.032043457,-0.22613525,-0.22949219,0.10253906,-0.08105469,5.94676,0.4531621,-0.78416425,-20.68648,-0.98583984,0.09442139,0.066467285,-0.16113281,0.25585938,-0.12011719,8.4230795,4.0940647,-57.159843,-13.061517,0.5996094,0.26361084,0.7505493,0.26660156,-0.022460938,-0.08984375,31.442503,9.246476,-128.98793,-13.883714,0.0,0.0,0.0,0.0,0.0,0.0,0.0,-10.3687525,-129.13913,-17.797565,0.0,0.0,0.0,0.0,0.0,0.0,0.0,-0.021888644,0.03787666,0.9991972,-0.90179443,0.064819336,-0.34417725,0.04296875,-0.10449219,-0.17285156,11.410935,-0.4531621,0.78416425,20.68648,-0.9716797,-0.012573242,-0.061523438,0.052734375,0.052734375,-0.115234375,8.725779,-1.3200637,-55.51809,11.785058,0.5675659,-0.23736572,0.8206177,0.50390625,1.2099609,0.6035156,21.605324,2.429419,-127.407364,9.8070135,0.0,0.0,0.0,0.0,0.0,0.0,0.0,-16.691782,-126.95594,3.9524136,-0.9418335,-0.1373291,-0.03338623,0.041992188,1.1894531,0.6826172,0.0,-1.0918455,44.960495,-1.7282398,
0.0781249988358468,4,-0.8232422,0.035095215,0.5230713,-0.055664062,0.005859375,-0.08984375,0.0,0.0,0.0,0.0,0.0,0.0,0.0,0.0,0.0,0.0,0.0,0.020399332,-0.03701027,-0.9992202,-0.96875,-8.544922E-4,-0.25604248,0.053710938,0.13671875,-0.06347656,5.9503193,0.42233014,-0.76622736,-20.686956,-0.97436523,0.074279785,0.06439209,-0.12792969,0.0126953125,-0.15722656,8.245027,4.187084,-57.143963,-13.147545,0.60754395,0.2565918,0.7514038,0.16894531,-0.060546875,-0.08984375,31.468122,9.564487,-128.95427,-13.843919,0.0,0.0,0.0,0.0,0.0,0.0,0.0,-10.042049,-129.09074,-17.806168,0.0,0.0,0.0,0.0,0.0,0.0,0.0,-0.020399332,0.03701027,0.9992202,-0.9067993,0.05480957,-0.31567383,0.19238281,-0.09765625,-0.18945312,11.066138,-0.42233014,0.76622736,20.686956,-0.9869995,0.019104004,-0.06439209,0.015625,0.053710938,-0.13378906,8.517744,-1.2287112,-55.58311,12.075393,0.6116333,-0.22668457,0.80926514,0.32421875,0.6826172,0.265625,21.202955,2.5078025,-127.47543,10.215892,0.0,0.0,0.0,0.0,0.0,0.0,0.0,-16.558294,-126.88662,4.1920824,-0.930603,-0.13226318,-0.062194824,-0.09277344,0.8486328,0.5449219,0.0,-1.1177114,44.95954,-1.6880819,
0.09765624854480849,5,-0.8759155,-0.0033569336,0.5039673,-0.13085938,0.0068359375,-0.107421875,0.0,0.0,0.0,0.0,0.0,0.0,0.0,0.0,0.0,0.0,0.0,0.020180643,-0.036511756,-0.9992625,-0.94091797,0.052734375,-0.2520752,-0.11621094,0.06542969,-0.08203125,5.875998,0.41780275,-0.7559065,-20.68783,-0.97595215,0.08843994,0.04663086,-0.20898438,-0.09765625,-0.0625,8.048667,4.240179,-57.151318,-13.287521,0.6156616,0.25738525,0.76226807,0.2861328,-0.061523438,-0.10839844,31.477535,9.580902,-128.96565,-13.930647,0.0,0.0,0.0,0.0,0.0,0.0,0.0,-10.0104065,-129.09764,-17.959333,0.0,0.0,0.0,0.0,0.0,0.0,0.0,-0.020180643,0.036511756,0.9992625,-0.91693115,0.06585693,-0.33319092,0.2626953,-0.034179688,-0.22460938,10.695053,-0.41780275,0.7559065,20.68783,-0.9486084,-0.014343262,-0.031921387,-0.15234375,0.09277344,-0.11425781,8.278703,-1.1150985,-55.640713,12.396035,0.56347656,-0.24731445,0.81866455,0.0126953125,0.040039062,-0.14941406,21.148205,2.5953345,-127.53639,10.697784,0.0,0.0,0.0,0.0,0.0,0.0,0.0,-16.462921,-126.96163,4.6507483,-0.9561157,-0.1506958,-0.043640137,-0.07519531,0.30078125,0.3466797,0.0,-1.1086906,44.9615,-1.6652255,
0.11718749825377019,6,-0.8409424,-0.006286621,0.52697754,-0.2421875,-0.068359375,-0.03125,0.0,0.0,0.0,0.0,0.0,0.0,0.0,0.0,0.0,0.0,0.0,0.02193126,-0.035311714,-0.99929357,-0.8937988,0.12762451,-0.25213623,0.072265625,0.0625,-0.12011719,5.78208,0.45404586,-0.73106194,-20.688477,-0.9821167,0.08270264,0.049560547,-0.3232422,-0.0390625,-0.025390625,7.826491,4.336095,-57.14701,-13.485962,0.60443115,0.2487793,0.7592163,0.22753906,-0.061523438,-0.14550781,31.189451,9.680174,-128.95737,-14.109836,0.0,0.0,0.0,0.0,0.0,0.0,0.0,-9.904394,-129.08357,-18.174202,0.0,0.0,0.0,0.0,0.0,0.0,0.0,-0.02193126,0.035311714,0.99929357,-0.96429443,0.07092285,-0.3227539,-0.029296875,-0.053710938,-0.25683594,10.398278,-0.45404586,0.73106194,20.688477,-0.9640503,-0.04345703,-0.015930176,-0.15332031,0.034179688,-0.11230469,8.052568,-1.0212561,-55.69841,12.602425,0.5946655,-0.22796631,0.81536865,0.12597656,0.07910156,-0.053710938,20.999413,2.5286355,-127.60996,11.036369,0.0,0.0,0.0,0.0,0.0,0.0,0.0,-16.536058,-127.05888,5.005827,-0.9755249,-0.16156006,-0.016967773,0.057617188,-0.2265625,0.034179688,0.0,-1.1051937,44.964596,-1.6131549,
0.1367187479627319,7,-0.8447876,-0.038757324,0.5406494,-0.16601562,-0.087890625,0.13574219,0.0,0.0,0.0,0.0,0.0,0.0,0.0,0.0,0.0,0.0,0.0,0.02568236,-0.033183,-0.99929136,-0.9360962,0.114868164,-0.2841797,-0.15332031,0.265625,-0.099609375,5.688409,0.5317048,-0.6869909,-20.688427,-0.9938965,0.059692383,0.08709717,-0.38183594,-0.037109375,-0.044921875,7.3613534,4.678478,-57.124924,-13.82219,0.59332275,0.24816895,0.73657227,0.2861328,-0.08105469,-0.1640625,30.811869,10.046884,-128.93814,-14.327293,0.0,0.0,0.0,0.0,0.0,0.0,0.0,-9.5337305,-129.04266,-18.412542,0.0,0.0,0.0,0.0,0.0,0.0,0.0,-0.02568236,0.033183,0.99929136,-0.96118164,0.04522705,-0.31341553,-0.31933594,-0.057617188,-0.29003906,10.059658,-0.5317048,0.6869909,20.688427,-0.96710205,-0.048339844,-0.0099487305,-0.17382812,0.033203125,-0.038085938,7.773471,-0.98942137,-55.772064,12.813957,0.5777588,-0.19830322,0.81933594,0.087890625,0.040039062,-0.03515625,20.574759,2.3871794,-127.69099,11.290517,0.0,0.0,0.0,0.0,0.0,0.0,0.0,-16.663921,-127.194885,5.2095923,-0.9406738,-0.12628174,-0.06500244,0.25,-0.20507812,-0.0234375,0.0,-1.13313,44.96771,-1.5223439,
0.1562499976716936,8,-0.8505249,-0.061462402,0.5216675,-0.2783203,-0.087890625,0.19335938,0.0,0.0,0.0,0.0,0.0,0.0,0.0,0.0,0.0,0.0,0.0,0.029774368,-0.03259255,-0.99917495,-0.9483032,0.09881592,-0.19421387,-0.43652344,0.140625,-0.09863281,5.4095764,0.6164214,-0.6747668,-20.686018,-0.96398926,0.05731201,0.1149292,-0.47851562,-0.034179688,-0.026367188,6.8410587,4.894175,-57.14152,-14.166256,0.60894775,0.28912354,0.7144165,0.3251953,-0.061523438,-0.12695312,30.504375,10.166054,-128.96341,-14.483758,0.0,0.0,0.0,0.0,0.0,0.0,0.0,-9.406183,-129.07744,-18.609589,0.0,0.0,0.0,0.0,0.0,0.0,0.0,-0.029774368,0.03259255,0.99917495,-0.95703125,0.024291992,-0.27423096,-0.26464844,-0.052734375,-0.26757812,9.774731,-0.6164214,0.6747668,20.686018,-0.9508667,-0.030029297,-0.025939941,-0.15332031,0.072265625,-0.057617188,7.472572,-0.9682314,-55.822735,13.076682,0.5733032,-0.23187256,0.7975464,0.107421875,0.059570312,-0.03515625,20.42739,2.2983644,-127.746155,11.590544,0.0,0.0,0.0,0.0,0.0,0.0,0.0,-16.751383,-127.28035,5.508922,-0.9404907,-0.08441162,-0.066101074,0.38378906,-0.09082031,-0.041015625,0.0,-1.2289761,44.96483,-1.5033507,
0.1757812473806553,9,-0.8494873,-0.046813965,0.49102783,-0.14550781,-0.18164062,0.19042969,0.0,0.0,0.0,0.0,0.0,0.0,0.0,0.0,0.0,0.0,0.0,0.03333381,-0.032386374,-0.9990418,-0.96380615,0.060424805,-0.14294434,-0.3232422,0.21191406,-0.1171875,5.253484,0.6901121,-0.6704984,-20.683262,-0.9840698,0.024291992,0.17816162,-0.5361328,0.0048828125,-0.0078125,6.3872433,4.955674,-57.15873,-14.345816,0.60058594,0.3283081,0.7296753,0.26660156,-0.099609375,-0.12695312,30.190098,10.063026,-128.9927,-14.333678,0.0,0.0,0.0,0.0,0.0,0.0,0.0,-9.508459,-129.10384,-18.457752,0.0,0.0,0.0,0.0,0.0,0.0,0.0,-0.03333381,0.032386374,0.9990418,-0.9529419,0.010375977,-0.26367188,-0.07421875,-0.16210938,-0.22851562,9.392935,-0.6901121,0.6704984,20.683262,-0.97576904,-0.029541016,-0.015808105,-0.15429688,0.07128906,-0.01953125,7.095226,-1.0103351,-55.875557,13.444384,0.57147217,-0.23413086,0.8115845,0.087890625,0.021484375,-0.015625,20.32339,2.1409173,-127.80539,11.969342,0.0,0.0,0.0,0.0,0.0,0.0,0.0,-16.911402,-127.36443,5.8915315,-0.9373169,-0.06781006,-0.07269287,0.2890625,0.041992188,-0.11621094,0.0,-1.2236097,44.9639,-1.4984412,
0.19531249708961698,10,-0.80651855,-0.054626465,0.52575684,-0.12890625,-0.032226562,0.13476562,0.0,0.0,0.0,0.0,0.0,0.0,0.0,0.0,0.0,0.0,0.0,0.033555835,-0.03145098,-0.9991167,-1.0177002,-0.0029296875,-0.07446289,-0.7011719,0.234375,-0.09765625,5.229783,0.6947106,-0.65113276,-20.684814,-0.9567261,0.0041503906,0.20489502,-0.4580078,0.001953125,-0.0078125,5.962693,4.941478,-57.147724,-14.427399,0.6069946,0.35168457,0.7270508,0.22753906,-0.041992188,-0.08984375,29.892906,9.861454,-128.98843,-13.993037,0.0,0.0,0.0,0.0,0.0,0.0,0.0,-9.714783,-129.06999,-18.099522,0.0,0.0,0.0,0.0,0.0,0.0,0.0,-0.033555835,0.03145098,0.9991167,-0.95092773,6.1035156E-4,-0.27575684,-0.029296875,-0.20703125,-0.21679688,8.886969,-0.6947106,0.65113276,20.684814,-0.9748535,-0.029418945,-0.030700684,-0.15429688,0.07128906,-0.01953125,6.656642,-1.0692146,-55.954227,13.911071,0.5736084,-0.2062378,0.8143921,0.087890625,0.0029296875,-0.015625,20.166962,1.9338365,-127.896545,12.430087,0.0,0.0,0.0,0.0,0.0,0.0,0.0,-17.123865,-127.477936,6.363733,-0.9546509,-0.08782959,-0.09301758,0.020507812,0.13671875,-0.20996094,0.0,-1.2099354,44.96802,-1.456175,
0.21484374679857868,11,-0.80145264,-0.072387695,0.5393677,9.765625E-4,0.005859375,0.07714844,0.0,0.0,0.0,0.0,0.0,0.0,0.0,0.0,0.0,0.0,0.0,0.035347193,-0.03034723,-0.99907696,-1.0266724,-0.07281494,-0.04925537,-0.43652344,0.0859375,-0.080078125,5.286723,0.73179746,-0.6282818,-20.683989,-0.9710083,-0.006286621,0.20776367,-0.24609375,-0.00390625,0.0126953125,5.743477,4.8043222,-57.128777,-14.311834,0.5808716,0.34710693,0.74768066,0.12988281,0.016601562,-0.0146484375,29.759186,9.543782,-128.97911,-13.454249,0.0,0.0,0.0,0.0,0.0,0.0,0.0,-10.038991,-129.05035,-17.524836,0.0,0.0,0.0,0.0,0.0,0.0,0.0,-0.035347193,0.03034723,0.99907696,-0.95892334,-0.0049438477,-0.34405518,0.049804688,-0.16894531,-0.17871094,8.441199,-0.73179746,0.6282818,20.683989,-0.97473145,-0.02154541,-0.03765869,-0.024414062,0.0703125,-0.021484375,6.3396688,-1.052787,-56.019196,14.293415,0.5827637,-0.19622803,0.81829834,0.06933594,-0.016601562,-0.015625,19.975594,1.951516,-127.95604,12.8643265,0.0,0.0,0.0,0.0,0.0,0.0,0.0,-17.094887,-127.57387,6.763096,-0.942749,-0.13085938,-0.08508301,0.001953125,0.07910156,-0.19140625,0.0,-1.2190714,44.96873,-1.4090677,
0.23437499650754037,12,-0.8383179,-0.095947266,0.5359497,-0.018554688,0.061523438,0.040039062,0.0,0.0,0.0,0.0,0.0,0.0,0.0,0.0,0.0,0.0,0.0,0.03322944,-0.027399305,-0.9992457,-0.98876953,-0.08288574,-0.13397217,0.034179688,-0.06347656,-0.02734375,5.5328264,0.6879536,-0.56725055,-20.687487,-0.95770264,0.036987305,0.19616699,-0.032226562,0.045898438,0.033203125,5.7276893,4.5422826,-57.058117,-14.097914,0.60339355,0.37817383,0.72540283,0.033203125,0.016601562,0.022460938,29.861399,9.121273,-128.91202,-12.927778,0.0,0.0,0.0,0.0,0.0,0.0,0.0,-10.470795,-128.97192,-16.957104,0.0,0.0,0.0,0.0,0.0,0.0,0.0,-0.03322944,0.027399305,0.9992457,-0.9528198,-0.031433105,-0.3713379,0.06542969,-0.068359375,-0.17578125,8.026759,-0.6879536,0.56725055,20.687487,-0.95965576,-0.017028809,-0.031799316,-0.024414062,0.0703125,-0.001953125,6.0637527,-0.78415525,-56.102135,14.499146,0.579895,-0.22546387,0.8344116,0.013671875,0.0,0.0029296875,19.936209,2.257876,-128.03839,13.067682,0.0,0.0,0.0,0.0,0.0,0.0,0.0,-16.790146,-127.67515,6.969697,-0.9420166,-0.17974854,-0.07019043,-0.037109375,0.09765625,-0.15234375,0.0,-1.2261201,44.97306,-1.2739348,
0.2539062462165021,13,-0.8592529,-0.12542725,0.5598755,0.15136719,0.005859375,0.0,0.0,0.0,0.0,0.0,0.0,0.0,0.0,0.0,0.0,0.0,0.0,0.030643344,-0.024915863,-0.9993287,-0.9378662,-0.022460938,-0.20239258,0.22265625,-0.02734375,0.06542969,5.767927,0.63441074,-0.51583564,-20.689201,-0.9694824,0.07574463,0.14776611,0.06542969,0.0625,0.033203125,5.7512183,4.3662195,-57.003445,-13.973749,0.6135864,0.32214355,0.73553467,-0.064453125,0.055664062,0.078125,30.093954,8.851624,-128.86581,-12.660326,0.0,0.0,0.0,0.0,0.0,0.0,0.0,-10.743633,-128.92494,-16.679794,0.0,0.0,0.0,0.0,0.0,0.0,0.0,-0.030643344,0.024915863,0.9993287,-0.942749,-0.028808594,-0.3258667,0.14648438,-0.18554688,-0.08105469,7.569086,-0.63441074,0.51583564,20.689201,-0.956604,-0.012145996,-0.03778076,0.03125,0.06933594,0.015625,5.7956576,-0.63764024,-56.182102,14.78005,0.5737915,-0.20544434,0.82440186,-0.0048828125,0.018554688,-0.016601562,19.831963,2.409859,-128.11942,13.368592,0.0,0.0,0.0,0.0,0.0,0.0,0.0,-16.640633,-127.76696,7.2820177,-0.9378052,-0.15649414,-0.06573486,0.001953125,0.13574219,-0.171875,0.0,-1.160932,44.97504,-1.1569434,
0.2734374959254638,14,-0.8411255,-0.12945557,0.5515137,0.16894531,0.024414062,-0.056640625,0.0,0.0,0.0,0.0,0.0,0.0,0.0,0.0,0.0,0.0,0.0,0.0260261,-0.021859473,-0.99959415,-0.9349365,0.04748535,-0.21759033,0.4111328,0.080078125,0.10253906,5.851194,0.5388206,-0.45255882,-20.694696,-0.95196533,0.08886719,0.093322754,0.123046875,0.060546875,0.033203125,5.6681476,4.305175,-56.94893,-14.076555,0.62457275,0.309021,0.7698364,-0.083984375,0.07519531,0.078125,30.358835,8.737749,-128.81696,-12.781251,0.0,0.0,0.0,0.0,0.0,0.0,0.0,-10.85598,-128.88225,-16.803452,0.0,0.0,0.0,0.0,0.0,0.0,0.0,-0.0260261,0.021859473,0.99959415,-0.92578125,0.018493652,-0.3300171,0.3544922,-0.19726562,-0.020507812,7.1660132,-0.5388206,0.45255882,20.694696,-0.95874023,-0.01586914,-0.0546875,0.10644531,0.06933594,-0.00390625,5.566445,-0.59392214,-56.271828,15.027743,0.5783081,-0.21881104,0.7954712,-0.005859375,-0.037109375,-0.03515625,19.783781,2.4316962,-128.21027,13.546603,0.0,0.0,0.0,0.0,0.0,0.0,0.0,-16.627413,-127.86586,7.4829955,-0.9609375,-0.119140625,-0.073791504,0.078125,0.13574219,-0.15234375,0.0,-1.1749798,44.980957,-1.0142517,
0.2929687456344255,15,-0.86486816,-0.12567139,0.4925537,0.16894531,0.024414062,-0.09375,0.0,0.0,0.0,0.0,0.0,0.0,0.0,0.0,0.0,0.0,0.0,0.018607885,-0.019896885,-0.9997097,-0.9203491,0.08843994,-0.2006836,0.4296875,0.0068359375,0.08300781,5.7804866,0.3852413,-0.41192725,-20.69709,-0.9718628,0.09197998,0.06451416,0.12402344,0.07910156,0.052734375,5.5023875,4.167619,-56.934513,-14.336584,0.5932617,0.24822998,0.732605,-0.083984375,0.055664062,0.078125,30.478989,8.638042,-128.80008,-13.145227,0.0,0.0,0.0,0.0,0.0,0.0,0.0,-10.954935,-128.87096,-17.17208,0.0,0.0,0.0,0.0,0.0,0.0,0.0,-0.018607885,0.019896885,0.9997097,-0.9259033,0.045166016,-0.33746338,0.38964844,-0.17382812,-0.036132812,6.864614,-0.3852413,0.41192725,20.69709,-0.95666504,-0.0099487305,-0.061645508,0.14257812,0.049804688,0.015625,5.513098,-0.51471424,-56.330517,15.202976,0.5895996,-0.20794678,0.807312,-0.0234375,0.0,-0.016601562,19.582659,2.5616755,-128.26575,13.754917,0.0,0.0,0.0,0.0,0.0,0.0,0.0,-16.486263,-127.95063,7.65416,-0.9859619,-0.059326172,-0.08935547,0.040039062,0.15332031,-0.018554688,0.0,-1.0860819,44.981216,-0.91546154,
0.3124999953433872,16,-0.8411255,-0.082336426,0.48254395,0.16894531,-0.0126953125,-0.13183594,0.0,0.0,0.0,0.0,0.0,0.0,0.0,0.0,0.0,0.0,0.0,0.010198802,-0.017782612,-0.999922,-0.9017334,0.13800049,-0.31610107,0.43066406,0.024414062,0.02734375,5.7694225,0.21114656,-0.3681552,-20.701487,-0.979126,0.11791992,0.06567383,0.103515625,0.041992188,0.033203125,5.429969,4.0911903,-56.907192,-14.554662,0.6191406,0.22509766,0.7510376,-0.083984375,0.09375,0.059570312,30.792961,8.566802,-128.7799,-13.546352,0.0,0.0,0.0,0.0,0.0,0.0,0.0,-11.008872,-128.86916,-17.654354,0.0,0.0,0.0,0.0,0.0,0.0,0.0,-0.010198802,0.017782612,0.999922,-0.8966675,0.048217773,-0.3831787,0.42773438,-0.11621094,-0.057617188,6.625991,-0.21114656,0.3681552,20.701487,-0.9592285,0.01159668,-0.06359863,0.19921875,0.049804688,-0.00390625,5.414139,-0.35189196,-56.385838,15.309195,0.5848999,-0.22247314,0.83636475,-0.041992188,-9.765625E-4,-0.036132812,19.47621,2.796412,-128.31525,13.767424,0.0,0.0,0.0,0.0,0.0,0.0,0.0,-16.252327,-128.01154,7.669357,-0.9993286,-0.079956055,-0.062927246,-0.09472656,0.13183594,0.115234375,0.0,-1.0485836,44.98642,-0.8107337,
0.3320312450523489,17,-0.85150146,-0.058532715,0.51672363,0.16894531,-0.0126953125,-0.13183594,0.0,0.0,0.0,0.0,0.0,0.0,0.0,0.0,0.0,0.0,0.0,0.0050297678,-0.018198311,-0.99998367,-0.88342285,0.15722656,-0.29943848,0.22265625,0.15429688,0.047851562,5.525206,0.104130834,-0.37676144,-20.702763,-0.97924805,0.14587402,0.05291748,0.025390625,0.026367188,0.033203125,5.201306,4.2099047,-56.937786,-14.943085,0.60150146,0.25372314,0.7632446,-0.025390625,0.016601562,0.00390625,31.206066,8.649281,-128.8116,-14.160027,0.0,0.0,0.0,0.0,0.0,0.0,0.0,-10.909994,-128.91638,-18.344242,0.0,0.0,0.0,0.0,0.0,0.0,0.0,-0.0050297678,0.018198311,0.99998367,-0.914978,0.08874512,-0.37530518,0.37402344,-0.005859375,-0.080078125,6.698288,-0.104130834,0.37676144,20.702763,-1.0037231,0.026123047,-0.04534912,0.125,0.0126953125,-0.040039062,5.3452578,-0.12623343,-56.366028,15.226127,0.6055298,-0.2185669,0.7993164,-0.0048828125,-0.018554688,0.0029296875,19.334703,3.0367296,-128.29382,13.581776,0.0,0.0,0.0,0.0,0.0,0.0,0.0,-16.01172,-128.00969,7.4812493,-1.013794,-0.14129639,-0.12902832,-0.22851562,0.11230469,0.13476562,0.0,-1.0399092,44.98773,-0.82394457,
0.3515624947613106,18,-0.84375,-0.030944824,0.51885986,0.16992188,-0.049804688,-0.11328125,0.0,0.0,0.0,0.0,0.0,0.0,0.0,0.0,0.0,0.0,0.0,-0.002018094,-0.018075038,-1.0000256,-0.93585205,0.20507812,-0.22009277,0.052734375,0.13671875,0.0107421875,5.155219,-0.04178059,-0.37420937,-20.70363,-0.9793091,0.14801025,0.10650635,-0.12890625,0.048828125,0.032226562,4.7973847,4.168056,-56.975132,-15.4725275,0.61761475,0.25134277,0.77404785,0.091796875,-0.021484375,-0.034179688,31.458662,8.498313,-128.85495,-14.847407,0.0,0.0,0.0,0.0,0.0,0.0,0.0,-11.055545,-128.96082,-19.053448,0.0,0.0,0.0,0.0,0.0,0.0,0.0,0.002018094,0.018075038,1.0000256,-0.9433594,0.13293457,-0.3128662,0.16308594,-0.1640625,-0.09863281,6.7102814,0.04178059,0.37420937,20.70363,-0.9663086,-0.004211426,-0.027770996,0.068359375,0.03125,-0.021484375,5.2896504,-0.103792906,-56.364918,15.221463,0.5786133,-0.21813965,0.8144531,-0.041992188,-9.765625E-4,0.001953125,18.98316,2.973646,-128.2951,13.432908,0.0,0.0,0.0,0.0,0.0,0.0,0.0,-16.0739,-128.02481,7.333849,-1.0476074,-0.2041626,-0.13238525,-0.15136719,0.09472656,0.057617188,0.0,-1.0260235,44.98959,-0.81109715,
0.37109374447027227,19,-0.85058594,-0.05456543,0.5256958,0.1328125,-0.049804688,-0.07519531,0.0,0.0,0.0,0.0,0.0,0.0,0.0,0.0,0.0,0.0,0.0,-0.005720645,-0.01921845,-1.0000182,-0.932312,0.1673584,-0.18688965,-0.17285156,0.15722656,0.030273438,4.7284107,-0.11843732,-0.39788148,-20.703476,-0.956604,0.070495605,0.1408081,-0.12890625,0.030273438,0.032226562,4.315385,4.066958,-57.044254,-15.938827,0.58148193,0.26202393,0.7416382,0.09082031,-0.0029296875,-0.0703125,31.597145,8.314983,-128.93207,-15.288203,0.0,0.0,0.0,0.0,0.0,0.0,0.0,-11.236254,-129.03465,-19.514662,0.0,0.0,0.0,0.0,0.0,0.0,0.0,0.005720645,0.01921845,1.0000182,-0.93426514,0.11907959,-0.31121826,0.13867188,-0.044921875,-0.15332031,6.782696,0.11843732,0.39788148,20.703476,-0.95495605,0.008972168,-0.0060424805,0.013671875,0.051757812,-0.040039062,5.2347264,-0.18874261,-56.34165,15.239044,0.59765625,-0.21392822,0.8112793,0.032226562,9.765625E-4,0.0029296875,18.549294,2.7201757,-128.27411,13.360609,0.0,0.0,0.0,0.0,0.0,0.0,0.0,-16.338608,-128.00433,7.2892675,-1.0517578,-0.2111206,-0.115600586,-0.018554688,-0.11230469,-0.0029296875,0.0,-1.0045676,44.990456,-0.8588843,
0.39062499417923396,20,-0.8307495,-0.023132324,0.508728,0.13183594,0.005859375,-0.055664062,0.0,0.0,0.0,0.0,0.0,0.0,0.0,0.0,0.0,0.0,0.0,-0.00953722,-0.020934386,-0.9999123,-0.9929199,0.05908203,-0.15631104,-0.39941406,0.15917969,0.0126953125,4.3875804,-0.19745111,-0.43340668,-20.701286,-0.9744873,0.042907715,0.16937256,-0.14746094,0.068359375,0.032226562,3.8814607,3.947054,-57.1088,-16.228733,0.590271,0.3128662,0.72454834,0.11035156,-0.0029296875,-0.051757812,31.670473,8.054268,-129.00165,-15.397564,0.0,0.0,0.0,0.0,0.0,0.0,0.0,-11.4997635,-129.0967,-19.612215,0.0,0.0,0.0,0.0,0.0,0.0,0.0,0.00953722,0.020934386,0.9999123,-0.96746826,0.1071167,-0.2498169,0.20605469,-0.034179688,-0.1640625,6.8166738,0.19745111,0.43340668,20.701286,-0.9622803,-0.014587402,0.018859863,0.08886719,0.07128906,-0.059570312,5.1007338,-0.18409014,-56.31717,15.318359,0.55352783,-0.23553467,0.8216553,-0.00390625,0.076171875,-0.036132812,18.099106,2.539864,-128.25189,13.41132,0.0,0.0,0.0,0.0,0.0,0.0,0.0,-16.53241,-127.977135,7.384653,-1.0006104,-0.15496826,-0.13433838,0.13476562,-0.11035156,-0.1171875,0.0,-1.0228637,44.986683,-0.93209505,
0.41015624388819566,21,-0.824646,-0.048706055,0.53015137,0.07519531,0.0625,-0.0546875,0.0,0.0,0.0,0.0,0.0,0.0,0.0,0.0,0.0,0.0,0.0,-0.009878695,-0.020991202,-0.9998809,-1.00354,0.017028809,-0.16442871,-0.09765625,0.1015625,-0.0078125,4.350867,-0.2045179,-0.43458295,-20.700636,-0.95825195,0.05114746,0.17840576,-0.03125,0.083984375,0.032226562,3.7507672,3.880652,-57.122585,-16.2599,0.57440186,0.32489014,0.72869873,0.033203125,-0.001953125,0.00390625,31.72596,7.9073815,-129.0184,-15.301576,0.0,0.0,0.0,0.0,0.0,0.0,0.0,-11.656994,-129.09834,-19.463364,0.0,0.0,0.0,0.0,0.0,0.0,0.0,0.009878695,0.020991202,0.9998809,-0.9682617,0.064575195,-0.23480225,0.21972656,-0.10449219,-0.11816406,6.5891895,0.2045179,0.43458295,20.700636,-0.9622803,-0.014587402,0.018859863,0.08886719,0.07128906,-0.059570312,4.9971633,-0.32092685,-56.3389,15.580714,0.59039307,-0.24169922,0.8004761,0.032226562,0.020507812,-0.07324219,18.2975,2.4030273,-128.27362,13.673674,0.0,0.0,0.0,0.0,0.0,0.0,0.0,-16.68992,-127.987144,7.7121058,-0.9699707,-0.10809326,-0.095458984,0.11621094,-0.12792969,-0.29003906,0.0,-0.9868872,44.98622,-0.934677,
0.42968749359715736,22,-0.8236084,-0.03100586,0.5025635,0.09375,0.08105469,-0.0546875,0.0,0.0,0.0,0.0,0.0,0.0,0.0,0.0,0.0,0.0,0.0,-0.01268667,-0.021756886,-0.99988675,-0.9713745,0.022583008,-0.21728516,-0.060546875,-0.0078125,-0.0078125,4.286788,-0.2626533,-0.450435,-20.700758,-0.9517822,0.062072754,0.101135254,-0.030273438,0.12109375,0.013671875,3.7046475,3.7164633,-57.142902,-16.250694,0.598999,0.3466797,0.767334,0.052734375,-0.021484375,0.0029296875,31.653467,7.820853,-129.03886,-15.219304,0.0,0.0,0.0,0.0,0.0,0.0,0.0,-11.755021,-129.10442,-19.327816,0.0,0.0,0.0,0.0,0.0,0.0,0.0,0.01268667,0.021756886,0.99988675,-0.96624756,0.05102539,-0.28948975,0.18066406,-0.18066406,-0.07714844,6.4097667,0.2626533,0.450435,20.700758,-0.9560547,0.0010375977,0.00390625,0.08886719,0.109375,-0.022460938,4.7299848,-0.43370014,-56.34446,15.844315,0.5772705,-0.2397461,0.79559326,0.03125,0.020507812,-0.09277344,17.13112,2.0114274,-128.29272,13.865186,0.0,0.0,0.0,0.0,0.0,0.0,0.0,-17.103289,-128.01593,7.974195,-0.9789429,-0.07501221,-0.085754395,0.05859375,-0.14746094,-0.25195312,0.0,-0.95141906,44.98873,-0.96685386,
0.44921874330611905,23,-0.8395386,-0.064453125,0.5293579,0.09375,0.099609375,-0.036132812,0.0,0.0,0.0,0.0,0.0,0.0,0.0,0.0,0.0,0.0,0.0,-0.0125258565,-0.021059275,-0.99986356,-0.9335327,9.765625E-4,-0.18548584,0.12890625,0.02734375,0.009765625,4.367581,-0.25932342,-0.4359923,-20.700275,-0.95495605,0.05810547,0.10803223,0.029296875,0.17480469,0.051757812,3.7416723,3.6463263,-57.128082,-16.20512,0.60357666,0.32525635,0.74346924,-0.0068359375,0.055664062,0.078125,31.567469,7.8519087,-129.01193,-15.151976,0.0,0.0,0.0,0.0,0.0,0.0,0.0,-11.730386,-129.074,-19.230946,0.0,0.0,0.0,0.0,0.0,0.0,0.0,0.0125258565,0.021059275,0.99986356,-0.95806885,0.035339355,-0.31262207,0.057617188,-0.23242188,-0.06738281,6.211956,0.25932342,0.4359923,20.700275,-0.9645996,-0.06378174,-0.03778076,0.05078125,0.12792969,-0.00390625,4.7989774,-0.6251941,-56.371956,16.041039,0.58135986,-0.20574951,0.7923584,0.05078125,0.05859375,-0.07324219,16.893656,1.8751774,-128.31595,14.114277,0.0,0.0,0.0,0.0,0.0,0.0,0.0,-17.24013,-128.06511,8.230272,-0.9951782,-0.072753906,-0.09564209,0.07714844,-0.09277344,-0.021484375,0.0,-0.87281567,44.98916,-0.93663406,
0.46874999301508075,24,-0.8706665,-0.07122803,0.55670166,0.13183594,0.0625,-0.055664062,0.0,0.0,0.0,0.0,0.0,0.0,0.0,0.0,0.0,0.0,0.0,-0.015595198,-0.020318316,-0.99987376,-0.91882324,0.057434082,-0.29187012,0.16601562,-0.009765625,-0.02734375,4.460366,-0.32287002,-0.42065215,-20.700487,-0.9813843,0.10974121,0.08843994,-0.08984375,0.08496094,0.08886719,3.83839,3.6155038,-57.116104,-16.218594,0.62561035,0.3149414,0.76104736,0.013671875,0.016601562,0.041015625,31.641674,7.915259,-128.99974,-15.298672,0.0,0.0,0.0,0.0,0.0,0.0,0.0,-11.662237,-129.07074,-19.401627,0.0,0.0,0.0,0.0,0.0,0.0,0.0,0.015595198,0.020318316,0.99987376,-0.9418335,7.324219E-4,-0.31640625,0.21972656,-0.14257812,-0.078125,5.9679837,0.32287002,0.42065215,20.700487,-0.95251465,-0.05102539,-0.06665039,0.06933594,0.12792969,0.0146484375,4.84913,-0.56412214,-56.402462,16.228462,0.5675659,-0.21624756,0.8125,0.05078125,0.05859375,-0.0546875,16.982967,2.1346612,-128.34743,14.389423,0.0,0.0,0.0,0.0,0.0,0.0,0.0,-16.990267,-128.13011,8.531511,-1.0026245,-0.13226318,-0.08105469,0.17285156,-0.13085938,0.053710938,0.0,-0.8149707,44.992672,-0.9015795,
0.48828124272404244,25,-0.87042236,-0.09197998,0.54455566,0.09375,0.0625,-0.07324219,0.0,0.0,0.0,0.0,0.0,0.0,0.0,0.0,0.0,0.0,0.0,-0.018660247,-0.019713989,-0.9997915,-0.90966797,0.06402588,-0.26330566,0.09082031,0.119140625,0.047851562,4.5470014,-0.3863265,-0.4081407,-20.698784,-0.9701538,0.08294678,0.07141113,-0.03125,0.1015625,0.0703125,3.7637436,3.6958692,-57.10207,-16.374893,0.59558105,0.25769043,0.7701416,-0.044921875,0.055664062,0.041015625,31.530073,8.136637,-128.97371,-15.566248,0.0,0.0,0.0,0.0,0.0,0.0,0.0,-11.434561,-129.05795,-19.692173,0.0,0.0,0.0,0.0,0.0,0.0,0.0,0.018660247,0.019713989,0.9997915,-0.93066406,-0.019958496,-0.3237915,0.3154297,-0.19726562,-0.05859375,5.666142,0.3863265,0.4081407,20.698784,-0.96917725,-0.032958984,-0.07446289,0.125,0.12695312,0.032226562,4.860106,-0.5153054,-56.435566,16.473583,0.6055908,-0.17962646,0.79608154,-0.0234375,0.018554688,-0.036132812,16.758017,2.3722897,-128.36838,14.689402,0.0,0.0,0.0,0.0,0.0,0.0,0.0,-16.741545,-128.17712,8.797199,-0.9986572,-0.14593506,-0.0793457,0.15429688,-0.24414062,-0.0234375,0.0,-0.7240515,44.992893,-0.87366045,
0.5078124924330042,26,-0.84417725,-0.10882568,0.5279541,0.055664062,0.099609375,-0.072265625,0.0,0.0,0.0,0.0,0.0,0.0,0.0,0.0,0.0,0.0,0.0,-0.02113977,-0.019166147,-0.99978226,-0.9168701,0.05340576,-0.2821045,-0.022460938,0.083984375,0.047851562,4.5990868,-0.43765798,-0.39679864,-20.698593,-0.9800415,0.0869751,0.08728027,-0.0703125,0.06542969,0.0703125,3.638411,3.8081748,-57.095226,-16.549025,0.6005249,0.2617798,0.7318115,0.033203125,-0.001953125,0.022460938,31.53904,8.254921,-128.97029,-15.815679,0.0,0.0,0.0,0.0,0.0,0.0,0.0,-11.316727,-129.05466,-19.944256,0.0,0.0,0.0,0.0,0.0,0.0,0.0,0.02113977,0.019166147,0.99978226,-0.9176636,-0.006164551,-0.34344482,0.33691406,-0.14160156,-0.08105469,5.3997865,0.43765798,0.39679864,20.698593,-0.9579468,-0.01751709,-0.08148193,0.12402344,0.087890625,0.033203125,4.818613,-0.37807104,-56.461403,16.675844,0.5716553,-0.18328857,0.81329346,-0.0048828125,-0.018554688,-0.03515625,16.727299,2.68462,-128.39566,14.95521,0.0,0.0,0.0,0.0,0.0,0.0,0.0,-16.430979,-128.21631,9.06394,-0.9793701,-0.13659668,-0.062194824,0.13476562,-0.24316406,-0.099609375,0.0,-0.688209,44.99527,-0.848022,
0.5273437421419659,27,-0.83636475,-0.09790039,0.5477905,0.16894531,0.024414062,-0.056640625,0.0,0.0,0.0,0.0,0.0,0.0,0.0,0.0,0.0,0.0,0.0,-0.022158682,-0.019722344,-0.9997145,-0.93078613,0.06439209,-0.2619629,0.015625,0.13769531,0.0107421875,4.617152,-0.45875365,-0.40831366,-20.69719,-0.9671631,0.084472656,0.090270996,-0.03125,0.064453125,0.051757812,3.4814968,3.9520316,-57.103336,-16.726591,0.6055908,0.26464844,0.7298584,0.013671875,0.016601562,0.041015625,31.503035,8.420075,-128.97464,-16.024506,0.0,0.0,0.0,0.0,0.0,0.0,0.0,-11.147731,-129.06073,-20.16829,0.0,0.0,0.0,0.0,0.0,0.0,0.0,0.022158682,0.019722344,0.9997145,-0.92785645,0.029541016,-0.35949707,0.2265625,-0.091796875,-0.08496094,5.311646,0.45875365,0.40831366,20.69719,-0.96051025,0.0020751953,-0.08148193,0.12402344,0.087890625,0.033203125,4.801956,-0.2519452,-56.459984,16.75202,0.58947754,-0.20379639,0.7993164,-0.04296875,-0.056640625,-0.03515625,16.7621,2.9603636,-128.3862,15.064881,0.0,0.0,0.0,0.0,0.0,0.0,0.0,-16.152504,-128.2207,9.170098,-0.9437256,-0.13183594,-0.08807373,0.23046875,-0.28222656,0.013671875,0.0,-0.6579994,44.99368,-0.87304956,
0.5468749918509276,28,-0.8204956,-0.07720947,0.55163574,0.15039062,0.024414062,-0.037109375,0.0,0.0,0.0,0.0,0.0,0.0,0.0,0.0,0.0,0.0,0.0,-0.02158609,-0.019643025,-0.9997282,-0.944397,0.08898926,-0.21313477,0.015625,0.08300781,0.047851562,4.487204,-0.44689813,-0.40667152,-20.697472,-0.96533203,0.11187744,0.10632324,-0.08984375,0.047851562,0.032226562,3.326019,4.0522537,-57.10926,-16.919704,0.6264038,0.30426025,0.74121094,0.033203125,-0.001953125,0.041015625,31.654467,8.441156,-128.98773,-16.25392,0.0,0.0,0.0,0.0,0.0,0.0,0.0,-11.125044,-129.07425,-20.409214,0.0,0.0,0.0,0.0,0.0,0.0,0.0,0.02158609,0.019643025,0.9997282,-0.9239502,0.06414795,-0.3786621,0.21386719,-0.059570312,-0.091796875,5.3862333,0.44689813,0.40667152,20.697472,-0.9550781,-0.02142334,-0.091430664,0.048828125,0.030273438,0.03515625,4.8712587,-0.18297681,-56.45719,16.676422,0.56573486,-0.19152832,0.8223877,-0.0234375,-0.01953125,-0.016601562,16.910784,3.147046,-128.38014,15.031649,0.0,0.0,0.0,0.0,0.0,0.0,0.0,-15.969802,-128.2278,9.146401,-0.9906006,-0.14355469,-0.04144287,0.19238281,-0.24414062,0.033203125,0.0,-0.74222094,44.992447,-0.868002,
0.5664062415598893,29,-0.8204956,-0.07720947,0.55163574,0.15039062,0.024414062,-0.037109375,0.0,0.0,0.0,0.0,0.0,0.0,0.0,0.0,0.0,0.0,0.0,-0.02158609,-0.019643025,-0.9997282,-0.9567261,0.07269287,-0.24273682,0.034179688,0.13769531,0.047851562,4.402065,-0.44689813,-0.40667152,-20.697472,-0.96588135,0.09423828,0.09631348,-0.051757812,0.046875,0.051757812,3.2130878,4.0538106,-57.1187,-17.064411,0.58380127,0.27850342,0.75567627,0.033203125,-0.001953125,0.022460938,31.69216,8.398994,-129.00461,-16.430513,0.0,0.0,0.0,0.0,0.0,0.0,0.0,-11.170439,-129.0853,-20.568878,0.0,0.0,0.0,0.0,0.0,0.0,0.0,0.02158609,0.019643025,0.9997282,-0.9239502,0.06304932,-0.35888672,0.2939453,-0.099609375,-0.076171875,5.4452133,0.44689813,0.40667152,20.697472,-0.9684448,-0.0018920898,-0.061523438,0.1796875,0.01171875,-0.0029296875,4.8987303,-0.11267075,-56.449898,16.594646,0.5975952,-0.20483398,0.8062744,-0.060546875,-0.020507812,0.001953125,16.790155,3.2706668,-128.36453,14.964313,0.0,0.0,0.0,0.0,0.0,0.0,0.0,-15.841107,-128.23256,9.060948,-0.9622803,-0.159729,-0.017944336,0.057617188,-0.39648438,-0.025390625,0.0,-0.74222094,44.992447,-0.868002,
0.585937491268851,30,-0.8139038,-0.050476074,0.5894165,0.16992188,-0.0126953125,-0.056640625,0.0,0.0,0.0,0.0,0.0,0.0,0.0,0.0,0.0,0.0,0.0,-0.020636827,-0.018732233,-0.99971825,-0.94421387,0.11206055,-0.28704834,0.015625,0.028320312,0.047851562,4.2418246,-0.42724636,-0.38781527,-20.697266,-0.9557495,0.064819336,0.12194824,-0.05078125,0.06542969,0.051757812,3.0319612,4.122693,-57.109264,-17.23939,0.5960083,0.29412842,0.73223877,0.072265625,-0.0029296875,0.00390625,31.878733,8.372885,-128.99872,-16.578741,0.0,0.0,0.0,0.0,0.0,0.0,0.0,-11.194708,-129.08134,-20.726688,0.0,0.0,0.0,0.0,0.0,0.0,0.0,0.020636827,0.018732233,0.99971825,-0.9229126,0.063964844,-0.3460083,0.2890625,-0.11425781,-0.09082031,5.446005,0.42724636,0.38781527,20.697266,-0.9445801,-0.0063476562,-0.057739258,0.16113281,0.049804688,0.0146484375,4.855267,-0.16944036,-56.467957,16.599636,0.57366943,-0.23834229,0.8245239,-0.0048828125,0.018554688,-0.016601562,16.59524,3.1575556,-128.39052,14.898654,0.0,0.0,0.0,0.0,0.0,0.0,0.0,-15.967959,-128.24828,9.040688,-0.9265747,-0.13342285,-0.04925537,0.0,-0.35742188,-0.15820312,0.0,-0.8671467,44.988884,-0.8250795,
0.6054687409778127,31,-0.82281494,-0.042663574,0.55596924,0.13183594,0.025390625,-0.09277344,0.0,0.0,0.0,0.0,0.0,0.0,0.0,0.0,0.0,0.0,0.0,-0.019582123,-0.018807063,-0.9997794,-0.91760254,0.07196045,-0.25030518,-0.00390625,0.06542969,0.047851562,4.144395,-0.4054111,-0.3893645,-20.698534,-0.9672241,0.11621094,0.08850098,0.045898438,0.043945312,0.033203125,2.924091,4.1381464,-57.119812,-17.37087,0.5869751,0.28112793,0.7941284,-0.005859375,0.016601562,0.022460938,31.849566,8.338188,-129.0115,-16.732471,0.0,0.0,0.0,0.0,0.0,0.0,0.0,-11.238203,-129.08379,-20.836876,0.0,0.0,0.0,0.0,0.0,0.0,0.0,0.019582123,0.018807063,0.9997794,-0.93499756,0.05206299,-0.32537842,0.25683594,-0.1015625,-0.09667969,5.41088,0.4054111,0.3893645,20.698534,-0.97106934,-0.03112793,-0.059570312,0.12402344,0.01171875,-0.021484375,4.7586813,-0.16561332,-56.468998,16.64015,0.58374023,-0.2322998,0.8274536,-0.041015625,0.055664062,9.765625E-4,16.35208,3.1270998,-128.38809,14.874835,0.0,0.0,0.0,0.0,0.0,0.0,0.0,-16.006731,-128.24857,9.040728,-0.9194336,-0.1296997,-0.044189453,0.0390625,-0.2626953,-0.15722656,0.0,-0.88154423,44.99039,-0.8290574,
0.6249999906867744,32,-0.8157959,-0.023071289,0.524292,0.09472656,0.024414062,-0.0546875,0.0,0.0,0.0,0.0,0.0,0.0,0.0,0.0,0.0,0.0,0.0,-0.020554483,-0.01936386,-0.999803,-0.94262695,0.08050537,-0.28533936,0.072265625,0.064453125,0.029296875,4.0054083,-0.42554086,-0.4008919,-20.699022,-0.991272,0.11340332,0.06756592,0.025390625,0.026367188,0.033203125,2.8076315,4.156647,-57.13158,-17.5122,0.6251221,0.2805786,0.7783203,0.013671875,0.016601562,0.00390625,31.839949,8.358484,-129.02084,-16.896603,0.0,0.0,0.0,0.0,0.0,0.0,0.0,-11.213736,-129.09789,-21.022427,0.0,0.0,0.0,0.0,0.0,0.0,0.0,0.020554483,0.01936386,0.999803,-0.9450073,0.031433105,-0.3256836,0.20507812,-0.10839844,-0.10253906,5.3731933,0.42554086,0.4008919,20.699022,-0.94921875,-0.03753662,-0.057739258,0.048828125,-0.026367188,-9.765625E-4,4.6292276,-0.09540033,-56.466763,16.723286,0.58551025,-0.21386719,0.80236816,-0.0048828125,0.038085938,-0.0546875,16.156433,3.1493435,-128.3905,14.939289,0.0,0.0,0.0,0.0,0.0,0.0,0.0,-15.983484,-128.25858,9.106672,-0.9334717,-0.095703125,-0.025512695,0.01953125,-0.20605469,-0.080078125,0.0,-0.9559104,44.990864,-0.85171634,
0.6445312403957361,33,-0.84490967,-0.056396484,0.5860596,9.765625E-4,0.061523438,0.0029296875,0.0,0.0,0.0,0.0,0.0,0.0,0.0,0.0,0.0,0.0,0.0,-0.018904269,-0.019406928,-0.9997933,-0.92041016,0.08898926,-0.29156494,0.015625,0.0107421875,0.029296875,3.9557202,-0.39137608,-0.40178353,-20.698822,-0.9753418,0.14355469,0.06384277,-0.051757812,0.028320312,0.013671875,2.7908485,4.1981015,-57.141975,-17.64457,0.6055298,0.2526245,0.77008057,0.052734375,-0.0029296875,-0.0146484375,31.745281,8.403989,-129.0326,-17.17473,0.0,0.0,0.0,0.0,0.0,0.0,0.0,-11.171878,-129.09581,-21.28349,0.0,0.0,0.0,0.0,0.0,0.0,0.0,0.018904269,0.019406928,0.9997933,-0.940979,0.036376953,-0.33355713,0.15234375,-0.115234375,-0.107421875,5.2651076,0.39137608,0.40178353,20.698822,-0.9550781,-0.027526855,-0.06762695,0.048828125,-0.0078125,-0.001953125,4.5954223,-0.15358096,-56.4699,16.843515,0.6054077,-0.19848633,0.7891846,-0.022460938,0.055664062,0.001953125,16.015802,3.0859678,-128.39133,15.09308,0.0,0.0,0.0,0.0,0.0,0.0,0.0,-16.04259,-128.27933,9.242954,-0.9458008,-0.12072754,-0.037963867,9.765625E-4,-0.20800781,0.034179688,0.0,-0.94123626,44.98924,-0.8554864,
0.6640624901046978,34,-0.8717041,-0.054504395,0.5350952,0.076171875,-0.0126953125,0.01953125,0.0,0.0,0.0,0.0,0.0,0.0,0.0,0.0,0.0,0.0,0.0,-0.01895973,-0.019343626,-0.99977297,-0.9125366,0.080078125,-0.31152344,-0.041015625,-0.043945312,0.0107421875,3.887208,-0.3925254,-0.40047303,-20.6984,-0.9747925,0.097473145,0.0993042,-0.11035156,-0.026367188,0.013671875,2.6761293,4.230908,-57.145084,-17.789593,0.6268921,0.26983643,0.7644043,0.051757812,0.036132812,0.00390625,31.83114,8.403654,-129.03911,-17.345304,0.0,0.0,0.0,0.0,0.0,0.0,0.0,-11.163113,-129.11153,-21.50011,0.0,0.0,0.0,0.0,0.0,0.0,0.0,0.01895973,0.019343626,0.99977297,-0.9439697,0.030395508,-0.3256836,0.19824219,-0.140625,-0.115234375,5.1442614,0.3925254,0.40047303,20.6984,-0.96832275,-0.040893555,-0.06750488,0.030273438,-0.026367188,-9.765625E-4,4.542993,-0.11446568,-56.481724,16.964308,0.59869385,-0.19793701,0.81121826,-0.041015625,0.055664062,9.765625E-4,15.919193,3.1473918,-128.4039,15.2843485,0.0,0.0,0.0,0.0,0.0,0.0,0.0,-15.974871,-128.30443,9.412643,-0.9449463,-0.14709473,-0.028625488,0.01953125,-0.20800781,0.091796875,0.0,-0.9672118,44.987827,-0.8520831,
0.6835937398136595,35,-0.8267822,-0.034851074,0.53430176,0.020507812,-0.03125,0.020507812,0.0,0.0,0.0,0.0,0.0,0.0,0.0,0.0,0.0,0.0,0.0,-0.017930686,-0.019288326,-0.99978906,-0.9154663,0.08605957,-0.3114624,-0.07910156,0.046875,-0.026367188,3.8551884,-0.3712203,-0.39932814,-20.698732,-0.9558716,0.09234619,0.0715332,-0.14941406,-0.025390625,0.032226562,2.5173838,4.321614,-57.14322,-17.93282,0.5606079,0.2781372,0.73791504,0.091796875,-0.021484375,-0.034179688,31.471588,8.54648,-129.0351,-17.463062,0.0,0.0,0.0,0.0,0.0,0.0,0.0,-11.026703,-129.0969,-21.588905,0.0,0.0,0.0,0.0,0.0,0.0,0.0,0.017930686,0.019288326,0.99978906,-0.93200684,0.0579834,-0.32232666,0.17773438,-0.140625,-0.13476562,5.029872,0.3712203,0.39932814,20.698732,-0.95861816,-0.0099487305,-0.055664062,0.01171875,-0.0068359375,-9.765625E-4,4.492919,-0.16530347,-56.493465,17.106384,0.5847168,-0.22924805,0.82543945,-0.022460938,0.037109375,0.020507812,15.955338,3.090618,-128.41891,15.429918,0.0,0.0,0.0,0.0,0.0,0.0,0.0,-16.038422,-128.32231,9.581604,-0.9540405,-0.13372803,-0.002380371,0.05859375,-0.15039062,0.07324219,0.0,-0.99336225,44.987118,-0.8500938,
0.7031249895226211,36,-0.8064575,-0.048828125,0.50201416,0.020507812,-0.0126953125,0.020507812,0.0,0.0,0.0,0.0,0.0,0.0,0.0,0.0,0.0,0.0,0.0,-0.018792748,-0.01870759,-0.9997991,-0.92285156,0.052246094,-0.22467041,-0.13574219,0.083984375,-0.026367188,3.8194163,-0.38906825,-0.38730514,-20.69894,-0.97753906,0.10473633,0.08343506,-0.12988281,-0.0068359375,0.032226562,2.4089162,4.300546,-57.13616,-18.033216,0.5925293,0.2598877,0.7435913,0.072265625,-0.0029296875,-0.033203125,31.437807,8.516672,-129.02612,-17.548615,0.0,0.0,0.0,0.0,0.0,0.0,0.0,-11.04928,-129.09737,-21.704815,0.0,0.0,0.0,0.0,0.0,0.0,0.0,0.018792748,0.01870759,0.9997991,-0.9289551,0.062072754,-0.35986328,0.045898438,-0.10644531,-0.15527344,4.9667253,0.38906825,0.38730514,20.69894,-0.96447754,0.0061035156,-0.08343506,-0.044921875,-0.026367188,0.0,4.481307,-0.12654173,-56.505737,17.133324,0.5844116,-0.21484375,0.7984009,-0.00390625,0.0,0.021484375,15.987223,3.1787543,-128.42445,15.419067,0.0,0.0,0.0,0.0,0.0,0.0,0.0,-15.952843,-128.32932,9.582098,-0.9661865,-0.12768555,-0.0072021484,0.0390625,-0.16992188,0.03515625,0.0,-0.9967343,44.988213,-0.82305515,
0.7226562392315828,37,-0.807251,-0.08227539,0.5095825,-0.017578125,-0.0126953125,0.040039062,0.0,0.0,0.0,0.0,0.0,0.0,0.0,0.0,0.0,0.0,0.0,-0.018589675,-0.01889089,-0.9998028,-0.9436035,0.07733154,-0.23895264,-0.022460938,0.0107421875,0.0107421875,3.686899,-0.38486356,-0.39109996,-20.699018,-0.96203613,0.12121582,0.07165527,-0.16796875,0.0126953125,0.0126953125,2.3312056,4.228799,-57.151943,-18.108429,0.5982666,0.31085205,0.71569824,0.15039062,-0.060546875,-0.07128906,31.445553,8.379472,-129.04855,-17.623808,0.0,0.0,0.0,0.0,0.0,0.0,0.0,-11.176734,-129.12221,-21.815594,0.0,0.0,0.0,0.0,0.0,0.0,0.0,0.018589675,0.01889089,0.9998028,-0.9289551,0.062072754,-0.35986328,0.045898438,-0.10644531,-0.15527344,4.986724,0.38486356,0.39109996,20.699018,-0.9664917,-0.0099487305,-0.039733887,-0.10058594,-0.044921875,-0.018554688,4.465369,-0.13074642,-56.50194,17.133402,0.5775757,-0.23010254,0.81347656,-0.00390625,-9.765625E-4,0.040039062,16.000446,3.1847303,-128.41765,15.357719,0.0,0.0,0.0,0.0,0.0,0.0,0.0,-15.949902,-128.32094,9.530554,-0.953125,-0.1361084,0.03741455,-0.018554688,-0.18945312,0.034179688,0.0,-1.0195235,44.98771,-0.8310691,
0.7421874889405445,38,-0.8361206,-0.10003662,0.5031128,-0.055664062,0.024414062,0.022460938,0.0,0.0,0.0,0.0,0.0,0.0,0.0,0.0,0.0,0.0,0.0,-0.020135164,-0.017933581,-0.99977434,-0.9495239,0.08758545,-0.29406738,-0.15429688,0.06640625,0.030273438,3.6568768,-0.41686082,-0.3712807,-20.698427,-0.973999,0.092041016,0.12799072,-0.16796875,0.0126953125,0.032226562,2.2049575,4.1745195,-57.13864,-18.18221,0.6043701,0.31158447,0.73046875,0.11035156,-0.022460938,-0.07128906,31.562973,8.204771,-129.04272,-17.606462,0.0,0.0,0.0,0.0,0.0,0.0,0.0,-11.343973,-129.12224,-21.845575,0.0,0.0,0.0,0.0,0.0,0.0,0.0,0.020135164,0.017933581,0.99977434,-0.9298706,0.034240723,-0.31884766,0.033203125,-0.09375,-0.14160156,4.924736,0.41686082,0.3712807,20.698427,-0.96099854,-0.028503418,-0.053649902,-0.044921875,-0.045898438,0.0,4.2887063,0.09927672,-56.52242,17.069351,0.5894165,-0.21472168,0.7973633,-0.022460938,0.017578125,0.020507812,15.935558,3.3432138,-128.44106,15.329065,0.0,0.0,0.0,0.0,0.0,0.0,0.0,-15.79599,-128.34908,9.51365,-0.93084717,-0.16479492,-0.025024414,-0.037109375,-0.16992188,0.03515625,0.0,-1.021106,44.987747,-0.78640866,
0.7617187386495062,39,-0.8183594,-0.058654785,0.49816895,0.001953125,-0.049804688,0.020507812,0.0,0.0,0.0,0.0,0.0,0.0,0.0,0.0,0.0,0.0,0.0,-0.020191938,-0.01769336,-0.9998525,-0.95666504,0.07446289,-0.21600342,-0.15429688,0.06640625,0.01171875,3.5615597,-0.41803625,-0.3663074,-20.700047,-0.9515991,0.068847656,0.109069824,-0.091796875,-0.026367188,0.013671875,2.0252607,4.1243615,-57.140755,-18.291283,0.61602783,0.28485107,0.7458496,0.111328125,-0.041015625,-0.052734375,31.489248,8.094503,-129.04895,-17.615303,0.0,0.0,0.0,0.0,0.0,0.0,0.0,-11.456285,-129.11516,-21.840225,0.0,0.0,0.0,0.0,0.0,0.0,0.0,0.020191938,0.01769336,0.9998525,-0.9359131,0.02532959,-0.31103516,0.08691406,-0.051757812,-0.15820312,4.829334,0.41803625,0.3663074,20.700047,-0.9626465,-0.00982666,-0.059631348,-0.0078125,-0.06542969,0.0,4.2138915,0.15116027,-56.528915,17.144215,0.5894165,-0.21472168,0.7973633,-0.022460938,0.017578125,0.020507812,15.922805,3.3938708,-128.44766,15.421225,0.0,0.0,0.0,0.0,0.0,0.0,0.0,-15.745333,-128.35568,9.605809,-0.9885254,-0.13311768,-0.02130127,-0.15234375,-0.09472656,0.016601562,0.0,-1.03124,44.99108,-0.77533495,
0.7812499883584679,40,-0.82263184,-0.052612305,0.53204346,-0.017578125,-0.0126953125,0.0029296875,0.0,0.0,0.0,0.0,0.0,0.0,0.0,0.0,0.0,0.0,0.0,-0.022164077,-0.017310726,-0.9997572,-0.9528198,0.06359863,-0.21917725,-0.17382812,-0.060546875,0.0107421875,3.424398,-0.4588649,-0.3583857,-20.698074,-0.9727173,0.06640625,0.11993408,-0.14941406,-0.025390625,0.032226562,1.8488562,3.9469864,-57.147892,-18.385017,0.59399414,0.29418945,0.7282715,0.12988281,-0.022460938,-0.07128906,31.536335,7.824732,-129.05896,-17.620125,0.0,0.0,0.0,0.0,0.0,0.0,0.0,-11.724087,-129.127,-21.858957,0.0,0.0,0.0,0.0,0.0,0.0,0.0,0.022164077,0.017310726,0.9997572,-0.9499512,0.020507812,-0.31097412,0.095703125,-0.1171875,-0.14746094,4.645828,0.4588649,0.3583857,20.698074,-0.963501,-0.055908203,-0.045715332,-0.026367188,-0.06542969,0.0,4.1104693,0.23840782,-56.545364,17.288378,0.57543945,-0.20495605,0.80041504,-0.041015625,0.036132812,0.020507812,16.006788,3.464371,-128.46922,15.621155,0.0,0.0,0.0,0.0,0.0,0.0,0.0,-15.686642,-128.37492,9.846165,-0.97857666,-0.16369629,0.001953125,-0.19042969,-0.09472656,-0.021484375,0.0,-1.0155598,44.989048,-0.7564678,
0.8007812380674296,41,-0.8356323,-0.05065918,0.5264282,0.01953125,0.005859375,0.001953125,0.0,0.0,0.0,0.0,0.0,0.0,0.0,0.0,0.0,0.0,0.0,-0.023337454,-0.016901685,-0.9996923,-0.92529297,0.022766113,-0.23480225,-0.11621094,-0.0068359375,-0.0078125,3.3945951,-0.4831582,-0.3499173,-20.696733,-0.9888916,0.061950684,0.12182617,-0.12988281,-0.0068359375,0.032226562,1.7471968,3.833745,-57.14871,-18.386263,0.5827637,0.34423828,0.7328491,0.091796875,-0.021484375,-0.034179688,31.499876,7.6853266,-129.05331,-17.516502,0.0,0.0,0.0,0.0,0.0,0.0,0.0,-11.860013,-129.12401,-21.76929,0.0,0.0,0.0,0.0,0.0,0.0,0.0,0.023337454,0.016901685,0.9996923,-0.95703125,0.014587402,-0.30511475,0.16601562,-0.14648438,-0.10058594,4.4371195,0.4831582,0.3499173,20.696733,-0.9588623,-0.029846191,-0.021911621,-0.064453125,-0.06542969,0.01953125,3.9965491,0.2525237,-56.565334,17.469961,0.57977295,-0.22833252,0.82647705,-0.00390625,0.037109375,0.001953125,15.784729,3.3949084,-128.492,15.866073,0.0,0.0,0.0,0.0,0.0,0.0,0.0,-15.758541,-128.39664,10.098816,-0.98254395,-0.15545654,-0.03173828,-0.11425781,-0.11328125,-0.001953125,0.0,-0.97778785,44.98817,-0.7377838,
0.8203124877763913,42,-0.8557129,-0.03289795,0.5151367,0.01953125,0.04296875,0.001953125,0.0,0.0,0.0,0.0,0.0,0.0,0.0,0.0,0.0,0.0,0.0,-0.02450189,-0.01667229,-0.9996796,-0.9523926,0.020324707,-0.23339844,-0.24902344,0.03125,0.030273438,3.368483,-0.50726426,-0.34516814,-20.696466,-0.9633789,0.07965088,0.13690186,-0.1484375,0.01171875,0.032226562,1.6948901,3.741043,-57.14711,-18.362085,0.5996094,0.3293457,0.7238159,0.091796875,-0.041015625,-0.034179688,31.55349,7.522072,-129.05591,-17.401392,0.0,0.0,0.0,0.0,0.0,0.0,0.0,-12.017601,-129.12964,-21.678516,0.0,0.0,0.0,0.0,0.0,0.0,0.0,0.02450189,0.01667229,0.9996796,-0.9580078,0.018554688,-0.3079834,0.11328125,-0.15332031,-0.10644531,4.2674184,0.50726426,0.34516814,20.696466,-0.956604,-0.012084961,-0.047729492,-0.0078125,-0.02734375,0.018554688,3.9244585,0.23775637,-56.58166,17.64083,0.6014404,-0.23156738,0.7973633,-0.041015625,-9.765625E-4,0.020507812,15.541367,3.3084798,-128.51384,16.101917,0.0,0.0,0.0,0.0,0.0,0.0,0.0,-15.839699,-128.42749,10.315246,-0.9713745,-0.14239502,0.008361816,9.765625E-4,-0.16894531,-0.022460938,0.0,-0.9597534,44.98924,-0.7267908,
0.839843737485353,43,-0.8400879,-0.09320068,0.48638916,0.01953125,0.061523438,0.001953125,0.0,0.0,0.0,0.0,0.0,0.0,0.0,0.0,0.0,0.0,0.0,-0.025509,-0.016299862,-0.9996824,-0.9733887,0.020568848,-0.20239258,0.052734375,-0.0078125,0.06640625,3.4106486,-0.5281154,-0.33745772,-20.696526,-0.9597168,0.06695557,0.12194824,-0.091796875,-0.045898438,0.051757812,1.6122837,3.6421123,-57.143276,-18.322441,0.62994385,0.33642578,0.7524414,0.033203125,-0.0029296875,-0.0146484375,31.509882,7.366025,-129.05542,-17.21405,0.0,0.0,0.0,0.0,0.0,0.0,0.0,-12.17348,-129.12862,-21.495386,0.0,0.0,0.0,0.0,0.0,0.0,0.0,0.025509,0.016299862,0.9996824,-0.9490967,0.053894043,-0.28466797,0.16308594,-0.1640625,-0.09863281,4.0978246,0.5281154,0.33745772,20.696526,-0.96417236,-0.050354004,-0.013916016,0.029296875,-0.0078125,0.017578125,3.9018898,0.12289107,-56.59797,17.817015,0.6077881,-0.2119751,0.81921387,-0.00390625,0.037109375,0.001953125,15.278995,3.0880117,-128.53592,16.301182,0.0,0.0,0.0,0.0,0.0,0.0,0.0,-16.06263,-128.44772,10.523054,-0.9682617,-0.12225342,0.029785156,0.0390625,-0.13085938,-0.022460938,0.0,-0.88371825,44.992035,-0.71104705,
0.8593749871943147,44,-0.85443115,-0.050720215,0.49310303,0.09472656,0.024414062,9.765625E-4,0.0,0.0,0.0,0.0,0.0,0.0,0.0,0.0,0.0,0.0,0.0,-0.027461588,-0.015162697,-0.99970806,-0.9360962,0.040771484,-0.24035645,0.12890625,0.02734375,0.028320312,3.5082757,-0.5685392,-0.31391487,-20.697056,-0.9725342,0.07495117,0.14178467,0.044921875,0.025390625,0.052734375,1.5929905,3.5847058,-57.118153,-18.244413,0.5790405,0.30029297,0.7362671,-0.005859375,0.036132812,0.022460938,31.538391,7.248374,-129.02841,-16.993656,0.0,0.0,0.0,0.0,0.0,0.0,0.0,-12.292449,-129.09601,-21.265415,0.0,0.0,0.0,0.0,0.0,0.0,0.0,0.027461588,0.015162697,0.99970806,-0.94610596,0.05596924,-0.3083496,0.18066406,-0.18066406,-0.07714844,3.983199,0.5685392,0.31391487,20.697056,-0.94763184,-0.013366699,-0.036865234,0.0107421875,-0.0078125,0.036132812,3.9600744,0.0027416945,-56.624744,17.921862,0.5726929,-0.21838379,0.8244629,-0.022460938,0.017578125,0.040039062,15.2192545,2.9143677,-128.56277,16.38065,0.0,0.0,0.0,0.0,0.0,0.0,0.0,-16.244234,-128.4717,10.62722,-0.96295166,-0.08331299,0.026672363,-0.018554688,-0.09375,0.016601562,0.0,-0.84185225,44.9963,-0.6593392,
0.8789062369032764,45,-0.8725586,-0.051635742,0.5053711,9.765625E-4,0.061523438,0.0029296875,0.0,0.0,0.0,0.0,0.0,0.0,0.0,0.0,0.0,0.0,0.0,-0.029171288,-0.01442477,-0.99961996,-0.9365845,0.07208252,-0.20947266,0.052734375,0.0107421875,0.06640625,3.6013048,-0.6039365,-0.29863745,-20.695232,-0.9569092,0.12634277,0.11340332,-0.033203125,-0.009765625,0.07128906,1.6447294,3.493594,-57.102154,-18.233168,0.60632324,0.31262207,0.7225952,-0.005859375,0.016601562,0.00390625,31.679462,7.106822,-129.01732,-17.041323,0.0,0.0,0.0,0.0,0.0,0.0,0.0,-12.429894,-129.08507,-21.327549,0.0,0.0,0.0,0.0,0.0,0.0,0.0,0.029171288,0.01442477,0.99961996,-0.9338989,0.039367676,-0.34936523,0.06640625,-0.12597656,-0.11621094,3.8660932,0.6039365,0.29863745,20.695232,-0.9588623,-0.028808594,-0.027832031,-0.02734375,-0.02734375,0.037109375,3.954681,0.008083224,-56.64164,17.961527,0.6016846,-0.22283936,0.8123169,-0.022460938,-9.765625E-4,0.040039062,15.120736,2.8943982,-128.58221,16.422876,0.0,0.0,0.0,0.0,0.0,0.0,0.0,-16.26078,-128.49983,10.663155,-0.96429443,-0.13897705,0.0423584,-0.076171875,-0.09472656,0.07421875,0.0,-0.73596174,44.996334,-0.6278314,
0.8984374866122381,46,-0.8577881,-0.032836914,0.5310669,0.056640625,0.024414062,0.001953125,0.0,0.0,0.0,0.0,0.0,0.0,0.0,0.0,0.0,0.0,0.0,-0.032321483,-0.014185233,-0.99948776,-0.9224243,0.08581543,-0.2510376,0.052734375,-0.044921875,0.028320312,3.5758793,-0.66915464,-0.29367828,-20.692495,-0.9689331,0.09307861,0.11413574,-0.11035156,0.0107421875,0.051757812,1.5988764,3.3958545,-57.104958,-18.317776,0.6243286,0.30944824,0.7097168,0.033203125,-0.0029296875,-0.0146484375,31.756197,6.9296627,-129.02469,-17.16191,0.0,0.0,0.0,0.0,0.0,0.0,0.0,-12.600721,-129.10535,-21.479393,0.0,0.0,0.0,0.0,0.0,0.0,0.0,0.032321483,0.014185233,0.99948776,-0.92785645,0.032287598,-0.32281494,0.0703125,-0.091796875,-0.12011719,3.8206978,0.66915464,0.29367828,20.692495,-0.9633179,-0.0033569336,-0.023803711,-0.045898438,-0.02734375,0.037109375,3.8894234,0.09184736,-56.642994,17.967287,0.59375,-0.22009277,0.81933594,-0.022460938,0.017578125,0.05859375,15.036009,2.935905,-128.58406,16.377916,0.0,0.0,0.0,0.0,0.0,0.0,0.0,-16.220917,-128.5049,10.621462,-0.9574585,-0.18951416,0.025268555,-0.076171875,-0.11425781,0.09277344,0.0,-0.7029965,44.995285,-0.61586213,
0.9179687363211998,47,-0.8432617,-0.07733154,0.5015259,0.01953125,0.005859375,0.020507812,0.0,0.0,0.0,0.0,0.0,0.0,0.0,0.0,0.0,0.0,0.0,-0.034578055,-0.014092074,-0.99944097,-0.914978,0.12133789,-0.2883911,-0.022460938,0.06542969,0.029296875,3.6289272,-0.7158735,-0.29174963,-20.691526,-0.97924805,0.11529541,0.10827637,-0.052734375,-0.0087890625,0.033203125,1.4406217,3.3973653,-57.106495,-18.505428,0.62213135,0.28771973,0.74298096,0.033203125,0.016601562,-0.033203125,31.798578,6.8598843,-129.03067,-17.32877,0.0,0.0,0.0,0.0,0.0,0.0,0.0,-12.672712,-129.10538,-21.638744,0.0,0.0,0.0,0.0,0.0,0.0,0.0,0.034578055,0.014092074,0.99944097,-0.92785645,0.03717041,-0.3168335,0.1484375,-0.12988281,-0.12207031,3.7070253,0.7158735,0.29174963,20.691526,-1.0004883,-0.011108398,-0.042419434,-0.02734375,-0.06640625,0.038085938,3.8296564,0.15987754,-56.65373,18.036541,0.58465576,-0.2121582,0.8163452,-0.022460938,0.017578125,0.020507812,15.05473,2.9987724,-128.59668,16.406818,0.0,0.0,0.0,0.0,0.0,0.0,0.0,-16.164024,-128.516,10.67028,-0.9624634,-0.17193604,0.029663086,9.765625E-4,-0.055664062,-0.021484375,0.0,-0.6276202,44.99767,-0.61275125,
0.9374999860301615,48,-0.8624878,-0.061523438,0.5090332,-0.017578125,0.024414062,0.0029296875,0.0,0.0,0.0,0.0,0.0,0.0,0.0,0.0,0.0,0.0,0.0,-0.036725163,-0.013822777,-0.99935985,-0.9343872,0.09399414,-0.25476074,-0.13574219,0.10253906,0.048828125,3.6210952,-0.76032555,-0.28617433,-20.689848,-0.9628296,0.13061523,0.10546875,-0.07128906,0.009765625,0.051757812,1.3932506,3.3456616,-57.107174,-18.651043,0.6033325,0.30548096,0.763855,0.051757812,0.03515625,-0.033203125,32.001328,6.730818,-129.0374,-17.55917,0.0,0.0,0.0,0.0,0.0,0.0,0.0,-12.802546,-129.1091,-21.865595,0.0,0.0,0.0,0.0,0.0,0.0,0.0,0.036725163,0.013822777,0.99935985,-0.92193604,0.068725586,-0.3123169,0.11328125,-0.115234375,-0.14550781,3.6742375,0.76032555,0.28617433,20.689848,-0.96343994,-0.012268066,-0.013916016,-0.026367188,-0.045898438,0.018554688,3.7755873,0.18969584,-56.65474,18.040405,0.60546875,-0.21954346,0.7982788,-0.00390625,0.018554688,0.040039062,14.887447,2.9609172,-128.59195,16.354275,0.0,0.0,0.0,0.0,0.0,0.0,0.0,-16.200943,-128.51173,10.6185055,-0.958374,-0.16638184,0.048706055,-0.018554688,-0.055664062,-0.020507812,0.0,-0.58627194,44.99802,-0.6008513,
0.9570312357391232,49,-0.85150146,-0.054626465,0.51086426,0.020507812,-0.0126953125,0.001953125,0.0,0.0,0.0,0.0,0.0,0.0,0.0,0.0,0.0,0.0,0.0,-0.036288977,-0.014093282,-0.99944156,-0.9607544,0.068725586,-0.22589111,-0.30566406,0.013671875,0.030273438,3.4684253,-0.75129294,-0.2917746,-20.691538,-0.9645996,0.10559082,0.1281128,-0.109375,0.029296875,0.051757812,1.2614503,3.2111566,-57.12822,-18.76678,0.6303711,0.30230713,0.73724365,0.072265625,-0.021484375,-0.034179688,32.220226,6.499399,-129.06061,-17.678745,0.0,0.0,0.0,0.0,0.0,0.0,0.0,-13.02787,-129.13957,-22.016237,0.0,0.0,0.0,0.0,0.0,0.0,0.0,0.036288977,0.014093282,0.99944156,-0.9269409,0.059936523,-0.32922363,0.15429688,-0.07910156,-0.12988281,3.6495879,0.75129294,0.2917746,20.691538,-0.9684448,-0.0060424805,-0.03869629,0.01171875,-0.026367188,-9.765625E-4,3.7227328,0.15264702,-56.650043,18.08428,0.59161377,-0.2520752,0.8215332,-0.041015625,-9.765625E-4,0.020507812,14.738522,2.856474,-128.59068,16.341692,0.0,0.0,0.0,0.0,0.0,0.0,0.0,-16.306332,-128.50543,10.609516,-0.94921875,-0.17175293,7.324219E-4,0.0390625,-0.055664062,-0.021484375,0.0,-0.56228626,45.00127,-0.61415374,
0.9765624854480849,50,-0.8274536,-0.0546875,0.50634766,0.001953125,-0.049804688,-0.016601562,0.0,0.0,0.0,0.0,0.0,0.0,0.0,0.0,0.0,0.0,0.0,-0.03828302,-0.01339084,-0.99938476,-0.9688721,0.057861328,-0.19720459,-0.041992188,-0.025390625,0.06640625,3.4199927,-0.7925774,-0.2772319,-20.690363,-0.9624634,0.07647705,0.15075684,-0.11035156,0.029296875,0.0703125,1.1815088,3.080412,-57.121338,-18.770243,0.5722046,0.3131714,0.7294922,0.072265625,-0.021484375,-0.034179688,32.12297,6.321132,-129.05524,-17.606768,0.0,0.0,0.0,0.0,0.0,0.0,0.0,-13.210974,-129.12625,-21.915178,0.0,0.0,0.0,0.0,0.0,0.0,0.0,0.03828302,0.01339084,0.99938476,-0.9430542,0.0491333,-0.32537842,0.08691406,-0.051757812,-0.15820312,3.6180117,0.7925774,0.2772319,20.690363,-0.9552002,0.0012817383,-0.015930176,-0.026367188,-0.02734375,0.018554688,3.5776858,0.3007959,-56.66324,18.027575,0.5678711,-0.21868896,0.83843994,-0.022460938,0.017578125,0.020507812,14.517285,2.9349518,-128.60765,16.254597,0.0,0.0,0.0,0.0,0.0,0.0,0.0,-16.227036,-128.5305,10.514133,-0.92163086,-0.13903809,0.008422852,0.020507812,-0.055664062,-0.021484375,0.0,-0.5421108,45.0023,-0.5822232,
0.9960937351570466,51,-0.8344116,-0.06842041,0.51330566,-0.0546875,0.005859375,0.0029296875,0.0,0.0,0.0,0.0,0.0,0.0,0.0,0.0,0.0,0.0,0.0,-0.040189624,-0.011790482,-0.99932384,-0.94366455,0.072265625,-0.21228027,-0.07910156,0.01171875,0.029296875,3.4473624,-0.8320502,-0.24409954,-20.689102,-0.9711304,0.054138184,0.1416626,-0.07128906,0.009765625,0.051757812,1.0959297,2.9470973,-57.09271,-18.763174,0.5908203,0.3451538,0.7289429,0.013671875,-0.0029296875,-0.0146484375,32.1548,6.159907,-129.02411,-17.51175,0.0,0.0,0.0,0.0,0.0,0.0,0.0,-13.372871,-129.09627,-21.824661,0.0,0.0,0.0,0.0,0.0,0.0,0.0,0.040189624,0.011790482,0.99932384,-0.9552002,0.06378174,-0.28344727,0.13085938,-0.15136719,-0.10449219,3.4729383,0.8320502,0.24409954,20.689102,-0.9585571,-0.012207031,-0.029846191,-0.06347656,-0.026367188,0.018554688,3.5970614,0.25997007,-56.700096,18.087994,0.5615845,-0.23339844,0.8206177,0.013671875,0.0,0.021484375,14.564376,2.8428512,-128.6485,16.326368,0.0,0.0,0.0,0.0,0.0,0.0,0.0,-16.32928,-128.55951,10.621615,-0.99780273,-0.14904785,0.015258789,-0.037109375,0.01953125,0.018554688,0.0,-0.47382927,45.003647,-0.5119178,
1.0156249848660084,52,-0.8566284,-0.04473877,0.5170288,0.01953125,0.024414062,-0.016601562,0.0,0.0,0.0,0.0,0.0,0.0,0.0,0.0,0.0,0.0,0.0,-0.041587383,-0.010730756,-0.99930245,-0.9406128,0.074157715,-0.21234131,-0.041015625,-0.0068359375,0.047851562,3.3913636,-0.8609891,-0.22215992,-20.68866,-0.9675293,0.072387695,0.10510254,-0.032226562,0.045898438,0.0703125,1.0245022,2.812696,-57.077328,-18.790972,0.6305542,0.31195068,0.75115967,0.033203125,-0.0029296875,-0.0146484375,32.214733,5.9708405,-129.01422,-17.508749,0.0,0.0,0.0,0.0,0.0,0.0,0.0,-13.560913,-129.08675,-21.821125,0.0,0.0,0.0,0.0,0.0,0.0,0.0,0.041587383,0.010730756,0.99930245,-0.940979,0.03930664,-0.3324585,0.061523438,-0.140625,-0.13085938,3.344978,0.8609891,0.22215992,20.68866,-0.9747925,-0.026489258,-0.031677246,-0.064453125,-0.02734375,0.037109375,3.6148717,0.25616026,-56.729023,18.163086,0.5932007,-0.22540283,0.7814331,-0.022460938,0.017578125,0.020507812,14.5150385,2.842337,-128.67389,16.43232,0.0,0.0,0.0,0.0,0.0,0.0,0.0,-16.326674,-128.59665,10.715149,-0.98773193,-0.15344238,0.04901123,-0.09472656,0.01953125,0.037109375,0.0,-0.4482051,45.005497,-0.46462741,
1.03515623457497,53,-0.8796387,-0.06237793,0.53515625,0.01953125,0.005859375,0.001953125,0.0,0.0,0.0,0.0,0.0,0.0,0.0,0.0,0.0,0.0,0.0,-0.042657435,-0.010472714,-0.9991992,-0.9366455,0.07116699,-0.21539307,0.09082031,-0.026367188,0.06542969,3.4199927,-0.88314015,-0.21681765,-20.686522,-0.95910645,0.0859375,0.107177734,-0.051757812,0.028320312,0.033203125,1.0110437,2.7431383,-57.077587,-18.770567,0.61450195,0.31219482,0.7550659,0.013671875,0.016601562,-0.0146484375,32.24283,5.8486385,-129.017,-17.448229,0.0,0.0,0.0,0.0,0.0,0.0,0.0,-13.685019,-129.09119,-21.751509,0.0,0.0,0.0,0.0,0.0,0.0,0.0,0.042657435,0.010472714,0.9991992,-0.9590454,0.024536133,-0.31384277,0.032226562,-0.14941406,-0.099609375,3.2721353,0.88314015,0.21681765,20.686522,-0.9644165,-0.05908203,-0.0178833,-0.044921875,-0.0078125,0.037109375,3.6122165,0.25453722,-56.73206,18.210472,0.5554199,-0.24731445,0.8137207,-0.022460938,-9.765625E-4,0.021484375,14.515883,2.7974696,-128.68404,16.570484,0.0,0.0,0.0,0.0,0.0,0.0,0.0,-16.375278,-128.59538,10.86698,-0.97039795,-0.14923096,0.010253906,0.0390625,-0.017578125,0.055664062,0.0,-0.39647552,45.00334,-0.4547587,
1.0546874842839318,54,-0.86151123,-0.054626465,0.51104736,0.056640625,0.024414062,-0.036132812,0.0,0.0,0.0,0.0,0.0,0.0,0.0,0.0,0.0,0.0,0.0,-0.04449269,-0.010542324,-0.99906486,-0.93670654,0.068359375,-0.24804688,0.034179688,0.0107421875,0.06640625,3.445715,-0.9211378,-0.21825875,-20.683743,-0.9489746,0.09136963,0.1171875,-0.032226562,0.02734375,0.0703125,1.0292661,2.6959488,-57.076427,-18.72233,0.6123657,0.3114624,0.7314453,0.013671875,-0.001953125,0.00390625,32.258564,5.791059,-129.01456,-17.365921,0.0,0.0,0.0,0.0,0.0,0.0,0.0,-13.738388,-129.09865,-21.684465,0.0,0.0,0.0,0.0,0.0,0.0,0.0,0.04449269,0.010542324,0.99906486,-0.9529419,0.0056762695,-0.30334473,0.12011719,-0.12109375,-0.09375,3.1241808,0.9211378,0.21825875,20.683743,-0.9689331,-0.036499023,-0.02178955,0.047851562,-0.0078125,0.036132812,3.5502167,0.29546994,-56.73973,18.360577,0.5935669,-0.21490479,0.8083496,-0.022460938,-9.765625E-4,0.040039062,14.5079775,2.7864597,-128.69965,16.828909,0.0,0.0,0.0,0.0,0.0,0.0,0.0,-16.389673,-128.6072,11.134548,-0.97021484,-0.1104126,0.016052246,0.05859375,0.0390625,0.037109375,0.0,-0.38152674,45.001034,-0.45786843,
1.0742187339928935,55,-0.86016846,-0.06463623,0.4593506,0.076171875,0.005859375,-0.017578125,0.0,0.0,0.0,0.0,0.0,0.0,0.0,0.0,0.0,0.0,0.0,-0.046560794,-0.009933106,-0.99901295,-0.9417114,0.066467285,-0.2420044,0.052734375,-0.0078125,0.047851562,3.5257561,-0.96395254,-0.20564605,-20.682667,-0.9785156,0.0736084,0.1159668,0.044921875,0.0068359375,0.033203125,0.9847674,2.6445532,-57.06596,-18.733162,0.600647,0.32818604,0.7444458,-0.025390625,-0.001953125,0.00390625,32.198864,5.699312,-129.00319,-17.31836,0.0,0.0,0.0,0.0,0.0,0.0,0.0,-13.837301,-129.07599,-21.60594,0.0,0.0,0.0,0.0,0.0,0.0,0.0,0.046560794,0.009933106,0.99901295,-0.9368286,0.013549805,-0.31121826,0.15332031,-0.13378906,-0.087890625,2.9508808,0.96395254,0.20564605,20.682667,-0.97546387,-0.0138549805,-0.022766113,0.0107421875,-0.02734375,0.037109375,3.4410524,0.35446882,-56.755783,18.473152,0.6055298,-0.23461914,0.8033447,-0.0048828125,-0.018554688,0.0029296875,14.415782,2.7715793,-128.71344,16.91289,0.0,0.0,0.0,0.0,0.0,0.0,0.0,-16.40441,-128.62024,11.220766,-1.0027466,-0.12176514,0.016845703,0.020507812,0.095703125,0.038085938,0.0,-0.3128315,45.003433,-0.4328854,
1.0937499837018552,56,-0.8551636,-0.09411621,0.4985962,0.13183594,0.024414062,-0.018554688,0.0,0.0,0.0,0.0,0.0,0.0,0.0,0.0,0.0,0.0,0.0,-0.04802406,-0.009147167,-0.9989663,-0.9202881,0.095458984,-0.21838379,0.16601562,0.02734375,0.046875,3.5437584,-0.9942483,-0.1893747,-20.6817,-0.9595947,0.10626221,0.13806152,0.025390625,0.026367188,0.051757812,0.99011797,2.573606,-57.051502,-18.774847,0.60858154,0.3242798,0.72766113,-0.005859375,0.016601562,0.00390625,32.30666,5.5682836,-128.9935,-17.411636,0.0,0.0,0.0,0.0,0.0,0.0,0.0,-13.966703,-129.06728,-21.712397,0.0,0.0,0.0,0.0,0.0,0.0,0.0,0.04802406,0.009147167,0.9989663,-0.9359131,0.035339355,-0.32867432,0.16210938,-0.06640625,-0.09667969,2.8761673,0.9942483,0.1893747,20.6817,-0.94836426,-0.0057373047,-0.018981934,0.0107421875,0.01171875,0.036132812,3.3336625,0.45157468,-56.77327,18.46475,0.5667114,-0.23449707,0.82855225,-0.041015625,-9.765625E-4,0.020507812,14.401921,2.82298,-128.72856,16.859234,0.0,0.0,0.0,0.0,0.0,0.0,0.0,-16.35833,-128.63588,11.183331,-0.9906616,-0.13641357,0.014526367,0.0390625,9.765625E-4,0.055664062,0.0,-0.26531875,45.00473,-0.39933687,
1.1132812334108169,57,-0.8551636,-0.09411621,0.4985962,0.13183594,0.024414062,-0.018554688,0.0,0.0,0.0,0.0,0.0,0.0,0.0,0.0,0.0,0.0,0.0,-0.04802406,-0.009147167,-0.9989663,-0.9255371,0.0758667,-0.21356201,0.052734375,0.064453125,0.047851562,3.4876213,-0.9942483,-0.1893747,-20.6817,-0.9580078,0.08886719,0.109191895,-0.032226562,0.045898438,0.051757812,0.94605345,2.528275,-57.05495,-18.810577,0.5823364,0.31988525,0.7246704,-0.025390625,0.036132812,0.022460938,32.25468,5.499381,-128.99825,-17.43983,0.0,0.0,0.0,0.0,0.0,0.0,0.0,-14.037055,-129.06908,-21.736631,0.0,0.0,0.0,0.0,0.0,0.0,0.0,0.04802406,0.009147167,0.9989663,-0.921875,0.048034668,-0.3166504,0.18554688,-0.14648438,-0.08203125,2.8913724,0.9942483,0.1893747,20.6817,-0.9544678,-0.0053710938,-0.03881836,0.047851562,0.0107421875,0.03515625,3.268124,0.4466766,-56.77017,18.450493,0.59124756,-0.24353027,0.7925415,-0.0234375,-9.765625E-4,0.001953125,14.224342,2.7399454,-128.7288,16.780073,0.0,0.0,0.0,0.0,0.0,0.0,0.0,-16.443214,-128.63249,11.112835,-0.9837036,-0.16473389,0.01586914,0.13476562,-0.017578125,0.09375,0.0,-0.26531875,45.00473,-0.39933687,
1.1328124831197786,58,-0.8311157,-0.107910156,0.51379395,0.09472656,0.024414062,-0.07421875,0.0,0.0,0.0,0.0,0.0,0.0,0.0,0.0,0.0,0.0,0.0,-0.05344543,-0.007429734,-0.9987087,-0.97680664,0.06695557,-0.2088623,0.052734375,0.08300781,0.047851562,3.5655706,-1.106486,-0.15381852,-20.676367,-0.9682007,0.08502197,0.121032715,0.005859375,0.026367188,0.08984375,0.9091367,2.3903694,-57.024902,-18.864916,0.58062744,0.33148193,0.75042725,-0.044921875,0.036132812,0.022460938,32.32017,5.28403,-128.97171,-17.49164,0.0,0.0,0.0,0.0,0.0,0.0,0.0,-14.255824,-129.03656,-21.770033,0.0,0.0,0.0,0.0,0.0,0.0,0.0,0.05344543,0.007429734,0.9987087,-0.93499756,0.060058594,-0.33807373,0.22460938,-0.10839844,-0.08300781,2.804492,1.106486,0.15381852,20.676367,-0.96655273,-0.009887695,-0.049621582,0.029296875,-0.0087890625,0.0546875,3.2121127,0.5534023,-56.809944,18.412933,0.5697632,-0.23248291,0.8305664,-0.022460938,0.018554688,0.001953125,14.117502,2.7754874,-128.76865,16.674244,0.0,0.0,0.0,0.0,0.0,0.0,0.0,-16.412434,-128.66766,11.018878,-0.98168945,-0.15917969,0.03692627,0.19238281,-0.016601562,0.036132812,0.0,-0.19003922,45.00587,-0.3246441,
1.1523437328287403,59,-0.84814453,-0.09411621,0.50341797,0.09472656,-0.03125,-0.07421875,0.0,0.0,0.0,0.0,0.0,0.0,0.0,0.0,0.0,0.0,0.0,-0.054796904,-0.007171775,-0.99864256,-0.94488525,0.054626465,-0.23022461,0.12792969,0.028320312,0.06542969,3.573305,-1.134465,-0.14847799,-20.674995,-0.9656372,0.10266113,0.12609863,0.026367188,0.044921875,0.051757812,0.99228954,2.337596,-57.021416,-18.84413,0.57702637,0.30029297,0.7382202,-0.044921875,0.055664062,0.041015625,32.42214,5.157813,-128.97153,-17.538704,0.0,0.0,0.0,0.0,0.0,0.0,0.0,-14.380218,-129.03418,-21.822971,0.0,0.0,0.0,0.0,0.0,0.0,0.0,0.054796904,0.007171775,0.99864256,-0.94714355,0.062072754,-0.3359375,0.123046875,-0.10449219,-0.095703125,2.8364868,1.134465,0.14847799,20.674995,-0.95721436,-0.04547119,-0.029846191,0.06738281,0.01171875,0.016601562,3.1820467,0.5404283,-56.81046,18.371117,0.5625,-0.22229004,0.81256104,-0.041992188,-0.01953125,0.001953125,13.92219,2.6703525,-128.76953,16.58992,0.0,0.0,0.0,0.0,0.0,0.0,0.0,-16.517876,-128.66888,10.938911,-0.98565674,-0.14746094,0.035217285,0.13476562,-0.016601562,-0.001953125,0.0,-0.17520127,45.006237,-0.31359982,
1.171874982537702,60,-0.8526001,-0.05456543,0.5227661,0.15039062,0.005859375,-0.056640625,0.0,0.0,0.0,0.0,0.0,0.0,0.0,0.0,0.0,0.0,0.0,-0.058487356,-0.008064877,-0.99845934,-0.9463501,0.0970459,-0.23376465,0.14746094,0.02734375,0.06542969,3.4921658,-1.2108703,-0.16696794,-20.671204,-0.96032715,0.078186035,0.09918213,0.025390625,0.043945312,0.08984375,0.97978723,2.2325664,-57.04352,-18.949705,0.5944214,0.32055664,0.7335205,-0.005859375,-0.021484375,0.021484375,32.616108,4.9580517,-128.99876,-17.726768,0.0,0.0,0.0,0.0,0.0,0.0,0.0,-14.572428,-129.06342,-22.041769,0.0,0.0,0.0,0.0,0.0,0.0,0.0,0.058487356,0.008064877,0.99845934,-0.9379883,0.049072266,-0.3135376,0.21582031,-0.061523438,-0.07421875,2.9139647,1.2108703,0.16696794,20.671204,-0.9663696,-0.010192871,-0.0178833,0.06738281,0.0107421875,0.03515625,3.114516,0.62193227,-56.786915,18.334038,0.58776855,-0.25628662,0.8345337,-0.041015625,-9.765625E-4,0.020507812,13.760093,2.665233,-128.7523,16.53272,0.0,0.0,0.0,0.0,0.0,0.0,0.0,-16.52396,-128.64665,10.885316,-0.9642334,-0.12902832,0.023620605,0.0390625,0.001953125,-0.0390625,0.0,-0.1688533,45.00745,-0.3536486,
1.1914062322466636,61,-0.84832764,-0.06652832,0.4907837,0.09472656,-0.0126953125,-0.07421875,0.0,0.0,0.0,0.0,0.0,0.0,0.0,0.0,0.0,0.0,0.0,-0.05965209,-0.0076299477,-0.9983795,-0.9324341,0.08496094,-0.24102783,0.09082031,0.045898438,0.06640625,3.5419898,-1.2349823,-0.15796357,-20.66955,-0.9835205,0.074523926,0.13085938,0.044921875,0.043945312,0.08984375,0.9594038,2.2238283,-57.032864,-18.998531,0.61846924,0.3092041,0.76000977,-0.044921875,0.016601562,0.00390625,32.631985,4.9190607,-128.99094,-17.772516,0.0,0.0,0.0,0.0,0.0,0.0,0.0,-14.610793,-129.05606,-22.089622,0.0,0.0,0.0,0.0,0.0,0.0,0.0,0.05965209,0.0076299477,0.9983795,-0.94104004,0.06085205,-0.2954712,0.17285156,-0.13378906,-0.068359375,2.926634,1.2349823,0.15796357,20.66955,-0.9765625,-0.019714355,-0.020751953,-0.0078125,-0.0078125,0.017578125,3.2207558,0.50495416,-56.800743,18.325161,0.56762695,-0.21942139,0.82147217,-0.041015625,-9.765625E-4,0.020507812,13.762419,2.5126448,-128.7655,16.505812,0.0,0.0,0.0,0.0,0.0,0.0,0.0,-16.67854,-128.65698,10.864834,-0.9723511,-0.12512207,0.028686523,0.020507812,-0.017578125,-0.020507812,0.0,-0.13053815,45.00706,-0.33615944,
1.2109374819556253,62,-0.81921387,-0.07055664,0.4841919,0.15136719,-0.03125,-0.056640625,0.0,0.0,0.0,0.0,0.0,0.0,0.0,0.0,0.0,0.0,0.0,-0.06412667,-0.007974173,-0.9980968,-0.94836426,0.09814453,-0.24658203,0.12792969,0.02734375,0.046875,3.5583148,-1.3276212,-0.16509011,-20.663698,-0.9743042,0.11315918,0.107299805,0.083984375,0.04296875,0.07128906,0.9441901,2.1696608,-57.04071,-19.050196,0.5939331,0.28930664,0.73217773,-0.044921875,0.017578125,0.059570312,32.65586,4.8571963,-128.99545,-17.826883,0.0,0.0,0.0,0.0,0.0,0.0,0.0,-14.67458,-129.05717,-22.139454,0.0,0.0,0.0,0.0,0.0,0.0,0.0,0.06412667,0.007974173,0.9980968,-0.9359131,0.03729248,-0.32763672,0.13769531,-0.119140625,-0.091796875,2.940314,1.3276212,0.16509011,20.663698,-0.987854,-0.036071777,-0.01965332,0.0107421875,0.01171875,0.036132812,3.2296789,0.5167953,-56.791187,18.349419,0.5703125,-0.23297119,0.8015747,-0.022460938,0.018554688,0.001953125,13.650821,2.4379935,-128.75552,16.554598,0.0,0.0,0.0,0.0,0.0,0.0,0.0,-16.757797,-128.64082,10.928562,-0.95825195,-0.15325928,0.010131836,0.05859375,-0.017578125,0.055664062,0.0,-0.12500793,45.006847,-0.3515451,
1.230468731664587,63,-0.83148193,-0.0625,0.5222168,0.13183594,-0.0126953125,-0.055664062,0.0,0.0,0.0,0.0,0.0,0.0,0.0,0.0,0.0,0.0,0.0,-0.06496158,-0.0076388437,-0.9980697,-0.95532227,0.099243164,-0.24151611,0.09082031,0.028320312,0.047851562,3.5947204,-1.344906,-0.15814774,-20.663137,-0.9508667,0.12817383,0.10845947,-0.0126953125,0.064453125,0.0703125,0.98456866,2.1285238,-57.039642,-19.100668,0.60687256,0.27624512,0.7477417,-0.064453125,0.036132812,0.041015625,32.78159,4.7772202,-128.99811,-17.995726,0.0,0.0,0.0,0.0,0.0,0.0,0.0,-14.750231,-129.06361,-22.324726,0.0,0.0,0.0,0.0,0.0,0.0,0.0,0.06496158,0.0076388437,0.9980697,-0.92889404,0.034301758,-0.33270264,0.17480469,-0.1171875,-0.0703125,2.8882565,1.344906,0.15814774,20.663137,-0.9644165,-0.010192871,-0.022827148,0.06738281,0.01171875,0.016601562,3.1651442,0.5241029,-56.800785,18.366785,0.5987549,-0.24407959,0.8274536,-0.022460938,0.018554688,0.001953125,13.439818,2.364573,-128.77065,16.53451,0.0,0.0,0.0,0.0,0.0,0.0,0.0,-16.832888,-128.65384,10.917196,-0.9684448,-0.14300537,0.05419922,0.09667969,9.765625E-4,0.055664062,0.0,-0.0658455,45.00815,-0.34018943,
1.2499999813735487,64,-0.8706665,-0.044677734,0.5192871,0.13183594,-0.0126953125,-0.09375,0.0,0.0,0.0,0.0,0.0,0.0,0.0,0.0,0.0,0.0,0.0,-0.06684828,-0.0074578105,-0.9979045,-0.9343872,0.09106445,-0.26068115,0.034179688,0.1015625,0.06640625,3.6086373,-1.3839669,-0.1543998,-20.659716,-0.98010254,0.08581543,0.096191406,-0.0126953125,0.02734375,0.051757812,0.92217267,2.134457,-57.03225,-19.19792,0.60839844,0.3135376,0.7235718,-0.025390625,-0.001953125,0.00390625,32.689583,4.794483,-128.99289,-18.078941,0.0,0.0,0.0,0.0,0.0,0.0,0.0,-14.73317,-129.0605,-22.410336,0.0,0.0,0.0,0.0,0.0,0.0,0.0,0.06684828,0.0074578105,0.9979045,-0.9309082,0.04119873,-0.33154297,0.15722656,-0.10058594,-0.091796875,2.8758268,1.3839669,0.1543998,20.659716,-0.97265625,-0.01965332,-0.03173828,-0.0078125,0.01171875,0.036132812,3.1155844,0.6020117,-56.80143,18.354126,0.5776367,-0.24725342,0.82458496,-0.041015625,0.036132812,0.020507812,13.479785,2.4400144,-128.76474,16.456293,0.0,0.0,0.0,0.0,0.0,0.0,0.0,-16.758114,-128.63878,10.842054,-0.9794922,-0.13189697,0.03253174,0.13574219,0.001953125,0.017578125,0.0,-0.06738788,45.006325,-0.33183923,
1.2695312310825104,65,-0.8668213,-0.038757324,0.53515625,0.09472656,0.005859375,-0.055664062,0.0,0.0,0.0,0.0,0.0,0.0,0.0,0.0,0.0,0.0,0.0,-0.067144185,-0.007981148,-0.99784887,-0.9268799,0.05041504,-0.24041748,-0.00390625,0.029296875,0.06640625,3.5954828,-1.3900936,-0.1652345,-20.658566,-0.9768677,0.09472656,0.09033203,0.045898438,0.0625,0.051757812,0.92661804,2.1406305,-57.043297,-19.231583,0.6189575,0.2800293,0.73498535,-0.025390625,-0.001953125,0.041015625,32.662098,4.800619,-129.00351,-18.148632,0.0,0.0,0.0,0.0,0.0,0.0,0.0,-14.726324,-129.07213,-22.48535,0.0,0.0,0.0,0.0,0.0,0.0,0.0,0.067144185,0.007981148,0.99784887,-0.9259033,0.05206299,-0.33831787,0.16015625,-0.10253906,-0.07421875,2.9308448,1.3900936,0.1652345,20.658566,-0.954895,-0.029907227,-0.027893066,0.029296875,-0.0078125,0.036132812,3.0902216,0.6110948,-56.789814,18.326153,0.5957031,-0.2220459,0.81933594,-0.0234375,-9.765625E-4,0.001953125,13.430044,2.421035,-128.76033,16.392426,0.0,0.0,0.0,0.0,0.0,0.0,0.0,-16.77733,-128.63998,10.777351,-0.98028564,-0.09680176,0.028381348,0.17382812,-0.016601562,0.055664062,0.0,-0.07301325,45.004715,-0.35505062,
1.2890624807914721,66,-0.84210205,-0.092163086,0.49041748,0.01953125,-0.0126953125,-0.07324219,0.0,0.0,0.0,0.0,0.0,0.0,0.0,0.0,0.0,0.0,0.0,-0.06706023,-0.00751312,-0.99786526,-0.9404907,0.08508301,-0.22802734,-0.00390625,0.029296875,0.047851562,3.5496101,-1.3883531,-0.15554488,-20.658903,-0.96118164,0.1159668,0.08850098,-0.0126953125,0.02734375,0.051757812,0.92492706,2.1367743,-57.034084,-19.277206,0.59765625,0.32824707,0.7474365,-0.005859375,0.016601562,-0.0146484375,32.515705,4.7949414,-128.99417,-18.253971,0.0,0.0,0.0,0.0,0.0,0.0,0.0,-14.740635,-129.04752,-22.550842,0.0,0.0,0.0,0.0,0.0,0.0,0.0,0.06706023,0.00751312,0.99786526,-0.9370117,0.050048828,-0.31451416,0.16210938,-0.08496094,-0.07714844,2.9667592,1.3883531,0.15554488,20.658903,-0.97180176,-0.029541016,-0.023803711,0.01171875,0.01171875,0.017578125,3.0259504,0.63153934,-56.79571,18.264753,0.571228,-0.22180176,0.7925415,-0.041015625,0.036132812,0.020507812,13.319999,2.370699,-128.76466,16.32085,0.0,0.0,0.0,0.0,0.0,0.0,0.0,-16.835623,-128.62979,10.734526,-0.95495605,-0.10675049,0.02508545,0.13476562,-0.017578125,0.036132812,0.0,-0.10251595,45.00515,-0.33196303,
1.3085937305004338,67,-0.8505249,-0.068359375,0.53448486,0.09472656,0.024414062,-0.036132812,0.0,0.0,0.0,0.0,0.0,0.0,0.0,0.0,0.0,0.0,0.0,-0.06690714,-0.007089891,-0.9978893,-0.92559814,0.07312012,-0.25604248,0.07128906,0.0107421875,0.08496094,3.5156906,-1.3851855,-0.14678274,-20.6594,-0.9534302,0.109375,0.11529541,-0.0126953125,0.02734375,0.051757812,0.9559301,2.1332057,-57.02871,-19.309353,0.60040283,0.3145752,0.7384033,-0.025390625,-0.001953125,0.022460938,32.587,4.7281475,-128.9893,-18.323223,0.0,0.0,0.0,0.0,0.0,0.0,0.0,-14.809986,-129.0336,-22.606382,0.0,0.0,0.0,0.0,0.0,0.0,0.0,0.06690714,0.007089891,0.9978893,-0.94104004,0.05609131,-0.32818604,0.20019531,-0.14257812,-0.09765625,2.9027917,1.3851855,0.14678274,20.6594,-0.9592285,-0.0045776367,-0.0079956055,0.0107421875,-0.0078125,0.017578125,2.9858332,0.58401144,-56.808693,18.329906,0.60583496,-0.22399902,0.8233032,-0.022460938,0.037109375,0.020507812,13.200606,2.2460594,-128.77542,16.341087,0.0,0.0,0.0,0.0,0.0,0.0,0.0,-16.964659,-128.6397,10.765934,-0.9561157,-0.12634277,0.03363037,-0.017578125,0.057617188,0.038085938,0.0,-0.12342295,45.005726,-0.31148526,
1.3281249802093955,68,-0.8458252,-0.04071045,0.548584,0.09472656,-0.0126953125,-0.037109375,0.0,0.0,0.0,0.0,0.0,0.0,0.0,0.0,0.0,0.0,0.0,-0.06865522,-0.007380143,-0.9977716,-0.95526123,0.1081543,-0.25823975,0.015625,0.0107421875,0.047851562,3.487116,-1.4213755,-0.15279183,-20.656967,-0.9494629,0.07543945,0.12597656,-0.032226562,0.045898438,0.051757812,0.9435682,2.1103265,-57.03408,-19.386574,0.60601807,0.29412842,0.713501,-0.005859375,0.036132812,0.022460938,32.721,4.6671143,-129.00058,-18.416924,0.0,0.0,0.0,0.0,0.0,0.0,0.0,-14.869411,-129.04477,-22.708344,0.0,0.0,0.0,0.0,0.0,0.0,0.0,0.06865522,0.007380143,0.9977716,-0.9440918,0.05999756,-0.32611084,0.123046875,-0.10449219,-0.095703125,2.9466984,1.4213755,0.15279183,20.656967,-0.96221924,-0.005554199,-0.0059814453,-0.026367188,-0.0078125,0.017578125,2.969859,0.6108315,-56.800716,18.305676,0.5614624,-0.24230957,0.8156738,-0.00390625,0.037109375,0.001953125,13.183322,2.2400308,-128.77087,16.294434,0.0,0.0,0.0,0.0,0.0,0.0,0.0,-16.97326,-128.63026,10.7294235,-0.96435547,-0.15435791,0.025024414,9.765625E-4,0.057617188,0.018554688,0.0,-0.13698328,45.005745,-0.323465,
1.3476562299183572,69,-0.847229,-0.08618164,0.50250244,0.057617188,-0.03125,-0.017578125,0.0,0.0,0.0,0.0,0.0,0.0,0.0,0.0,0.0,0.0,0.0,-0.06861588,-0.0066093276,-0.997795,-0.93310547,0.113586426,-0.24371338,0.034179688,0.0107421875,0.047851562,3.4366684,-1.4205608,-0.13683356,-20.657448,-0.9570923,0.12225342,0.12231445,0.0068359375,0.044921875,0.051757812,0.88536525,2.0679464,-57.023598,-19.478315,0.6260376,0.2767334,0.7664795,0.013671875,-0.001953125,0.022460938,32.770485,4.59752,-128.98778,-18.538387,0.0,0.0,0.0,0.0,0.0,0.0,0.0,-14.935876,-129.03535,-22.845255,0.0,0.0,0.0,0.0,0.0,0.0,0.0,0.06861588,0.0066093276,0.997795,-0.94000244,0.04815674,-0.32537842,0.0859375,-0.12597656,-0.09667969,2.887172,1.4205608,0.13683356,20.657448,-0.97839355,-0.012878418,-0.01574707,-0.0078125,0.01171875,0.036132812,2.9732187,0.59168625,-56.813,18.330997,0.56585693,-0.22869873,0.8395386,-0.022460938,0.017578125,0.020507812,13.24635,2.1979094,-128.78061,16.368095,0.0,0.0,0.0,0.0,0.0,0.0,0.0,-17.021557,-128.62933,10.82921,-0.9663086,-0.13793945,0.036376953,0.078125,0.021484375,-0.05859375,0.0,-0.134193,45.00667,-0.28889307,
1.367187479627319,70,-0.8273926,-0.068481445,0.5101929,0.09472656,-0.049804688,-0.055664062,0.0,0.0,0.0,0.0,0.0,0.0,0.0,0.0,0.0,0.0,0.0,-0.07026687,-0.006178139,-0.99772644,-0.9315796,0.0791626,-0.2588501,-0.07910156,0.06542969,0.029296875,3.4009335,-1.4547435,-0.12790662,-20.656029,-0.95043945,0.11022949,0.117248535,-0.051757812,0.046875,0.051757812,0.8690815,1.9885136,-57.01734,-19.544115,0.6140747,0.28881836,0.7468872,0.013671875,-0.021484375,0.0029296875,32.911552,4.4587836,-128.98674,-18.649675,0.0,0.0,0.0,0.0,0.0,0.0,0.0,-15.07415,-129.03636,-22.959343,0.0,0.0,0.0,0.0,0.0,0.0,0.0,0.07026687,0.006178139,0.99772644,-0.9319458,0.044067383,-0.3067627,0.15234375,-0.115234375,-0.107421875,2.8351064,1.4547435,0.12790662,20.656029,-0.9602661,-4.272461E-4,-0.029846191,0.0107421875,-0.0078125,0.017578125,2.979861,0.6131391,-56.830143,18.358572,0.58929443,-0.22161865,0.7904053,-0.022460938,0.017578125,0.020507812,13.329275,2.2160814,-128.80309,16.41754,0.0,0.0,0.0,0.0,0.0,0.0,0.0,-17.010075,-128.64432,10.896996,-0.98236084,-0.107421875,0.024108887,0.11621094,0.021484375,-9.765625E-4,0.0,-0.119050734,45.00879,-0.27031976,
1.3867187293362806,71,-0.859375,-0.066467285,0.4989624,0.01953125,0.005859375,-0.03515625,0.0,0.0,0.0,0.0,0.0,0.0,0.0,0.0,0.0,0.0,0.0,-0.07191396,-0.0057424847,-0.9975717,-0.91955566,0.0748291,-0.23144531,-0.00390625,0.029296875,0.047851562,3.388707,-1.4888422,-0.11888724,-20.652826,-0.95965576,0.10272217,0.11126709,-0.0703125,0.046875,0.051757812,0.83204234,1.9471297,-57.014,-19.635294,0.58477783,0.2786255,0.74090576,0.013671875,0.016601562,0.00390625,32.93031,4.3934464,-128.98505,-18.751543,0.0,0.0,0.0,0.0,0.0,0.0,0.0,-15.139721,-129.03159,-23.05654,0.0,0.0,0.0,0.0,0.0,0.0,0.0,0.07191396,0.0057424847,0.9975717,-0.9268799,0.046203613,-0.3423462,0.1875,-0.12988281,-0.083984375,2.7831929,1.4888422,0.11888724,20.652826,-0.94470215,-0.020446777,-0.020019531,-0.026367188,0.01171875,0.036132812,3.036929,0.6140119,-56.84003,18.395113,0.5975342,-0.24279785,0.80944824,-0.022460938,0.018554688,0.001953125,13.451157,2.2577157,-128.81381,16.46347,0.0,0.0,0.0,0.0,0.0,0.0,0.0,-16.967852,-128.65323,10.9430485,-0.98638916,-0.097595215,0.019348145,0.09667969,0.020507812,0.037109375,0.0,-0.11059618,45.007126,-0.2511091,
1.4062499790452423,72,-0.8434448,-0.074279785,0.52630615,0.095703125,-0.049804688,-0.018554688,0.0,0.0,0.0,0.0,0.0,0.0,0.0,0.0,0.0,0.0,0.0,-0.07301763,-0.0054115164,-0.9974731,-0.93170166,0.064086914,-0.20465088,0.015625,0.009765625,0.0107421875,3.3277845,-1.5116925,-0.11203516,-20.650785,-0.9638672,0.12854004,0.11633301,-0.0126953125,0.02734375,0.051757812,0.81565374,1.8590889,-57.00904,-19.62748,0.5772095,0.30493164,0.77075195,0.013671875,0.016601562,-0.0146484375,32.924587,4.283188,-128.98076,-18.788,0.0,0.0,0.0,0.0,0.0,0.0,0.0,-15.256172,-129.01859,-23.065392,0.0,0.0,0.0,0.0,0.0,0.0,0.0,0.07301763,0.0054115164,0.9974731,-0.9259033,0.05114746,-0.347229,0.14160156,-0.06640625,-0.11621094,2.8126466,1.5116925,0.11203516,20.650785,-0.982605,-0.016479492,-0.037597656,-0.025390625,0.01171875,0.017578125,2.963326,0.7382767,-56.839714,18.306082,0.5715332,-0.2642212,0.8206787,-0.00390625,0.0,0.021484375,13.544666,2.3888404,-128.80957,16.379234,0.0,0.0,0.0,0.0,0.0,0.0,0.0,-16.840847,-128.64177,10.8716545,-0.98651123,-0.109558105,0.042053223,0.05859375,-0.055664062,0.055664062,0.0,-0.1123355,45.006294,-0.23594603,
1.425781228754204,73,-0.84332275,-0.09008789,0.5241699,0.057617188,0.005859375,-0.017578125,0.0,0.0,0.0,0.0,0.0,0.0,0.0,0.0,0.0,0.0,0.0,-0.0736393,-0.0047594043,-0.997455,-0.93688965,0.053649902,-0.25506592,-0.041015625,0.06542969,0.047851562,3.346324,-1.5245613,-0.09853442,-20.650412,-0.9684448,0.11071777,0.12615967,-0.0703125,0.046875,0.032226562,0.8579779,1.8630768,-56.99677,-19.645313,0.61938477,0.30126953,0.76776123,0.013671875,-0.0029296875,-0.0146484375,33.088097,4.2427826,-128.9667,-18.826853,0.0,0.0,0.0,0.0,0.0,0.0,0.0,-15.2946205,-129.0075,-23.118706,0.0,0.0,0.0,0.0,0.0,0.0,0.0,0.0736393,0.0047594043,0.997455,-0.9481201,0.064941406,-0.32403564,0.13671875,-0.08105469,-0.13085938,2.7919705,1.5245613,0.09853442,20.650412,-0.9534912,-0.014465332,-0.013977051,-0.025390625,0.01171875,0.017578125,2.9281719,0.7593926,-56.856476,18.28788,0.55444336,-0.23034668,0.81365967,-0.00390625,0.018554688,0.021484375,13.552596,2.3656125,-128.82709,16.378357,0.0,0.0,0.0,0.0,0.0,0.0,0.0,-16.86606,-128.65723,10.876411,-0.96539307,-0.14672852,0.038208008,9.765625E-4,-0.018554688,0.07519531,0.0,-0.114152774,45.007523,-0.20632796,
1.4453124784631657,74,-0.86572266,-0.044677734,0.5350342,0.01953125,0.005859375,-0.016601562,0.0,0.0,0.0,0.0,0.0,0.0,0.0,0.0,0.0,0.0,0.0,-0.07287568,-0.0037892319,-0.99752295,-0.9265747,0.08123779,-0.28857422,0.015625,0.046875,0.029296875,3.381188,-1.5087535,-0.07844884,-20.651817,-0.9651489,0.11956787,0.12030029,-0.07128906,0.028320312,0.051757812,0.93230224,1.9387505,-56.972588,-19.681965,0.60095215,0.28216553,0.7546997,-0.005859375,-0.001953125,0.00390625,33.20354,4.2789326,-128.94571,-18.899609,0.0,0.0,0.0,0.0,0.0,0.0,0.0,-15.252928,-128.99783,-23.214191,0.0,0.0,0.0,0.0,0.0,0.0,0.0,0.07287568,0.0037892319,0.99752295,-0.93707275,0.06585693,-0.32110596,0.1328125,-0.115234375,-0.12695312,2.7280695,1.5087535,0.07844884,20.651817,-0.95458984,-0.018249512,-0.017944336,-0.026367188,-0.0078125,0.017578125,2.8944852,0.7010554,-56.87689,18.326012,0.58917236,-0.23944092,0.78552246,-0.00390625,0.018554688,0.021484375,13.35053,2.2344475,-128.84943,16.367203,0.0,0.0,0.0,0.0,0.0,0.0,0.0,-16.991678,-128.6806,10.850489,-0.970459,-0.15039062,0.0211792,-0.055664062,0.057617188,0.038085938,0.0,-0.13748649,45.007988,-0.16092491,
1.4648437281721274,75,-0.8433838,-0.0546875,0.48687744,0.076171875,-0.0126953125,9.765625E-4,0.0,0.0,0.0,0.0,0.0,0.0,0.0,0.0,0.0,0.0,0.0,-0.073266685,-0.0032629357,-0.99748904,-0.9476929,0.07043457,-0.22216797,-0.041015625,0.083984375,0.047851562,3.4093854,-1.5168483,-0.06755289,-20.651115,-0.97650146,0.10900879,0.12512207,-0.0126953125,0.02734375,0.033203125,1.0017105,1.9738998,-56.95759,-19.717752,0.59375,0.27557373,0.7349243,0.013671875,0.016601562,0.00390625,33.297745,4.2698026,-128.9303,-18.980925,0.0,0.0,0.0,0.0,0.0,0.0,0.0,-15.262016,-128.9819,-23.293812,0.0,0.0,0.0,0.0,0.0,0.0,0.0,0.073266685,0.0032629357,0.99748904,-0.94207764,0.058044434,-0.33013916,0.13574219,-0.13671875,-0.08886719,2.7210288,1.5168483,0.06755289,20.651115,-0.9651489,-0.046325684,-0.023864746,-0.025390625,0.0126953125,-0.01953125,2.8532073,0.6835282,-56.887077,18.317158,0.5796509,-0.22723389,0.819458,0.013671875,0.0,0.0029296875,13.21364,2.1380293,-128.85776,16.32251,0.0,0.0,0.0,0.0,0.0,0.0,0.0,-17.092424,-128.68266,10.822428,-1.0050659,-0.15441895,0.063964844,-0.037109375,0.057617188,-0.01953125,0.0,-0.1480966,45.007717,-0.13634911,
1.484374977881089,76,-0.8553467,-0.064575195,0.4869995,0.020507812,-0.03125,0.001953125,0.0,0.0,0.0,0.0,0.0,0.0,0.0,0.0,0.0,0.0,0.0,-0.07423702,-0.0025144645,-0.9973676,-0.9370117,0.12164307,-0.2682495,0.015625,0.06542969,0.047851562,3.394422,-1.536935,-0.052057214,-20.648603,-0.9661865,0.11767578,0.11828613,-0.0126953125,0.045898438,0.033203125,0.992881,1.9407367,-56.947582,-19.796167,0.5777588,0.27764893,0.75665283,0.013671875,-0.001953125,0.00390625,33.476913,4.200947,-128.92435,-19.093735,0.0,0.0,0.0,0.0,0.0,0.0,0.0,-15.325279,-128.97446,-23.43282,0.0,0.0,0.0,0.0,0.0,0.0,0.0,0.07423702,0.0025144645,0.9973676,-0.94207764,0.058044434,-0.33013916,0.13574219,-0.13671875,-0.08886719,2.6789074,1.536935,0.052057214,20.648603,-0.9425049,-0.016784668,-0.0021362305,0.01171875,0.01171875,-0.001953125,2.8200142,0.70361483,-56.902576,18.314646,0.58166504,-0.25024414,0.8275757,-0.00390625,0.018554688,0.001953125,13.147562,2.114385,-128.8777,16.323961,0.0,0.0,0.0,0.0,0.0,0.0,0.0,-17.119152,-128.69629,10.830894,-0.9611206,-0.12219238,0.018798828,0.078125,-0.055664062,0.016601562,0.0,-0.14276747,45.005497,-0.10283682,
1.5039062275900508,77,-0.85546875,-0.0625,0.506897,0.01953125,0.005859375,0.001953125,0.0,0.0,0.0,0.0,0.0,0.0,0.0,0.0,0.0,0.0,0.0,-0.07440102,-0.00211753,-0.9974029,-0.92614746,0.10845947,-0.23400879,-0.07910156,0.047851562,0.047851562,3.3223085,-1.540332,-0.04383943,-20.649332,-0.98114014,0.12097168,0.12719727,-0.01171875,0.064453125,0.013671875,0.96732545,1.8960551,-56.942863,-19.896673,0.58325195,0.30688477,0.7609253,-0.005859375,-0.0029296875,-0.0146484375,33.51884,4.112807,-128.9219,-19.25574,0.0,0.0,0.0,0.0,0.0,0.0,0.0,-15.418234,-128.95853,-23.568577,0.0,0.0,0.0,0.0,0.0,0.0,0.0,0.07440102,0.00211753,0.9974029,-0.93395996,0.041137695,-0.3078003,0.15234375,-0.095703125,-0.12695312,2.6113453,1.540332,0.04383943,20.649332,-0.96295166,0.009155273,-0.00592041,-0.0068359375,0.01171875,0.017578125,2.624579,0.85173035,-56.911865,18.313776,0.60595703,-0.2331543,0.833313,-0.00390625,0.0,0.021484375,13.033585,2.2068267,-128.88461,16.261427,0.0,0.0,0.0,0.0,0.0,0.0,0.0,-17.02136,-128.70277,10.753552,-0.9772949,-0.111206055,0.011108398,0.13574219,0.020507812,0.07519531,0.0,-0.15545437,45.007587,-0.08395697,
1.5234374772990125,78,-0.838501,-0.047790527,0.49871826,0.020507812,-0.0126953125,0.001953125,0.0,0.0,0.0,0.0,0.0,0.0,0.0,0.0,0.0,0.0,0.0,-0.07553533,-0.0021759702,-0.9973115,-0.93066406,0.06616211,-0.22442627,-0.09765625,0.029296875,0.0107421875,3.2495005,-1.5638156,-0.045049336,-20.647438,-0.954895,0.12835693,0.10845947,-0.051757812,0.028320312,0.033203125,0.91085696,1.792043,-56.946423,-19.948689,0.6084595,0.3143921,0.7442627,0.033203125,-0.021484375,-0.015625,33.59482,3.959238,-128.9272,-19.30967,0.0,0.0,0.0,0.0,0.0,0.0,0.0,-15.569254,-128.96777,-23.640772,0.0,0.0,0.0,0.0,0.0,0.0,0.0,0.07553533,0.0021759702,0.9973115,-0.9360962,0.071777344,-0.32202148,0.15039062,-0.11328125,-0.125,2.563535,1.5638156,0.045049336,20.647438,-0.9660034,0.014343262,-0.03173828,-0.025390625,0.0126953125,-9.765625E-4,2.6018834,0.82209265,-56.913147,18.380377,0.5950928,-0.2442627,0.77752686,-0.022460938,0.018554688,0.001953125,12.8901005,2.1176562,-128.88248,16.24001,0.0,0.0,0.0,0.0,0.0,0.0,0.0,-17.110886,-128.69687,10.732866,-0.9682617,-0.12023926,0.022827148,0.078125,9.765625E-4,0.11328125,0.0,-0.14125785,45.00736,-0.08749996,
1.5429687270079742,79,-0.8503418,-0.06451416,0.494812,0.01953125,0.024414062,0.001953125,0.0,0.0,0.0,0.0,0.0,0.0,0.0,0.0,0.0,0.0,0.0,-0.07712597,-0.0014729984,-0.99719113,-0.93536377,0.093811035,-0.22906494,-0.09765625,0.0107421875,-0.026367188,3.2065005,-1.596746,-0.030495634,-20.644947,-0.96624756,0.08288574,0.12799072,-0.0703125,0.046875,0.032226562,0.8460353,1.7107501,-56.936768,-19.98912,0.6223755,0.30023193,0.7657471,0.033203125,-0.001953125,0.00390625,33.549503,3.8823087,-128.91525,-19.341978,0.0,0.0,0.0,0.0,0.0,0.0,0.0,-15.645145,-128.95207,-23.670393,0.0,0.0,0.0,0.0,0.0,0.0,0.0,0.07712597,0.0014729984,0.99719113,-0.94018555,0.08770752,-0.33947754,0.08300781,-0.0859375,-0.15332031,2.5820224,1.596746,0.030495634,20.644947,-0.9520874,0.0030517578,-0.007019043,-0.0068359375,0.01171875,-9.765625E-4,2.5733657,0.84406567,-56.926605,18.320179,0.58709717,-0.24737549,0.7805786,-0.0048828125,0.0,0.001953125,12.788424,2.0859137,-128.89856,16.131285,0.0,0.0,0.0,0.0,0.0,0.0,0.0,-17.144173,-128.7098,10.627655,-0.97650146,-0.14355469,0.02532959,0.0390625,-0.018554688,0.09375,0.0,-0.13681367,45.007423,-0.055901002,
1.5624999767169359,80,-0.8444824,-0.07720947,0.538208,0.01953125,0.005859375,0.001953125,0.0,0.0,0.0,0.0,0.0,0.0,0.0,0.0,0.0,0.0,0.0,-0.07798758,-0.0010778818,-0.9971549,-0.9572754,0.02923584,-0.22631836,-0.2109375,0.048828125,-0.025390625,3.1481512,-1.6145848,-0.022315497,-20.644197,-0.9569702,0.09075928,0.109191895,-0.03125,0.045898438,0.013671875,0.8235324,1.6394972,-56.932274,-19.966206,0.616333,0.30145264,0.75494385,0.013671875,-0.021484375,0.0029296875,33.636143,3.7740302,-128.91412,-19.298018,0.0,0.0,0.0,0.0,0.0,0.0,0.0,-15.755737,-128.95273,-23.619987,0.0,0.0,0.0,0.0,0.0,0.0,0.0,0.07798758,0.0010778818,0.9971549,-0.9400635,0.059936523,-0.31726074,0.06347656,-0.12402344,-0.13378906,2.5864155,1.6145848,0.022315497,20.644197,-0.95721436,0.0014038086,-0.026855469,-0.026367188,-0.0078125,0.017578125,2.5565774,0.8492794,-56.933475,18.301565,0.58044434,-0.27105713,0.8167114,0.033203125,0.01953125,0.0029296875,12.842112,2.0486517,-128.91013,16.116932,0.0,0.0,0.0,0.0,0.0,0.0,0.0,-17.19249,-128.70547,10.650529,-0.977417,-0.13745117,0.0065307617,0.020507812,0.01953125,0.056640625,0.0,-0.14842913,45.008766,-0.037043896,
1.5820312264258976,81,-0.86724854,-0.088134766,0.5108032,0.020507812,-0.0126953125,0.001953125,0.0,0.0,0.0,0.0,0.0,0.0,0.0,0.0,0.0,0.0,0.0,-0.07869884,-1.9251893E-4,-0.99702966,-0.94000244,0.04663086,-0.2244873,-0.07910156,-0.0068359375,0.029296875,3.161369,-1.6293094,-0.003985739,-20.641607,-0.96655273,0.10571289,0.12512207,-0.032226562,0.045898438,0.033203125,0.8030819,1.5697355,-56.91448,-19.915846,0.59973145,0.27148438,0.744751,0.0126953125,0.0546875,0.00390625,33.55765,3.6819,-128.89572,-19.246002,0.0,0.0,0.0,0.0,0.0,0.0,0.0,-15.8535385,-128.92555,-23.539242,0.0,0.0,0.0,0.0,0.0,0.0,0.0,0.07869884,1.9251893E-4,0.99702966,-0.93292236,0.037231445,-0.32269287,0.095703125,-0.1171875,-0.14746094,2.4625945,1.6293094,0.003985739,20.641607,-0.97473145,-0.02960205,-0.013793945,-0.06347656,0.01171875,0.017578125,2.5615492,0.8498206,-56.952866,18.371458,0.54748535,-0.23254395,0.817688,-0.0048828125,0.0,0.001953125,12.879027,2.049584,-128.93054,16.213179,0.0,0.0,0.0,0.0,0.0,0.0,0.0,-17.19335,-128.72151,10.756286,-0.98358154,-0.13781738,0.04437256,0.0390625,9.765625E-4,0.037109375,0.0,-0.11090237,45.005753,6.3611194E-5,
1.6015624761348592,82,-0.8441162,-0.08331299,0.4786377,-0.017578125,-0.0126953125,0.0029296875,0.0,0.0,0.0,0.0,0.0,0.0,0.0,0.0,0.0,0.0,0.0,-0.08013213,4.2523758E-4,-0.9969685,-0.92529297,0.09979248,-0.26672363,-0.060546875,0.029296875,0.029296875,3.1767511,-1.6589838,0.008803737,-20.640339,-0.95977783,0.09765625,0.12017822,0.0068359375,0.044921875,0.051757812,0.83883476,1.5626119,-56.903008,-19.946314,0.59539795,0.31756592,0.7393799,-0.005859375,-0.0029296875,-0.0146484375,33.601868,3.6481347,-128.88336,-19.297348,0.0,0.0,0.0,0.0,0.0,0.0,0.0,-15.887808,-128.91275,-23.590004,0.0,0.0,0.0,0.0,0.0,0.0,0.0,0.08013213,-4.2523758E-4,0.9969685,-0.94091797,0.019592285,-0.33087158,0.061523438,-0.140625,-0.13085938,2.352268,1.6589838,-0.008803737,20.640339,-0.989624,-0.02130127,-0.02758789,-0.0068359375,0.05078125,0.016601562,2.5150502,0.9327314,-56.97111,18.433657,0.59942627,-0.23858643,0.7994385,0.032226562,9.765625E-4,0.0029296875,12.937396,2.1458182,-128.94156,16.319647,0.0,0.0,0.0,0.0,0.0,0.0,0.0,-17.094877,-128.73581,10.851116,-0.9743042,-0.11645508,0.036865234,0.020507812,-0.017578125,-9.765625E-4,0.0,-0.1170442,45.008106,0.028604858,
1.621093725843821,83,-0.838562,-0.052612305,0.5244751,0.01953125,-0.0126953125,-0.016601562,0.0,0.0,0.0,0.0,0.0,0.0,0.0,0.0,0.0,0.0,0.0,-0.07916483,1.8526358E-4,-0.99697036,-0.9324951,0.079833984,-0.19659424,-0.041015625,0.0107421875,0.029296875,3.0661182,-1.6389564,0.0038355284,-20.640377,-0.9706421,0.06842041,0.11199951,0.0068359375,0.026367188,0.033203125,0.7615615,1.5147749,-56.912884,-20.007322,0.6071167,0.296875,0.7341919,-0.005859375,-0.021484375,-0.015625,33.628937,3.5954762,-128.89615,-19.363525,0.0,0.0,0.0,0.0,0.0,0.0,0.0,-15.939775,-128.92241,-23.659359,0.0,0.0,0.0,0.0,0.0,0.0,0.0,0.07916483,-1.8526358E-4,0.99697036,-0.9398804,0.02154541,-0.33776855,0.14355469,-0.048828125,-0.11816406,2.3404229,1.6389564,-0.0038355284,20.640377,-0.94854736,-0.0134887695,-0.018981934,0.01171875,0.01171875,0.017578125,2.3612373,1.0444244,-56.962982,18.41931,0.5894165,-0.23779297,0.80249023,0.013671875,0.0,0.0029296875,12.804875,2.2211304,-128.93857,16.31834,0.0,0.0,0.0,0.0,0.0,0.0,0.0,-17.017391,-128.73013,10.844229,-0.97735596,-0.10491943,0.051086426,9.765625E-4,9.765625E-4,0.017578125,0.0,-0.139361,45.00466,0.019429065,
1.6406249755527826,84,-0.85650635,-0.05267334,0.50305176,0.01953125,0.005859375,0.001953125,0.0,0.0,0.0,0.0,0.0,0.0,0.0,0.0,0.0,0.0,0.0,-0.07853681,7.357667E-4,-0.9970603,-0.9684448,0.09649658,-0.23736572,-0.1171875,0.048828125,0.06640625,2.937783,-1.6259553,0.015232654,-20.642237,-0.95043945,0.11010742,0.12420654,-0.03125,0.064453125,0.033203125,0.7049889,1.435065,-56.90562,-20.042,0.6033325,0.3166504,0.711792,-0.025390625,-0.07910156,0.0029296875,33.70835,3.4644852,-128.89308,-19.412096,0.0,0.0,0.0,0.0,0.0,0.0,0.0,-16.070154,-128.9363,-23.71865,0.0,0.0,0.0,0.0,0.0,0.0,0.0,0.07853681,-7.357667E-4,0.9970603,-0.93688965,0.021484375,-0.32495117,0.15527344,-0.1171875,-0.08984375,2.2458532,1.6259553,-0.015232654,20.642237,-0.93377686,-0.022583008,-0.026062012,-0.0068359375,0.03125,0.016601562,2.2709856,1.0521756,-56.981155,18.493057,0.56170654,-0.21459961,0.82647705,-0.0048828125,0.0,0.001953125,12.63109,2.1632369,-128.95981,16.343819,0.0,0.0,0.0,0.0,0.0,0.0,0.0,-17.07467,-128.74875,10.8706455,-0.9762573,-0.09112549,0.04046631,9.765625E-4,-0.017578125,0.017578125,0.0,-0.16967237,45.006355,0.046576634,
1.6601562252617443,85,-0.8343506,-0.08807373,0.53790283,0.076171875,0.005859375,9.765625E-4,0.0,0.0,0.0,0.0,0.0,0.0,0.0,0.0,0.0,0.0,0.0,-0.07884374,0.0014113873,-0.9970277,-0.93414307,0.032836914,-0.2444458,-0.041015625,-0.043945312,0.0107421875,2.9116797,-1.6323115,0.029220093,-20.641565,-0.9804077,0.077697754,0.11102295,-0.03125,0.064453125,0.033203125,0.6889865,1.3888696,-56.893578,-19.97933,0.6213379,0.30645752,0.7225342,0.013671875,0.016601562,-0.0146484375,33.688923,3.4138951,-128.8769,-19.337936,0.0,0.0,0.0,0.0,0.0,0.0,0.0,-16.116863,-128.92688,-23.653593,0.0,0.0,0.0,0.0,0.0,0.0,0.0,0.07884374,-0.0014113873,0.9970277,-0.93395996,0.040161133,-0.31469727,0.16796875,-0.11035156,-0.123046875,2.1570375,1.6323115,-0.029220093,20.641565,-0.9711304,-0.043151855,-0.03173828,0.049804688,0.03125,-0.001953125,2.1769974,1.1105726,-56.997967,18.532055,0.571167,-0.21868896,0.7845459,-0.0048828125,0.0,0.001953125,12.432081,2.1781292,-128.97678,16.365545,0.0,0.0,0.0,0.0,0.0,0.0,0.0,-17.057981,-128.7701,10.88286,-0.9701538,-0.10632324,0.0032348633,-0.017578125,0.0390625,0.018554688,0.0,-0.17950676,45.00593,0.07790535,
1.679687474970706,86,-0.8383179,-0.072387695,0.5083618,0.01953125,0.024414062,0.001953125,0.0,0.0,0.0,0.0,0.0,0.0,0.0,0.0,0.0,0.0,0.0,-0.07879764,0.001296089,-0.9970377,-0.92077637,0.064331055,-0.28094482,0.015625,0.064453125,0.029296875,2.9535995,-1.6313546,0.026833057,-20.641771,-0.9729614,0.12609863,0.099487305,-0.03125,0.064453125,0.033203125,0.7618184,1.4607809,-56.88998,-19.971804,0.6001587,0.29382324,0.7647095,-0.0068359375,0.0546875,0.00390625,33.71528,3.4840844,-128.87576,-19.342497,0.0,0.0,0.0,0.0,0.0,0.0,0.0,-16.048244,-128.92133,-23.65765,0.0,0.0,0.0,0.0,0.0,0.0,0.0,0.07879764,-0.001296089,0.9970377,-0.96118164,0.05908203,-0.3250122,0.15039062,-0.13183594,-0.10546875,2.10394,1.6313546,-0.026833057,20.641771,-0.95928955,-0.0064697266,-0.013916016,0.01171875,0.03125,0.016601562,2.1805906,1.0643492,-56.998703,18.623247,0.56573486,-0.2276001,0.83154297,0.033203125,0.0390625,-0.016601562,12.476801,2.0945127,-128.97636,16.421827,0.0,0.0,0.0,0.0,0.0,0.0,0.0,-17.150505,-128.76517,10.969131,-0.94085693,-0.12359619,0.035705566,-0.017578125,0.0390625,0.018554688,0.0,-0.20247,45.00612,0.07450681,
1.6992187246796677,87,-0.8364258,-0.07434082,0.52423096,0.056640625,0.024414062,-0.036132812,0.0,0.0,0.0,0.0,0.0,0.0,0.0,0.0,0.0,0.0,0.0,-0.07865733,0.001714001,-0.99708074,-0.9498291,0.0657959,-0.26464844,0.015625,0.06542969,0.047851562,3.0272443,-1.6284506,0.035485134,-20.642662,-0.96655273,0.105895996,0.11126709,-0.0126953125,0.02734375,0.051757812,0.8247196,1.5407357,-56.87816,-19.984776,0.59002686,0.29821777,0.7283325,-0.005859375,-0.0029296875,-0.033203125,33.777435,3.5773325,-128.86436,-19.375546,0.0,0.0,0.0,0.0,0.0,0.0,0.0,-15.945655,-128.91782,-23.731615,0.0,0.0,0.0,0.0,0.0,0.0,0.0,0.07865733,-0.001714001,0.99708074,-0.9440918,0.064941406,-0.32006836,0.11816406,-0.13867188,-0.09082031,2.0898466,1.6284506,-0.035485134,20.642662,-0.963501,-0.013183594,-0.019836426,0.01171875,0.01171875,-0.001953125,2.1752887,1.0070083,-57.007587,18.641598,0.5814209,-0.27093506,0.81170654,-0.0234375,-9.765625E-4,0.001953125,12.451055,1.9662561,-128.97916,16.383795,0.0,0.0,0.0,0.0,0.0,0.0,0.0,-17.28445,-128.76285,10.956339,-0.9602661,-0.13531494,0.054382324,-0.037109375,0.095703125,0.038085938,0.0,-0.20601349,45.007526,0.09362072,
1.7187499743886294,88,-0.8394165,-0.076293945,0.52819824,0.020507812,-0.03125,0.001953125,0.0,0.0,0.0,0.0,0.0,0.0,0.0,0.0,0.0,0.0,0.0,-0.0771144,0.0024564438,-0.9971742,-0.93377686,0.06036377,-0.23730469,0.22265625,0.026367188,0.046875,2.9914663,-1.5965054,0.050855994,-20.644598,-0.96221924,0.11590576,0.09643555,0.026367188,0.06347656,0.033203125,0.8627541,1.575722,-56.86124,-19.912336,0.5963135,0.31066895,0.74328613,-0.025390625,-0.021484375,-0.015625,33.674393,3.6004422,-128.84618,-19.292768,0.0,0.0,0.0,0.0,0.0,0.0,0.0,-15.928565,-128.88884,-23.61883,0.0,0.0,0.0,0.0,0.0,0.0,0.0,0.0771144,-0.0024564438,0.9971742,-0.93292236,0.04034424,-0.34735107,0.13476562,-0.09765625,-0.12890625,2.0715988,1.5965054,-0.050855994,20.644598,-0.9680786,-0.044311523,-0.019836426,-0.025390625,0.01171875,0.017578125,2.1697934,0.9986137,-57.019512,18.641602,0.5732422,-0.22576904,0.79156494,-0.0234375,-9.765625E-4,0.001953125,12.511623,1.9791348,-128.992,16.418694,0.0,0.0,0.0,0.0,0.0,0.0,0.0,-17.270803,-128.77916,10.98756,-0.9694214,-0.15148926,0.032104492,9.765625E-4,0.076171875,0.056640625,0.0,-0.26581144,45.005974,0.13142389,
1.7382812240975911,89,-0.8746948,-0.050598145,0.5272217,0.020507812,-0.03125,0.001953125,0.0,0.0,0.0,0.0,0.0,0.0,0.0,0.0,0.0,0.0,0.0,-0.07831329,0.0026319174,-0.9970871,-0.934021,0.11956787,-0.25750732,0.12890625,0.045898438,0.028320312,3.0599825,-1.6213279,0.05448885,-20.642794,-0.9637451,0.09814453,0.097351074,-0.0703125,0.028320312,-0.0048828125,0.9213235,1.6053686,-56.858242,-19.926409,0.5942993,0.31280518,0.72454834,0.013671875,0.016601562,-0.033203125,33.744118,3.628949,-128.84605,-19.346563,0.0,0.0,0.0,0.0,0.0,0.0,0.0,-15.896977,-128.88844,-23.687622,0.0,0.0,0.0,0.0,0.0,0.0,0.0,0.07831329,-0.0026319174,0.9970871,-0.9277954,0.018554688,-0.33398438,0.10058594,-0.10253906,-0.13183594,2.0049624,1.6213279,-0.05448885,20.642794,-0.95666504,-0.018127441,-0.027893066,-0.026367188,-0.0078125,0.017578125,2.1114616,1.1257715,-57.028126,18.646246,0.5732422,-0.24487305,0.798645,0.013671875,0.0,0.0029296875,12.656583,2.1604972,-129.00557,16.453487,0.0,0.0,0.0,0.0,0.0,0.0,0.0,-17.093187,-128.79308,11.030647,-0.97039795,-0.13311768,0.04248047,0.078125,0.020507812,0.056640625,0.0,-0.2506814,45.006348,0.13848807,
1.7578124738065528,90,-0.8435669,-0.048706055,0.5126953,0.020507812,-0.03125,0.001953125,0.0,0.0,0.0,0.0,0.0,0.0,0.0,0.0,0.0,0.0,0.0,-0.080533445,0.0018932775,-0.99688244,-0.9342041,0.105773926,-0.25463867,-0.022460938,-0.025390625,0.029296875,3.0470965,-1.6672931,0.039196715,-20.638557,-0.9732666,0.11273193,0.07159424,-0.0126953125,0.045898438,0.033203125,0.8842595,1.5481358,-56.876774,-20.002129,0.58032227,0.3128662,0.75213623,-0.005859375,0.016601562,0.00390625,33.719936,3.5771296,-128.86209,-19.444756,0.0,0.0,0.0,0.0,0.0,0.0,0.0,-15.949041,-128.89474,-23.783445,0.0,0.0,0.0,0.0,0.0,0.0,0.0,0.080533445,-0.0018932775,0.99688244,-0.928833,0.030334473,-0.3287964,0.087890625,-0.08984375,-0.119140625,2.0156713,1.6672931,-0.039196715,20.638557,-0.97442627,-0.005859375,-0.040649414,-0.0068359375,0.01171875,0.017578125,2.0594707,1.2338881,-57.0109,18.635002,0.5786743,-0.215271,0.819397,-0.022460938,0.017578125,0.020507812,12.743139,2.2805252,-128.98802,16.442125,0.0,0.0,0.0,0.0,0.0,0.0,0.0,-16.974041,-128.77394,11.027379,-0.9743042,-0.105773926,0.042114258,0.040039062,0.0390625,0.056640625,0.0,-0.2243615,45.005257,0.10359903,
1.7773437235155145,91,-0.8261719,-0.0970459,0.5098877,-0.055664062,0.061523438,0.041015625,0.0,0.0,0.0,0.0,0.0,0.0,0.0,0.0,0.0,0.0,0.0,-0.080102,0.0017584055,-0.9968904,-0.92852783,0.079956055,-0.23815918,-0.060546875,0.06542969,0.047851562,3.0008748,-1.6583595,0.036404442,-20.638721,-0.9707031,0.1003418,0.09631348,-0.0703125,0.046875,0.032226562,0.87334895,1.5462496,-56.87556,-20.028751,0.5619507,0.29351807,0.76275635,0.033203125,-0.021484375,0.0029296875,33.74342,3.573164,-128.8612,-19.495005,0.0,0.0,0.0,0.0,0.0,0.0,0.0,-15.951279,-128.89522,-23.83849,0.0,0.0,0.0,0.0,0.0,0.0,0.0,0.080102,-0.0017584055,0.9968904,-0.9349365,0.04522705,-0.33538818,0.087890625,-0.0703125,-0.13867188,2.086191,1.6583595,-0.036404442,20.638721,-0.95825195,-0.0025634766,-0.015930176,-0.0068359375,0.01171875,0.017578125,1.9780356,1.3155944,-57.00276,18.544268,0.5632324,-0.25897217,0.80078125,-0.022460938,-9.765625E-4,0.021484375,12.783301,2.3591785,-128.9766,16.382296,0.0,0.0,0.0,0.0,0.0,0.0,0.0,-16.897736,-128.75174,10.971106,-0.96606445,-0.09698486,0.032348633,-0.037109375,0.095703125,0.038085938,0.0,-0.24694934,45.003937,0.09922484,
1.7968749732244762,92,-0.8407593,-0.034851074,0.53063965,0.01953125,0.024414062,0.020507812,0.0,0.0,0.0,0.0,0.0,0.0,0.0,0.0,0.0,0.0,0.0,-0.081207484,0.0013870737,-0.9968952,-0.94866943,0.072509766,-0.24578857,-0.09765625,0.047851562,0.029296875,3.0456185,-1.681246,0.028716728,-20.638819,-0.96795654,0.124816895,0.10839844,-0.08984375,0.047851562,0.032226562,0.9561348,1.5717106,-56.87957,-20.049128,0.5928345,0.27642822,0.7576294,0.033203125,-0.021484375,0.0029296875,33.739788,3.5527108,-128.86688,-19.551746,0.0,0.0,0.0,0.0,0.0,0.0,0.0,-15.975244,-128.90125,-23.882877,0.0,0.0,0.0,0.0,0.0,0.0,0.0,0.081207484,-0.0013870737,0.9968952,-0.9370117,0.051940918,-0.30456543,0.10253906,-0.10449219,-0.115234375,2.1226475,1.681246,-0.028716728,20.638819,-0.9639282,-0.03765869,-0.010925293,-0.025390625,0.01171875,0.017578125,1.9450103,1.3447349,-56.99845,18.522888,0.57366943,-0.22332764,0.82244873,0.0146484375,0.038085938,0.001953125,12.706628,2.3528404,-128.9766,16.347822,0.0,0.0,0.0,0.0,0.0,0.0,0.0,-16.905245,-128.74855,10.943245,-0.9753418,-0.11529541,0.025939941,-0.037109375,0.09472656,0.057617188,0.0,-0.2410264,45.008198,0.08225823,
1.816406222933438,93,-0.8354492,-0.060546875,0.5064697,9.765625E-4,-0.0126953125,0.020507812,0.0,0.0,0.0,0.0,0.0,0.0,0.0,0.0,0.0,0.0,0.0,-0.08127737,9.2577864E-4,-0.9968599,-0.93670654,0.06744385,-0.25299072,-0.041015625,0.0107421875,0.029296875,3.049922,-1.682694,0.01916649,-20.638092,-0.961853,0.09576416,0.1171875,-0.032226562,0.02734375,0.013671875,0.9293592,1.5670223,-56.892067,-20.053125,0.60980225,0.27423096,0.74572754,0.013671875,-0.001953125,0.00390625,33.719555,3.5713074,-128.87872,-19.539534,0.0,0.0,0.0,0.0,0.0,0.0,0.0,-15.952945,-128.91739,-23.889925,0.0,0.0,0.0,0.0,0.0,0.0,0.0,0.08127737,-9.2577864E-4,0.9968599,-0.9370117,0.05102539,-0.31152344,0.1328125,-0.095703125,-0.14648438,2.1023583,1.682694,-0.01916649,20.638092,-0.9713745,-0.012145996,-0.0068969727,0.0107421875,-0.0078125,0.017578125,1.905159,1.3337299,-56.985157,18.57038,0.5751953,-0.24676514,0.79364014,-0.022460938,-9.765625E-4,0.021484375,12.640676,2.2808805,-128.96019,16.417871,0.0,0.0,0.0,0.0,0.0,0.0,0.0,-16.978214,-128.73125,11.019132,-0.9755249,-0.14849854,0.034179688,-0.07519531,0.076171875,0.057617188,0.0,-0.22894391,45.00695,0.060464293,
1.8359374726423996,94,-0.85913086,-0.103881836,0.51049805,-0.017578125,0.005859375,0.0029296875,0.0,0.0,0.0,0.0,0.0,0.0,0.0,0.0,0.0,0.0,0.0,-0.0811272,0.0013457069,-0.99688405,-0.93670654,0.06744385,-0.25299072,-0.041015625,0.0107421875,0.029296875,3.0300882,-1.6795845,0.027860308,-20.63859,-0.97088623,0.0949707,0.12310791,-0.033203125,0.0087890625,0.051757812,0.9454328,1.5701318,-56.883373,-20.053623,0.602417,0.31652832,0.7324829,0.013671875,-0.0029296875,-0.033203125,33.745102,3.552042,-128.86943,-19.538372,0.0,0.0,0.0,0.0,0.0,0.0,0.0,-15.969114,-128.91597,-23.89646,0.0,0.0,0.0,0.0,0.0,0.0,0.0,0.0811272,-0.0013457069,0.99688405,-0.9379883,0.0491333,-0.32739258,0.09863281,-0.119140625,-0.12988281,2.0530937,1.6795845,-0.027860308,20.63859,-0.95635986,-0.013549805,9.1552734E-4,-0.08105469,0.03125,0.017578125,1.8682313,1.3134098,-57.00017,18.610962,0.5936279,-0.23901367,0.8184204,-0.0048828125,-0.038085938,0.021484375,12.497554,2.2031217,-128.97893,16.410683,0.0,0.0,0.0,0.0,0.0,0.0,0.0,-17.060436,-128.74605,11.024719,-0.9703369,-0.13000488,0.02758789,-0.017578125,0.057617188,0.076171875,0.0,-0.2497356,45.007362,0.08107969,
1.8554687223513613,95,-0.86242676,-0.066467285,0.50897217,-0.017578125,0.005859375,0.0029296875,0.0,0.0,0.0,0.0,0.0,0.0,0.0,0.0,0.0,0.0,0.0,-0.08114174,0.0011519871,-0.9968886,-0.94641113,0.094177246,-0.25256348,-0.060546875,0.047851562,0.047851562,3.0114243,-1.679887,0.023849705,-20.638683,-0.9623413,0.11425781,0.13708496,-0.051757812,0.028320312,0.051757812,0.96611094,1.5575352,-56.88994,-20.116428,0.6101074,0.2878418,0.7597046,0.013671875,0.016601562,-0.0146484375,33.955284,3.4818347,-128.88123,-19.62483,0.0,0.0,0.0,0.0,0.0,0.0,0.0,-16.034483,-128.93297,-24.004864,0.0,0.0,0.0,0.0,0.0,0.0,0.0,0.08114174,-0.0011519871,0.9968886,-0.92993164,0.05316162,-0.35211182,0.03125,-0.111328125,-0.13964844,2.0776365,1.679887,-0.023849705,20.638683,-0.95440674,-0.014587402,0.0048828125,-0.10058594,0.01171875,0.018554688,1.8075358,1.328354,-56.993446,18.588552,0.5777588,-0.21936035,0.82440186,-0.0048828125,0.0,0.001953125,12.470665,2.1624854,-128.97006,16.327303,0.0,0.0,0.0,0.0,0.0,0.0,0.0,-17.103998,-128.73637,10.950597,-0.9753418,-0.11627197,0.023925781,-0.017578125,0.038085938,0.076171875,0.0,-0.24184841,45.007668,0.071695335,
1.874999972060323,96,-0.85565186,-0.046691895,0.5189209,0.020507812,-0.0126953125,0.001953125,0.0,0.0,0.0,0.0,0.0,0.0,0.0,0.0,0.0,0.0,0.0,-0.08151898,0.0013657389,-0.9968205,-0.9273071,0.09564209,-0.23114014,-0.09765625,-0.0068359375,0.0107421875,2.9366498,-1.6876963,0.028275035,-20.637276,-0.9592285,0.08190918,0.113098145,-0.051757812,0.028320312,0.051757812,0.8908735,1.4717759,-56.89006,-20.131485,0.60894775,0.28112793,0.74383545,0.013671875,-0.0029296875,-0.0146484375,33.83354,3.382475,-128.8787,-19.607704,0.0,0.0,0.0,0.0,0.0,0.0,0.0,-16.138132,-128.9206,-23.972439,0.0,0.0,0.0,0.0,0.0,0.0,0.0,0.08151898,-0.0013657389,0.9968205,-0.93896484,0.039245605,-0.32458496,0.036132812,-0.09667969,-0.12402344,2.0659227,1.6876963,-0.028275035,20.637276,-0.9567261,-0.03314209,0.0048828125,-0.026367188,-0.0078125,0.037109375,1.7508891,1.3500159,-56.999508,18.581669,0.60180664,-0.24414062,0.8303833,0.0146484375,0.038085938,0.021484375,12.337243,2.13122,-128.97119,16.290506,0.0,0.0,0.0,0.0,0.0,0.0,0.0,-17.130064,-128.74194,10.900375,-0.98150635,-0.12237549,0.048706055,-0.017578125,0.0390625,0.037109375,0.0,-0.23955742,45.006,0.08125327,
1.8945312217692847,97,-0.8261719,-0.07739258,0.48425293,0.020507812,-0.0126953125,0.020507812,0.0,0.0,0.0,0.0,0.0,0.0,0.0,0.0,0.0,0.0,0.0,-0.081710875,0.0017581701,-0.9968279,-0.92962646,0.07220459,-0.25006104,-0.041015625,0.047851562,0.047851562,2.9606826,-1.6916695,0.03639957,-20.637428,-0.9873657,0.113220215,0.13110352,-0.051757812,0.046875,0.051757812,0.88293076,1.4440236,-56.88382,-20.117762,0.59228516,0.30877686,0.74816895,0.013671875,-0.001953125,0.00390625,33.909027,3.3298936,-128.87286,-19.55194,0.0,0.0,0.0,0.0,0.0,0.0,0.0,-16.189724,-128.91417,-23.922827,0.0,0.0,0.0,0.0,0.0,0.0,0.0,0.081710875,-0.0017581701,0.9968279,-0.93182373,0.020446777,-0.32104492,0.043945312,-0.12402344,-0.15234375,2.009837,1.6916695,-0.03639957,20.637428,-0.9555664,-0.022338867,9.1552734E-4,-0.044921875,0.01171875,0.017578125,1.6984657,1.3964897,-57.005463,18.595509,0.5793457,-0.21783447,0.7954712,-0.00390625,0.018554688,0.001953125,12.198926,2.1644714,-128.97878,16.322319,0.0,0.0,0.0,0.0,0.0,0.0,0.0,-17.092592,-128.74785,10.915743,-0.9346924,-0.11383057,0.025939941,-0.037109375,0.01953125,0.018554688,0.0,-0.20705059,45.0072,0.09635425,
1.9140624714782464,98,-0.8215332,-0.050720215,0.5181885,0.020507812,-0.03125,0.020507812,0.0,0.0,0.0,0.0,0.0,0.0,0.0,0.0,0.0,0.0,0.0,-0.08226606,0.0014769449,-0.9968224,-0.93792725,0.051696777,-0.25012207,-0.07910156,0.029296875,0.0107421875,2.948757,-1.7031624,0.030577337,-20.637314,-0.95666504,0.103271484,0.13409424,-0.05078125,0.046875,0.032226562,0.8744685,1.4233892,-56.889267,-20.105711,0.61016846,0.29571533,0.74798584,-0.005859375,-0.021484375,-0.015625,33.837685,3.3177328,-128.88164,-19.565182,0.0,0.0,0.0,0.0,0.0,0.0,0.0,-16.203781,-128.92053,-23.924826,0.0,0.0,0.0,0.0,0.0,0.0,0.0,0.08226606,-0.0014769449,0.9968224,-0.9298706,0.037231445,-0.32073975,0.14746094,-0.11035156,-0.14257812,1.955347,1.7031624,-0.030577337,20.637314,-0.9388428,-0.026367188,-0.024047852,-0.025390625,0.03125,0.017578125,1.6443725,1.4233657,-57.001053,18.663689,0.5734253,-0.2680664,0.8137207,0.0146484375,0.038085938,0.001953125,12.09706,2.1483846,-128.97421,16.347483,0.0,0.0,0.0,0.0,0.0,0.0,0.0,-17.113743,-128.73816,10.956591,-0.9762573,-0.107299805,0.006164551,-0.017578125,0.11425781,0.01953125,0.0,-0.20878616,45.008995,0.083918475,
1.933593721187208,99,-0.8814697,-0.06640625,0.51135254,0.020507812,-0.0126953125,0.001953125,0.0,0.0,0.0,0.0,0.0,0.0,0.0,0.0,0.0,0.0,0.0,-0.08239317,0.0014455252,-0.9967237,-0.9246826,0.066223145,-0.25616455,-0.022460938,0.046875,0.029296875,2.971704,-1.7057939,0.029926855,-20.63527,-0.97094727,0.12664795,0.12426758,-0.032226562,0.045898438,0.033203125,0.864793,1.4209118,-56.88621,-20.085485,0.59710693,0.2949829,0.74798584,-0.005859375,-0.0029296875,-0.0146484375,33.7739,3.3360262,-128.87251,-19.55367,0.0,0.0,0.0,0.0,0.0,0.0,0.0,-16.1861,-128.91096,-23.911207,0.0,0.0,0.0,0.0,0.0,0.0,0.0,0.08239317,-0.0014455252,0.9967237,-0.9420166,0.039367676,-0.34039307,0.0859375,-0.10644531,-0.11621094,1.9321895,1.7057939,-0.029926855,20.63527,-0.9607544,-0.026977539,-0.014953613,-0.026367188,-0.0078125,0.017578125,1.5981418,1.4418819,-57.007156,18.678612,0.5797119,-0.24029541,0.8255005,-0.00390625,0.037109375,0.020507812,11.957986,2.1288338,-128.98631,16.358776,0.0,0.0,0.0,0.0,0.0,0.0,0.0,-17.133612,-128.7457,10.969435,-0.9906006,-0.12591553,0.027709961,-0.11328125,0.056640625,0.018554688,0.0,-0.19321057,45.00511,0.08124144,
1.9531249708961698,100,-0.8404541,-0.06451416,0.51446533,9.765625E-4,0.005859375,0.001953125,0.0,0.0,0.0,0.0,0.0,0.0,0.0,0.0,0.0,0.0,0.0,-0.083500534,0.0017722228,-0.9967033,-0.96087646,0.058898926,-0.23388672,-0.022460938,0.06542969,0.0107421875,2.970386,-1.7287194,0.0366905,-20.63485,-0.9522095,0.11895752,0.13317871,-0.032226562,0.045898438,0.0703125,0.8706562,1.378038,-56.881912,-20.052437,0.5897827,0.27746582,0.75665283,0.013671875,0.036132812,0.022460938,33.82134,3.2808886,-128.87129,-19.541317,0.0,0.0,0.0,0.0,0.0,0.0,0.0,-16.241169,-128.90201,-23.897764,0.0,0.0,0.0,0.0,0.0,0.0,0.0,0.083500534,-0.0017722228,0.9967033,-0.9338989,0.034423828,-0.34552002,0.049804688,-0.07324219,-0.15917969,1.9187728,1.7287194,-0.0366905,20.63485,-0.95544434,-0.011413574,-0.019897461,-0.025390625,0.01171875,0.017578125,1.5312294,1.5152869,-57.012844,18.658815,0.5895996,-0.2300415,0.8154297,0.013671875,0.0,0.021484375,12.014538,2.1812296,-128.98747,16.34371,0.0,0.0,0.0,0.0,0.0,0.0,0.0,-17.084522,-128.73935,10.967409,-0.96813965,-0.11401367,-0.00793457,-0.09472656,0.038085938,-9.765625E-4,0.0,-0.18797144,45.00835,0.095776275,
1.9726562206051315,101,-0.84350586,-0.054626465,0.50671387,0.01953125,-0.0126953125,-0.016601562,0.0,0.0,0.0,0.0,0.0,0.0,0.0,0.0,0.0,0.0,0.0,-0.083657295,0.0013540224,-0.996614,-0.9315796,0.076049805,-0.22631836,-0.022460938,0.029296875,0.029296875,3.0025704,-1.731966,0.028032461,-20.633001,-0.975708,0.10205078,0.12512207,-0.03125,0.064453125,0.051757812,0.88911456,1.373297,-56.89095,-20.045033,0.59191895,0.28625488,0.74884033,0.013671875,-0.0029296875,-0.0146484375,33.812595,3.244501,-128.88118,-19.511501,0.0,0.0,0.0,0.0,0.0,0.0,0.0,-16.276064,-128.91176,-23.87468,0.0,0.0,0.0,0.0,0.0,0.0,0.0,0.083657295,-0.0013540224,0.996614,-0.9370117,0.0579834,-0.31829834,0.06347656,-0.12402344,-0.13378906,1.9703029,1.731966,-0.028032461,20.633001,-0.9697876,-0.027648926,-0.020812988,-0.0625,0.05078125,0.017578125,1.5109019,1.4997433,-57.00317,18.62665,0.5513916,-0.25439453,0.81677246,0.0146484375,0.018554688,0.040039062,11.944627,2.1164966,-128.97797,16.286177,0.0,0.0,0.0,0.0,0.0,0.0,0.0,-17.151882,-128.73064,10.920616,-0.96624756,-0.1307373,0.0056762695,-0.037109375,0.07714844,0.0,0.0,-0.15664054,45.00506,0.074293554,
1.9921874703140932,102,-0.84765625,-0.062438965,0.5444336,0.01953125,0.024414062,0.001953125,0.0,0.0,0.0,0.0,0.0,0.0,0.0,0.0,0.0,0.0,0.0,-0.08317891,0.0012908307,-0.99673206,-0.95648193,0.08850098,-0.25543213,-0.07910156,0.029296875,0.029296875,2.9336486,-1.7220625,0.026724195,-20.635445,-0.9645996,0.10461426,0.12713623,-0.013671875,0.02734375,0.07128906,0.89131266,1.3536507,-56.892357,-20.062777,0.6033325,0.31158447,0.73339844,-0.005859375,0.036132812,0.022460938,33.88757,3.179121,-128.88531,-19.529217,0.0,0.0,0.0,0.0,0.0,0.0,0.0,-16.341223,-128.91792,-23.892153,0.0,0.0,0.0,0.0,0.0,0.0,0.0,0.08317891,-0.0012908307,0.99673206,-0.9319458,0.0501709,-0.33831787,0.026367188,-0.107421875,-0.17382812,1.9926251,1.7220625,-0.026724195,20.635445,-0.9735718,-0.013793945,-0.03466797,-0.026367188,0.01171875,0.036132812,1.5342935,1.4717348,-56.998116,18.620195,0.59991455,-0.22924805,0.833313,-0.00390625,0.0,0.021484375,11.891295,2.0940769,-128.9739,16.279934,0.0,0.0,0.0,0.0,0.0,0.0,0.0,-17.175686,-128.72574,10.917122,-0.9489136,-0.11834717,0.010864258,-0.017578125,0.057617188,0.038085938,0.0,-0.18609491,45.00845,0.07381868,
2.011718720023055,103,-0.8496704,-0.04272461,0.52679443,0.020507812,-0.03125,0.001953125,0.0,0.0,0.0,0.0,0.0,0.0,0.0,0.0,0.0,0.0,0.0,-0.08372101,0.0013961877,-0.996671,-0.93566895,0.072265625,-0.24407959,-0.13574219,0.01171875,0.047851562,2.8961077,-1.7332858,0.028905414,-20.63418,-0.9526367,0.103393555,0.11621094,-0.051757812,0.028320312,0.033203125,0.84116423,1.300054,-56.89821,-20.103998,0.5671387,0.30828857,0.7432251,0.013671875,0.016601562,0.022460938,33.789574,3.122095,-128.88956,-19.575104,0.0,0.0,0.0,0.0,0.0,0.0,0.0,-16.4039,-128.91449,-23.91423,0.0,0.0,0.0,0.0,0.0,0.0,0.0,0.08372101,-0.0013961877,0.996671,-0.94299316,0.036254883,-0.317688,0.09863281,-0.119140625,-0.12988281,1.9789258,1.7332858,-0.028905414,20.63418,-0.9786377,-0.02154541,-0.027709961,-0.026367188,-0.0078125,0.017578125,1.5081795,1.4910725,-57.003464,18.622688,0.5852051,-0.24658203,0.7905884,-0.022460938,0.017578125,0.020507812,11.800462,2.0913444,-128.97983,16.265512,0.0,0.0,0.0,0.0,0.0,0.0,0.0,-17.177395,-128.72878,10.900705,-0.9824219,-0.113220215,0.020019531,9.765625E-4,0.095703125,0.057617188,0.0,-0.17576367,45.007786,0.07781348,
