TOTAL_TIME,0m51s
TOTAL_FRAMES,2594
SELECTED_FRAMES,2594
NO_OF_JOINTS,12
FREQUENCY,51.2
DESCRIPTION,Capture 13
TIME_STAMP,Oct 11, 2010

Time,Frame,Pelvis_accelX_Pelvis,Pelvis_accelY_Pelvis,Pelvis_accelZ_Pelvis,Pelvis_gyroX_Pelvis,Pelvis_gyroY_Pelvis,Pelvis_gyroZ_Pelvis,Pelvis_Joint angle_Pelvis,Pelvis_Relative pos X_Pelvis,Pelvis_Relative pos Y_Pelvis,Pelvis_Relative pos Z_Pelvis,RightPelvis_accelX_RightPelvis,RightPelvis_accelY_RightPelvis,RightPelvis_accelZ_RightPelvis,RightPelvis_gyroX_RightPelvis,RightPelvis_gyroY_RightPelvis,RightPelvis_gyroZ_RightPelvis,RightPelvis_Joint angle_RightPelvis,RightPelvis_Relative pos X_RightPelvis,RightPelvis_Relative pos Y_RightPelvis,RightPelvis_Relative pos Z_RightPelvis,RightUpLeg_accelX_RightUpLeg,RightUpLeg_accelY_RightUpLeg,RightUpLeg_accelZ_RightUpLeg,RightUpLeg_gyroX_RightUpLeg,RightUpLeg_gyroY_RightUpLeg,RightUpLeg_gyroZ_RightUpLeg,RightUpLeg_Joint angle_RightUpLeg,RightUpLeg_Relative pos X_RightUpLeg,RightUpLeg_Relative pos Y_RightUpLeg,RightUpLeg_Relative pos Z_RightUpLeg,RightLeg_accelX_RightLeg,RightLeg_accelY_RightLeg,RightLeg_accelZ_RightLeg,RightLeg_gyroX_RightLeg,RightLeg_gyroY_RightLeg,RightLeg_gyroZ_RightLeg,RightLeg_Joint angle_RightLeg,RightLeg_Relative pos X_RightLeg,RightLeg_Relative pos Y_RightLeg,RightLeg_Relative pos Z_RightLeg,RightFoot_accelX_RightFoot,RightFoot_accelY_RightFoot,RightFoot_accelZ_RightFoot,RightFoot_gyroX_RightFoot,RightFoot_gyroY_RightFoot,RightFoot_gyroZ_RightFoot,RightFoot_Joint angle_RightFoot,RightFoot_Relative pos X_RightFoot,RightFoot_Relative pos Y_RightFoot,RightFoot_Relative pos Z_RightFoot,RightFootEnd_accelX_RightFootEnd,RightFootEnd_accelY_RightFootEnd,RightFootEnd_accelZ_RightFootEnd,RightFootEnd_gyroX_RightFootEnd,RightFootEnd_gyroY_RightFootEnd,RightFootEnd_gyroZ_RightFootEnd,RightFootEnd_Joint angle_RightFootEnd,RightFootEnd_Relative pos X_RightFootEnd,RightFootEnd_Relative pos Y_RightFootEnd,RightFootEnd_Relative pos Z_RightFootEnd,LeftPelvis_accelX_LeftPelvis,LeftPelvis_accelY_LeftPelvis,LeftPelvis_accelZ_LeftPelvis,LeftPelvis_gyroX_LeftPelvis,LeftPelvis_gyroY_LeftPelvis,LeftPelvis_gyroZ_LeftPelvis,LeftPelvis_Joint angle_LeftPelvis,LeftPelvis_Relative pos X_LeftPelvis,LeftPelvis_Relative pos Y_LeftPelvis,LeftPelvis_Relative pos Z_LeftPelvis,LeftUpLeg_accelX_LeftUpLeg,LeftUpLeg_accelY_LeftUpLeg,LeftUpLeg_accelZ_LeftUpLeg,LeftUpLeg_gyroX_LeftUpLeg,LeftUpLeg_gyroY_LeftUpLeg,LeftUpLeg_gyroZ_LeftUpLeg,LeftUpLeg_Joint angle_LeftUpLeg,LeftUpLeg_Relative pos X_LeftUpLeg,LeftUpLeg_Relative pos Y_LeftUpLeg,LeftUpLeg_Relative pos Z_LeftUpLeg,LeftLeg_accelX_LeftLeg,LeftLeg_accelY_LeftLeg,LeftLeg_accelZ_LeftLeg,LeftLeg_gyroX_LeftLeg,LeftLeg_gyroY_LeftLeg,LeftLeg_gyroZ_LeftLeg,LeftLeg_Joint angle_LeftLeg,LeftLeg_Relative pos X_LeftLeg,LeftLeg_Relative pos Y_LeftLeg,LeftLeg_Relative pos Z_LeftLeg,LeftFoot_accelX_LeftFoot,LeftFoot_accelY_LeftFoot,LeftFoot_accelZ_LeftFoot,LeftFoot_gyroX_LeftFoot,LeftFoot_gyroY_LeftFoot,LeftFoot_gyroZ_LeftFoot,LeftFoot_Joint angle_LeftFoot,LeftFoot_Relative pos X_LeftFoot,LeftFoot_Relative pos Y_LeftFoot,LeftFoot_Relative pos Z_LeftFoot,LeftFootEnd_accelX_LeftFootEnd,LeftFootEnd_accelY_LeftFootEnd,LeftFootEnd_accelZ_LeftFootEnd,LeftFootEnd_gyroX_LeftFootEnd,LeftFootEnd_gyroY_LeftFootEnd,LeftFootEnd_gyroZ_LeftFootEnd,LeftFootEnd_Joint angle_LeftFootEnd,LeftFootEnd_Relative pos X_LeftFootEnd,LeftFootEnd_Relative pos Y_LeftFootEnd,LeftFootEnd_Relative pos Z_LeftFootEnd,Spine_accelX_Spine,Spine_accelY_Spine,Spine_accelZ_Spine,Spine_gyroX_Spine,Spine_gyroY_Spine,Spine_gyroZ_Spine,Spine_Joint angle_Spine,Spine_Relative pos X_Spine,Spine_Relative pos Y_Spine,Spine_Relative pos Z_Spine,
0.0,0,0.0,0.0,0.0,0.0,0.0,0.0,0.0,0.0,0.0,0.0,0.0,0.0,0.0,0.0,0.0,0.0,0.0,0.0,0.0,0.0,0.0,0.0,0.0,0.0,0.0,0.0,NaN,0.0,0.0,0.0,0.0,0.0,0.0,0.0,0.0,0.0,NaN,0.0,0.0,0.0,0.0,0.0,0.0,0.0,0.0,0.0,NaN,0.0,0.0,0.0,0.0,0.0,0.0,0.0,0.0,0.0,0.0,0.0,0.0,0.0,0.0,0.0,0.0,0.0,0.0,0.0,0.0,0.0,0.0,0.0,0.0,0.0,0.0,0.0,0.0,0.0,NaN,0.0,0.0,0.0,0.0,0.0,0.0,0.0,0.0,0.0,NaN,0.0,0.0,0.0,0.0,0.0,0.0,0.0,0.0,0.0,NaN,0.0,0.0,0.0,0.0,0.0,0.0,0.0,0.0,0.0,0.0,0.0,0.0,0.0,0.0,0.0,0.0,0.0,0.0,0.0,0.0,0.0,0.0,0.0,
0.0195312497089617,1,0.0,0.0,0.0,0.0,0.0,0.0,0.0,0.0,0.0,0.0,0.0,0.0,0.0,0.0,0.0,0.0,0.0,0.0,0.0,0.0,0.0,0.0,0.0,0.0,0.0,0.0,NaN,0.0,0.0,0.0,0.0,0.0,0.0,0.0,0.0,0.0,NaN,0.0,0.0,0.0,0.0,0.0,0.0,0.0,0.0,0.0,NaN,0.0,0.0,0.0,0.0,0.0,0.0,0.0,0.0,0.0,0.0,0.0,0.0,0.0,0.0,0.0,0.0,0.0,0.0,0.0,0.0,0.0,0.0,0.0,0.0,0.0,0.0,0.0,0.0,0.0,NaN,0.0,0.0,0.0,0.0,0.0,0.0,0.0,0.0,0.0,NaN,0.0,0.0,0.0,0.0,0.0,0.0,0.0,0.0,0.0,NaN,0.0,0.0,0.0,0.0,0.0,0.0,0.0,0.0,0.0,0.0,0.0,0.0,0.0,0.0,0.0,0.0,0.0,0.0,0.0,0.0,0.0,0.0,0.0,
0.0390624994179234,2,0.0,0.0,0.0,0.0,0.0,0.0,0.0,0.0,0.0,0.0,0.0,0.0,0.0,0.0,0.0,0.0,0.0,0.0,0.0,0.0,0.0,0.0,0.0,0.0,0.0,0.0,NaN,0.0,0.0,0.0,0.0,0.0,0.0,0.0,0.0,0.0,NaN,0.0,0.0,0.0,0.0,0.0,0.0,0.0,0.0,0.0,NaN,0.0,0.0,0.0,0.0,0.0,0.0,0.0,0.0,0.0,0.0,0.0,0.0,0.0,0.0,0.0,0.0,0.0,0.0,0.0,0.0,0.0,0.0,0.0,0.0,0.0,0.0,0.0,0.0,0.0,NaN,0.0,0.0,0.0,0.0,0.0,0.0,0.0,0.0,0.0,NaN,0.0,0.0,0.0,0.0,0.0,0.0,0.0,0.0,0.0,NaN,0.0,0.0,0.0,0.0,0.0,0.0,0.0,0.0,0.0,0.0,0.0,0.0,0.0,0.0,0.0,0.0,0.0,0.0,0.0,0.0,0.0,0.0,0.0,
0.0585937491268851,3,-0.84350586,-0.060546875,0.5205078,0.01953125,-0.01171875,-0.14746094,0.0,0.0,0.0,0.0,0.0,0.0,0.0,0.0,0.0,0.0,0.0,-0.58362937,0.0074901516,0.81219,-0.93640137,0.08886719,-0.21917725,-0.041015625,0.029296875,0.029296875,1.7179416,-12.082937,0.15506937,16.814852,-0.9623413,0.11175537,0.1083374,-0.0068359375,0.28808594,-0.005859375,0.6324196,-12.134689,-56.829212,15.213337,0.0,0.0,0.0,0.0,0.0,0.0,NaN,-12.227338,-128.8212,13.495293,0.0,0.0,0.0,0.0,0.0,0.0,0.0,-12.227338,-128.8212,13.495293,0.0,0.0,0.0,0.0,0.0,0.0,0.0,0.58362937,-0.0074901516,-0.81219,0.0,0.0,0.0,0.0,0.0,0.0,NaN,12.082937,-0.15506937,-16.814852,0.0,0.0,0.0,0.0,0.0,0.0,NaN,12.082937,-0.15506937,-16.814852,0.5757446,-0.22442627,0.8274536,0.52441406,1.265625,0.71777344,NaN,12.082937,-0.15506937,-16.814852,0.0,0.0,0.0,0.0,0.0,0.0,0.0,21.746626,0.0069197267,0.698719,-0.98236084,-0.1194458,-0.028930664,0.061523438,1.2470703,0.68359375,0.0,0.69492954,45.00202,0.084351346,
0.0781249988358468,4,-0.8585205,-0.061462402,0.5238037,-0.018554688,0.025390625,-0.109375,0.0,0.0,0.0,0.0,0.0,0.0,0.0,0.0,0.0,0.0,0.0,-0.58228797,0.009701349,0.81314534,-0.94317627,0.10974121,-0.22583008,0.034179688,0.028320312,0.029296875,1.83611,-12.055167,0.20084798,16.83463,-0.9470825,0.121032715,0.115356445,-0.030273438,0.083984375,-0.0625,0.82685226,-12.102339,-56.784798,15.249703,0.0,0.0,0.0,0.0,0.0,0.0,NaN,-12.3123865,-128.77182,13.324972,0.0,0.0,0.0,0.0,0.0,0.0,0.0,-12.3123865,-128.77182,13.324972,0.0,0.0,0.0,0.0,0.0,0.0,0.0,0.58228797,-0.009701349,-0.81314534,0.0,0.0,0.0,0.0,0.0,0.0,NaN,12.055167,-0.20084798,-16.83463,-0.9501953,-9.1552734E-4,-0.009033203,-0.0078125,0.0107421875,0.0546875,NaN,12.055167,-0.20084798,-16.83463,0.57836914,-0.20684814,0.7944336,0.27246094,0.7734375,0.41601562,15.250809,10.100442,-72.128654,-13.850868,0.0,0.0,0.0,0.0,0.0,0.0,0.0,19.669134,-71.78566,3.7115135,-1.001648,-0.11279297,0.0010986328,-0.015625,1.0761719,0.5859375,0.0,0.7330511,45.0021,-0.011971027,
0.09765624854480849,5,-0.82598877,-0.10205078,0.48999023,-0.018554688,0.0068359375,-0.14648438,0.0,0.0,0.0,0.0,0.0,0.0,0.0,0.0,0.0,0.0,0.0,-0.58120155,0.012201674,0.8138603,-0.95043945,0.09326172,-0.24658203,-0.09765625,0.06542969,0.0107421875,2.0036929,-12.032673,0.25261247,16.849432,-0.96173096,0.09967041,0.121154785,-0.0126953125,0.02734375,0.033203125,0.7388696,-12.1367655,-56.729862,15.216561,0.59539795,0.3852539,0.7156372,0.013671875,-0.0029296875,-0.0146484375,16.285425,-12.333893,-128.7219,13.302809,0.0,0.0,0.0,0.0,0.0,0.0,0.0,-12.89387,-128.54964,33.296783,0.0,0.0,0.0,0.0,0.0,0.0,0.0,0.58120155,-0.012201674,-0.8138603,-0.93292236,0.038391113,-0.34936523,0.13964844,-0.10253906,-0.09375,6.718022,12.032673,-0.25261247,-16.849432,-0.9555664,-0.016296387,-0.019897461,-0.0078125,-0.0078125,0.036132812,4.9621477,5.8237176,-56.762558,-12.572926,0.5758667,-0.24261475,0.84051514,-0.00390625,0.07519531,-0.017578125,15.236626,3.88245,-128.6887,-9.606926,0.0,0.0,0.0,0.0,0.0,0.0,0.0,13.378636,-128.2825,7.9934845,-0.9833374,-0.110961914,-0.0078125,0.0029296875,0.6425781,0.3701172,0.0,0.7634244,45.000374,-0.12947738,
0.11718749825377019,6,-0.8355713,-0.07421875,0.5499878,-0.055664062,-0.01171875,-0.14648438,0.0,0.0,0.0,0.0,0.0,0.0,0.0,0.0,0.0,0.0,0.0,-0.58091027,0.015110271,0.8140928,-0.93536377,0.09387207,-0.2300415,0.034179688,0.0107421875,0.047851562,2.2097456,-12.026643,0.31282946,16.854244,-0.9376221,0.13555908,0.11450195,-0.013671875,0.0087890625,0.051757812,0.7146374,-12.115566,-56.66905,15.181512,0.6069336,0.35388184,0.70147705,-0.005859375,-0.021484375,0.0029296875,16.225962,-12.321412,-128.65892,13.291804,0.0,0.0,0.0,0.0,0.0,0.0,0.0,-12.838871,-128.49211,33.28682,0.0,0.0,0.0,0.0,0.0,0.0,0.0,0.58091027,-0.015110271,-0.8140928,-0.9349365,0.042236328,-0.3334961,0.10058594,-0.12109375,-0.11230469,6.3428845,12.026643,-0.31282946,-16.854244,-0.9885254,-0.0154418945,-0.02758789,-0.0078125,0.0107421875,0.0546875,4.765181,5.9714055,-56.84708,-12.723445,0.57995605,-0.19952393,0.8322754,-0.0048828125,0.0,0.001953125,14.98667,4.0483346,-128.77565,-9.756553,0.0,0.0,0.0,0.0,0.0,0.0,0.0,13.534124,-128.36774,7.8493357,-0.96502686,-0.105285645,-0.008728027,-0.017578125,0.095703125,0.01953125,0.0,0.8443132,45.0012,-0.23278695,
0.1367187479627319,7,-0.8483887,-0.08215332,0.5322876,0.020507812,-0.03125,-0.03515625,0.0,0.0,0.0,0.0,0.0,0.0,0.0,0.0,0.0,0.0,0.0,-0.58344704,0.015758203,0.8121715,-0.9541626,0.11199951,-0.24536133,0.052734375,-0.0087890625,0.009765625,2.2111623,-12.079164,0.3262437,16.814468,-0.94940186,0.11035156,0.10736084,-0.03125,0.064453125,0.051757812,0.7214502,-12.196543,-56.65569,15.166727,0.5812988,0.38061523,0.7185669,0.013671875,-0.0029296875,-0.0146484375,16.302004,-12.41795,-128.64522,13.273581,0.0,0.0,0.0,0.0,0.0,0.0,0.0,-12.919866,-128.47993,33.26952,0.0,0.0,0.0,0.0,0.0,0.0,0.0,0.58344704,-0.015758203,-0.8121715,-0.92889404,0.03930664,-0.3375244,0.10058594,-0.12109375,-0.11230469,6.0946455,12.079164,-0.3262437,-16.814468,-0.9581299,0.0063476562,-0.030822754,-0.026367188,0.01171875,0.036132812,4.543424,6.1787753,-56.891117,-12.83569,0.5864258,-0.20379639,0.7963257,0.0146484375,0.018554688,0.021484375,14.96858,4.229964,-128.81993,-9.890974,0.0,0.0,0.0,0.0,0.0,0.0,0.0,13.707676,-128.42924,7.71945,-0.98321533,-0.09411621,-0.032348633,-0.017578125,0.01953125,0.037109375,0.0,0.851982,44.99751,-0.2610206,
0.1562499976716936,8,-0.84051514,-0.05657959,0.51452637,0.020507812,-0.0126953125,0.020507812,0.0,0.0,0.0,0.0,0.0,0.0,0.0,0.0,0.0,0.0,0.0,-0.5857316,0.015567815,0.81058353,-0.93395996,0.121398926,-0.2288208,-0.041015625,0.046875,0.029296875,2.141009,-12.126461,0.322302,16.781591,-0.9642334,0.11328125,0.07757568,-0.051757812,0.028320312,0.033203125,0.690405,-12.338182,-56.66043,15.155584,0.604126,0.3656006,0.70355225,0.013671875,-0.021484375,0.0029296875,16.323402,-12.592333,-128.65033,13.260888,0.0,0.0,0.0,0.0,0.0,0.0,0.0,-13.046851,-128.49474,33.258114,0.0,0.0,0.0,0.0,0.0,0.0,0.0,0.5857316,-0.015567815,-0.81058353,-0.9248047,0.032409668,-0.3456421,0.12011719,-0.08300781,-0.1328125,5.913938,12.126461,-0.322302,-16.781591,-0.9477539,-0.025268555,-0.020019531,-0.025390625,0.0126953125,-9.765625E-4,4.3836946,6.3435526,-56.910885,-12.96916,0.5786133,-0.2432251,0.82055664,0.0146484375,0.038085938,0.021484375,14.756002,4.42043,-128.84193,-10.04866,0.0,0.0,0.0,0.0,0.0,0.0,0.0,13.893598,-128.4577,7.565033,-0.98742676,-0.11462402,-0.022827148,-0.07519531,0.076171875,0.018554688,0.0,0.8394307,44.99975,-0.25767434,
0.1757812473806553,9,-0.8175659,-0.064453125,0.5437622,9.765625E-4,0.005859375,0.021484375,0.0,0.0,0.0,0.0,0.0,0.0,0.0,0.0,0.0,0.0,0.0,-0.58641344,0.014974483,0.8100642,-0.9213867,0.085754395,-0.24023438,-0.022460938,0.046875,-0.0078125,2.1123884,-12.140574,0.31001824,16.77084,-0.95861816,0.10180664,0.105285645,-0.051757812,0.046875,0.051757812,0.58450294,-12.424668,-56.67424,15.105377,0.62542725,0.37591553,0.71551514,0.013671875,-0.001953125,0.00390625,16.152777,-12.656742,-128.66647,13.238243,0.0,0.0,0.0,0.0,0.0,0.0,0.0,-13.060136,-128.51936,33.23697,0.0,0.0,0.0,0.0,0.0,0.0,0.0,0.58641344,-0.014974483,-0.8100642,-0.9258423,0.03540039,-0.34851074,0.11816406,-0.10058594,-0.13085938,5.764222,12.140574,-0.31001824,-16.77084,-0.9498291,0.02178955,-0.027893066,-0.025390625,0.01171875,0.017578125,4.2335978,6.464454,-56.917736,-13.109975,0.5593262,-0.23815918,0.8066406,0.0146484375,0.038085938,0.001953125,14.596568,4.576332,-128.84628,-10.175934,0.0,0.0,0.0,0.0,0.0,0.0,0.0,14.059995,-128.46924,7.431566,-0.9793701,-0.1227417,-0.003112793,-0.055664062,0.057617188,0.0,0.0,0.83355975,44.99865,-0.22840291,
0.19531249708961698,10,-0.8354492,-0.070373535,0.5252075,-0.017578125,0.005859375,0.0029296875,0.0,0.0,0.0,0.0,0.0,0.0,0.0,0.0,0.0,0.0,0.0,-0.5863809,0.015411644,0.8101327,-0.9483032,0.10015869,-0.2564087,-0.07910156,0.06640625,0.047851562,2.112481,-12.139903,0.31906882,16.772259,-0.95617676,0.08465576,0.12005615,-0.05078125,0.046875,0.032226562,0.5414024,-12.485856,-56.660885,15.100777,0.56884766,0.35839844,0.70843506,0.013671875,-0.001953125,0.00390625,15.948527,-12.704295,-128.65196,13.225378,0.0,0.0,0.0,0.0,0.0,0.0,0.0,-13.0059805,-128.50415,33.22535,0.0,0.0,0.0,0.0,0.0,0.0,0.0,0.5863809,-0.015411644,-0.8101327,-0.9399414,0.033447266,-0.34942627,0.05859375,-0.119140625,-0.16894531,5.560351,12.139903,-0.31906882,-16.772259,-0.9527588,-0.025146484,-0.017944336,-0.06347656,0.01171875,0.017578125,4.1048913,6.5720396,-56.941544,-13.251141,0.57196045,-0.21575928,0.84143066,0.0146484375,0.038085938,0.021484375,14.5708,4.689193,-128.87306,-10.397225,0.0,0.0,0.0,0.0,0.0,0.0,0.0,14.141095,-128.50826,7.226529,-0.9713135,-0.13720703,-0.01940918,-0.017578125,9.765625E-4,-9.765625E-4,0.0,0.8633684,45.00001,-0.23114908,
0.21484374679857868,11,-0.85913086,-0.096069336,0.49865723,0.020507812,-0.0126953125,0.001953125,0.0,0.0,0.0,0.0,0.0,0.0,0.0,0.0,0.0,0.0,0.0,-0.5880113,0.015000985,0.8089284,-0.93408203,0.11352539,-0.2298584,-0.15429688,-0.0068359375,0.0107421875,2.0480351,-12.173659,0.3105669,16.747324,-0.9623413,0.11187744,0.10235596,-0.032226562,0.045898438,0.051757812,0.55142933,-12.552876,-56.671,15.115449,0.6010132,0.35784912,0.70739746,0.013671875,-0.021484375,0.0029296875,15.754647,-12.791992,-128.6632,13.261139,0.0,0.0,0.0,0.0,0.0,0.0,0.0,-13.007497,-128.52136,33.260925,0.0,0.0,0.0,0.0,0.0,0.0,0.0,0.5880113,-0.015000985,-0.8089284,-0.9237671,0.020568848,-0.34783936,0.028320312,-0.109375,-0.15625,5.421698,12.173659,-0.3105669,-16.747324,-0.9697876,-0.02758789,-0.028747559,-0.025390625,0.01171875,0.017578125,3.9645717,6.7122507,-56.957485,-13.368961,0.5814209,-0.21087646,0.7984009,0.013671875,0.0,0.021484375,14.508373,4.829987,-128.89348,-10.573221,0.0,0.0,0.0,0.0,0.0,0.0,0.0,14.278875,-128.54056,7.054016,-0.96203613,-0.12536621,-0.04107666,0.020507812,0.020507812,0.018554688,0.0,0.8324409,44.999535,-0.22938082,
0.23437499650754037,12,-0.8565674,-0.07421875,0.54248047,0.020507812,-0.0126953125,0.0390625,0.0,0.0,0.0,0.0,0.0,0.0,0.0,0.0,0.0,0.0,0.0,-0.5871446,0.0154871335,0.80951667,-0.9222412,0.097473145,-0.21539307,-0.09765625,-0.0068359375,0.0107421875,2.04306,-12.155713,0.32063168,16.759504,-0.94177246,0.13085938,0.10748291,-0.07128906,0.009765625,0.032226562,0.5640592,-12.535134,-56.66335,15.1533,0.61712646,0.3614502,0.7044678,0.033203125,-0.0029296875,-0.0146484375,15.65247,-12.79056,-128.65852,13.323742,0.0,0.0,0.0,0.0,0.0,0.0,0.0,-12.943142,-128.51987,33.325626,0.0,0.0,0.0,0.0,0.0,0.0,0.0,0.5871446,-0.0154871335,-0.80951667,-0.9338989,0.034423828,-0.34448242,0.07421875,-0.15332031,-0.14453125,5.1850066,12.155713,-0.32063168,-16.759504,-0.9603882,-0.010437012,-0.0079956055,-0.06347656,0.05078125,0.036132812,3.8018422,6.8431215,-56.986053,-13.514276,0.56988525,-0.22064209,0.8364868,0.013671875,0.0,0.021484375,14.326954,4.98456,-128.92258,-10.756385,0.0,0.0,0.0,0.0,0.0,0.0,0.0,14.416923,-128.58426,6.8786726,-0.9946289,-0.1350708,-0.017333984,9.765625E-4,9.765625E-4,0.017578125,0.0,0.8642293,44.997753,-0.2340392,
0.2539062462165021,13,-0.8355713,-0.07720947,0.55389404,9.765625E-4,0.005859375,0.021484375,0.0,0.0,0.0,0.0,0.0,0.0,0.0,0.0,0.0,0.0,0.0,-0.5852568,0.015626127,0.81084454,-0.9456787,0.07336426,-0.23400879,-0.060546875,0.047851562,0.029296875,2.0378807,-12.116631,0.3235093,16.786995,-0.9586792,0.10333252,0.13110352,-0.109375,0.048828125,0.013671875,0.56855106,-12.465522,-56.659325,15.197113,0.6203003,0.3682251,0.71051025,0.052734375,-0.0029296875,-0.033203125,15.686735,-12.7096815,-128.65431,13.3986635,0.0,0.0,0.0,0.0,0.0,0.0,0.0,-12.887915,-128.52718,33.39963,0.0,0.0,0.0,0.0,0.0,0.0,0.0,0.5852568,-0.015626127,-0.81084454,-0.92681885,0.023620605,-0.36260986,0.06347656,-0.12402344,-0.13378906,5.003354,12.116631,-0.3235093,-16.786995,-0.9624634,-0.014282227,-0.00793457,-0.025390625,0.05078125,0.016601562,3.6714654,6.911376,-57.009033,-13.660595,0.5687256,-0.21948242,0.8274536,0.013671875,0.0,0.0029296875,14.218518,5.0531626,-128.94879,-10.962151,0.0,0.0,0.0,0.0,0.0,0.0,0.0,14.445956,-128.625,6.6954956,-0.9630127,-0.11193848,-0.023803711,-0.056640625,0.01953125,-0.01953125,0.0,0.89656746,44.9959,-0.22000442,
0.2734374959254638,14,-0.8607178,-0.058410645,0.5506592,0.020507812,-0.049804688,0.020507812,0.0,0.0,0.0,0.0,0.0,0.0,0.0,0.0,0.0,0.0,0.0,-0.5838697,0.015815683,0.81184846,-0.95080566,0.062683105,-0.2399292,-0.060546875,0.083984375,0.029296875,2.0820591,-12.0879135,0.32743368,16.80778,-0.9678955,0.093444824,0.09033203,-0.03125,0.045898438,0.013671875,0.48091987,-12.467722,-56.657375,15.156319,0.6021118,0.3616333,0.71533203,0.033203125,-0.0029296875,-0.033203125,15.488548,-12.665513,-128.64815,13.357103,0.0,0.0,0.0,0.0,0.0,0.0,0.0,-12.797856,-128.5233,33.358932,0.0,0.0,0.0,0.0,0.0,0.0,0.0,0.5838697,-0.015815683,-0.81184846,-0.9328003,0.010803223,-0.35583496,0.06542969,-0.10644531,-0.13574219,4.8309965,12.0879135,-0.32743368,-16.80778,-0.9527588,-0.029174805,-0.010009766,-0.0068359375,0.01171875,0.017578125,3.5720444,6.9615836,-57.022514,-13.815202,0.576355,-0.22692871,0.8005371,-0.00390625,0.018554688,0.001953125,14.1406975,5.135246,-128.96384,-11.138995,0.0,0.0,0.0,0.0,0.0,0.0,0.0,14.511059,-128.65685,6.5270834,-0.9711304,-0.10131836,-0.01159668,-0.056640625,-0.018554688,-9.765625E-4,0.0,0.9377821,44.995445,-0.20212033,
0.2929687456344255,15,-0.83551025,-0.06542969,0.5262451,-0.0546875,-0.0126953125,0.0029296875,0.0,0.0,0.0,0.0,0.0,0.0,0.0,0.0,0.0,0.0,0.0,-0.5829998,0.016029846,0.8124735,-0.94451904,0.07910156,-0.20629883,0.015625,0.009765625,0.0107421875,2.1508589,-12.069904,0.33186752,16.82072,-0.9442749,0.11584473,0.12524414,-0.0126953125,0.02734375,0.051757812,0.39167115,-12.447891,-56.648712,15.112877,0.6074829,0.39007568,0.6950073,-0.005859375,-0.021484375,-0.034179688,15.510607,-12.604597,-128.64532,13.350789,0.0,0.0,0.0,0.0,0.0,0.0,0.0,-12.763724,-128.52164,33.352608,0.0,0.0,0.0,0.0,0.0,0.0,0.0,0.5829998,-0.016029846,-0.8124735,-0.9257202,0.0018310547,-0.35412598,0.08300781,-0.10449219,-0.13378906,4.6656446,12.069904,-0.33186752,-16.82072,-0.98724365,-0.0017700195,-0.02960205,-0.0068359375,0.05078125,0.016601562,3.4317656,7.0280976,-57.04744,-13.97966,0.5824585,-0.20587158,0.79937744,0.0146484375,0.01953125,0.001953125,14.104644,5.183072,-128.99063,-11.351124,0.0,0.0,0.0,0.0,0.0,0.0,0.0,14.5698395,-128.69913,6.3092175,-0.9558716,-0.10601807,-0.036621094,-0.017578125,0.01953125,0.056640625,0.0,0.936117,44.99557,-0.21602672,
0.3124999953433872,16,-0.8440552,-0.10296631,0.5022583,9.765625E-4,-0.0126953125,0.001953125,0.0,0.0,0.0,0.0,0.0,0.0,0.0,0.0,0.0,0.0,0.0,-0.584215,0.016492123,0.811574,-0.92126465,0.09661865,-0.24603271,-0.041015625,0.0107421875,0.047851562,2.2069983,-12.095062,0.3414381,16.802097,-0.95129395,0.07873535,0.10913086,-0.032226562,0.045898438,0.051757812,0.34378096,-12.466375,-56.638508,15.064951,0.616272,0.3632202,0.73114014,0.013671875,-0.001953125,0.00390625,15.390414,-12.611498,-128.63376,13.337055,0.0,0.0,0.0,0.0,0.0,0.0,0.0,-12.720607,-128.51411,33.33847,0.0,0.0,0.0,0.0,0.0,0.0,0.0,0.584215,-0.016492123,-0.811574,-0.9248047,0.017578125,-0.3479004,0.08300781,-0.12402344,-0.11425781,4.4819193,12.095062,-0.3414381,-16.802097,-0.9645386,-0.014038086,-0.030761719,0.01171875,0.01171875,-0.001953125,3.285093,7.151486,-57.075176,-14.105466,0.5838623,-0.22442627,0.833374,-0.00390625,0.018554688,0.001953125,14.015322,5.3049593,-129.01869,-11.4915905,0.0,0.0,0.0,0.0,0.0,0.0,0.0,14.673991,-128.73723,6.178419,-0.9569702,-0.10925293,-0.008850098,-0.056640625,0.0,0.037109375,0.0,0.94259197,44.99472,-0.235816,
0.3320312450523489,17,-0.8475952,-0.07421875,0.55023193,0.020507812,-0.0126953125,0.001953125,0.0,0.0,0.0,0.0,0.0,0.0,0.0,0.0,0.0,0.0,0.0,-0.58397794,0.01643071,0.81183213,-0.91412354,0.105163574,-0.21942139,0.015625,0.046875,0.029296875,2.2046914,-12.090154,0.34016663,16.807444,-0.9802246,0.11895752,0.13012695,-0.0126953125,0.02734375,0.051757812,0.29541367,-12.524776,-56.64182,15.046278,0.6031494,0.3685913,0.7026367,0.013671875,0.016601562,0.00390625,15.390067,-12.675106,-128.63953,13.311228,0.0,0.0,0.0,0.0,0.0,0.0,0.0,-12.774292,-128.52528,33.313347,0.0,0.0,0.0,0.0,0.0,0.0,0.0,0.58397794,-0.01643071,-0.81183213,-0.9338379,0.020629883,-0.35565186,0.1328125,-0.115234375,-0.12695312,4.3409066,12.090154,-0.34016663,-16.807444,-0.9594116,-0.0022583008,-0.041748047,0.01171875,0.01171875,0.017578125,3.164773,7.237297,-57.082806,-14.239025,0.5775757,-0.23516846,0.8175049,0.013671875,0.0,0.021484375,13.834684,5.403601,-129.02927,-11.641636,0.0,0.0,0.0,0.0,0.0,0.0,0.0,14.786537,-128.75313,6.0209827,-0.95703125,-0.13134766,-0.035217285,-0.037109375,0.020507812,-0.01953125,0.0,0.9379701,44.997967,-0.23600292,
0.3515624947613106,18,-0.83343506,-0.086120605,0.5418701,0.057617188,-0.0126953125,-0.017578125,0.0,0.0,0.0,0.0,0.0,0.0,0.0,0.0,0.0,0.0,0.0,-0.58254546,0.016688906,0.8128185,-0.93426514,0.10070801,-0.23095703,0.072265625,0.045898438,0.047851562,2.1868646,-12.060496,0.34551215,16.827864,-0.95892334,0.12573242,0.09454346,-0.0126953125,0.045898438,0.033203125,0.28803554,-12.511097,-56.631474,15.08336,0.6091919,0.36541748,0.72229004,0.033203125,-0.0029296875,-0.0146484375,15.357708,-12.64385,-128.62498,13.355491,0.0,0.0,0.0,0.0,0.0,0.0,0.0,-12.724113,-128.52216,33.357315,0.0,0.0,0.0,0.0,0.0,0.0,0.0,0.58254546,-0.016688906,-0.8128185,-0.9309082,0.03540039,-0.34649658,0.103515625,-0.12402344,-0.09472656,4.178139,12.060496,-0.34551215,-16.827864,-0.97058105,-0.011779785,-0.043640137,-0.0068359375,0.01171875,0.017578125,3.0460684,7.296022,-57.09654,-14.361254,0.5769043,-0.20361328,0.8343506,-0.0048828125,0.0,0.001953125,13.782803,5.4678173,-129.04085,-11.750309,0.0,0.0,0.0,0.0,0.0,0.0,0.0,14.837172,-128.77615,5.9219723,-0.9661255,-0.12164307,-0.024047852,-0.037109375,-0.018554688,0.017578125,0.0,0.9754996,44.995876,-0.22472322,
0.37109374447027227,19,-0.8173218,-0.08618164,0.5316162,0.01953125,0.005859375,-0.016601562,0.0,0.0,0.0,0.0,0.0,0.0,0.0,0.0,0.0,0.0,0.0,-0.5805583,0.017076587,0.81429535,-0.9434204,0.088134766,-0.23291016,-0.060546875,0.0107421875,0.0107421875,2.2319539,-12.019358,0.35353827,16.858435,-0.9682617,0.11566162,0.12615967,-0.032226562,0.02734375,0.033203125,0.23490246,-12.460821,-56.624554,15.093092,0.585022,0.36798096,0.69866943,-0.005859375,-0.041015625,0.0029296875,15.334895,-12.598457,-128.61844,13.4270315,0.0,0.0,0.0,0.0,0.0,0.0,0.0,-12.651386,-128.51671,33.429573,0.0,0.0,0.0,0.0,0.0,0.0,0.0,0.5805583,-0.017076587,-0.81429535,-0.9298096,0.023498535,-0.33685303,0.109375,-0.16796875,-0.12109375,4.019513,12.019358,-0.35353827,-16.858435,-0.96258545,-0.019104004,-0.014892578,0.01171875,0.03125,0.016601562,2.9299095,7.3478575,-57.12211,-14.493203,0.5696411,-0.1942749,0.8123779,0.032226562,9.765625E-4,0.021484375,13.563609,5.5267186,-129.06848,-11.89136,0.0,0.0,0.0,0.0,0.0,0.0,0.0,14.896101,-128.8269,5.7795496,-0.9741821,-0.11175537,-0.027770996,0.020507812,-0.017578125,0.037109375,0.0,0.9903266,44.99785,-0.23758861,
0.39062499417923396,20,-0.8487549,-0.042663574,0.5426636,0.01953125,-0.0126953125,-0.03515625,0.0,0.0,0.0,0.0,0.0,0.0,0.0,0.0,0.0,0.0,0.0,-0.58135724,0.016592044,0.8136256,-0.94348145,0.09136963,-0.28131104,-0.060546875,-0.0068359375,0.047851562,2.1964197,-12.035898,0.34350678,16.844574,-0.9718628,0.09698486,0.12408447,-0.032226562,0.045898438,0.033203125,0.16312942,-12.519323,-56.635014,15.058885,0.6066284,0.4019165,0.68530273,-0.005859375,-0.021484375,-0.015625,15.409179,-12.6369505,-128.63231,13.431195,0.0,0.0,0.0,0.0,0.0,0.0,0.0,-12.709918,-128.53008,33.4333,0.0,0.0,0.0,0.0,0.0,0.0,0.0,0.58135724,-0.016592044,-0.8136256,-0.9348755,0.024536133,-0.3427124,0.11816406,-0.119140625,-0.11035156,3.8715599,12.035898,-0.34350678,-16.844574,-0.9555664,-0.02130127,-0.0079956055,-0.026367188,0.01171875,0.036132812,2.8065155,7.483873,-57.121647,-14.581446,0.5876465,-0.24615479,0.8234863,0.0146484375,0.01953125,0.001953125,13.5698395,5.6874075,-129.06822,-11.993702,0.0,0.0,0.0,0.0,0.0,0.0,0.0,15.030467,-128.8312,5.6916676,-0.9650879,-0.10723877,-0.0067749023,0.0390625,9.765625E-4,0.037109375,0.0,1.0066233,44.99366,-0.19828422,
0.41015624388819566,21,-0.8397827,-0.042663574,0.5484009,9.765625E-4,0.005859375,0.001953125,0.0,0.0,0.0,0.0,0.0,0.0,0.0,0.0,0.0,0.0,0.0,-0.58220077,0.015887039,0.8131055,-0.9492798,0.10614014,-0.2652588,0.015625,0.064453125,0.029296875,2.1287243,-12.05336,0.32891098,16.833803,-0.9608154,0.12799072,0.07965088,-0.032226562,0.02734375,0.033203125,0.15065786,-12.614327,-56.645157,15.036484,0.62127686,0.36419678,0.72229004,0.032226562,0.0546875,-0.0146484375,15.323656,-12.764264,-128.64049,13.378946,0.0,0.0,0.0,0.0,0.0,0.0,0.0,-12.771674,-128.54393,33.381275,0.0,0.0,0.0,0.0,0.0,0.0,0.0,0.58220077,-0.015887039,-0.8131055,-0.92181396,0.034423828,-0.36541748,0.087890625,-0.0703125,-0.13867188,3.8189034,12.05336,-0.32891098,-16.833803,-0.9533081,-0.0025634766,-0.027893066,-0.08105469,0.06933594,0.036132812,2.7476594,7.54578,-57.11603,-14.637354,0.59490967,-0.21929932,0.8312988,-0.0048828125,0.018554688,-0.016601562,13.450423,5.7561026,-129.06038,-12.049824,0.0,0.0,0.0,0.0,0.0,0.0,0.0,15.076045,-128.83348,5.6478043,-0.9650879,-0.10723877,-0.0067749023,0.0390625,9.765625E-4,0.037109375,0.0,1.0159609,44.996166,-0.15171783,
0.42968749359715736,22,-0.857605,-0.06829834,0.5465088,-0.017578125,-0.0126953125,0.021484375,0.0,0.0,0.0,0.0,0.0,0.0,0.0,0.0,0.0,0.0,0.0,-0.58481205,0.015625272,0.81129414,-0.94628906,0.10003662,-0.2475586,-0.022460938,0.0107421875,0.029296875,2.0870352,-12.107422,0.3234915,16.796305,-0.9505005,0.107421875,0.109313965,-0.032226562,0.045898438,0.033203125,0.14265253,-12.690125,-56.653133,15.013354,0.5830078,0.36297607,0.71435547,0.013671875,-0.001953125,0.022460938,15.390788,-12.856189,-128.6516,13.380539,0.0,0.0,0.0,0.0,0.0,0.0,0.0,-12.859465,-128.55197,33.382534,0.0,0.0,0.0,0.0,0.0,0.0,0.0,0.58481205,-0.015625272,-0.81129414,-0.9309082,0.034362793,-0.33465576,0.061523438,-0.140625,-0.13085938,3.7312436,12.107422,-0.3234915,-16.796305,-0.96051025,-0.014282227,-0.015930176,-0.025390625,-0.0068359375,-9.765625E-4,2.6648414,7.676127,-57.120434,-14.664363,0.60388184,-0.20703125,0.8222046,0.013671875,0.0,0.0029296875,13.479536,5.871997,-129.06737,-12.1639595,0.0,0.0,0.0,0.0,0.0,0.0,0.0,15.190843,-128.85233,5.534086,-0.9711304,-0.10601807,-0.024658203,-0.07519531,0.0390625,-0.01953125,0.0,1.0152194,44.998413,-0.13484608,
0.44921874330611905,23,-0.85076904,-0.039733887,0.5317993,-0.017578125,0.005859375,0.05859375,0.0,0.0,0.0,0.0,0.0,0.0,0.0,0.0,0.0,0.0,0.0,-0.5858635,0.0151607115,0.8104209,-0.9265747,0.07513428,-0.25506592,-0.1171875,0.030273438,0.029296875,2.053189,-12.129189,0.31387374,16.778225,-0.9656372,0.13824463,0.1293335,-0.033203125,-0.009765625,0.033203125,0.13847642,-12.751614,-56.663017,14.995086,0.6174927,0.39001465,0.67926025,0.033203125,-0.041015625,-0.015625,15.480901,-12.913277,-128.66339,13.365885,0.0,0.0,0.0,0.0,0.0,0.0,0.0,-12.941286,-128.57466,33.368736,0.0,0.0,0.0,0.0,0.0,0.0,0.0,0.5858635,-0.0151607115,-0.8104209,-0.9298706,0.028564453,-0.35949707,0.08105469,-0.12207031,-0.13183594,3.6528053,12.129189,-0.31387374,-16.778225,-0.9743042,0.001953125,-0.043640137,-0.025390625,0.01171875,0.017578125,2.5592556,7.763666,-57.122288,-14.750024,0.57263184,-0.21929932,0.819458,0.013671875,-0.018554688,0.021484375,13.40716,5.938155,-129.07242,-12.270888,0.0,0.0,0.0,0.0,0.0,0.0,0.0,15.288146,-128.87071,5.411071,-0.98236084,-0.116760254,-0.011962891,-0.056640625,0.01953125,0.018554688,0.0,0.99038464,44.994507,-0.12575993,
0.46874999301508075,24,-0.847229,-0.10583496,0.5339966,-0.017578125,-0.0126953125,0.040039062,0.0,0.0,0.0,0.0,0.0,0.0,0.0,0.0,0.0,0.0,0.0,-0.5859959,0.015103666,0.81033784,-0.94940186,0.09307861,-0.22387695,-0.060546875,0.046875,0.0107421875,2.0193574,-12.131932,0.31269267,16.776505,-0.9680786,0.12506104,0.1550293,-0.032226562,0.045898438,0.051757812,0.15065786,-12.734288,-56.66611,15.021075,0.6303711,0.3668213,0.7380371,0.052734375,-0.0029296875,-0.0146484375,15.407288,-12.920737,-128.6635,13.415373,0.0,0.0,0.0,0.0,0.0,0.0,0.0,-12.911284,-128.58742,33.417908,0.0,0.0,0.0,0.0,0.0,0.0,0.0,0.5859959,-0.015103666,-0.81033784,-0.9298096,0.0107421875,-0.35290527,0.03125,-0.111328125,-0.13964844,3.5401099,12.131932,-0.31269267,-16.776505,-0.996521,-0.01727295,-0.02557373,-0.06347656,-0.0078125,0.018554688,2.4689448,7.8337593,-57.128532,-14.831834,0.5847168,-0.21417236,0.8173828,0.0146484375,0.018554688,0.021484375,13.440715,5.9992156,-129.0758,-12.372755,0.0,0.0,0.0,0.0,0.0,0.0,0.0,15.318958,-128.8804,5.325491,-0.97314453,-0.11077881,-0.030761719,9.765625E-4,9.765625E-4,0.055664062,0.0,1.0120044,44.9945,-0.10680893,
0.48828124272404244,25,-0.8183594,-0.07733154,0.5247803,-0.017578125,0.005859375,0.0029296875,0.0,0.0,0.0,0.0,0.0,0.0,0.0,0.0,0.0,0.0,0.0,-0.58420664,0.016132465,0.81158966,-0.9433594,0.095947266,-0.230896,0.034179688,0.028320312,0.0107421875,2.0765998,-12.094888,0.33399206,16.802422,-0.95391846,0.124694824,0.08660889,-0.07128906,0.009765625,0.032226562,0.1412742,-12.6927805,-56.644386,15.050727,0.58380127,0.35229492,0.70043945,-0.005859375,-0.021484375,0.0029296875,15.428393,-12.886588,-128.6395,13.46368,0.0,0.0,0.0,0.0,0.0,0.0,0.0,-12.869081,-128.56418,33.465927,0.0,0.0,0.0,0.0,0.0,0.0,0.0,0.58420664,-0.016132465,-0.81158966,-0.9298096,0.0107421875,-0.35290527,0.03125,-0.111328125,-0.13964844,3.4847572,12.094888,-0.33399206,-16.802422,-0.9506836,-0.022277832,-0.018981934,-0.026367188,0.01171875,0.036132812,2.5046,7.796715,-57.14983,-14.857751,0.5695801,-0.22827148,0.8165283,0.013671875,0.0,0.0029296875,13.165042,5.9922895,-129.10088,-12.4577675,0.0,0.0,0.0,0.0,0.0,0.0,0.0,15.308943,-128.91176,5.241289,-0.9761963,-0.10217285,-0.01361084,9.765625E-4,0.01953125,0.07519531,0.0,1.0390313,44.993065,-0.14642876,
0.5078124924330042,26,-0.8149414,-0.12365723,0.51727295,9.765625E-4,-0.0126953125,0.001953125,0.0,0.0,0.0,0.0,0.0,0.0,0.0,0.0,0.0,0.0,0.0,-0.5840063,0.016551103,0.81176686,-0.9277954,0.05822754,-0.22454834,-0.060546875,0.029296875,0.047851562,2.1237538,-12.090739,0.34265915,16.806091,-0.9550171,0.08959961,0.119140625,-0.051757812,0.028320312,0.013671875,0.059347026,-12.715286,-56.634624,15.012346,0.59869385,0.4058838,0.69818115,0.052734375,-0.0029296875,0.00390625,15.471762,-12.903559,-128.63843,13.468494,0.0,0.0,0.0,0.0,0.0,0.0,0.0,-12.906287,-128.57289,33.471275,0.0,0.0,0.0,0.0,0.0,0.0,0.0,0.5840063,-0.016551103,-0.81176686,-0.928833,0.027526855,-0.35357666,0.11328125,-0.115234375,-0.14550781,3.227981,12.090739,-0.34265915,-16.806091,-0.9682617,-0.008361816,-0.0029296875,-0.0087890625,-0.02734375,0.037109375,2.3484373,7.939856,-57.17661,-15.052024,0.59973145,-0.23101807,0.82037354,-0.00390625,0.0,0.021484375,12.955778,6.1712985,-129.13187,-12.686976,0.0,0.0,0.0,0.0,0.0,0.0,0.0,15.493498,-128.95837,5.0089827,-0.96710205,-0.10522461,-0.0126953125,0.020507812,0.13378906,0.057617188,0.0,1.0658993,44.99393,-0.15054496,
0.5273437421419659,27,-0.83013916,-0.082336426,0.4862671,-0.017578125,-0.0126953125,0.0029296875,0.0,0.0,0.0,0.0,0.0,0.0,0.0,0.0,0.0,0.0,0.0,-0.5839183,0.01653912,0.81186604,-0.9277954,0.05822754,-0.22454834,-0.060546875,0.029296875,0.047851562,2.1307461,-12.088918,0.34241107,16.808144,-0.95495605,0.0925293,0.11816406,-0.0126953125,0.02734375,0.033203125,0.059347026,-12.713465,-56.634872,15.014399,0.6274414,0.37384033,0.72436523,0.013671875,-0.0029296875,-0.0146484375,15.261542,-12.876516,-128.63214,13.470997,0.0,0.0,0.0,0.0,0.0,0.0,0.0,-12.805068,-128.57295,33.472282,0.0,0.0,0.0,0.0,0.0,0.0,0.0,0.5839183,-0.01653912,-0.81186604,-0.9277954,0.01763916,-0.34985352,0.11328125,-0.13476562,-0.12597656,3.1374996,12.088918,-0.34241107,-16.808144,-0.97180176,-0.024475098,-0.042663574,-0.026367188,-0.0078125,0.037109375,2.264772,8.0067,-57.18151,-15.142221,0.58587646,-0.234375,0.8344116,-0.00390625,0.018554688,0.021484375,13.000684,6.230218,-129.13898,-12.832146,0.0,0.0,0.0,0.0,0.0,0.0,0.0,15.538932,-128.96916,4.870899,-0.9608154,-0.08654785,-0.034240723,-0.017578125,0.095703125,0.0,0.0,1.0479361,44.995617,-0.16293187,
0.5468749918509276,28,-0.8109741,-0.1217041,0.5132446,0.01953125,0.024414062,0.001953125,0.0,0.0,0.0,0.0,0.0,0.0,0.0,0.0,0.0,0.0,0.0,-0.5825924,0.017427076,0.81272256,-0.9256592,0.065979004,-0.21466064,-0.00390625,0.0107421875,0.029296875,2.2998462,-12.061468,0.3607945,16.825878,-0.96520996,0.116882324,0.103393555,-0.0126953125,0.045898438,0.033203125,0.08156469,-12.571659,-56.61421,14.94632,0.63446045,0.37384033,0.70861816,-0.025390625,0.036132812,0.00390625,15.24816,-12.709065,-128.61064,13.417178,0.0,0.0,0.0,0.0,0.0,0.0,0.0,-12.6432495,-128.5624,33.41953,0.0,0.0,0.0,0.0,0.0,0.0,0.0,0.5825924,-0.017427076,-0.81272256,-0.9267578,0.00390625,-0.36791992,0.07910156,-0.13867188,-0.12988281,2.9845219,12.061468,-0.3607945,-16.825878,-0.9725952,-0.01159668,-0.05456543,-0.026367188,-0.02734375,0.018554688,2.1507678,8.049502,-57.202545,-15.242377,0.5679321,-0.20477295,0.8394165,-0.0048828125,-0.018554688,0.0029296875,13.080506,6.233983,-129.15787,-12.948006,0.0,0.0,0.0,0.0,0.0,0.0,0.0,15.533477,-128.99445,4.759758,-0.9608154,-0.08654785,-0.034240723,-0.017578125,0.095703125,0.0,0.0,1.0795633,44.99195,-0.1908803,
0.5664062415598893,29,-0.8514404,-0.070373535,0.5186157,0.057617188,0.005859375,0.020507812,0.0,0.0,0.0,0.0,0.0,0.0,0.0,0.0,0.0,0.0,0.0,-0.5821628,0.017913379,0.81305236,-0.9304199,0.08782959,-0.22821045,0.052734375,-0.0078125,0.047851562,2.3390846,-12.052576,0.37086245,16.832706,-0.9498291,0.12927246,0.10253906,-0.032226562,0.02734375,0.013671875,0.11869407,-12.549898,-56.600452,14.94711,0.60998535,0.3557129,0.71032715,0.013671875,0.016601562,0.00390625,14.898941,-12.715846,-128.59738,13.425967,0.0,0.0,0.0,0.0,0.0,0.0,0.0,-12.49516,-128.5599,33.42871,0.0,0.0,0.0,0.0,0.0,0.0,0.0,0.5821628,-0.017913379,-0.81305236,-0.9246826,9.765625E-4,-0.36993408,0.13964844,-0.10253906,-0.09375,2.9023197,12.052576,-0.37086245,-16.832706,-0.96258545,-0.013977051,-0.039733887,-0.0078125,-0.0078125,0.017578125,2.0981648,8.066045,-57.22061,-15.3306265,0.56585693,-0.19763184,0.82940674,-0.0048828125,0.0,0.001953125,13.207349,6.237627,-129.17657,-13.0287485,0.0,0.0,0.0,0.0,0.0,0.0,0.0,15.532698,-129.0239,4.6815615,-1.006897,-0.15228271,-0.029663086,-0.09472656,0.057617188,0.0,0.0,1.089591,44.992805,-0.21112259,
0.585937491268851,30,-0.8533325,-0.07727051,0.5145874,0.020507812,-0.03125,0.001953125,0.0,0.0,0.0,0.0,0.0,0.0,0.0,0.0,0.0,0.0,0.0,-0.5817053,0.017924907,0.81337214,-0.92144775,0.0826416,-0.21453857,0.07128906,0.009765625,0.047851562,2.3382475,-12.043102,0.37110114,16.839323,-0.96173096,0.101501465,0.13006592,-0.032226562,0.0087890625,-0.0048828125,0.10835236,-12.549093,-56.601147,14.948018,0.6029663,0.35882568,0.69854736,0.013671875,-0.0029296875,-0.0146484375,14.934721,-12.700998,-128.5993,13.441222,0.0,0.0,0.0,0.0,0.0,0.0,0.0,-12.487048,-128.56932,33.44205,0.0,0.0,0.0,0.0,0.0,0.0,0.0,0.5817053,-0.017924907,-0.81337214,-0.9348755,0.025512695,-0.34069824,0.15527344,-0.09765625,-0.109375,2.8138993,12.043102,-0.37110114,-16.839323,-0.9748535,0.01940918,-0.029663086,0.01171875,0.01171875,0.017578125,2.0364394,8.098513,-57.22842,-15.43273,0.59198,-0.20343018,0.8342285,-0.022460938,-9.765625E-4,0.05859375,13.2308855,6.261765,-129.18486,-13.123108,0.0,0.0,0.0,0.0,0.0,0.0,0.0,15.560858,-129.03879,4.5865307,-0.9935303,-0.12512207,-0.036010742,0.040039062,0.057617188,0.038085938,0.0,1.101161,44.992287,-0.2040042,
0.6054687409778127,31,-0.852417,-0.070373535,0.5206299,0.057617188,-0.03125,9.765625E-4,0.0,0.0,0.0,0.0,0.0,0.0,0.0,0.0,0.0,0.0,0.0,-0.5834118,0.017925175,0.8121979,-0.94421387,0.10479736,-0.2189331,-0.022460938,0.029296875,0.047851562,2.3237212,-12.078434,0.37110668,16.815016,-0.95843506,0.107055664,0.083496094,-0.0126953125,0.045898438,0.013671875,0.08156469,-12.59314,-56.602116,14.944906,0.6022949,0.37945557,0.69195557,-0.005859375,-0.0029296875,-0.0146484375,14.91901,-12.734056,-128.60042,13.440468,0.0,0.0,0.0,0.0,0.0,0.0,0.0,-12.507939,-128.5753,33.44174,0.0,0.0,0.0,0.0,0.0,0.0,0.0,0.5834118,-0.017925175,-0.8121979,-0.9258423,0.028442383,-0.34466553,0.16796875,-0.12988281,-0.103515625,2.7261317,12.078434,-0.37110668,-16.815016,-0.9664917,-0.018066406,-0.010925293,0.01171875,0.01171875,0.017578125,1.9509381,8.229046,-57.235764,-15.467806,0.6048584,-0.21307373,0.8232422,-0.0234375,-0.038085938,0.021484375,13.042577,6.4067383,-129.19025,-13.224209,0.0,0.0,0.0,0.0,0.0,0.0,0.0,15.702553,-129.06169,4.486269,-0.9771118,-0.09136963,-0.022338867,0.078125,0.05859375,0.037109375,0.0,1.0723656,44.994686,-0.22273721,
0.6249999906867744,32,-0.8392334,-0.086242676,0.50231934,0.076171875,-0.0126953125,-0.017578125,0.0,0.0,0.0,0.0,0.0,0.0,0.0,0.0,0.0,0.0,0.0,-0.583931,0.01822096,0.81178063,-0.93548584,0.08502197,-0.23901367,-0.060546875,0.029296875,0.029296875,2.341677,-12.089182,0.37723038,16.806377,-0.94732666,0.114746094,0.137146,0.0068359375,0.044921875,0.033203125,0.104678325,-12.608172,-56.596516,14.939322,0.6187134,0.40368652,0.68237305,0.013671875,-0.001953125,0.00390625,14.985177,-12.74365,-128.59723,13.493008,0.0,0.0,0.0,0.0,0.0,0.0,0.0,-12.553119,-128.57231,33.495377,0.0,0.0,0.0,0.0,0.0,0.0,0.0,0.583931,-0.01822096,-0.81178063,-0.9279175,0.04034424,-0.34838867,0.0859375,-0.10644531,-0.11621094,2.6596212,12.089182,-0.37723038,-16.806377,-0.9663696,-0.010192871,-0.01586914,0.030273438,0.01171875,0.016601562,1.8903089,8.304995,-57.240887,-15.475036,0.58447266,-0.20288086,0.800354,-0.00390625,0.018554688,0.040039062,12.904667,6.494919,-129.19939,-13.194351,0.0,0.0,0.0,0.0,0.0,0.0,0.0,15.788698,-129.08488,4.517664,-0.97802734,-0.07470703,-0.031921387,0.040039062,0.057617188,0.056640625,0.0,1.0629362,44.993423,-0.24531493,
0.6445312403957361,33,-0.8405762,-0.04284668,0.5067749,0.076171875,-0.0126953125,9.765625E-4,0.0,0.0,0.0,0.0,0.0,0.0,0.0,0.0,0.0,0.0,0.0,-0.5845986,0.018173052,0.8112555,-0.932251,0.10076904,-0.24090576,-0.07910156,0.047851562,0.029296875,2.318662,-12.103003,0.3762385,16.795504,-0.967041,0.12359619,0.11932373,0.005859375,0.026367188,0.051757812,0.10279207,-12.674626,-56.60143,14.934267,0.6173706,0.37200928,0.73321533,-0.005859375,-0.0029296875,-0.0146484375,14.828648,-12.805096,-128.60744,13.511356,0.0,0.0,0.0,0.0,0.0,0.0,0.0,-12.557064,-128.58514,33.511795,0.0,0.0,0.0,0.0,0.0,0.0,0.0,0.5845986,-0.018173052,-0.8112555,-0.9338989,0.034423828,-0.35144043,0.11816406,-0.119140625,-0.11035156,2.6056423,12.103003,-0.3762385,-16.795504,-0.9592285,-0.009765625,0.01586914,-0.0068359375,0.03125,0.016601562,1.8577265,8.376189,-57.243973,-15.493608,0.6178589,-0.20880127,0.81811523,-0.00390625,0.018554688,0.021484375,12.433017,6.601152,-129.19812,-13.199894,0.0,0.0,0.0,0.0,0.0,0.0,0.0,15.949547,-129.09149,4.483267,-0.979187,-0.09814453,-0.023498535,-0.09472656,0.09472656,0.076171875,0.0,1.0519056,44.99199,-0.24985868,
0.6640624901046978,34,-0.86065674,-0.06628418,0.55059814,0.01953125,0.005859375,0.001953125,0.0,0.0,0.0,0.0,0.0,0.0,0.0,0.0,0.0,0.0,0.0,-0.585248,0.017747447,0.8108442,-0.94421387,0.105773926,-0.22283936,0.034179688,-0.0078125,0.029296875,2.2926865,-12.116447,0.36742717,16.786987,-0.96954346,0.10595703,0.115234375,-0.0126953125,0.045898438,0.013671875,0.092787415,-12.686361,-56.605663,14.927359,0.58392334,0.36010742,0.70843506,-0.025390625,-0.021484375,-0.015625,14.949794,-12.814326,-128.60944,13.496634,0.0,0.0,0.0,0.0,0.0,0.0,0.0,-12.603573,-128.59013,33.499123,0.0,0.0,0.0,0.0,0.0,0.0,0.0,0.585248,-0.017747447,-0.8108442,-0.93292236,0.04321289,-0.33740234,0.09863281,-0.13867188,-0.11035156,2.5468357,12.116447,-0.36742717,-16.786987,-0.96746826,-0.016113281,-0.0119018555,0.0107421875,0.01171875,0.036132812,1.7993971,8.46475,-57.241043,-15.507155,0.5794678,-0.18890381,0.79730225,0.013671875,0.0,0.0029296875,12.209087,6.711018,-129.19511,-13.228459,0.0,0.0,0.0,0.0,0.0,0.0,0.0,16.081768,-129.09482,4.4423075,-0.9804077,-0.13128662,-0.01727295,-0.11328125,0.076171875,0.01953125,0.0,1.0424141,44.99404,-0.23242268,
0.6835937398136595,35,-0.86694336,-0.017028809,0.53533936,0.01953125,0.005859375,0.001953125,0.0,0.0,0.0,0.0,0.0,0.0,0.0,0.0,0.0,0.0,0.0,-0.5867048,0.017193755,0.8098525,-0.9523926,0.09210205,-0.21496582,-0.00390625,0.0107421875,0.0107421875,2.2677946,-12.146606,0.35596403,16.766457,-0.9491577,0.11999512,0.12231445,-0.032226562,0.045898438,0.051757812,0.1341704,-12.711895,-56.618816,14.904134,0.614563,0.39294434,0.6861572,0.013671875,-0.0029296875,-0.0146484375,15.077314,-12.835547,-128.62384,13.514192,0.0,0.0,0.0,0.0,0.0,0.0,0.0,-12.653634,-128.6113,33.516876,0.0,0.0,0.0,0.0,0.0,0.0,0.0,0.5867048,-0.017193755,-0.8098525,-0.9268799,0.034301758,-0.3297119,0.115234375,-0.1171875,-0.12792969,2.5009243,12.146606,-0.35596403,-16.766457,-0.9674072,-0.013122559,-0.014892578,-0.025390625,0.01171875,0.017578125,1.7392259,8.565553,-57.235596,-15.522491,0.5717163,-0.19641113,0.81933594,-0.00390625,0.018554688,0.021484375,12.051379,6.8252273,-129.19519,-13.259893,0.0,0.0,0.0,0.0,0.0,0.0,0.0,16.203262,-129.10034,4.407934,-0.9783325,-0.12438965,-0.02508545,-0.056640625,0.0390625,-9.765625E-4,0.0,1.0207044,44.99644,-0.2158487,
0.7031249895226211,36,-0.85339355,-0.0546875,0.49102783,0.020507812,-0.049804688,0.001953125,0.0,0.0,0.0,0.0,0.0,0.0,0.0,0.0,0.0,0.0,0.0,-0.58983564,0.016825791,0.80758023,-0.9244385,0.083740234,-0.22241211,-0.00390625,-0.0078125,0.047851562,2.2867885,-12.211428,0.34834605,16.719416,-0.95751953,0.10571289,0.10430908,-0.03125,0.083984375,0.032226562,0.15701751,-12.723667,-56.626816,14.838472,0.6092529,0.3703003,0.72039795,0.013671875,-0.021484375,-0.015625,14.868094,-12.866278,-128.62854,13.439043,0.0,0.0,0.0,0.0,0.0,0.0,0.0,-12.600086,-128.6175,33.439552,0.0,0.0,0.0,0.0,0.0,0.0,0.0,0.58983564,-0.016825791,-0.80758023,-0.93395996,0.04425049,-0.33935547,0.13476562,-0.09765625,-0.12890625,2.475595,12.211428,-0.34834605,-16.719416,-0.95562744,-0.015197754,-0.03186035,-0.025390625,0.01171875,0.017578125,1.6958135,8.682807,-57.237022,-15.501371,0.60357666,-0.22973633,0.8093262,-0.0234375,-9.765625E-4,0.001953125,11.866559,6.957017,-129.1948,-13.223317,0.0,0.0,0.0,0.0,0.0,0.0,0.0,16.36433,-129.10722,4.429698,-0.9661865,-0.13128662,-0.033203125,0.020507812,0.020507812,-9.765625E-4,0.0,0.9934562,44.996975,-0.21190935,
0.7226562392315828,37,-0.84747314,-0.082092285,0.5501709,0.01953125,0.005859375,0.020507812,0.0,0.0,0.0,0.0,0.0,0.0,0.0,0.0,0.0,0.0,0.0,-0.58979964,0.016479764,0.8076429,-0.93426514,0.10070801,-0.22698975,-0.022460938,0.046875,0.029296875,2.3021429,-12.210682,0.3411822,16.72071,-0.9595337,0.103149414,0.083496094,-0.03125,0.045898438,0.013671875,0.18974563,-12.782889,-56.632244,14.787369,0.58496094,0.3600464,0.70843506,0.013671875,0.016601562,-0.0146484375,14.738172,-12.897627,-128.63559,13.382376,0.0,0.0,0.0,0.0,0.0,0.0,0.0,-12.595855,-128.62436,33.381714,0.0,0.0,0.0,0.0,0.0,0.0,0.0,0.58979964,-0.016479764,-0.8076429,-0.92785645,0.034423828,-0.35546875,0.07910156,-0.13867188,-0.12988281,2.4423225,12.210682,-0.3411822,-16.72071,-0.963501,-0.014221191,-0.01586914,-0.0068359375,0.03125,0.016601562,1.6772478,8.729416,-57.23011,-15.531057,0.6047363,-0.22692871,0.8173218,-0.00390625,0.018554688,0.021484375,11.759728,7.0405617,-129.19054,-13.251831,0.0,0.0,0.0,0.0,0.0,0.0,0.0,16.413174,-129.10707,4.4190254,-0.97924805,-0.10974121,-0.030700684,0.0390625,0.001953125,-9.765625E-4,0.0,0.9786757,44.998398,-0.20348147,
0.7421874889405445,38,-0.8153076,-0.06262207,0.49310303,9.765625E-4,0.005859375,0.001953125,0.0,0.0,0.0,0.0,0.0,0.0,0.0,0.0,0.0,0.0,0.0,-0.5921545,0.016073918,0.80584073,-0.9404297,0.09106445,-0.23986816,-0.00390625,0.08300781,0.029296875,2.2982287,-12.259435,0.33277988,16.683401,-0.95599365,0.123413086,0.109436035,-0.0126953125,0.02734375,0.051757812,0.21850324,-12.840925,-56.63741,14.72607,0.6047363,0.4017334,0.71484375,0.013671875,-0.0029296875,-0.033203125,14.831877,-12.939632,-128.64061,13.3245735,0.0,0.0,0.0,0.0,0.0,0.0,0.0,-12.677938,-128.63068,33.32544,0.0,0.0,0.0,0.0,0.0,0.0,0.0,0.5921545,-0.016073918,-0.80584073,-0.9248047,0.019592285,-0.3468628,0.045898438,-0.12597656,-0.13476562,2.4227703,12.259435,-0.33277988,-16.683401,-0.95654297,-0.01727295,-0.017944336,-0.06347656,-0.0078125,0.018554688,1.6522084,8.802008,-57.223717,-15.543149,0.5673218,-0.20397949,0.7954712,0.013671875,0.0,0.021484375,11.667851,7.1108685,-129.18555,-13.309307,0.0,0.0,0.0,0.0,0.0,0.0,0.0,16.501316,-129.10957,4.353216,-0.98217773,-0.089416504,-0.020324707,-0.017578125,0.01953125,0.018554688,0.0,0.9671867,44.99562,-0.18680105,
0.7617187386495062,39,-0.8584595,-0.05859375,0.5010376,-0.017578125,0.005859375,0.021484375,0.0,0.0,0.0,0.0,0.0,0.0,0.0,0.0,0.0,0.0,0.0,-0.5939981,0.015212748,0.80450314,-0.9345703,0.07910156,-0.23510742,-0.060546875,0.0107421875,0.029296875,2.2514238,-12.297603,0.31495103,16.655708,-0.96466064,0.13623047,0.13128662,-0.032226562,0.02734375,0.033203125,0.23738827,-12.912127,-56.657063,14.698642,0.6334839,0.37982178,0.6958618,0.013671875,-0.0029296875,-0.0146484375,14.80807,-13.011533,-128.65623,13.314518,0.0,0.0,0.0,0.0,0.0,0.0,0.0,-12.728681,-128.65718,33.31471,0.0,0.0,0.0,0.0,0.0,0.0,0.0,0.5939981,-0.015212748,-0.80450314,-0.9348755,0.02545166,-0.32684326,0.08105469,-0.12207031,-0.13183594,2.412326,12.297603,-0.31495103,-16.655708,-0.9525757,-0.022399902,-0.0040893555,-0.043945312,0.08886719,0.03515625,1.601689,8.894024,-57.21287,-15.564661,0.5510254,-0.19311523,0.84643555,-0.00390625,0.037109375,0.001953125,11.735022,7.203406,-129.17206,-13.309496,0.0,0.0,0.0,0.0,0.0,0.0,0.0,16.521555,-129.09987,4.3872147,-0.95477295,-0.09899902,-0.05444336,-0.037109375,9.765625E-4,0.017578125,0.0,0.9255481,44.996708,-0.16749436,
0.7812499883584679,40,-0.8487549,-0.04663086,0.5465698,0.020507812,-0.0126953125,0.020507812,0.0,0.0,0.0,0.0,0.0,0.0,0.0,0.0,0.0,0.0,0.0,-0.59266937,0.015312526,0.8055601,-0.9345703,0.07910156,-0.23510742,-0.060546875,0.0107421875,0.029296875,2.2470732,-12.270093,0.31701678,16.677593,-0.9647827,0.09692383,0.11315918,-0.0703125,0.046875,0.032226562,0.24469422,-12.884617,-56.655,14.720527,0.5910034,0.36291504,0.7055054,0.013671875,-0.021484375,0.0029296875,14.833211,-13.008387,-128.65526,13.350982,0.0,0.0,0.0,0.0,0.0,0.0,0.0,-12.70887,-128.65996,33.35123,0.0,0.0,0.0,0.0,0.0,0.0,0.0,0.59266937,-0.015312526,-0.8055601,-0.9349365,0.03729248,-0.3305664,0.1328125,-0.095703125,-0.14648438,2.3035877,12.270093,-0.31701678,-16.677593,-0.9623413,-0.010437012,-0.003967285,-0.0078125,-0.0078125,0.017578125,1.5467427,8.94144,-57.21763,-15.632519,0.57788086,-0.19848633,0.82733154,0.013671875,0.0,0.0029296875,11.698039,7.271528,-129.17424,-13.374139,0.0,0.0,0.0,0.0,0.0,0.0,0.0,16.570868,-129.10457,4.334903,-0.9682007,-0.1227417,-0.012084961,-0.11328125,0.01953125,0.018554688,0.0,0.9476165,44.99916,-0.15818514,
0.8007812380674296,41,-0.8515625,-0.066345215,0.54248047,-0.017578125,-0.0126953125,0.0029296875,0.0,0.0,0.0,0.0,0.0,0.0,0.0,0.0,0.0,0.0,0.0,-0.5929394,0.015056928,0.8053263,-0.932312,0.09777832,-0.23693848,-0.060546875,-0.025390625,0.0107421875,2.196598,-12.275683,0.3117251,16.67275,-0.95910645,0.121520996,0.11138916,-0.03125,0.064453125,0.033203125,0.21121772,-12.910091,-56.66001,14.7452755,0.61968994,0.38952637,0.73638916,0.013671875,-0.001953125,0.00390625,14.726826,-13.032625,-128.66348,13.361365,0.0,0.0,0.0,0.0,0.0,0.0,0.0,-12.689853,-128.66576,33.36155,0.0,0.0,0.0,0.0,0.0,0.0,0.0,0.5929394,-0.015056928,-0.8053263,-0.9309082,0.034423828,-0.3534546,0.09863281,-0.119140625,-0.12988281,2.2680535,12.275683,-0.3117251,-16.67275,-0.9686279,-0.02178955,-0.022827148,-0.025390625,0.01171875,0.017578125,1.528031,8.978446,-57.21791,-15.667588,0.57958984,-0.21508789,0.8104248,0.033203125,0.038085938,0.001953125,11.717965,7.318773,-129.17915,-13.39362,0.0,0.0,0.0,0.0,0.0,0.0,0.0,16.611729,-129.11345,4.321024,-0.9752197,-0.123291016,-0.039001465,-0.037109375,0.0390625,0.018554688,0.0,0.9451911,44.99781,-0.14539164,
0.8203124877763913,42,-0.8413696,-0.066467285,0.5085449,9.765625E-4,-0.0126953125,0.001953125,0.0,0.0,0.0,0.0,0.0,0.0,0.0,0.0,0.0,0.0,0.0,-0.59306246,0.015280896,0.8051826,-0.9567871,0.06561279,-0.21118164,0.015625,0.046875,0.0107421875,2.193388,-12.278234,0.31636193,16.669777,-0.9732666,0.11694336,0.117248535,-0.03125,0.045898438,0.013671875,0.17358941,-12.894628,-56.657722,14.756884,0.5907593,0.34625244,0.7062988,-0.025390625,0.036132812,0.022460938,14.8050375,-13.02485,-128.66045,13.351416,0.0,0.0,0.0,0.0,0.0,0.0,0.0,-12.72309,-128.67282,33.351097,0.0,0.0,0.0,0.0,0.0,0.0,0.0,0.59306246,-0.015280896,-0.8051826,-0.9399414,0.028564453,-0.3494873,0.10058594,-0.10253906,-0.13183594,2.2137277,12.278234,-0.31636193,-16.669777,-0.9556885,-0.016052246,-0.042785645,-0.044921875,0.01171875,0.017578125,1.5275186,8.991587,-57.225163,-15.734999,0.5753784,-0.22393799,0.80249023,-0.00390625,0.037109375,0.001953125,11.832897,7.3324842,-129.18471,-13.451761,0.0,0.0,0.0,0.0,0.0,0.0,0.0,16.601864,-129.12347,4.2728157,-0.96502686,-0.10784912,-0.03668213,-0.037109375,0.0390625,0.018554688,0.0,0.9611855,44.995697,-0.14596878,
0.839843737485353,43,-0.83306885,-0.10986328,0.50787354,0.01953125,0.024414062,0.001953125,0.0,0.0,0.0,0.0,0.0,0.0,0.0,0.0,0.0,0.0,0.0,-0.59214526,0.015962033,0.8058309,-0.9242554,0.097473145,-0.21734619,-0.022460938,-0.0068359375,0.047851562,2.2493367,-12.259242,0.33046353,16.683199,-0.9718628,0.09503174,0.12207031,-0.032226562,0.045898438,0.051757812,0.18974563,-12.85795,-56.64367,14.760098,0.61724854,0.36621094,0.72229004,0.033203125,-0.0029296875,-0.0146484375,14.703795,-12.996656,-128.64967,13.366728,0.0,0.0,0.0,0.0,0.0,0.0,0.0,-12.643219,-128.65756,33.366936,0.0,0.0,0.0,0.0,0.0,0.0,0.0,0.59214526,-0.015962033,-0.8058309,-0.93084717,0.026550293,-0.35357666,0.029296875,-0.12792969,-0.13671875,2.1448448,12.259242,-0.33046353,-16.683199,-0.9672241,-0.0013427734,-0.022827148,-0.044921875,0.01171875,0.017578125,1.5440835,9.002991,-57.238358,-15.787969,0.61083984,-0.21990967,0.821228,-0.00390625,0.037109375,0.020507812,11.6429,7.385559,-129.197,-13.457227,0.0,0.0,0.0,0.0,0.0,0.0,0.0,16.67289,-129.13875,4.2591715,-0.98236084,-0.1251831,-0.0390625,-0.037109375,-0.037109375,-0.020507812,0.0,0.97321284,44.994854,-0.1761237,
0.8593749871943147,44,-0.8265381,-0.05657959,0.52020264,-0.017578125,0.024414062,0.0029296875,0.0,0.0,0.0,0.0,0.0,0.0,0.0,0.0,0.0,0.0,0.0,-0.593082,0.015778366,0.8051641,-0.9124756,0.08068848,-0.24438477,-0.022460938,0.028320312,0.0107421875,2.2401817,-12.278636,0.3266611,16.669392,-0.9449463,0.125,0.11242676,-0.032226562,0.02734375,0.033203125,0.23573397,-12.901886,-56.64604,14.729212,0.62939453,0.37493896,0.7036743,0.013671875,0.016601562,0.00390625,14.772258,-13.049045,-128.64668,13.368857,0.0,0.0,0.0,0.0,0.0,0.0,0.0,-12.7105875,-128.66338,33.368828,0.0,0.0,0.0,0.0,0.0,0.0,0.0,0.593082,-0.015778366,-0.8051641,-0.928833,0.02545166,-0.33880615,0.06347656,-0.10449219,-0.15332031,2.1023583,12.278636,-0.3266611,-16.669392,-0.96624756,0.0036621094,-0.035705566,-0.025390625,0.05078125,0.016601562,1.512714,9.050547,-57.239452,-15.810355,0.5994873,-0.18359375,0.7911377,-0.0048828125,0.0,0.001953125,11.527981,7.4190235,-129.20038,-13.491022,0.0,0.0,0.0,0.0,0.0,0.0,0.0,16.750206,-129.14642,4.200859,-0.96307373,-0.11584473,-0.019897461,0.020507812,-0.037109375,0.017578125,0.0,0.9825467,44.995396,-0.15800893,
0.8789062369032764,45,-0.8216553,-0.066345215,0.5596924,0.020507812,-0.0126953125,0.001953125,0.0,0.0,0.0,0.0,0.0,0.0,0.0,0.0,0.0,0.0,0.0,-0.59182173,0.015921116,0.80606973,-0.9501343,0.109802246,-0.21679688,-0.1171875,-0.0068359375,0.029296875,2.204869,-12.252544,0.32961643,16.688143,-0.9567871,0.13122559,0.11639404,-0.032226562,0.045898438,0.051757812,0.18557489,-12.886895,-56.642162,14.780034,0.6246338,0.33013916,0.6932373,-0.005859375,-0.001953125,0.00390625,14.450351,-13.034791,-128.64185,13.393899,0.0,0.0,0.0,0.0,0.0,0.0,0.0,-12.580996,-128.66104,33.390427,0.0,0.0,0.0,0.0,0.0,0.0,0.0,0.59182173,-0.015921116,-0.80606973,-0.9238281,0.026428223,-0.3408203,0.115234375,-0.1171875,-0.12792969,2.0150886,12.252544,-0.32961643,-16.688143,-0.9465332,-0.017578125,-0.011047363,-0.025390625,0.05078125,0.016601562,1.5040216,9.064478,-57.244453,-15.904852,0.5713501,-0.2109375,0.7954712,-0.00390625,0.018554688,0.021484375,11.687204,7.446931,-129.20047,-13.587505,0.0,0.0,0.0,0.0,0.0,0.0,0.0,16.730438,-129.14174,4.131016,-0.97003174,-0.100097656,-0.030517578,0.0390625,9.765625E-4,0.017578125,0.0,1.0063027,44.994236,-0.149871,
0.8984374866122381,46,-0.84173584,-0.050598145,0.5463867,0.001953125,-0.049804688,0.020507812,0.0,0.0,0.0,0.0,0.0,0.0,0.0,0.0,0.0,0.0,0.0,-0.59154224,0.015674,0.80634433,-0.91864014,0.06390381,-0.21081543,-0.041015625,0.046875,0.0107421875,2.1729484,-12.246758,0.32450038,16.693829,-0.9727783,0.09991455,0.1270752,-0.03125,0.064453125,0.033203125,0.16902046,-12.836472,-56.650738,14.806148,0.6374512,0.36975098,0.7272339,-0.005859375,0.016601562,0.00390625,14.455701,-12.948955,-128.65512,13.429988,0.0,0.0,0.0,0.0,0.0,0.0,0.0,-12.499096,-128.67769,33.42764,0.0,0.0,0.0,0.0,0.0,0.0,0.0,0.59154224,-0.015674,-0.80634433,-0.93188477,0.024597168,-0.36254883,0.095703125,-0.1171875,-0.14746094,1.9551468,12.246758,-0.32450038,-16.693829,-0.9463501,-0.014892578,0.016784668,-0.025390625,0.01171875,0.017578125,1.5105132,9.087572,-57.240826,-15.972411,0.57055664,-0.24627686,0.8196411,-0.00390625,0.018554688,0.001953125,11.628084,7.4930663,-129.2001,-13.659913,0.0,0.0,0.0,0.0,0.0,0.0,0.0,16.768393,-129.14264,4.062974,-0.9609375,-0.10687256,-0.040649414,-0.056640625,0.01953125,-0.01953125,0.0,1.0263451,44.996212,-0.121714935,
0.9179687363211998,47,-0.83947754,-0.068359375,0.53027344,0.020507812,-0.0126953125,0.020507812,0.0,0.0,0.0,0.0,0.0,0.0,0.0,0.0,0.0,0.0,0.0,-0.5914979,0.0157431,0.8063277,-0.9355469,0.08215332,-0.25579834,-0.00390625,0.028320312,0.029296875,2.2124896,-12.24584,0.32593098,16.693481,-0.9700928,0.120910645,0.11035156,-0.013671875,0.0087890625,0.033203125,0.1928145,-12.822703,-56.64565,14.775362,0.5980835,0.3637085,0.7104492,0.013671875,-0.041015625,-0.015625,14.429425,-12.923356,-128.65182,13.390136,0.0,0.0,0.0,0.0,0.0,0.0,0.0,-12.467696,-128.6757,33.387596,0.0,0.0,0.0,0.0,0.0,0.0,0.0,0.5914979,-0.0157431,-0.8063277,-0.9378662,0.016662598,-0.34381104,0.061523438,-0.12207031,-0.15136719,1.8984703,12.24584,-0.32593098,-16.693481,-0.95458984,-0.020263672,-0.014953613,-0.025390625,0.06933594,0.03515625,1.4876685,9.133855,-57.2487,-16.018145,0.59765625,-0.23693848,0.8154297,0.013671875,0.0,0.021484375,11.658864,7.546485,-129.2061,-13.704516,0.0,0.0,0.0,0.0,0.0,0.0,0.0,16.802876,-129.14624,4.027032,-0.96606445,-0.11553955,-0.044799805,-0.037109375,0.0390625,0.018554688,0.0,1.0226959,44.994537,-0.12827411,
0.9374999860301615,48,-0.83947754,-0.084106445,0.54797363,0.01953125,0.005859375,0.001953125,0.0,0.0,0.0,0.0,0.0,0.0,0.0,0.0,0.0,0.0,0.0,-0.5896941,0.01602005,0.8076352,-0.9384155,0.09008789,-0.24682617,-0.041015625,0.029296875,0.047851562,2.2311645,-12.208497,0.3316647,16.72055,-0.95983887,0.13208008,0.13226318,-0.032226562,0.045898438,0.033203125,0.23738827,-12.840756,-56.639954,14.769341,0.61505127,0.35968018,0.6916504,-0.025390625,0.016601562,0.022460938,14.442863,-12.974131,-128.64258,13.394554,0.0,0.0,0.0,0.0,0.0,0.0,0.0,-12.495829,-128.67192,33.392555,0.0,0.0,0.0,0.0,0.0,0.0,0.0,0.5896941,-0.01602005,-0.8076352,-0.93084717,0.01763916,-0.3458252,0.068359375,-0.109375,-0.11816406,1.808077,12.208497,-0.3316647,-16.72055,-0.96588135,-0.031555176,-0.029785156,-0.043945312,0.03125,-9.765625E-4,1.473659,9.135412,-57.254272,-16.094627,0.5854492,-0.19677734,0.7943115,-0.0048828125,0.0,0.001953125,11.494302,7.5525455,-129.2129,-13.7804985,0.0,0.0,0.0,0.0,0.0,0.0,0.0,16.835938,-129.16315,3.938324,-0.9894409,-0.11932373,-0.031921387,-0.037109375,0.01953125,-9.765625E-4,0.0,1.0568337,44.993515,-0.120833844,
0.9570312357391232,49,-0.8293457,-0.09399414,0.5456543,0.020507812,-0.0126953125,0.001953125,0.0,0.0,0.0,0.0,0.0,0.0,0.0,0.0,0.0,0.0,0.0,-0.58819556,0.016097842,0.80879736,-0.93029785,0.09466553,-0.21923828,-0.022460938,0.029296875,0.029296875,2.2417536,-12.177473,0.33327523,16.744612,-0.9511719,0.119140625,0.12030029,-0.032226562,0.02734375,0.033203125,0.25100997,-12.812205,-56.636356,14.779852,0.6011963,0.36749268,0.72229004,0.013671875,-0.021484375,0.021484375,14.36476,-12.963684,-128.64305,13.4064665,0.0,0.0,0.0,0.0,0.0,0.0,0.0,-12.441591,-128.6792,33.401024,0.0,0.0,0.0,0.0,0.0,0.0,0.0,0.58819556,-0.016097842,-0.80879736,-0.9216919,0.00579834,-0.3619995,0.13476562,-0.09765625,-0.12890625,1.7691249,12.177473,-0.33327523,-16.744612,-0.9661865,0.005554199,-0.03173828,-0.025390625,0.05078125,0.016601562,1.4930521,9.102732,-57.25519,-16.198412,0.5794678,-0.20495605,0.80236816,-0.00390625,0.018554688,0.040039062,11.636705,7.497933,-129.21405,-13.878962,0.0,0.0,0.0,0.0,0.0,0.0,0.0,16.770014,-129.16959,3.8448849,-0.9661865,-0.13708496,-0.034362793,-0.037109375,0.01953125,0.018554688,0.0,1.076038,44.995686,-0.113022864,
0.9765624854480849,50,-0.85980225,-0.051513672,0.5546875,-0.017578125,0.024414062,0.021484375,0.0,0.0,0.0,0.0,0.0,0.0,0.0,0.0,0.0,0.0,0.0,-0.5886504,0.015709663,0.80841213,-0.946167,0.10784912,-0.23468018,-0.00390625,0.046875,0.029296875,2.2096572,-12.186889,0.32523867,16.736639,-0.9750366,0.1239624,0.11633301,-0.032226562,0.045898438,0.051757812,0.29074016,-12.865862,-56.64517,14.765518,0.5772705,0.3857422,0.6949463,0.013671875,-0.0029296875,-0.0146484375,14.389875,-12.975639,-128.65073,13.40976,0.0,0.0,0.0,0.0,0.0,0.0,0.0,-12.478257,-128.68945,33.405853,0.0,0.0,0.0,0.0,0.0,0.0,0.0,0.5886504,-0.015709663,-0.80841213,-0.93585205,0.020629883,-0.34472656,0.087890625,-0.10839844,-0.09863281,1.741475,12.186889,-0.32523867,-16.736639,-0.9505005,-0.010437012,-0.03186035,-0.0068359375,-0.0068359375,-9.765625E-4,1.4608552,9.140982,-57.249107,-16.242125,0.56365967,-0.21343994,0.81951904,-0.00390625,0.018554688,0.001953125,11.768539,7.516305,-129.20996,-13.966453,0.0,0.0,0.0,0.0,0.0,0.0,0.0,16.764297,-129.16483,3.7696524,-0.9559326,-0.12158203,-0.036010742,9.765625E-4,-0.037109375,-0.001953125,0.0,1.070018,44.99362,-0.09520893,
0.9960937351570466,51,-0.8276367,-0.042785645,0.52630615,9.765625E-4,-0.0126953125,0.001953125,0.0,0.0,0.0,0.0,0.0,0.0,0.0,0.0,0.0,0.0,0.0,-0.58757937,0.015165115,0.8092601,-0.9493408,0.09509277,-0.22583008,-0.041015625,0.0107421875,0.029296875,2.1799624,-12.164716,0.3139649,16.754192,-0.95184326,0.095336914,0.12512207,0.0068359375,0.044921875,0.033203125,0.29541367,-12.83688,-56.657936,14.783497,0.6077881,0.39953613,0.7414551,0.033203125,-0.001953125,0.00390625,14.414479,-12.892779,-128.66006,13.411114,0.0,0.0,0.0,0.0,0.0,0.0,0.0,-12.422721,-128.68939,33.40725,0.0,0.0,0.0,0.0,0.0,0.0,0.0,0.58757937,-0.015165115,-0.8092601,-0.93188477,0.03149414,-0.3505249,0.09863281,-0.119140625,-0.12988281,1.7277106,12.164716,-0.3139649,-16.754192,-0.9562378,0.0064697266,-0.045715332,-0.025390625,0.01171875,0.017578125,1.4120847,9.146322,-57.243504,-16.271816,0.5936279,-0.19891357,0.80822754,-0.00390625,0.0,0.021484375,11.638398,7.498603,-129.20403,-14.031813,0.0,0.0,0.0,0.0,0.0,0.0,0.0,16.794464,-129.16759,3.6789951,-0.9436035,-0.09246826,-0.038330078,0.040039062,0.0390625,0.018554688,0.0,1.0624193,44.995983,-0.07181077,
1.0156249848660084,52,-0.81555176,-0.06933594,0.5456543,-0.017578125,0.005859375,0.0029296875,0.0,0.0,0.0,0.0,0.0,0.0,0.0,0.0,0.0,0.0,0.0,-0.5865522,0.015230915,0.8099222,-0.93341064,0.087890625,-0.2321167,0.052734375,0.009765625,0.047851562,2.16555,-12.14345,0.31532717,16.767899,-0.9633179,0.11224365,0.079589844,-0.032226562,0.02734375,0.033203125,0.28046337,-12.818246,-56.65251,14.811965,0.5739136,0.36218262,0.71435547,0.033203125,-0.021484375,-0.015625,14.503778,-12.884593,-128.65378,13.4402485,0.0,0.0,0.0,0.0,0.0,0.0,0.0,-12.434758,-128.69283,33.437122,0.0,0.0,0.0,0.0,0.0,0.0,0.0,0.5865522,-0.015230915,-0.8099222,-0.9348755,0.027526855,-0.3456421,0.11816406,-0.119140625,-0.11035156,1.6610682,12.14345,-0.31532717,-16.767899,-0.9720459,0.0115356445,-0.031677246,-0.0068359375,0.03125,0.016601562,1.3651571,9.173468,-57.24516,-16.31097,0.5686035,-0.20428467,0.8144531,-0.0234375,-9.765625E-4,0.001953125,11.805704,7.507815,-129.20358,-14.082711,0.0,0.0,0.0,0.0,0.0,0.0,0.0,16.789898,-129.1724,3.6367006,-0.98321533,-0.096069336,-0.028442383,-0.09472656,0.11425781,-0.018554688,0.0,1.0741509,44.99274,-0.06819786,
1.03515623457497,53,-0.8545532,-0.058532715,0.5187988,-0.017578125,0.024414062,0.0029296875,0.0,0.0,0.0,0.0,0.0,0.0,0.0,0.0,0.0,0.0,0.0,-0.58647174,0.014954577,0.80996734,-0.94940186,0.09429932,-0.2633667,-0.09765625,0.029296875,0.029296875,2.111091,-12.141783,0.3096061,16.768835,-0.9526367,0.10247803,0.11328125,-0.032226562,0.045898438,0.033203125,0.27906454,-12.87862,-56.657433,14.840319,0.59454346,0.39813232,0.6970825,-0.005859375,-0.001953125,0.00390625,14.469252,-12.966166,-128.66165,13.457997,0.0,0.0,0.0,0.0,0.0,0.0,0.0,-12.486745,-128.7013,33.455036,0.0,0.0,0.0,0.0,0.0,0.0,0.0,0.58647174,-0.014954577,-0.80996734,-0.92578125,0.022644043,-0.3656006,0.11816406,-0.10058594,-0.13085938,1.7023787,12.141783,-0.3096061,-16.768835,-0.95648193,-0.010314941,-0.026855469,-0.0078125,0.01171875,0.036132812,1.3970377,9.148595,-57.23406,-16.335506,0.59161377,-0.22393799,0.81140137,-0.00390625,0.018554688,0.040039062,11.74197,7.4864078,-129.19583,-14.111114,0.0,0.0,0.0,0.0,0.0,0.0,0.0,16.777792,-129.17014,3.6022406,-0.99053955,-0.13562012,-0.05419922,-0.19042969,0.018554688,-0.01953125,0.0,1.0557228,44.99251,-0.06628959,
1.0546874842839318,54,-0.857605,-0.050598145,0.5228882,-0.017578125,-0.0126953125,0.021484375,0.0,0.0,0.0,0.0,0.0,0.0,0.0,0.0,0.0,0.0,0.0,-0.5871567,0.014875774,0.8094925,-0.95892334,0.05493164,-0.22802734,-0.060546875,0.1015625,0.029296875,2.119141,-12.155962,0.30797467,16.759005,-0.9454956,0.10614014,0.11431885,-0.032226562,0.02734375,0.033203125,0.3499859,-12.943764,-56.660263,14.797994,0.6107788,0.39855957,0.73254395,0.033203125,-0.001953125,0.00390625,14.332307,-13.029167,-128.66637,13.433062,0.0,0.0,0.0,0.0,0.0,0.0,0.0,-12.49489,-128.70627,33.429447,0.0,0.0,0.0,0.0,0.0,0.0,0.0,0.5871567,-0.014875774,-0.8094925,-0.9359131,0.03338623,-0.33459473,0.1328125,-0.13378906,-0.10644531,1.7009988,12.155962,-0.30797467,-16.759005,-0.94750977,-0.013549805,-0.020996094,-0.044921875,-0.0078125,0.018554688,1.4372216,9.152981,-57.239532,-16.357494,0.5751953,-0.21569824,0.7874756,-0.00390625,0.037109375,0.001953125,11.674452,7.5045004,-129.20338,-14.117577,0.0,0.0,0.0,0.0,0.0,0.0,0.0,16.784866,-129.17787,3.6017857,-0.9458618,-0.14086914,-0.06237793,-0.055664062,0.076171875,0.0,0.0,1.0608983,44.993137,-0.05731286,
1.0742187339928935,55,-0.8425293,-0.06542969,0.5313721,-0.0546875,0.005859375,0.041015625,0.0,0.0,0.0,0.0,0.0,0.0,0.0,0.0,0.0,0.0,0.0,-0.58575237,0.014806639,0.8105996,-0.95770264,0.07366943,-0.24072266,0.015625,0.009765625,0.0107421875,2.1389053,-12.12689,0.30654332,16.781927,-0.96759033,0.10467529,0.12908936,-0.013671875,0.0087890625,0.013671875,0.35936466,-12.8924055,-56.663315,14.805363,0.5773926,0.38952637,0.7147217,0.013671875,-0.0029296875,-0.0146484375,14.4673395,-12.960088,-128.66547,13.447449,0.0,0.0,0.0,0.0,0.0,0.0,0.0,-12.463064,-128.69876,33.44298,0.0,0.0,0.0,0.0,0.0,0.0,0.0,0.58575237,-0.014806639,-0.8105996,-0.9348755,0.018676758,-0.35369873,0.07910156,-0.13867188,-0.12988281,1.6435392,12.12689,-0.30654332,-16.781927,-0.9682617,-0.0022583008,-0.025756836,-0.0078125,-0.0078125,0.017578125,1.3921264,9.1863,-57.23421,-16.37751,0.5935669,-0.21990967,0.8093872,0.013671875,9.765625E-4,-0.016601562,11.547257,7.5552645,-129.19656,-14.143431,0.0,0.0,0.0,0.0,0.0,0.0,0.0,16.86663,-129.17496,3.561489,-0.9711304,-0.11566162,-0.03186035,-0.017578125,0.01953125,0.018554688,0.0,1.0586185,44.99644,-0.05694273,
1.0937499837018552,56,-0.8105469,-0.0625,0.541626,0.020507812,-0.0126953125,0.001953125,0.0,0.0,0.0,0.0,0.0,0.0,0.0,0.0,0.0,0.0,0.0,-0.5833627,0.01488458,0.8122499,-0.95043945,0.0892334,-0.23577881,-0.022460938,-0.0078125,0.029296875,2.1345088,-12.077415,0.30815694,16.816092,-0.9659424,0.12841797,0.1272583,-0.0703125,0.046875,0.032226562,0.3351346,-12.829544,-56.662872,14.8443775,0.59729004,0.3734131,0.7224121,0.013671875,0.016601562,-0.0146484375,14.591323,-12.912837,-128.66696,13.480018,0.0,0.0,0.0,0.0,0.0,0.0,0.0,-12.43697,-128.70473,33.477066,0.0,0.0,0.0,0.0,0.0,0.0,0.0,0.5833627,-0.01488458,-0.8122499,-0.9277954,0.015686035,-0.34985352,0.08105469,-0.12207031,-0.13183594,1.5873294,12.077415,-0.30815694,-16.816092,-0.95544434,-0.0134887695,-0.007019043,-0.026367188,-0.02734375,0.018554688,1.3661603,9.162018,-57.239433,-16.43151,0.58392334,-0.21051025,0.83532715,0.013671875,0.0,0.021484375,11.772943,7.52314,-129.2028,-14.221195,0.0,0.0,0.0,0.0,0.0,0.0,0.0,16.769882,-129.18457,3.5166893,-0.9701538,-0.113708496,-0.032836914,-0.037109375,0.057617188,0.018554688,0.0,1.0823741,44.993336,-0.04714085,
1.1132812334108169,57,-0.8245239,-0.068359375,0.53790283,0.01953125,0.005859375,0.020507812,0.0,0.0,0.0,0.0,0.0,0.0,0.0,0.0,0.0,0.0,0.0,-0.5827907,0.014786437,0.81272197,-0.90625,0.093322754,-0.23547363,0.052734375,0.009765625,0.029296875,2.1468513,-12.065573,0.30612504,16.825863,-0.9760742,0.12463379,0.13513184,-0.051757812,0.028320312,0.051757812,0.3499859,-12.831925,-56.6583,14.836996,0.61724854,0.36724854,0.71343994,0.013671875,-0.021484375,0.0029296875,14.598507,-12.937628,-128.66216,13.47644,0.0,0.0,0.0,0.0,0.0,0.0,0.0,-12.452022,-128.69786,33.47217,0.0,0.0,0.0,0.0,0.0,0.0,0.0,0.5827907,-0.014786437,-0.81272197,-0.92578125,0.009765625,-0.35791016,0.09375,-0.13476562,-0.14550781,1.5780559,12.065573,-0.30612504,-16.825863,-0.9688721,-0.031555176,-0.022827148,0.0107421875,-0.0078125,0.017578125,1.3829594,9.16288,-57.241444,-16.48765,0.5932617,-0.22149658,0.7883911,-0.00390625,0.0,0.021484375,11.798741,7.5405636,-129.20403,-14.2966385,0.0,0.0,0.0,0.0,0.0,0.0,0.0,16.77565,-129.18657,3.4467945,-0.97320557,-0.112976074,-0.010864258,-0.07519531,0.076171875,0.0,0.0,1.071919,44.995773,-0.04998347,
1.1328124831197786,58,-0.8463745,-0.08416748,0.52630615,-0.017578125,0.024414062,0.0029296875,0.0,0.0,0.0,0.0,0.0,0.0,0.0,0.0,0.0,0.0,0.0,-0.581771,0.014570259,0.8134414,-0.92529297,0.09460449,-0.21929932,-0.060546875,0.047851562,0.029296875,2.1542232,-12.044464,0.3016495,16.840761,-0.9760742,0.12463379,0.13513184,-0.051757812,0.028320312,0.051757812,0.36476895,-12.797611,-56.663334,14.825367,0.6213989,0.36889648,0.7449951,0.033203125,-0.0029296875,-0.0146484375,14.6325035,-12.903314,-128.66719,13.464811,0.0,0.0,0.0,0.0,0.0,0.0,0.0,-12.428755,-128.6954,33.46057,0.0,0.0,0.0,0.0,0.0,0.0,0.0,0.581771,-0.014570259,-0.8134414,-0.93078613,0.008728027,-0.34802246,0.13574219,-0.1171875,-0.109375,1.5349312,12.044464,-0.3016495,-16.840761,-0.9605713,-0.012084961,-0.038757324,-0.026367188,-0.0078125,0.017578125,1.4224404,9.157909,-57.236103,-16.563717,0.5727539,-0.22845459,0.8284912,-0.0048828125,0.0,0.001953125,11.942994,7.554464,-129.20064,-14.359638,0.0,0.0,0.0,0.0,0.0,0.0,0.0,16.764368,-129.18533,3.3962116,-0.9720459,-0.09899902,-0.039489746,-0.037109375,0.095703125,0.01953125,0.0,1.0893648,44.994835,-0.02683106,
1.1523437328287403,59,-0.8222656,-0.07733154,0.50897217,-0.017578125,0.024414062,0.021484375,0.0,0.0,0.0,0.0,0.0,0.0,0.0,0.0,0.0,0.0,0.0,-0.5817872,0.014814042,0.8133465,-0.9304199,0.08782959,-0.22424316,-0.07910156,-0.07910156,0.047851562,2.1626558,-12.0448,0.3066966,16.838795,-0.9760132,0.08874512,0.091308594,-0.032226562,0.02734375,0.033203125,0.34378096,-12.795388,-56.660072,14.841908,0.62561035,0.38458252,0.73236084,-0.005859375,-0.0029296875,-0.0146484375,14.5884495,-12.893185,-128.66306,13.471683,0.0,0.0,0.0,0.0,0.0,0.0,0.0,-12.395787,-128.69354,33.468163,0.0,0.0,0.0,0.0,0.0,0.0,0.0,0.5817872,-0.014814042,-0.8133465,-0.9338989,0.026550293,-0.3526001,0.09667969,-0.041015625,-0.10839844,1.550786,12.0448,-0.3066966,-16.838795,-0.9515381,-0.011352539,-0.029907227,-0.0078125,-0.026367188,-9.765625E-4,1.4601854,9.15546,-57.243347,-16.601599,0.5835571,-0.21099854,0.8063965,-0.0048828125,-0.01953125,0.040039062,11.999484,7.567427,-129.20767,-14.394765,0.0,0.0,0.0,0.0,0.0,0.0,0.0,16.748217,-129.19627,3.3752813,-0.9751587,-0.111572266,-0.045715332,-0.037109375,0.057617188,0.018554688,0.0,1.0710429,44.992363,-0.05335933,
1.171874982537702,60,-0.8562622,-0.09008789,0.51257324,0.020507812,-0.0126953125,0.001953125,0.0,0.0,0.0,0.0,0.0,0.0,0.0,0.0,0.0,0.0,0.0,-0.5839689,0.014906617,0.8118851,-0.95770264,0.07354736,-0.22491455,0.015625,0.0107421875,0.047851562,2.176818,-12.089967,0.30861324,16.808538,-0.9456787,0.10028076,0.109313965,-0.033203125,-0.009765625,0.07128906,0.34206915,-12.842802,-56.658607,14.803577,0.5911865,0.3717041,0.7085571,0.033203125,-0.021484375,-0.015625,14.799542,-12.933021,-128.66533,13.411723,0.0,0.0,0.0,0.0,0.0,0.0,0.0,-12.510336,-128.70247,33.410477,0.0,0.0,0.0,0.0,0.0,0.0,0.0,0.5839689,-0.014906617,-0.8118851,-0.9399414,0.029541016,-0.34851074,0.06640625,-0.12597656,-0.11621094,1.5169771,12.089967,-0.30861324,-16.808538,-0.95428467,-0.01373291,0.015808105,-0.026367188,-0.0078125,0.017578125,1.4411649,9.244723,-57.24435,-16.556711,0.57940674,-0.19885254,0.7953491,0.0146484375,0.038085938,0.021484375,11.874909,7.6862135,-129.2062,-14.335679,0.0,0.0,0.0,0.0,0.0,0.0,0.0,16.88594,-129.19946,3.4259615,-0.984375,-0.11468506,-0.016906738,-0.07519531,0.057617188,0.038085938,0.0,1.0635208,44.996376,-0.06119187,
1.1914062322466636,61,-0.8475342,-0.05065918,0.50878906,0.057617188,-0.03125,0.01953125,0.0,0.0,0.0,0.0,0.0,0.0,0.0,0.0,0.0,0.0,0.0,-0.5830362,0.014433296,0.81254286,-0.9567871,0.06561279,-0.21710205,-0.09765625,-0.0068359375,0.029296875,2.1426537,-12.070657,0.29881397,16.822155,-0.95147705,0.10650635,0.103393555,-0.09082031,0.0107421875,0.032226562,0.309643,-12.779137,-56.667004,14.833311,0.5906372,0.40112305,0.7020874,0.013671875,-0.0029296875,-0.0146484375,14.82164,-12.857226,-128.67087,13.444319,0.0,0.0,0.0,0.0,0.0,0.0,0.0,-12.438095,-128.70615,33.443073,0.0,0.0,0.0,0.0,0.0,0.0,0.0,0.5830362,-0.014433296,-0.81254286,-0.9267578,0.013671875,-0.34796143,0.09863281,-0.119140625,-0.12988281,1.4968482,12.070657,-0.29881397,-16.822155,-0.95458984,-0.017333984,-0.015991211,-0.0087890625,-0.0087890625,0.055664062,1.4517176,9.243423,-57.233395,-16.60327,0.5753174,-0.19177246,0.7883301,-0.00390625,0.018554688,0.040039062,11.8426695,7.6994333,-129.19574,-14.392945,0.0,0.0,0.0,0.0,0.0,0.0,0.0,16.903315,-129.19623,3.3662424,-0.98236084,-0.11657715,-0.026916504,-0.056640625,0.01953125,0.037109375,0.0,1.065452,44.995598,-0.034752205,
1.2109374819556253,62,-0.84539795,-0.07434082,0.5204468,0.020507812,-0.0126953125,0.001953125,0.0,0.0,0.0,0.0,0.0,0.0,0.0,0.0,0.0,0.0,0.0,-0.5850141,0.014449308,0.8110979,-0.9616089,0.08258057,-0.2366333,0.015625,0.06542969,0.06640625,2.138173,-12.111607,0.29914546,16.792242,-0.9515381,0.105529785,0.10333252,-0.032226562,0.045898438,0.033203125,0.31527904,-12.808627,-56.669582,14.8085575,0.6116333,0.38671875,0.741272,0.013671875,-0.0029296875,-0.033203125,14.742803,-12.876893,-128.67041,13.436235,0.0,0.0,0.0,0.0,0.0,0.0,0.0,-12.428363,-128.70702,33.432926,0.0,0.0,0.0,0.0,0.0,0.0,0.0,0.5850141,-0.014449308,-0.8110979,-0.9298706,0.024475098,-0.34173584,0.13574219,-0.1171875,-0.109375,1.4632645,12.111607,-0.29914546,-16.792242,-0.96295166,-0.03765869,-0.012939453,-0.044921875,-0.0078125,0.018554688,1.4753844,9.311633,-57.23589,-16.609863,0.5935669,-0.24786377,0.8125,-0.00390625,0.056640625,0.001953125,11.68916,7.805084,-129.19783,-14.401983,0.0,0.0,0.0,0.0,0.0,0.0,0.0,17.012539,-129.19429,3.3561516,-0.9824219,-0.1293335,-0.019226074,-0.017578125,0.01953125,0.018554688,0.0,1.0675548,44.994755,-0.031572446,
1.230468731664587,63,-0.821228,-0.06854248,0.4822998,0.01953125,0.005859375,0.001953125,0.0,0.0,0.0,0.0,0.0,0.0,0.0,0.0,0.0,0.0,0.0,-0.58571494,0.0144774,0.8105473,-0.946167,0.10992432,-0.25439453,-0.00390625,0.028320312,0.0107421875,2.13194,-12.126115,0.29972708,16.780842,-0.96698,0.12548828,0.1272583,-0.051757812,0.028320312,0.033203125,0.3669084,-12.871954,-56.66865,14.805589,0.6026001,0.3928833,0.72753906,0.033203125,0.016601562,-0.0146484375,14.703754,-12.938782,-128.67368,13.478857,0.0,0.0,0.0,0.0,0.0,0.0,0.0,-12.485393,-128.7146,33.475723,0.0,0.0,0.0,0.0,0.0,0.0,0.0,0.58571494,-0.0144774,-0.8105473,-0.9248047,0.024536133,-0.34875488,0.11816406,-0.119140625,-0.11035156,1.4654028,12.126115,-0.29972708,-16.780842,-0.95648193,-0.014404297,-0.010986328,-0.0078125,-0.0078125,0.017578125,1.4694036,9.358915,-57.24299,-16.600456,0.55389404,-0.2019043,0.8364868,-0.00390625,0.037109375,0.040039062,11.71852,7.8654957,-129.20761,-14.372038,0.0,0.0,0.0,0.0,0.0,0.0,0.0,17.059422,-129.20543,3.3929577,-0.9761963,-0.11450195,-0.043762207,-0.017578125,0.0390625,0.037109375,0.0,1.0377496,44.993813,-0.0537515,
1.2499999813735487,64,-0.8383789,-0.07434082,0.52227783,0.020507812,-0.0126953125,0.020507812,0.0,0.0,0.0,0.0,0.0,0.0,0.0,0.0,0.0,0.0,0.0,-0.58739865,0.014115494,0.80936843,-0.94799805,0.12054443,-0.2078247,0.015625,0.046875,0.047851562,2.0710318,-12.160973,0.2922345,16.756435,-0.96069336,0.13433838,0.11541748,-0.033203125,-0.009765625,0.033203125,0.38664302,-12.955618,-56.673748,14.823025,0.6033325,0.37731934,0.7076416,-0.005859375,-0.021484375,0.0029296875,14.645328,-13.016043,-128.67867,13.526206,0.0,0.0,0.0,0.0,0.0,0.0,0.0,-12.538316,-128.714,33.52308,0.0,0.0,0.0,0.0,0.0,0.0,0.0,0.58739865,-0.014115494,-0.80936843,-0.9298706,0.036376953,-0.34350586,0.15039062,-0.11328125,-0.125,1.4699361,12.160973,-0.2922345,-16.756435,-0.9654541,-0.012084961,-0.023803711,-0.0068359375,0.01171875,0.017578125,1.4319017,9.430799,-57.236675,-16.583931,0.5975952,-0.20983887,0.80529785,-0.00390625,0.018554688,0.001953125,11.866974,7.929756,-129.1993,-14.374412,0.0,0.0,0.0,0.0,0.0,0.0,0.0,17.114859,-129.19897,3.3944864,-0.972229,-0.12548828,-0.022094727,-0.056640625,0.0390625,-9.765625E-4,0.0,1.0042477,44.995815,-0.05590099,
1.2695312310825104,65,-0.8568115,-0.046569824,0.5507202,0.020507812,-0.03125,0.001953125,0.0,0.0,0.0,0.0,0.0,0.0,0.0,0.0,0.0,0.0,0.0,-0.5865468,0.013784264,0.81000113,-0.95111084,0.112854004,-0.22467041,-0.09765625,0.030273438,0.047851562,1.9996843,-12.143336,0.28537697,16.769533,-0.9753418,0.11315918,0.109313965,-0.0703125,0.046875,0.051757812,0.36797345,-12.930346,-56.686153,14.886681,0.6194458,0.37591553,0.7283325,0.013671875,0.016601562,-0.0146484375,14.845372,-13.000679,-128.69528,13.641555,0.0,0.0,0.0,0.0,0.0,0.0,0.0,-12.582493,-128.73355,33.64068,0.0,0.0,0.0,0.0,0.0,0.0,0.0,0.5865468,-0.013784264,-0.81000113,-0.93792725,0.03845215,-0.35827637,0.05078125,-0.111328125,-0.12011719,1.4461803,12.143336,-0.28537697,-16.769533,-0.94641113,-0.012756348,-0.003112793,-0.044921875,0.01171875,0.017578125,1.4242278,9.4377985,-57.22773,-16.564632,0.5845947,-0.20703125,0.8083496,0.0146484375,0.038085938,0.001953125,11.7064085,7.9563913,-129.1915,-14.316149,0.0,0.0,0.0,0.0,0.0,0.0,0.0,17.142979,-129.19896,3.4530087,-0.96191406,-0.10681152,-0.047607422,-0.07519531,0.01953125,-9.765625E-4,0.0,1.0078307,44.996098,-0.035923734,
1.2890624807914721,66,-0.84143066,-0.070373535,0.524353,0.020507812,-0.049804688,0.001953125,0.0,0.0,0.0,0.0,0.0,0.0,0.0,0.0,0.0,0.0,0.0,-0.58830154,0.013977692,0.8087162,-0.94091797,0.050598145,-0.22045898,-0.1171875,0.030273438,0.047851562,2.004279,-12.179666,0.28938162,16.742931,-0.9581299,0.12200928,0.14013672,-0.032226562,0.02734375,0.033203125,0.4159008,-12.990938,-56.682278,14.873457,0.6166992,0.39569092,0.7088623,0.013671875,0.036132812,0.00390625,14.811023,-13.042071,-128.69164,13.680908,0.0,0.0,0.0,0.0,0.0,0.0,0.0,-12.61059,-128.72972,33.678726,0.0,0.0,0.0,0.0,0.0,0.0,0.0,0.58830154,-0.013977692,-0.8087162,-0.9298706,0.024536133,-0.34570312,0.08300781,-0.12402344,-0.11425781,1.4636657,12.179666,-0.28938162,-16.742931,-0.951355,-0.006713867,-0.010986328,-0.026367188,-0.0078125,0.037109375,1.4396704,9.48055,-57.230747,-16.530653,0.5874634,-0.19378662,0.7952881,-0.00390625,0.018554688,0.021484375,11.630609,8.021253,-129.19553,-14.259901,0.0,0.0,0.0,0.0,0.0,0.0,0.0,17.228912,-129.2032,3.4978085,-0.97924805,-0.11621094,-0.060791016,0.040039062,0.07714844,0.018554688,0.0,0.9871334,44.996235,-0.059615165,
1.3085937305004338,67,-0.8514404,-0.074279785,0.522522,0.01953125,0.005859375,0.001953125,0.0,0.0,0.0,0.0,0.0,0.0,0.0,0.0,0.0,0.0,0.0,-0.58894277,0.01434354,0.8082879,-0.9248047,0.05609131,-0.2078247,-0.041015625,-0.0078125,0.0107421875,2.069992,-12.192941,0.29695573,16.734066,-0.96765137,0.10443115,0.14398193,-0.032226562,0.02734375,0.033203125,0.4121198,-12.933781,-56.67225,14.841511,0.6185913,0.38476562,0.7215576,0.033203125,-0.0029296875,-0.0146484375,14.752946,-12.965603,-128.68013,13.670346,0.0,0.0,0.0,0.0,0.0,0.0,0.0,-12.5167,-128.71393,33.66798,0.0,0.0,0.0,0.0,0.0,0.0,0.0,0.58894277,-0.01434354,-0.8082879,-0.93585205,0.018615723,-0.3388672,0.07910156,-0.13867188,-0.12988281,1.4335407,12.192941,-0.29695573,-16.734066,-0.95581055,-0.026977539,-0.023925781,0.030273438,0.01171875,-0.001953125,1.4403499,9.524515,-57.24594,-16.54834,0.5725708,-0.2421875,0.8175659,-0.00390625,0.018554688,0.021484375,11.45578,8.080812,-129.20914,-14.283859,0.0,0.0,0.0,0.0,0.0,0.0,0.0,17.322609,-129.21793,3.4561443,-0.98950195,-0.13195801,-0.033203125,0.020507812,0.01953125,0.037109375,0.0,0.9830993,44.997932,-0.08219895,
1.3281249802093955,68,-0.8153076,-0.074401855,0.513855,0.01953125,0.005859375,0.0390625,0.0,0.0,0.0,0.0,0.0,0.0,0.0,0.0,0.0,0.0,0.0,-0.5906614,0.014461718,0.80702513,-0.9313965,0.08679199,-0.21929932,-0.022460938,-0.0068359375,0.047851562,2.0820591,-12.228524,0.29940242,16.707922,-0.94921875,0.11529541,0.109375,-0.0126953125,0.045898438,0.051757812,0.38206118,-12.905025,-56.670784,14.827381,0.60321045,0.37145996,0.7085571,0.033203125,-0.021484375,-0.015625,14.884894,-12.922253,-128.67741,13.668076,0.0,0.0,0.0,0.0,0.0,0.0,0.0,-12.536073,-128.71529,33.666412,0.0,0.0,0.0,0.0,0.0,0.0,0.0,0.5906614,-0.014461718,-0.80702513,-0.94091797,0.027526855,-0.33862305,0.15722656,-0.10058594,-0.091796875,1.3982978,12.228524,-0.29940242,-16.707922,-0.9884033,-0.015625,-0.01373291,-0.026367188,-0.0078125,0.017578125,1.412639,9.597197,-57.24349,-16.52674,0.5569458,-0.21392822,0.8444824,0.015625,0.056640625,0.040039062,11.718857,8.15481,-129.20874,-14.270905,0.0,0.0,0.0,0.0,0.0,0.0,0.0,17.31211,-129.21002,3.5107422,-0.984375,-0.1270752,-0.042053223,0.020507812,0.020507812,-0.020507812,0.0,0.9811258,44.997757,-0.088264585,
1.3476562299183572,69,-0.8391113,-0.08428955,0.4864502,0.01953125,0.024414062,0.001953125,0.0,0.0,0.0,0.0,0.0,0.0,0.0,0.0,0.0,0.0,0.0,-0.5915179,0.014255204,0.80637383,-0.93634033,0.09484863,-0.22802734,0.015625,0.046875,0.029296875,2.0658278,-12.246254,0.29512691,16.694437,-0.94470215,0.10076904,0.14007568,-0.01171875,0.064453125,0.033203125,0.3669084,-12.904459,-56.679527,14.841379,0.59710693,0.36773682,0.70062256,0.013671875,-0.0029296875,-0.0146484375,14.59158,-12.884251,-128.68689,13.687147,0.0,0.0,0.0,0.0,0.0,0.0,0.0,-12.406695,-128.72183,33.68326,0.0,0.0,0.0,0.0,0.0,0.0,0.0,0.5915179,-0.014255204,-0.80637383,-0.93084717,0.026489258,-0.34075928,0.1328125,-0.115234375,-0.12695312,1.4173411,12.246254,-0.29512691,-16.694437,-0.97424316,-0.0051879883,-0.01184082,-0.026367188,0.01171875,0.036132812,1.4202377,9.642445,-57.244633,-16.508854,0.56274414,-0.21264648,0.8294678,-0.00390625,0.018554688,0.001953125,11.694132,8.223492,-129.21017,-14.221991,0.0,0.0,0.0,0.0,0.0,0.0,0.0,17.353662,-129.20679,3.5750694,-0.96398926,-0.10205078,-0.03656006,-0.017578125,9.765625E-4,0.017578125,0.0,0.94368607,44.99753,-0.103229806,
1.367187479627319,70,-0.85235596,-0.09399414,0.53326416,0.076171875,-0.0126953125,9.765625E-4,0.0,0.0,0.0,0.0,0.0,0.0,0.0,0.0,0.0,0.0,0.0,-0.5905473,0.014741171,0.8071284,-0.9366455,0.074279785,-0.24993896,0.015625,0.046875,0.029296875,2.11072,-12.226161,0.30518794,16.71006,-0.9641113,0.11968994,0.111328125,-0.0126953125,0.02734375,0.033203125,0.40299776,-12.88242,-56.667187,14.844704,0.5774536,0.39135742,0.7294922,-0.005859375,-0.0029296875,-0.0146484375,14.777869,-12.833639,-128.67697,13.710656,0.0,0.0,0.0,0.0,0.0,0.0,0.0,-12.433593,-128.70866,33.708836,0.0,0.0,0.0,0.0,0.0,0.0,0.0,0.5905473,-0.014741171,-0.8071284,-0.9338989,0.030456543,-0.3435669,0.13769531,-0.10058594,-0.111328125,1.3876209,12.226161,-0.30518794,-16.71006,-0.95843506,-0.014404297,-0.0079956055,0.01171875,0.01171875,0.017578125,1.3874799,9.646091,-57.252773,-16.54228,0.5977173,-0.22198486,0.8183594,-0.00390625,0.0,0.021484375,11.509169,8.207145,-129.21596,-14.286306,0.0,0.0,0.0,0.0,0.0,0.0,0.0,17.398907,-129.21324,3.4786606,-0.98547363,-0.13482666,-0.04425049,-0.017578125,9.765625E-4,0.037109375,0.0,0.9474832,44.999283,-0.12861462,
1.3867187293362806,71,-0.8867798,-0.04852295,0.543396,0.01953125,-0.0126953125,-0.016601562,0.0,0.0,0.0,0.0,0.0,0.0,0.0,0.0,0.0,0.0,0.0,-0.5923116,0.013994171,0.80578864,-0.9404297,0.087890625,-0.20532227,-0.00390625,0.06542969,0.029296875,2.1317563,-12.262688,0.2897227,16.682323,-0.9552002,0.11639404,0.113342285,-0.0126953125,0.045898438,0.051757812,0.4256662,-12.890145,-56.68365,14.791512,0.60180664,0.40875244,0.69921875,-0.005859375,0.016601562,0.022460938,14.736629,-12.820265,-128.69037,13.668105,0.0,0.0,0.0,0.0,0.0,0.0,0.0,-12.423213,-128.72244,33.66703,0.0,0.0,0.0,0.0,0.0,0.0,0.0,0.5923116,-0.013994171,-0.80578864,-0.9338989,0.034423828,-0.34350586,0.11816406,-0.119140625,-0.11035156,1.4589787,12.262688,-0.2897227,-16.682323,-0.9561157,-0.0048828125,0.012878418,-0.026367188,-0.0078125,0.037109375,1.396197,9.70273,-57.23732,-16.517042,0.5934448,-0.2006836,0.7943115,-0.00390625,0.018554688,0.021484375,11.30648,8.284511,-129.20145,-14.244038,0.0,0.0,0.0,0.0,0.0,0.0,0.0,17.4985,-129.20227,3.5102654,-1.0006714,-0.12701416,-0.033081055,-0.017578125,9.765625E-4,0.017578125,0.0,0.87577415,44.99856,-0.13773635,
1.4062499790452423,72,-0.8578491,-0.047546387,0.5616455,0.01953125,0.005859375,0.020507812,0.0,0.0,0.0,0.0,0.0,0.0,0.0,0.0,0.0,0.0,0.0,-0.5937289,0.013755696,0.8047649,-0.9371948,0.10772705,-0.24072266,-0.060546875,-0.0068359375,0.06640625,2.1003091,-12.292028,0.28478557,16.661129,-0.98272705,0.10028076,0.12506104,-0.032226562,0.02734375,0.013671875,0.4256662,-12.939547,-56.68668,14.788879,0.5894165,0.39141846,0.69207764,0.013671875,-0.001953125,0.00390625,14.96973,-12.865652,-128.69373,13.672061,0.0,0.0,0.0,0.0,0.0,0.0,0.0,-12.557344,-128.72296,33.671738,0.0,0.0,0.0,0.0,0.0,0.0,0.0,0.5937289,-0.013755696,-0.8047649,-0.9338989,0.02746582,-0.3357544,0.08105469,-0.12207031,-0.13183594,1.4592469,12.292028,-0.28478557,-16.661129,-0.9640503,0.0032958984,-0.006958008,-0.026367188,0.01171875,0.036132812,1.3822516,9.750731,-57.236153,-16.516787,0.55682373,-0.20977783,0.83551025,-0.00390625,0.018554688,0.001953125,11.518493,8.330882,-129.20143,-14.270815,0.0,0.0,0.0,0.0,0.0,0.0,0.0,17.490002,-129.19475,3.5112362,-0.96710205,-0.11663818,-0.03387451,-0.017578125,-0.018554688,0.017578125,0.0,0.8609593,44.99943,-0.13397968,
1.425781228754204,73,-0.83862305,-0.070251465,0.55407715,0.020507812,-0.0126953125,0.020507812,0.0,0.0,0.0,0.0,0.0,0.0,0.0,0.0,0.0,0.0,0.0,-0.5946964,0.013131844,0.80402744,-0.9425659,0.07922363,-0.22711182,-0.00390625,0.029296875,0.06640625,2.0405679,-12.312058,0.27186987,16.64586,-0.9570923,0.08685303,0.109191895,-0.0703125,0.046875,0.032226562,0.4121198,-12.990217,-56.701393,14.796458,0.6052246,0.37145996,0.70562744,0.013671875,-0.001953125,0.00390625,15.095343,-12.950118,-128.71051,13.683455,0.0,0.0,0.0,0.0,0.0,0.0,0.0,-12.658285,-128.74106,33.682884,0.0,0.0,0.0,0.0,0.0,0.0,0.0,0.5946964,-0.013131844,-0.80402744,-0.92681885,0.03137207,-0.3357544,0.10058594,-0.10253906,-0.13183594,1.4904283,12.312058,-0.27186987,-16.64586,-0.9713745,-0.014099121,-0.0068969727,-0.0068359375,0.01171875,-9.765625E-4,1.4346323,9.765867,-57.22039,-16.531628,0.5697632,-0.19244385,0.82037354,-0.00390625,0.018554688,0.021484375,11.381987,8.3714905,-129.18486,-14.263134,0.0,0.0,0.0,0.0,0.0,0.0,0.0,17.539764,-129.18082,3.514494,-0.9814453,-0.14099121,-0.018493652,0.020507812,-0.037109375,0.036132812,0.0,0.8404238,44.99868,-0.113327734,
1.4453124784631657,74,-0.81347656,-0.0546875,0.51794434,0.020507812,-0.03125,0.020507812,0.0,0.0,0.0,0.0,0.0,0.0,0.0,0.0,0.0,0.0,0.0,-0.5938933,0.013399244,0.80459195,-0.9265747,0.07281494,-0.20172119,-0.00390625,0.028320312,0.029296875,2.054523,-12.295431,0.27740592,16.657545,-0.9570923,0.12219238,0.1272583,-0.032226562,0.045898438,0.033203125,0.41448697,-12.920506,-56.695946,14.806082,0.5993042,0.38043213,0.6958618,0.033203125,-0.021484375,0.0029296875,15.176722,-12.857115,-128.70386,13.721074,0.0,0.0,0.0,0.0,0.0,0.0,0.0,-12.60461,-128.73589,33.721466,0.0,0.0,0.0,0.0,0.0,0.0,0.0,0.5938933,-0.013399244,-0.80459195,-0.9227905,0.02746582,-0.35266113,0.10058594,-0.12109375,-0.11230469,1.4640667,12.295431,-0.27740592,-16.657545,-0.9494629,-0.01159668,-0.015991211,-0.025390625,0.03125,0.017578125,1.4558904,9.738753,-57.228165,-16.562681,0.5895386,-0.23291016,0.8084717,0.0146484375,0.018554688,0.021484375,11.3787155,8.372464,-129.19574,-14.319821,0.0,0.0,0.0,0.0,0.0,0.0,0.0,17.544888,-129.19894,3.4553633,-0.9661865,-0.12750244,-0.024169922,0.0390625,-0.09375,0.016601562,0.0,0.8693626,44.997253,-0.10765788,
1.4648437281721274,75,-0.8231201,-0.101989746,0.5126953,0.01953125,0.024414062,0.020507812,0.0,0.0,0.0,0.0,0.0,0.0,0.0,0.0,0.0,0.0,0.0,-0.592363,0.013662169,0.80575067,-0.92144775,0.08270264,-0.22442627,0.015625,0.046875,0.029296875,2.082623,-12.26375,0.28284928,16.681538,-0.96569824,0.10095215,0.111206055,-0.03125,0.045898438,0.013671875,0.43069306,-12.902236,-56.689884,14.8128195,0.614563,0.38891602,0.70288086,0.013671875,0.016601562,-0.0146484375,15.290939,-12.843386,-128.69574,13.724264,0.0,0.0,0.0,0.0,0.0,0.0,0.0,-12.640128,-128.73097,33.726074,0.0,0.0,0.0,0.0,0.0,0.0,0.0,0.592363,-0.013662169,-0.80575067,-0.93188477,0.02947998,-0.34265137,0.1328125,-0.115234375,-0.12695312,1.4459096,12.26375,-0.28284928,-16.681538,-0.973938,-0.037353516,-0.01977539,-0.0068359375,0.01171875,0.017578125,1.4833213,9.714399,-57.230755,-16.598944,0.5844116,-0.20385742,0.7973633,-0.022460938,0.037109375,0.001953125,11.275415,8.371425,-129.19609,-14.33838,0.0,0.0,0.0,0.0,0.0,0.0,0.0,17.550789,-129.20024,3.4344568,-0.94555664,-0.08532715,-0.064086914,0.0390625,0.001953125,-0.020507812,0.0,0.87888455,44.99835,-0.1168555,
1.484374977881089,76,-0.85046387,-0.05657959,0.50683594,0.01953125,0.005859375,0.020507812,0.0,0.0,0.0,0.0,0.0,0.0,0.0,0.0,0.0,0.0,0.0,-0.5935625,0.013485121,0.8049036,-0.9345703,0.080200195,-0.25390625,-0.09765625,0.029296875,0.029296875,2.110998,-12.288583,0.2791838,16.664,-0.9686279,0.10211182,0.105285645,-0.051757812,0.028320312,0.033203125,0.47353953,-12.918506,-56.69249,14.749649,0.6129761,0.35772705,0.68865967,-0.005859375,-0.021484375,-0.015625,15.208584,-12.878873,-128.69919,13.676817,0.0,0.0,0.0,0.0,0.0,0.0,0.0,-12.634977,-128.73535,33.677906,0.0,0.0,0.0,0.0,0.0,0.0,0.0,0.5935625,-0.013485121,-0.8049036,-0.92681885,0.029418945,-0.3427124,0.1171875,-0.08105469,-0.15039062,1.431765,12.288583,-0.2791838,-16.664,-0.95648193,-0.016357422,-0.010009766,-0.026367188,0.01171875,0.036132812,1.498808,9.743121,-57.23177,-16.589539,0.5844116,-0.20385742,0.7973633,-0.022460938,0.037109375,0.001953125,11.179278,8.4158,-129.19875,-14.321616,0.0,0.0,0.0,0.0,0.0,0.0,0.0,17.595165,-129.2029,3.4512205,-0.98431396,-0.111694336,-0.025756836,-0.07519531,0.038085938,0.018554688,0.0,0.8862834,44.999443,-0.100332946,
1.5039062275900508,77,-0.86761475,-0.056518555,0.5220947,0.020507812,-0.0126953125,0.020507812,0.0,0.0,0.0,0.0,0.0,0.0,0.0,0.0,0.0,0.0,0.0,-0.594784,0.013146859,0.8039265,-0.9503784,0.099243164,-0.2662964,-0.022460938,0.0107421875,0.029296875,2.1072862,-12.313872,0.2721807,16.643772,-0.94647217,0.107177734,0.11328125,-0.032226562,0.045898438,0.051757812,0.4857778,-12.963956,-56.697807,14.721146,0.61260986,0.395813,0.69903564,-0.005859375,-0.021484375,0.0029296875,15.1455,-12.924516,-128.70685,13.642356,0.0,0.0,0.0,0.0,0.0,0.0,0.0,-12.662453,-128.74603,33.64389,0.0,0.0,0.0,0.0,0.0,0.0,0.0,0.594784,-0.013146859,-0.8039265,-0.9348755,0.022583008,-0.34869385,0.09863281,-0.119140625,-0.12988281,1.450369,12.313872,-0.2721807,-16.643772,-0.9572754,-0.008666992,0.0049438477,-0.0078125,0.01171875,0.036132812,1.463532,9.78517,-57.22397,-16.57012,0.5595703,-0.23144531,0.8206177,-0.00390625,0.018554688,0.021484375,11.407707,8.463223,-129.19643,-14.350227,0.0,0.0,0.0,0.0,0.0,0.0,0.0,17.572714,-129.19498,3.458065,-0.9834595,-0.13787842,-0.035339355,-0.07519531,-0.056640625,0.036132812,0.0,0.85830677,44.99707,-0.10083389,
1.5234374772990125,78,-0.84332275,-0.09008789,0.53411865,0.020507812,-0.0126953125,0.001953125,0.0,0.0,0.0,0.0,0.0,0.0,0.0,0.0,0.0,0.0,0.0,-0.59482896,0.01346739,0.8038935,-0.9633789,0.096191406,-0.20483398,-0.060546875,0.029296875,0.0107421875,2.1159985,-12.314802,0.2788168,16.643087,-0.951355,0.11218262,0.12023926,-0.0126953125,0.02734375,0.013671875,0.4639383,-12.964786,-56.691273,14.73983,0.61328125,0.37225342,0.7105713,0.013671875,-0.001953125,0.00390625,15.116442,-12.917378,-128.69943,13.651344,0.0,0.0,0.0,0.0,0.0,0.0,0.0,-12.638266,-128.74536,33.65144,0.0,0.0,0.0,0.0,0.0,0.0,0.0,0.59482896,-0.01346739,-0.8038935,-0.9369507,0.031433105,-0.34155273,0.115234375,-0.1171875,-0.12792969,1.4592469,12.314802,-0.2788168,-16.643087,-0.9503784,-0.014709473,0.005859375,-0.044921875,0.01171875,0.017578125,1.5118083,9.790504,-57.228436,-16.592356,0.57806396,-0.20672607,0.84332275,-0.00390625,0.055664062,0.020507812,11.349408,8.497922,-129.19672,-14.340356,0.0,0.0,0.0,0.0,0.0,0.0,0.0,17.5741,-129.1919,3.4844885,-0.9671631,-0.12652588,-0.020141602,0.0390625,-0.017578125,0.055664062,0.0,0.8504075,44.997364,-0.12458137,
1.5429687270079742,79,-0.8414917,-0.058532715,0.5165405,0.01953125,0.04296875,-0.016601562,0.0,0.0,0.0,0.0,0.0,0.0,0.0,0.0,0.0,0.0,0.0,-0.59440887,0.013554131,0.80419207,-0.9382324,0.103759766,-0.22692871,-0.022460938,0.046875,0.0107421875,2.1120176,-12.3061075,0.28061253,16.649267,-0.96917725,0.11804199,0.09942627,-0.032226562,0.045898438,0.033203125,0.44057474,-12.962794,-56.6883,14.759986,0.60357666,0.39605713,0.6911621,-0.005859375,0.016601562,0.022460938,15.216601,-12.929942,-128.6977,13.65961,0.0,0.0,0.0,0.0,0.0,0.0,0.0,-12.669934,-128.74251,33.66113,0.0,0.0,0.0,0.0,0.0,0.0,0.0,0.59440887,-0.013554131,-0.80419207,-0.93084717,0.028503418,-0.3515625,0.095703125,-0.13671875,-0.12792969,1.464334,12.3061075,-0.28061253,-16.649267,-0.9655762,-0.020019531,-0.014892578,-0.0068359375,0.01171875,0.017578125,1.5183954,9.786686,-57.236443,-16.602177,0.5913086,-0.2185669,0.7904053,-0.022460938,0.017578125,0.020507812,11.412783,8.513433,-129.2034,-14.355284,0.0,0.0,0.0,0.0,0.0,0.0,0.0,17.571606,-129.19778,3.4778347,-0.98431396,-0.109680176,-0.030700684,0.0390625,-0.037109375,0.036132812,0.0,0.8433552,44.997078,-0.13504045,
1.5624999767169359,80,-0.8475952,-0.056518555,0.5345459,0.057617188,-0.0126953125,9.765625E-4,0.0,0.0,0.0,0.0,0.0,0.0,0.0,0.0,0.0,0.0,0.0,-0.5949725,0.013899025,0.8038833,-0.95751953,0.08642578,-0.23168945,-0.060546875,0.047851562,0.029296875,2.1351504,-12.317775,0.2877529,16.642876,-0.9690552,0.12451172,0.12823486,-0.0703125,0.046875,0.032226562,0.46897215,-12.97206,-56.683285,14.742785,0.60876465,0.3996582,0.72076416,0.013671875,0.016601562,0.00390625,15.236704,-12.932978,-128.69487,13.666352,0.0,0.0,0.0,0.0,0.0,0.0,0.0,-12.680641,-128.74193,33.666706,0.0,0.0,0.0,0.0,0.0,0.0,0.0,0.5949725,-0.013899025,-0.8038833,-0.92785645,0.030456543,-0.34466553,0.12011719,-0.10253906,-0.11328125,1.4365407,12.317775,-0.2877529,-16.642876,-0.97869873,-0.025512695,-0.022705078,-0.0068359375,0.01171875,0.017578125,1.529695,9.8047695,-57.242584,-16.588406,0.56951904,-0.24926758,0.81866455,-0.00390625,0.0,0.021484375,11.404599,8.540176,-129.20692,-14.313141,0.0,0.0,0.0,0.0,0.0,0.0,0.0,17.581264,-129.19481,3.529667,-0.97216797,-0.111694336,-0.03479004,-0.056640625,-0.018554688,0.017578125,0.0,0.86046064,45.000862,-0.14121172,
1.5820312264258976,81,-0.83343506,-0.05859375,0.510437,0.01953125,0.005859375,0.020507812,0.0,0.0,0.0,0.0,0.0,0.0,0.0,0.0,0.0,0.0,0.0,-0.5940977,0.014000606,0.8045045,-0.95336914,0.09716797,-0.23168945,-0.13574219,0.030273438,0.029296875,2.0874102,-12.299664,0.2898559,16.655737,-0.965271,0.11553955,0.12719727,-0.032226562,0.045898438,0.051757812,0.41730985,-12.950879,-56.68675,14.81001,0.605896,0.348938,0.70928955,0.013671875,-0.0029296875,-0.0146484375,15.033455,-12.88767,-128.69699,13.719044,0.0,0.0,0.0,0.0,0.0,0.0,0.0,-12.590771,-128.75117,33.720688,0.0,0.0,0.0,0.0,0.0,0.0,0.0,0.5940977,-0.014000606,-0.8045045,-0.93585205,0.021606445,-0.35064697,0.111328125,-0.15136719,-0.12402344,1.4098656,12.299664,-0.2898559,-16.655737,-0.9564209,-0.017578125,0.009887695,-0.0078125,0.01171875,0.036132812,1.5289273,9.808869,-57.240784,-16.609663,0.58166504,-0.25323486,0.82458496,-0.00390625,0.0,0.021484375,11.259825,8.548517,-129.20837,-14.3245535,0.0,0.0,0.0,0.0,0.0,0.0,0.0,17.619053,-129.1907,3.5026884,-0.97528076,-0.12451172,-0.020080566,-0.07519531,-0.018554688,-9.765625E-4,0.0,0.8649311,44.999905,-0.14440233,
1.6015624761348592,82,-0.8272705,-0.08618164,0.51989746,-0.018554688,0.061523438,0.021484375,0.0,0.0,0.0,0.0,0.0,0.0,0.0,0.0,0.0,0.0,0.0,-0.59450907,0.014191963,0.80414623,-0.94763184,0.076416016,-0.24285889,-0.00390625,0.08300781,0.0107421875,2.1133146,-12.30818,0.29381758,16.648321,-0.96588135,0.12939453,0.12823486,-0.01171875,0.064453125,0.013671875,0.41069296,-12.959519,-56.68254,14.78821,0.6134033,0.3791504,0.7017822,0.013671875,0.016601562,0.00390625,15.128695,-12.92085,-128.69067,13.683632,0.0,0.0,0.0,0.0,0.0,0.0,0.0,-12.651847,-128.74149,33.68405,0.0,0.0,0.0,0.0,0.0,0.0,0.0,0.59450907,-0.014191963,-0.80414623,-0.93182373,0.022583008,-0.34576416,0.1328125,-0.115234375,-0.12695312,1.403327,12.30818,-0.29381758,-16.648321,-0.97143555,-0.010009766,-0.027770996,0.01171875,0.01171875,0.017578125,1.5051922,9.824347,-57.251984,-16.616777,0.572937,-0.19262695,0.8323364,0.013671875,0.0,0.021484375,11.391742,8.542603,-129.21846,-14.362541,0.0,0.0,0.0,0.0,0.0,0.0,0.0,17.61889,-129.2091,3.4624252,-0.9772949,-0.12445068,-0.021118164,-0.018554688,-0.055664062,-0.001953125,0.0,0.8664647,44.998005,-0.15356518,
1.621093725843821,83,-0.8475342,-0.06640625,0.53344727,0.057617188,0.005859375,9.765625E-4,0.0,0.0,0.0,0.0,0.0,0.0,0.0,0.0,0.0,0.0,0.0,-0.5938504,0.013705343,0.8046596,-0.93048096,0.08190918,-0.22131348,-0.022460938,-0.0078125,0.029296875,2.0875978,-12.294543,0.28374314,16.658947,-0.94488525,0.12786865,0.1184082,-0.05078125,0.046875,0.032226562,0.38359454,-12.939254,-56.691975,14.808188,0.58306885,0.3638916,0.7252197,0.013671875,-0.021484375,-0.015625,15.000663,-12.913151,-128.69745,13.686894,0.0,0.0,0.0,0.0,0.0,0.0,0.0,-12.59379,-128.74956,33.6873,0.0,0.0,0.0,0.0,0.0,0.0,0.0,0.5938504,-0.013705343,-0.8046596,-0.92785645,0.030456543,-0.35351562,0.09277344,-0.07519531,-0.103515625,1.4608552,12.294543,-0.28374314,-16.658947,-0.9785156,-0.016784668,-0.01574707,-0.0068359375,0.01171875,0.017578125,1.5395142,9.78003,-57.23755,-16.617987,0.5856323,-0.23510742,0.81848145,-0.00390625,0.018554688,0.021484375,11.392123,8.521623,-129.20718,-14.349966,0.0,0.0,0.0,0.0,0.0,0.0,0.0,17.593636,-129.1973,3.4775448,-0.977417,-0.1305542,-3.0517578E-4,9.765625E-4,-0.055664062,0.017578125,0.0,0.84355736,44.99913,-0.14388913,
1.6406249755527826,84,-0.83935547,-0.072387695,0.51434326,0.020507812,-0.049804688,0.001953125,0.0,0.0,0.0,0.0,0.0,0.0,0.0,0.0,0.0,0.0,0.0,-0.5952519,0.014143979,0.8036097,-0.9594116,0.09631348,-0.23358154,-0.00390625,0.029296875,0.047851562,2.1184943,-12.323562,0.29282424,16.637213,-0.9661255,0.12237549,0.13317871,-0.03125,0.045898438,0.013671875,0.37845916,-12.96195,-56.679985,14.787863,0.60791016,0.41351318,0.6972656,0.013671875,-0.001953125,0.00390625,14.866284,-12.925659,-128.68861,13.659958,0.0,0.0,0.0,0.0,0.0,0.0,0.0,-12.57559,-128.74446,33.65856,0.0,0.0,0.0,0.0,0.0,0.0,0.0,0.5952519,-0.014143979,-0.8036097,-0.928772,0.013671875,-0.34197998,0.08300781,-0.10449219,-0.13378906,1.4680711,12.323562,-0.29282424,-16.637213,-0.970459,-0.010986328,-0.029724121,-0.0068359375,0.049804688,0.03515625,1.5124553,9.809364,-57.249687,-16.596523,0.60284424,-0.21105957,0.8222656,-0.0048828125,0.0,0.001953125,11.699353,8.521301,-129.21957,-14.3475485,0.0,0.0,0.0,0.0,0.0,0.0,0.0,17.536161,-129.20787,3.5078287,-0.9984741,-0.09692383,-0.028442383,9.765625E-4,-0.09375,-0.021484375,0.0,0.84048265,44.998886,-0.16944093,
1.6601562252617443,85,-0.8503418,-0.08416748,0.5263672,0.01953125,-0.0126953125,-0.03515625,0.0,0.0,0.0,0.0,0.0,0.0,0.0,0.0,0.0,0.0,0.0,-0.5952257,0.014046337,0.8036632,-0.9489136,0.055725098,-0.23413086,-0.00390625,0.046875,0.047851562,2.131389,-12.323014,0.29080272,16.63832,-0.9651489,0.118774414,0.10736084,-0.032226562,0.045898438,0.051757812,0.3522151,-12.94105,-56.686256,14.775841,0.569397,0.3935547,0.71380615,0.013671875,-0.001953125,0.00390625,15.03414,-12.900509,-128.68965,13.606444,0.0,0.0,0.0,0.0,0.0,0.0,0.0,-12.59537,-128.74251,33.60643,0.0,0.0,0.0,0.0,0.0,0.0,0.0,0.5952257,-0.014046337,-0.8036632,-0.93182373,0.01763916,-0.34680176,0.13769531,-0.10058594,-0.111328125,1.4691372,12.323014,-0.29080272,-16.63832,-0.95635986,-0.01763916,0.019836426,-0.025390625,0.01171875,0.017578125,1.5428156,9.816629,-57.242767,-16.62968,0.5848999,-0.21246338,0.833313,-0.00390625,0.018554688,0.021484375,11.494267,8.554766,-129.20834,-14.385172,0.0,0.0,0.0,0.0,0.0,0.0,0.0,17.573624,-129.20103,3.469387,-0.9812622,-0.10406494,-0.012634277,9.765625E-4,-0.07421875,-0.001953125,0.0,0.8363613,45.00014,-0.16706437,
1.679687474970706,86,-0.8487549,-0.0368042,0.53082275,9.765625E-4,-0.0126953125,0.001953125,0.0,0.0,0.0,0.0,0.0,0.0,0.0,0.0,0.0,0.0,0.0,-0.5962978,0.0132707525,0.80289376,-0.920166,0.10229492,-0.21142578,-0.060546875,0.0107421875,0.0107421875,2.1050563,-12.345215,0.27474576,16.62239,-0.9660034,0.12475586,0.10839844,-0.032226562,0.02734375,0.013671875,0.3841043,-12.976955,-56.699585,14.72973,0.6010132,0.35980225,0.7015381,-0.025390625,-0.001953125,0.00390625,14.939264,-12.925704,-128.70786,13.55069,0.0,0.0,0.0,0.0,0.0,0.0,0.0,-12.587791,-128.76598,33.550007,0.0,0.0,0.0,0.0,0.0,0.0,0.0,0.5962978,-0.0132707525,-0.80289376,-0.9298706,0.026489258,-0.3427124,0.09863281,-0.119140625,-0.12988281,1.4494241,12.345215,-0.27474576,-16.62239,-0.9663696,-0.008239746,-0.017822266,-0.0068359375,0.03125,0.016601562,1.5368423,9.85763,-57.232857,-16.628792,0.5709839,-0.21673584,0.84143066,-0.00390625,0.0,0.021484375,11.549476,8.601386,-129.2008,-14.396581,0.0,0.0,0.0,0.0,0.0,0.0,0.0,17.595106,-129.1889,3.470128,-0.9720459,-0.09057617,-0.011352539,-0.037109375,-0.09375,-0.021484375,0.0,0.83320415,45.000786,-0.12499361,
1.6992187246796677,87,-0.8534546,-0.060546875,0.50982666,0.057617188,0.005859375,9.765625E-4,0.0,0.0,0.0,0.0,0.0,0.0,0.0,0.0,0.0,0.0,0.0,-0.59547395,0.0129036615,0.80349684,-0.92626953,0.09564209,-0.23413086,-0.041015625,0.046875,0.0107421875,2.103568,-12.328157,0.2671458,16.634876,-0.9610596,0.08972168,0.123046875,-0.0703125,0.046875,0.051757812,0.38257298,-12.929109,-56.70572,14.731289,0.6112671,0.3764038,0.6859741,-0.005859375,-0.001953125,0.00390625,14.923149,-12.843698,-128.71597,13.539439,0.0,0.0,0.0,0.0,0.0,0.0,0.0,-12.515327,-128.77298,33.54023,0.0,0.0,0.0,0.0,0.0,0.0,0.0,0.59547395,-0.0129036615,-0.80349684,-0.93188477,0.028442383,-0.33477783,0.115234375,-0.1171875,-0.12792969,1.4331311,12.328157,-0.2671458,-16.634876,-0.9594116,-0.012329102,-0.013916016,-0.025390625,0.03125,0.017578125,1.5244409,9.8664875,-57.221134,-16.636091,0.5857544,-0.2442627,0.8295288,0.033203125,0.038085938,0.021484375,11.4588585,8.619507,-129.18913,-14.397663,0.0,0.0,0.0,0.0,0.0,0.0,0.0,17.62503,-129.17194,3.4636993,-0.9814453,-0.15032959,-0.053588867,-0.09472656,-0.07519531,-0.001953125,0.0,0.82406306,45.00048,-0.11196422,
1.7187499743886294,88,-0.838562,-0.06048584,0.5303345,0.020507812,-0.0126953125,0.001953125,0.0,0.0,0.0,0.0,0.0,0.0,0.0,0.0,0.0,0.0,0.0,-0.5963396,0.012828419,0.8028452,-0.95874023,0.068603516,-0.21508789,-0.09765625,0.047851562,0.0107421875,2.0512817,-12.346078,0.26558802,16.621384,-0.96447754,0.10687256,0.107299805,-0.051757812,0.028320312,0.033203125,0.3351346,-12.920579,-56.705883,14.759436,0.623291,0.3701172,0.7085571,0.013671875,-0.021484375,-0.015625,14.960102,-12.840436,-128.71254,13.575386,0.0,0.0,0.0,0.0,0.0,0.0,0.0,-12.523295,-128.76991,33.57502,0.0,0.0,0.0,0.0,0.0,0.0,0.0,0.5963396,-0.012828419,-0.8028452,-0.92785645,0.03540039,-0.34649658,0.08300781,-0.0859375,-0.15332031,1.3818268,12.346078,-0.26558802,-16.621384,-0.9622803,-0.0064697266,-0.006958008,-0.025390625,0.0126953125,-9.765625E-4,1.491216,9.910171,-57.221386,-16.620817,0.5998535,-0.20812988,0.8222656,-0.0048828125,-0.01953125,0.021484375,11.408881,8.669391,-129.18935,-14.412782,0.0,0.0,0.0,0.0,0.0,0.0,0.0,17.664528,-129.17906,3.4532404,-0.9784546,-0.13726807,-0.009399414,-0.018554688,-0.07421875,-0.021484375,0.0,0.8422637,44.9998,-0.093419164,
1.7382812240975911,89,-0.8635254,-0.072265625,0.534729,9.765625E-4,0.005859375,0.001953125,0.0,0.0,0.0,0.0,0.0,0.0,0.0,0.0,0.0,0.0,0.0,-0.5954052,0.0131498575,0.8034952,-0.95861816,0.07751465,-0.2189331,0.015625,0.028320312,0.0107421875,2.0929348,-12.326736,0.2722428,16.634842,-0.94036865,0.1116333,0.13317871,-0.03125,0.064453125,0.051757812,0.3333784,-12.845539,-56.70368,14.763901,0.5980835,0.36175537,0.71240234,0.013671875,0.016601562,0.00390625,14.784147,-12.775182,-128.71277,13.600315,0.0,0.0,0.0,0.0,0.0,0.0,0.0,-12.389522,-128.76733,33.599167,0.0,0.0,0.0,0.0,0.0,0.0,0.0,0.5954052,-0.0131498575,-0.8034952,-0.93292236,0.032409668,-0.33862305,0.08300781,-0.10449219,-0.13378906,1.3794172,12.326736,-0.2722428,-16.634842,-0.97857666,-0.021728516,-0.00982666,-0.025390625,0.03125,0.017578125,1.4980245,9.884807,-57.229897,-16.631056,0.6045532,-0.20965576,0.80023193,-0.0048828125,-0.018554688,0.0029296875,11.375876,8.648005,-129.19933,-14.417629,0.0,0.0,0.0,0.0,0.0,0.0,0.0,17.657104,-129.19832,3.4420433,-0.9784546,-0.13726807,-0.009399414,-0.018554688,-0.07421875,-0.021484375,0.0,0.8496995,44.99826,-0.10678989,
1.7578124738065528,90,-0.84228516,-0.07733154,0.50146484,-0.018554688,0.061523438,0.0029296875,0.0,0.0,0.0,0.0,0.0,0.0,0.0,0.0,0.0,0.0,0.0,-0.5957219,0.01333686,0.80332214,-0.96051025,0.08843994,-0.23657227,0.052734375,0.028320312,0.0107421875,2.1018927,-12.333292,0.27611434,16.631258,-0.9616089,0.10437012,0.1350708,-0.03125,0.064453125,0.033203125,0.34434965,-12.85888,-56.69837,14.754864,0.6002197,0.37750244,0.69091797,0.013671875,-0.0029296875,-0.0146484375,15.009368,-12.793792,-128.70386,13.599077,0.0,0.0,0.0,0.0,0.0,0.0,0.0,-12.484514,-128.75018,33.598152,0.0,0.0,0.0,0.0,0.0,0.0,0.0,0.5957219,-0.01333686,-0.80332214,-0.9348755,0.022521973,-0.34075928,0.115234375,-0.1171875,-0.12792969,1.3482815,12.333292,-0.27611434,-16.631258,-0.9467163,-0.02947998,0.0068359375,-0.0068359375,0.01171875,0.017578125,1.451448,9.908336,-57.231407,-16.640236,0.5684204,-0.21313477,0.8045044,-0.0048828125,0.0,0.001953125,11.523502,8.671543,-129.20071,-14.503255,0.0,0.0,0.0,0.0,0.0,0.0,0.0,17.622194,-129.1979,3.3859606,-0.9784546,-0.13726807,-0.009399414,-0.018554688,-0.07421875,-0.021484375,0.0,0.8621242,45.00036,-0.10777399,
1.7773437235155145,91,-0.84313965,-0.09020996,0.49047852,0.01953125,0.005859375,0.001953125,0.0,0.0,0.0,0.0,0.0,0.0,0.0,0.0,0.0,0.0,0.0,-0.59602934,0.013664123,0.8031088,-0.9283447,0.09375,-0.24102783,-0.00390625,0.028320312,0.029296875,2.1298273,-12.339656,0.28288972,16.62684,-0.9482422,0.11621094,0.11035156,-0.01171875,0.064453125,0.033203125,0.40541822,-12.900868,-56.689213,14.740961,0.61157227,0.38787842,0.7215576,0.013671875,-0.001953125,0.00390625,14.978943,-12.798491,-128.69713,13.621474,0.0,0.0,0.0,0.0,0.0,0.0,0.0,-12.484898,-128.73618,33.62189,0.0,0.0,0.0,0.0,0.0,0.0,0.0,0.59602934,-0.013664123,-0.8031088,-0.9317627,0.0067749023,-0.34210205,0.06347656,-0.12402344,-0.13378906,1.3581151,12.339656,-0.28288972,-16.62684,-0.9661865,0.0056762695,-0.03869629,-0.0068359375,0.01171875,0.017578125,1.4573683,9.922712,-57.241966,-16.64854,0.60980225,-0.21990967,0.81921387,-0.00390625,0.037109375,0.001953125,11.47104,8.692989,-129.21399,-14.514865,0.0,0.0,0.0,0.0,0.0,0.0,0.0,17.61898,-129.21266,3.3870192,-0.9784546,-0.13726807,-0.009399414,-0.018554688,-0.07421875,-0.021484375,0.0,0.85235167,45.00121,-0.13307722,
1.7968749732244762,92,-0.8201294,-0.09411621,0.5097656,0.020507812,-0.03125,0.001953125,0.0,0.0,0.0,0.0,0.0,0.0,0.0,0.0,0.0,0.0,0.0,-0.59589916,0.01399277,0.80315465,-0.9194946,0.07867432,-0.21264648,-0.00390625,0.046875,0.047851562,2.1641939,-12.336961,0.28969368,16.62779,-0.9420166,0.12371826,0.12335205,-0.03125,0.064453125,0.051757812,0.43069306,-12.91816,-56.68243,14.717782,0.58691406,0.36010742,0.69958496,0.013671875,-0.021484375,0.021484375,15.0121765,-12.813267,-128.6882,13.590435,0.0,0.0,0.0,0.0,0.0,0.0,0.0,-12.505293,-128.72386,33.589714,0.0,0.0,0.0,0.0,0.0,0.0,0.0,0.59589916,-0.01399277,-0.80315465,-0.93084717,0.016662598,-0.35375977,0.13476562,-0.09765625,-0.12890625,1.3380831,12.336961,-0.28969368,-16.62779,-0.96014404,-0.0026855469,-0.0020141602,-0.025390625,0.01171875,0.017578125,1.4667375,9.932444,-57.245106,-16.680243,0.5814209,-0.21685791,0.7984619,0.013671875,9.765625E-4,-0.016601562,11.359069,8.677601,-129.22038,-14.533887,0.0,0.0,0.0,0.0,0.0,0.0,0.0,17.611633,-129.21838,3.3628492,-0.9784546,-0.13726807,-0.009399414,-0.018554688,-0.07421875,-0.021484375,0.0,0.8642284,44.999325,-0.14277726,
1.816406222933438,93,-0.81573486,-0.043762207,0.54193115,0.020507812,-0.0126953125,0.001953125,0.0,0.0,0.0,0.0,0.0,0.0,0.0,0.0,0.0,0.0,0.0,-0.5941489,0.013668979,0.80446637,-0.91156006,0.07269287,-0.23162842,-0.022460938,0.029296875,0.029296875,2.1513138,-12.300724,0.28299025,16.654947,-0.96417236,0.1194458,0.12823486,-0.032226562,0.045898438,0.033203125,0.4414621,-12.904043,-56.689518,14.729537,0.60058594,0.39709473,0.6911621,0.013671875,0.036132812,0.00390625,15.169533,-12.813716,-128.69652,13.590271,0.0,0.0,0.0,0.0,0.0,0.0,0.0,-12.545061,-128.73259,33.59203,0.0,0.0,0.0,0.0,0.0,0.0,0.0,0.5941489,-0.013668979,-0.80446637,-0.9309082,0.037353516,-0.3414917,0.171875,-0.095703125,-0.10839844,1.3388141,12.300724,-0.28299025,-16.654947,-0.9547119,-0.026245117,-0.0060424805,-0.025390625,0.03125,0.017578125,1.4329945,9.885983,-57.238567,-16.705526,0.57562256,-0.21520996,0.8144531,0.013671875,-0.018554688,0.021484375,11.339997,8.604563,-129.2117,-14.600629,0.0,0.0,0.0,0.0,0.0,0.0,0.0,17.549494,-129.20885,3.292035,-0.9784546,-0.13726807,-0.009399414,-0.018554688,-0.07421875,-0.021484375,0.0,0.8680182,44.99969,-0.12352003,
1.8359374726423996,94,-0.83361816,-0.066345215,0.55792236,0.020507812,-0.0126953125,0.001953125,0.0,0.0,0.0,0.0,0.0,0.0,0.0,0.0,0.0,0.0,0.0,-0.5921366,0.014001362,0.8058677,-0.94366455,0.07446289,-0.25775146,-0.07910156,0.029296875,0.0107421875,2.1788847,-12.259064,0.2898716,16.68396,-0.9636841,0.13452148,0.109436035,-0.03125,0.064453125,0.033203125,0.45370305,-12.8760395,-56.679714,14.735833,0.61938477,0.37402344,0.72436523,-0.025390625,0.016601562,0.022460938,15.064602,-12.789006,-128.68796,13.578636,0.0,0.0,0.0,0.0,0.0,0.0,0.0,-12.487022,-128.72438,33.57939,0.0,0.0,0.0,0.0,0.0,0.0,0.0,0.5921366,-0.014001362,-0.8058677,-0.93188477,0.02557373,-0.36053467,0.111328125,-0.15136719,-0.12402344,1.3017601,12.259064,-0.2898716,-16.68396,-0.95751953,-0.014221191,-0.024902344,-0.0078125,0.03125,0.036132812,1.4187211,9.845968,-57.24391,-16.726992,0.58166504,-0.24523926,0.82354736,0.033203125,0.01953125,0.021484375,11.456846,8.561323,-129.21689,-14.6315,0.0,0.0,0.0,0.0,0.0,0.0,0.0,17.491528,-129.2121,3.2671356,-0.9784546,-0.13726807,-0.009399414,-0.018554688,-0.07421875,-0.021484375,0.0,0.8955715,44.996418,-0.123730585,
1.8554687223513613,95,-0.83477783,-0.04272461,0.5482788,0.020507812,-0.0126953125,0.001953125,0.0,0.0,0.0,0.0,0.0,0.0,0.0,0.0,0.0,0.0,0.0,-0.59016484,0.013990423,0.8073213,-0.93652344,0.08203125,-0.22814941,0.015625,0.028320312,0.047851562,2.1990025,-12.218243,0.28964517,16.714054,-0.96624756,0.117614746,0.12225342,-0.0126953125,0.045898438,0.07128906,0.47353953,-12.872929,-56.680122,14.739542,0.59973145,0.40985107,0.69036865,-0.005859375,0.016601562,0.022460938,15.091789,-12.797064,-128.68666,13.557194,0.0,0.0,0.0,0.0,0.0,0.0,0.0,-12.490201,-128.72496,33.556095,0.0,0.0,0.0,0.0,0.0,0.0,0.0,0.59016484,-0.013990423,-0.8073213,-0.9277954,0.011779785,-0.35784912,0.07910156,-0.13867188,-0.12988281,1.3041631,12.218243,-0.28964517,-16.714054,-0.95666504,-0.018066406,-0.032836914,-0.0078125,0.01171875,0.036132812,1.4163743,9.811441,-57.243374,-16.789415,0.58166504,-0.24523926,0.82354736,0.033203125,0.01953125,0.021484375,11.557455,8.499183,-129.21771,-14.708147,0.0,0.0,0.0,0.0,0.0,0.0,0.0,17.429386,-129.21292,3.1904888,-0.9784546,-0.13726807,-0.009399414,-0.018554688,-0.07421875,-0.021484375,0.0,0.8933576,44.996758,-0.12670971,
1.874999972060323,96,-0.8395386,-0.0703125,0.538208,0.01953125,0.005859375,0.001953125,0.0,0.0,0.0,0.0,0.0,0.0,0.0,0.0,0.0,0.0,0.0,-0.58928144,0.014099269,0.8080247,-0.9224243,0.085876465,-0.25402832,-0.060546875,0.01171875,0.047851562,2.1921384,-12.199953,0.29189864,16.728619,-0.9686279,0.1350708,0.087646484,-0.0126953125,0.02734375,0.051757812,0.4718838,-12.868278,-56.675095,14.745791,0.5808716,0.354187,0.72314453,-0.005859375,0.016601562,-0.0146484375,15.016,-12.795219,-128.68462,13.542467,0.0,0.0,0.0,0.0,0.0,0.0,0.0,-12.448662,-128.7186,33.541298,0.0,0.0,0.0,0.0,0.0,0.0,0.0,0.58928144,-0.014099269,-0.8080247,-0.9267578,0.0068359375,-0.36193848,0.06640625,-0.12597656,-0.11621094,1.2790127,12.199953,-0.29189864,-16.728619,-0.95892334,-0.029724121,-0.035827637,-0.0068359375,0.03125,0.016601562,1.4654028,9.7784395,-57.248135,-16.83704,0.58166504,-0.20111084,0.81134033,-0.00390625,0.018554688,0.001953125,11.442154,8.470899,-129.22354,-14.73683,0.0,0.0,0.0,0.0,0.0,0.0,0.0,17.434814,-129.2266,3.1448765,-0.9784546,-0.13726807,-0.009399414,-0.018554688,-0.07421875,-0.021484375,0.0,0.9266847,44.998325,-0.109359846,
1.8945312217692847,97,-0.831604,-0.06048584,0.538147,0.020507812,-0.0126953125,0.001953125,0.0,0.0,0.0,0.0,0.0,0.0,0.0,0.0,0.0,0.0,0.0,-0.5888779,0.014171672,0.8082585,-0.9414673,0.08605957,-0.22998047,-0.041015625,0.029296875,0.029296875,2.2054012,-12.191598,0.29339755,16.733456,-0.9348755,0.12750244,0.119384766,-0.0126953125,0.045898438,0.033203125,0.49416423,-12.886225,-56.676792,14.734506,0.59539795,0.38537598,0.7037964,0.013671875,-0.021484375,0.0029296875,14.812654,-12.862957,-128.68004,13.552511,0.0,0.0,0.0,0.0,0.0,0.0,0.0,-12.416049,-128.71945,33.550117,0.0,0.0,0.0,0.0,0.0,0.0,0.0,0.5888779,-0.014171672,-0.8082585,-0.928772,0.014770508,-0.36572266,0.10253906,-0.10449219,-0.115234375,1.3073103,12.191598,-0.29339755,-16.733456,-0.9626465,-0.019958496,-0.023864746,-0.026367188,0.03125,0.036132812,1.516461,9.7413,-57.250557,-16.858894,0.597229,-0.22137451,0.7843628,0.033203125,0.01953125,0.0029296875,11.442894,8.420726,-129.22023,-14.716377,0.0,0.0,0.0,0.0,0.0,0.0,0.0,17.409721,-129.22296,3.1495514,-0.9784546,-0.13726807,-0.009399414,-0.018554688,-0.07421875,-0.021484375,0.0,0.92975795,44.9961,-0.111543685,
1.9140624714782464,98,-0.8303833,-0.090026855,0.54174805,0.020507812,-0.03125,-0.016601562,0.0,0.0,0.0,0.0,0.0,0.0,0.0,0.0,0.0,0.0,0.0,-0.5880295,0.01448939,0.8089182,-0.9352417,0.101745605,-0.23883057,0.09082031,0.045898438,0.047851562,2.2347584,-12.174034,0.29997528,16.747114,-0.97314453,0.11920166,0.09942627,-0.032226562,0.02734375,0.033203125,0.48091987,-12.840049,-56.66912,14.729133,0.58929443,0.38354492,0.697876,0.013671875,0.016601562,-0.0146484375,14.840599,-12.83702,-128.6747,13.5311575,0.0,0.0,0.0,0.0,0.0,0.0,0.0,-12.3886175,-128.70624,33.528027,0.0,0.0,0.0,0.0,0.0,0.0,0.0,0.5880295,-0.01448939,-0.8089182,-0.92785645,0.032409668,-0.34655762,0.12011719,-0.10253906,-0.11328125,1.2993526,12.174034,-0.29997528,-16.747114,-0.9663696,-0.0021362305,-0.042663574,-0.005859375,0.0126953125,-0.020507812,1.5360782,9.692709,-57.25297,-16.879885,0.58135986,-0.23883057,0.8005371,-0.0048828125,-0.01953125,0.040039062,11.711137,8.3486595,-129.22478,-14.727896,0.0,0.0,0.0,0.0,0.0,0.0,0.0,17.31206,-129.22389,3.1534805,-0.9784546,-0.13726807,-0.009399414,-0.018554688,-0.07421875,-0.021484375,0.0,0.9611629,44.9972,-0.10729116,
1.933593721187208,99,-0.80163574,-0.055603027,0.5444946,-0.055664062,0.024414062,0.00390625,0.0,0.0,0.0,0.0,0.0,0.0,0.0,0.0,0.0,0.0,0.0,-0.5844224,0.014883051,0.81157035,-0.9349365,0.12347412,-0.24261475,-0.022460938,0.06542969,0.0107421875,2.2218466,-12.099355,0.30812526,16.802023,-0.9456787,0.13494873,0.10949707,-0.033203125,0.0087890625,0.07128906,0.49337167,-12.834685,-56.656715,14.795645,0.62542725,0.37591553,0.71154785,0.033203125,-0.0029296875,-0.0146484375,14.802859,-12.834786,-128.66121,13.585703,0.0,0.0,0.0,0.0,0.0,0.0,0.0,-12.373469,-128.69781,33.58237,0.0,0.0,0.0,0.0,0.0,0.0,0.0,0.5844224,-0.014883051,-0.81157035,-0.928833,0.02947998,-0.34960938,0.10058594,-0.10253906,-0.13183594,1.2757957,12.099355,-0.30812526,-16.802023,-0.96643066,-0.014221191,-0.00592041,0.01171875,0.01171875,-0.001953125,1.5477545,9.605753,-57.257397,-16.92933,0.5734253,-0.19897461,0.7973633,-0.00390625,-9.765625E-4,0.040039062,11.532919,8.279543,-129.22974,-14.778532,0.0,0.0,0.0,0.0,0.0,0.0,0.0,17.271233,-129.22945,3.0900764,-0.9784546,-0.13726807,-0.009399414,-0.018554688,-0.07421875,-0.021484375,0.0,0.9900173,44.99836,-0.11228186,
1.9531249708961698,100,-0.8183594,-0.086120605,0.54156494,0.01953125,0.005859375,0.001953125,0.0,0.0,0.0,0.0,0.0,0.0,0.0,0.0,0.0,0.0,0.0,-0.58248925,0.014692203,0.81293005,-0.932251,0.10168457,-0.23492432,-0.041015625,0.0107421875,0.029296875,2.1564023,-12.059332,0.30417415,16.830172,-0.96429443,0.115600586,0.12121582,-0.051757812,0.009765625,0.013671875,0.45628336,-12.809807,-56.662758,14.852675,0.5961304,0.36761475,0.71643066,-0.005859375,-0.001953125,0.00390625,14.778002,-12.810912,-128.66864,13.61098,0.0,0.0,0.0,0.0,0.0,0.0,0.0,-12.341918,-128.703,33.608772,0.0,0.0,0.0,0.0,0.0,0.0,0.0,0.58248925,-0.014692203,-0.81293005,-0.92785645,0.034423828,-0.35150146,0.11816406,-0.119140625,-0.11035156,1.2186857,12.059332,-0.30417415,-16.830172,-0.9584961,-0.010253906,-0.027832031,-0.0068359375,0.03125,-0.001953125,1.5590924,9.562555,-57.25314,-16.955727,0.567749,-0.20947266,0.8244629,-0.00390625,0.056640625,0.001953125,11.6034565,8.249296,-129.22527,-14.797759,0.0,0.0,0.0,0.0,0.0,0.0,0.0,17.223877,-129.21971,3.0778189,-0.9784546,-0.13726807,-0.009399414,-0.018554688,-0.07421875,-0.021484375,0.0,1.0306011,44.99634,-0.074768186,
1.9726562206051315,101,-0.84246826,-0.06640625,0.5223999,0.018554688,0.09863281,0.021484375,0.0,0.0,0.0,0.0,0.0,0.0,0.0,0.0,0.0,0.0,0.0,-0.58100194,0.0146343,0.81392676,-0.94641113,0.09222412,-0.24865723,0.034179688,0.028320312,0.029296875,2.1504948,-12.028542,0.3029754,16.850807,-0.9789429,0.1272583,0.103393555,-0.05078125,0.046875,0.013671875,0.45585436,-12.814827,-56.66231,14.864289,0.58795166,0.36010742,0.69958496,0.013671875,0.016601562,0.00390625,14.771614,-12.8495455,-128.6664,13.601318,0.0,0.0,0.0,0.0,0.0,0.0,0.0,-12.352096,-128.70508,33.59738,0.0,0.0,0.0,0.0,0.0,0.0,0.0,0.58100194,-0.0146343,-0.81392676,-0.9348755,0.02166748,-0.35858154,0.083984375,-0.14257812,-0.09472656,1.2088513,12.028542,-0.3029754,-16.850807,-0.9702759,-0.0012207031,-0.027770996,-0.026367188,-0.0078125,0.017578125,1.5520475,9.530322,-57.2593,-16.97068,0.5687256,-0.22747803,0.8265381,0.0146484375,0.018554688,0.040039062,11.747641,8.197859,-129.22882,-14.802893,0.0,0.0,0.0,0.0,0.0,0.0,0.0,17.158245,-129.224,3.0816898,-0.9784546,-0.13726807,-0.009399414,-0.018554688,-0.07421875,-0.021484375,0.0,1.0372275,44.993713,-0.06858143,
1.9921874703140932,102,-0.838562,-0.06640625,0.538208,-0.017578125,0.005859375,0.040039062,0.0,0.0,0.0,0.0,0.0,0.0,0.0,0.0,0.0,0.0,0.0,-0.5824704,0.014724935,0.81287867,-0.9334717,0.08605957,-0.25683594,-0.1171875,-0.024414062,0.0107421875,2.1751087,-12.058943,0.30485186,16.829107,-0.9557495,0.13140869,0.10546875,-0.051757812,0.028320312,0.033203125,0.48132652,-12.871586,-56.66371,14.829105,0.61065674,0.40185547,0.6833496,0.013671875,-0.0029296875,-0.0146484375,14.92035,-12.930967,-128.66748,13.583788,0.0,0.0,0.0,0.0,0.0,0.0,0.0,-12.4756365,-128.70483,33.581955,0.0,0.0,0.0,0.0,0.0,0.0,0.0,0.5824704,-0.014724935,-0.81287867,-0.928772,0.010803223,-0.36279297,0.045898438,-0.12597656,-0.13476562,1.2313056,12.058943,-0.30485186,-16.829107,-0.9664917,-0.010986328,-0.035705566,-0.025390625,0.0126953125,-9.765625E-4,1.536333,9.569158,-57.257854,-16.935476,0.55877686,-0.20874023,0.83148193,-0.022460938,-9.765625E-4,0.040039062,12.081226,8.222987,-129.22478,-14.756339,0.0,0.0,0.0,0.0,0.0,0.0,0.0,17.141949,-129.21849,3.1471186,-0.9784546,-0.13726807,-0.009399414,-0.018554688,-0.07421875,-0.021484375,0.0,1.014288,44.99434,-0.088261664,
2.011718720023055,103,-0.8345947,-0.054626465,0.5263672,0.020507812,-0.0126953125,0.001953125,0.0,0.0,0.0,0.0,0.0,0.0,0.0,0.0,0.0,0.0,0.0,-0.5829617,0.014395305,0.8125846,-0.9472656,0.10192871,-0.22381592,-0.041015625,0.0107421875,0.029296875,2.1396372,-12.069113,0.29802746,16.82302,-0.9719238,0.09326172,0.11114502,-0.07128906,0.028320312,0.032226562,0.48978925,-12.912734,-56.670284,14.840649,0.60754395,0.39404297,0.6901245,0.013671875,0.016601562,0.00390625,14.909695,-12.975696,-128.6793,13.6026125,0.0,0.0,0.0,0.0,0.0,0.0,0.0,-12.519049,-128.71666,33.598907,0.0,0.0,0.0,0.0,0.0,0.0,0.0,0.5829617,-0.014395305,-0.8125846,-0.9227295,0.013671875,-0.34796143,0.10058594,-0.12109375,-0.11230469,1.2406467,12.069113,-0.29802746,-16.82302,-0.9785156,-0.016662598,-0.024719238,-0.026367188,-0.0078125,0.037109375,1.5437032,9.595003,-57.25192,-16.943993,0.5845947,-0.23608398,0.8175049,0.0146484375,0.018554688,0.040039062,12.102339,8.24857,-129.2202,-14.755772,0.0,0.0,0.0,0.0,0.0,0.0,0.0,17.17016,-129.20598,3.146721,-0.9784546,-0.13726807,-0.009399414,-0.018554688,-0.07421875,-0.021484375,0.0,0.99573207,44.996674,-0.08278179,
2.0312499697320168,104,-0.82470703,-0.046691895,0.538147,0.020507812,-0.0126953125,0.001953125,0.0,0.0,0.0,0.0,0.0,0.0,0.0,0.0,0.0,0.0,0.0,-0.58266354,0.01431136,0.81278723,-0.9390259,0.11755371,-0.23175049,-0.022460938,-0.025390625,0.0107421875,2.0867538,-12.062943,0.29628956,16.827215,-0.9550171,0.12243652,0.10443115,-0.0126953125,0.045898438,0.033203125,0.5004597,-12.928659,-56.671272,14.875018,0.6170654,0.35357666,0.71624756,-0.005859375,0.016601562,-0.0146484375,14.73432,-12.969354,-128.67398,13.648091,0.0,0.0,0.0,0.0,0.0,0.0,0.0,-12.4713335,-128.70667,33.64529,0.0,0.0,0.0,0.0,0.0,0.0,0.0,0.58266354,-0.01431136,-0.81278723,-0.9248047,0.02355957,-0.35668945,0.11621094,-0.13671875,-0.10839844,1.1973029,12.062943,-0.29628956,-16.827215,-0.95410156,0.005126953,-0.015930176,-0.026367188,-0.02734375,0.018554688,1.5688523,9.602392,-57.254894,-16.950712,0.59173584,-0.23608398,0.82244873,-0.00390625,0.018554688,0.001953125,12.221065,8.2649975,-129.22502,-14.719958,0.0,0.0,0.0,0.0,0.0,0.0,0.0,17.173002,-129.21217,3.18929,-0.9784546,-0.13726807,-0.009399414,-0.018554688,-0.07421875,-0.021484375,0.0,1.0163574,44.99578,-0.0636777,
