TOTAL_TIME,0m40s
TOTAL_FRAMES,2028
SELECTED_FRAMES,2028
NO_OF_JOINTS,12
FREQUENCY,51.2
DESCRIPTION,Capture 16
TIME_STAMP,Oct 11, 2010

Time,Frame,Pelvis_accelX_Pelvis,Pelvis_accelY_Pelvis,Pelvis_accelZ_Pelvis,Pelvis_gyroX_Pelvis,Pelvis_gyroY_Pelvis,Pelvis_gyroZ_Pelvis,Pelvis_Joint angle_Pelvis,Pelvis_Relative pos X_Pelvis,Pelvis_Relative pos Y_Pelvis,Pelvis_Relative pos Z_Pelvis,RightPelvis_accelX_RightPelvis,RightPelvis_accelY_RightPelvis,RightPelvis_accelZ_RightPelvis,RightPelvis_gyroX_RightPelvis,RightPelvis_gyroY_RightPelvis,RightPelvis_gyroZ_RightPelvis,RightPelvis_Joint angle_RightPelvis,RightPelvis_Relative pos X_RightPelvis,RightPelvis_Relative pos Y_RightPelvis,RightPelvis_Relative pos Z_RightPelvis,RightUpLeg_accelX_RightUpLeg,RightUpLeg_accelY_RightUpLeg,RightUpLeg_accelZ_RightUpLeg,RightUpLeg_gyroX_RightUpLeg,RightUpLeg_gyroY_RightUpLeg,RightUpLeg_gyroZ_RightUpLeg,RightUpLeg_Joint angle_RightUpLeg,RightUpLeg_Relative pos X_RightUpLeg,RightUpLeg_Relative pos Y_RightUpLeg,RightUpLeg_Relative pos Z_RightUpLeg,RightLeg_accelX_RightLeg,RightLeg_accelY_RightLeg,RightLeg_accelZ_RightLeg,RightLeg_gyroX_RightLeg,RightLeg_gyroY_RightLeg,RightLeg_gyroZ_RightLeg,RightLeg_Joint angle_RightLeg,RightLeg_Relative pos X_RightLeg,RightLeg_Relative pos Y_RightLeg,RightLeg_Relative pos Z_RightLeg,RightFoot_accelX_RightFoot,RightFoot_accelY_RightFoot,RightFoot_accelZ_RightFoot,RightFoot_gyroX_RightFoot,RightFoot_gyroY_RightFoot,RightFoot_gyroZ_RightFoot,RightFoot_Joint angle_RightFoot,RightFoot_Relative pos X_RightFoot,RightFoot_Relative pos Y_RightFoot,RightFoot_Relative pos Z_RightFoot,RightFootEnd_accelX_RightFootEnd,RightFootEnd_accelY_RightFootEnd,RightFootEnd_accelZ_RightFootEnd,RightFootEnd_gyroX_RightFootEnd,RightFootEnd_gyroY_RightFootEnd,RightFootEnd_gyroZ_RightFootEnd,RightFootEnd_Joint angle_RightFootEnd,RightFootEnd_Relative pos X_RightFootEnd,RightFootEnd_Relative pos Y_RightFootEnd,RightFootEnd_Relative pos Z_RightFootEnd,LeftPelvis_accelX_LeftPelvis,LeftPelvis_accelY_LeftPelvis,LeftPelvis_accelZ_LeftPelvis,LeftPelvis_gyroX_LeftPelvis,LeftPelvis_gyroY_LeftPelvis,LeftPelvis_gyroZ_LeftPelvis,LeftPelvis_Joint angle_LeftPelvis,LeftPelvis_Relative pos X_LeftPelvis,LeftPelvis_Relative pos Y_LeftPelvis,LeftPelvis_Relative pos Z_LeftPelvis,LeftUpLeg_accelX_LeftUpLeg,LeftUpLeg_accelY_LeftUpLeg,LeftUpLeg_accelZ_LeftUpLeg,LeftUpLeg_gyroX_LeftUpLeg,LeftUpLeg_gyroY_LeftUpLeg,LeftUpLeg_gyroZ_LeftUpLeg,LeftUpLeg_Joint angle_LeftUpLeg,LeftUpLeg_Relative pos X_LeftUpLeg,LeftUpLeg_Relative pos Y_LeftUpLeg,LeftUpLeg_Relative pos Z_LeftUpLeg,LeftLeg_accelX_LeftLeg,LeftLeg_accelY_LeftLeg,LeftLeg_accelZ_LeftLeg,LeftLeg_gyroX_LeftLeg,LeftLeg_gyroY_LeftLeg,LeftLeg_gyroZ_LeftLeg,LeftLeg_Joint angle_LeftLeg,LeftLeg_Relative pos X_LeftLeg,LeftLeg_Relative pos Y_LeftLeg,LeftLeg_Relative pos Z_LeftLeg,LeftFoot_accelX_LeftFoot,LeftFoot_accelY_LeftFoot,LeftFoot_accelZ_LeftFoot,LeftFoot_gyroX_LeftFoot,LeftFoot_gyroY_LeftFoot,LeftFoot_gyroZ_LeftFoot,LeftFoot_Joint angle_LeftFoot,LeftFoot_Relative pos X_LeftFoot,LeftFoot_Relative pos Y_LeftFoot,LeftFoot_Relative pos Z_LeftFoot,LeftFootEnd_accelX_LeftFootEnd,LeftFootEnd_accelY_LeftFootEnd,LeftFootEnd_accelZ_LeftFootEnd,LeftFootEnd_gyroX_LeftFootEnd,LeftFootEnd_gyroY_LeftFootEnd,LeftFootEnd_gyroZ_LeftFootEnd,LeftFootEnd_Joint angle_LeftFootEnd,LeftFootEnd_Relative pos X_LeftFootEnd,LeftFootEnd_Relative pos Y_LeftFootEnd,LeftFootEnd_Relative pos Z_LeftFootEnd,Spine_accelX_Spine,Spine_accelY_Spine,Spine_accelZ_Spine,Spine_gyroX_Spine,Spine_gyroY_Spine,Spine_gyroZ_Spine,Spine_Joint angle_Spine,Spine_Relative pos X_Spine,Spine_Relative pos Y_Spine,Spine_Relative pos Z_Spine,
0.0,0,0.0,0.0,0.0,0.0,0.0,0.0,0.0,0.0,0.0,0.0,0.0,0.0,0.0,0.0,0.0,0.0,0.0,0.0,0.0,0.0,0.0,0.0,0.0,0.0,0.0,0.0,NaN,0.0,0.0,0.0,0.0,0.0,0.0,0.0,0.0,0.0,NaN,0.0,0.0,0.0,0.0,0.0,0.0,0.0,0.0,0.0,NaN,0.0,0.0,0.0,0.0,0.0,0.0,0.0,0.0,0.0,0.0,0.0,0.0,0.0,0.0,0.0,0.0,0.0,0.0,0.0,0.0,0.0,0.0,0.0,0.0,0.0,0.0,0.0,0.0,0.0,NaN,0.0,0.0,0.0,0.0,0.0,0.0,0.0,0.0,0.0,NaN,0.0,0.0,0.0,0.0,0.0,0.0,0.0,0.0,0.0,NaN,0.0,0.0,0.0,0.0,0.0,0.0,0.0,0.0,0.0,0.0,0.0,0.0,0.0,0.0,0.0,0.0,0.0,0.0,0.0,0.0,0.0,0.0,0.0,
0.0195312497089617,1,0.0,0.0,0.0,0.0,0.0,0.0,0.0,0.0,0.0,0.0,0.0,0.0,0.0,0.0,0.0,0.0,0.0,0.0,0.0,0.0,0.0,0.0,0.0,0.0,0.0,0.0,NaN,0.0,0.0,0.0,0.0,0.0,0.0,0.0,0.0,0.0,NaN,0.0,0.0,0.0,0.0,0.0,0.0,0.0,0.0,0.0,NaN,0.0,0.0,0.0,0.0,0.0,0.0,0.0,0.0,0.0,0.0,0.0,0.0,0.0,0.0,0.0,0.0,0.0,0.0,0.0,0.0,0.0,0.0,0.0,0.0,0.0,0.0,0.0,0.0,0.0,NaN,0.0,0.0,0.0,0.0,0.0,0.0,0.0,0.0,0.0,NaN,0.0,0.0,0.0,0.0,0.0,0.0,0.0,0.0,0.0,NaN,0.0,0.0,0.0,0.0,0.0,0.0,0.0,0.0,0.0,0.0,0.0,0.0,0.0,0.0,0.0,0.0,0.0,0.0,0.0,0.0,0.0,0.0,0.0,
0.0390624994179234,2,0.0,0.0,0.0,0.0,0.0,0.0,0.0,0.0,0.0,0.0,0.0,0.0,0.0,0.0,0.0,0.0,0.0,0.0,0.0,0.0,0.0,0.0,0.0,0.0,0.0,0.0,NaN,0.0,0.0,0.0,0.0,0.0,0.0,0.0,0.0,0.0,NaN,0.0,0.0,0.0,0.0,0.0,0.0,0.0,0.0,0.0,NaN,0.0,0.0,0.0,0.0,0.0,0.0,0.0,0.0,0.0,0.0,0.0,0.0,0.0,0.0,0.0,0.0,0.0,0.0,0.0,0.0,0.0,0.0,0.0,0.0,0.0,0.0,0.0,0.0,0.0,NaN,0.0,0.0,0.0,0.0,0.0,0.0,0.0,0.0,0.0,NaN,0.0,0.0,0.0,0.0,0.0,0.0,0.0,0.0,0.0,NaN,0.0,0.0,0.0,0.0,0.0,0.0,0.0,0.0,0.0,0.0,0.0,0.0,0.0,0.0,0.0,0.0,0.0,0.0,0.0,0.0,0.0,0.0,0.0,
0.0585937491268851,3,-0.8036499,-0.3079834,0.5438843,-0.055664062,0.0068359375,-0.12792969,0.0,0.0,0.0,0.0,0.0,0.0,0.0,0.0,0.0,0.0,0.0,-0.021509588,0.014455379,-0.99979126,-0.93969727,-0.010620117,-0.19732666,0.052734375,-0.08105469,0.028320312,7.9193873,-0.44531578,0.29927117,-20.69878,-0.99560547,0.064697266,0.02758789,-0.0068359375,0.23242188,-0.10058594,6.5937114,-3.4296193,-56.24133,-14.085731,0.52227783,0.12335205,0.85321045,0.07128906,-0.0029296875,-0.051757812,21.279825,-2.588774,-128.21738,-11.892187,0.0,0.0,0.0,0.0,0.0,0.0,0.0,-21.516184,-127.94677,-18.356571,0.0,0.0,0.0,0.0,0.0,0.0,0.0,0.021509588,-0.014455379,0.99979126,-0.953125,0.053894043,-0.2756958,0.040039062,-0.21484375,-0.08886719,4.6923127,0.44531578,-0.29927117,20.69878,-0.98010254,-0.020629883,-0.1081543,0.030273438,-0.045898438,-0.01953125,2.4847496,-1.4534321,-57.036354,15.465644,0.5039673,0.02331543,0.87158203,0.5019531,1.1152344,0.6044922,28.378208,-4.256151,-128.90816,11.882137,0.0,0.0,0.0,0.0,0.0,0.0,0.0,-24.24915,-128.3695,11.555556,-0.97283936,-0.07751465,-0.12365723,0.041992188,1.2089844,0.6640625,0.0,0.32863033,44.99992,0.64355654,
0.0781249988358468,4,-0.8099365,-0.2774048,0.5493164,-0.018554688,0.025390625,-0.12792969,0.0,0.0,0.0,0.0,0.0,0.0,0.0,0.0,0.0,0.0,0.0,-0.022882998,0.016670372,-0.9996955,-0.953125,0.037841797,-0.19567871,0.109375,-0.06347656,0.046875,8.00484,-0.4737497,0.3451284,-20.696793,-1.0132446,0.07745361,0.0067749023,-0.013671875,-0.046875,-0.04296875,6.646234,-3.464923,-56.20186,-14.124439,0.5091553,0.11773682,0.8511963,0.051757812,0.03515625,-0.051757812,21.227444,-2.4413946,-128.17236,-11.890088,0.0,0.0,0.0,0.0,0.0,0.0,0.0,-21.361225,-127.90307,-18.376724,0.0,0.0,0.0,0.0,0.0,0.0,0.0,0.022882998,-0.016670372,0.9996955,-0.9451294,0.066711426,-0.28344727,0.18066406,-0.18066406,-0.07714844,4.417654,0.4737497,-0.3451284,20.696793,-0.99731445,-0.029907227,-0.122924805,0.0107421875,-0.045898438,0.018554688,2.2733974,-1.4972863,-57.098217,15.656002,0.4967041,0.0154418945,0.8596802,0.24902344,0.60546875,0.265625,27.873707,-4.2724237,-128.9713,12.0183115,0.0,0.0,0.0,0.0,0.0,0.0,0.0,-24.252903,-128.2031,11.469506,-0.99017334,-0.090148926,-0.110961914,0.022460938,0.94433594,0.54589844,0.0,0.32191378,44.997044,0.74297744,
0.09765624854480849,5,-0.8067627,-0.2980957,0.5569458,-0.09375,0.0068359375,-0.18261719,0.0,0.0,0.0,0.0,0.0,0.0,0.0,0.0,0.0,0.0,0.0,-0.022475272,0.01823361,-0.9997643,-0.9360962,0.10424805,-0.14990234,0.034179688,-0.13476562,0.06542969,8.081042,-0.46530917,0.37749225,-20.69822,-1.0162354,0.076538086,0.0107421875,-0.0146484375,-0.047851562,-0.0048828125,6.7236247,-3.6310701,-56.16631,-14.20762,0.51605225,0.11175537,0.85009766,0.0126953125,0.036132812,-0.033203125,21.18819,-2.5877006,-128.13985,-11.964439,0.0,0.0,0.0,0.0,0.0,0.0,0.0,-21.498907,-127.8706,-18.47543,0.0,0.0,0.0,0.0,0.0,0.0,0.0,0.022475272,-0.01823361,0.9997643,-0.9350586,0.06573486,-0.30133057,0.16601562,-0.16601562,-0.08105469,4.225263,0.46530917,-0.37749225,20.69822,-0.9923096,-0.024963379,-0.1348877,0.048828125,-0.0078125,0.017578125,2.1173856,-1.529759,-57.140022,15.793648,0.50097656,0.033203125,0.871521,-0.115234375,0.053710938,-0.018554688,28.112751,-4.315302,-129.01303,12.121694,0.0,0.0,0.0,0.0,0.0,0.0,0.0,-24.293608,-128.20753,11.572722,-0.9941406,-0.07647705,-0.111694336,0.040039062,0.453125,0.32910156,0.0,0.30051845,44.99988,0.8139478,
0.11718749825377019,6,-0.8050537,-0.2645874,0.5532837,-0.0546875,-0.049804688,-0.14648438,0.0,0.0,0.0,0.0,0.0,0.0,0.0,0.0,0.0,0.0,0.0,-0.024319053,0.019514479,-0.9996704,-0.93133545,0.087524414,-0.17285156,-0.09863281,-0.09765625,0.047851562,8.192877,-0.5034803,0.40401015,-20.696276,-1.0007324,0.060302734,0.002746582,-0.0146484375,-0.06640625,-0.0048828125,6.8570094,-3.9004622,-56.12914,-14.255426,0.5070801,0.11682129,0.84625244,0.052734375,-0.0029296875,-0.033203125,21.222897,-2.8403318,-128.103,-11.982962,0.0,0.0,0.0,0.0,0.0,0.0,0.0,-21.743893,-127.836876,-18.518417,0.0,0.0,0.0,0.0,0.0,0.0,0.0,0.024319053,-0.019514479,0.9996704,-0.946167,0.08050537,-0.2861328,0.1875,-0.12988281,-0.083984375,4.0291967,0.5034803,-0.40401015,20.696276,-1.0003052,-0.033813477,-0.112976074,0.047851562,-0.08496094,0.0,1.9819891,-1.4896499,-57.17975,15.936511,0.519104,0.014343262,0.88049316,0.013671875,9.765625E-4,-0.016601562,28.364143,-4.3173347,-129.05026,12.286968,0.0,0.0,0.0,0.0,0.0,0.0,0.0,-24.296495,-128.25545,11.749037,-0.96972656,-0.07525635,-0.15350342,0.09667969,0.0390625,0.11328125,0.0,0.2881662,44.997684,0.8713856,
0.1367187479627319,7,-0.80682373,-0.2755127,0.5274048,0.056640625,0.024414062,-0.0546875,0.0,0.0,0.0,0.0,0.0,0.0,0.0,0.0,0.0,0.0,0.0,-0.024772882,0.019954525,-0.9996348,-0.95080566,0.05834961,-0.1638794,-0.022460938,0.12011719,0.029296875,8.141046,-0.5128739,0.41312054,-20.69554,-1.0021362,0.047973633,0.03540039,-0.0146484375,-0.06640625,-0.0234375,6.7870607,-3.9828584,-56.128582,-14.365279,0.51519775,0.12054443,0.854126,0.07128906,0.0546875,-0.033203125,21.22034,-2.9392042,-128.0945,-12.012117,0.0,0.0,0.0,0.0,0.0,0.0,0.0,-21.84031,-127.831116,-18.556988,0.0,0.0,0.0,0.0,0.0,0.0,0.0,0.024772882,-0.019954525,0.9996348,-0.939209,0.10217285,-0.27789307,0.15039062,-0.15136719,-0.08496094,3.9369633,0.5128739,-0.41312054,20.69554,-0.9920044,-0.020446777,-0.10211182,0.047851562,-0.06542969,0.018554688,1.8859555,-1.5501902,-57.19198,16.045195,0.49523926,0.023742676,0.8945923,-0.0048828125,0.018554688,-0.016601562,28.4013,-4.442561,-129.06114,12.403858,0.0,0.0,0.0,0.0,0.0,0.0,0.0,-24.42352,-128.27719,11.88853,-1.0023193,-0.08404541,-0.122802734,0.05859375,0.01953125,0.09472656,0.0,0.2868203,44.9966,0.89110583,
0.1562499976716936,8,-0.79345703,-0.29534912,0.4991455,0.020507812,-0.0126953125,0.001953125,0.0,0.0,0.0,0.0,0.0,0.0,0.0,0.0,0.0,0.0,0.0,-0.025584608,0.018300507,-0.99965125,-0.97320557,0.030029297,-0.13812256,-0.09765625,0.083984375,0.0107421875,7.9511504,-0.5296806,0.37887725,-20.695879,-1.0010986,0.04888916,0.03643799,-0.0146484375,-0.047851562,-0.0048828125,6.6818132,-3.9741797,-56.17808,-14.45731,0.5229492,0.10699463,0.8165283,0.051757812,0.09277344,-0.033203125,21.420782,-2.952194,-128.14374,-12.075844,0.0,0.0,0.0,0.0,0.0,0.0,0.0,-21.842192,-127.877625,-18.654253,0.0,0.0,0.0,0.0,0.0,0.0,0.0,0.025584608,-0.018300507,0.99965125,-0.9493408,0.1081543,-0.28063965,0.12011719,-0.12109375,-0.09375,3.98197,0.5296806,-0.37887725,20.695879,-0.9868164,-0.01184082,-0.094177246,0.047851562,-0.08496094,0.0,1.8409001,-1.611612,-57.16482,16.121206,0.49694824,0.027160645,0.8735962,-0.0048828125,0.0,-0.03515625,28.105713,-4.6596513,-129.027,12.539606,0.0,0.0,0.0,0.0,0.0,0.0,0.0,-24.640835,-128.25192,12.038102,-0.9921875,-0.09307861,-0.10803223,0.020507812,9.765625E-4,0.037109375,0.0,0.29861498,44.99818,0.8161342,
0.1757812473806553,9,-0.7887573,-0.27752686,0.5210571,0.020507812,-0.03125,0.001953125,0.0,0.0,0.0,0.0,0.0,0.0,0.0,0.0,0.0,0.0,0.0,-0.025760055,0.016717182,-0.9996223,-0.96099854,0.04168701,-0.14312744,-0.060546875,-0.080078125,0.047851562,7.945223,-0.53331316,0.3460975,-20.695282,-1.0031738,0.045959473,0.03741455,-0.013671875,-0.028320312,-0.0234375,6.7909894,-4.1630354,-56.195847,-14.44975,0.4899292,0.11328125,0.83636475,0.032226562,0.0546875,-0.051757812,21.436272,-3.146157,-128.16258,-11.990614,0.0,0.0,0.0,0.0,0.0,0.0,0.0,-22.034348,-127.88613,-18.571018,0.0,0.0,0.0,0.0,0.0,0.0,0.0,0.025760055,-0.016717182,0.9996223,-0.9584961,0.13372803,-0.25335693,0.08496094,-0.087890625,-0.13671875,4.0407963,0.53331316,-0.3460975,20.695282,-0.9692383,0.013916016,-0.07543945,0.06542969,-0.10449219,0.018554688,1.8121855,-1.7132484,-57.130684,16.193745,0.50494385,0.01928711,0.87158203,-0.0048828125,0.01953125,-0.036132812,27.685745,-4.947436,-128.9855,12.687431,0.0,0.0,0.0,0.0,0.0,0.0,0.0,-24.929903,-128.21873,12.197666,-0.9951172,-0.076293945,-0.12860107,0.040039062,0.0390625,0.056640625,0.0,0.30731082,44.997013,0.7445882,
0.19531249708961698,10,-0.78582764,-0.2755127,0.5388794,0.01953125,0.005859375,0.020507812,0.0,0.0,0.0,0.0,0.0,0.0,0.0,0.0,0.0,0.0,0.0,-0.026532441,0.01594172,-0.999636,-0.9467163,0.060058594,-0.14025879,0.07128906,0.009765625,0.047851562,7.944234,-0.54930425,0.330043,-20.695564,-0.99591064,0.022583008,0.062072754,-0.0146484375,-0.047851562,-0.0048828125,6.794916,-4.2995863,-56.208797,-14.467202,0.51257324,0.08654785,0.8251343,0.051757812,0.016601562,-0.033203125,21.72472,-3.325026,-128.17244,-11.893657,0.0,0.0,0.0,0.0,0.0,0.0,0.0,-22.204454,-127.89532,-18.497164,0.0,0.0,0.0,0.0,0.0,0.0,0.0,0.026532441,-0.01594172,0.999636,-0.9715576,0.1315918,-0.21868896,0.02734375,-0.1640625,-0.115234375,4.030217,0.54930425,-0.330043,20.695564,-1.0111694,0.0068359375,-0.057250977,0.047851562,-0.06542969,0.018554688,1.6696465,-1.8842862,-57.118828,16.36031,0.5140381,0.011291504,0.8805542,-0.0048828125,0.018554688,-0.016601562,27.107477,-5.281638,-128.9629,12.860378,0.0,0.0,0.0,0.0,0.0,0.0,0.0,-25.263641,-128.20355,12.388442,-0.99108887,-0.080322266,-0.11773682,0.05859375,-0.017578125,0.017578125,0.0,0.29941443,44.998585,0.70966905,
0.21484374679857868,11,-0.75860596,-0.29821777,0.53704834,-0.018554688,0.061523438,0.0029296875,0.0,0.0,0.0,0.0,0.0,0.0,0.0,0.0,0.0,0.0,0.0,-0.025722146,0.015328352,-0.9996555,-0.9817505,0.06573486,-0.14849854,-0.022460938,-0.025390625,0.047851562,7.9267206,-0.53252757,0.31734443,-20.695969,-0.99487305,0.024597168,0.056152344,0.005859375,-0.029296875,-0.0048828125,6.769845,-4.391914,-56.217365,-14.514556,0.5186157,0.14196777,0.8623047,0.052734375,-0.0029296875,-0.033203125,21.870676,-3.4734411,-128.17502,-11.833911,0.0,0.0,0.0,0.0,0.0,0.0,0.0,-22.351105,-127.889496,-18.444958,0.0,0.0,0.0,0.0,0.0,0.0,0.0,0.025722146,-0.015328352,0.9996555,-0.9715576,0.12371826,-0.22473145,0.072265625,-0.18945312,-0.123046875,4.023263,0.53252757,-0.31734443,20.695969,-0.9744873,0.047180176,-0.06842041,0.048828125,-0.026367188,-9.765625E-4,1.5355686,-2.1355815,-57.115147,16.566496,0.5159912,0.007385254,0.87457275,-0.0048828125,0.0,-0.016601562,26.526089,-5.696804,-128.94539,13.098788,0.0,0.0,0.0,0.0,0.0,0.0,0.0,-25.680014,-128.18031,12.674548,-0.9819336,-0.074523926,-0.12261963,0.020507812,-0.036132812,-0.020507812,0.0,0.28560096,44.99859,0.6826431,
0.23437499650754037,12,-0.7614136,-0.30914307,0.51220703,0.01953125,0.024414062,0.020507812,0.0,0.0,0.0,0.0,0.0,0.0,0.0,0.0,0.0,0.0,0.0,-0.026747763,0.015341168,-0.9996704,-0.98651123,0.086364746,-0.12652588,-0.060546875,0.0107421875,0.0107421875,7.915321,-0.5537625,0.31760973,-20.696276,-1.0018921,0.024475098,0.08093262,0.0068359375,0.044921875,0.033203125,6.7666864,-4.5272155,-56.214596,-14.557863,0.5252075,0.11853027,0.8383789,0.033203125,0.016601562,-0.051757812,21.922405,-3.6384382,-128.16733,-11.7629795,0.0,0.0,0.0,0.0,0.0,0.0,0.0,-22.526253,-127.86193,-18.33963,0.0,0.0,0.0,0.0,0.0,0.0,0.0,0.026747763,-0.015341168,0.9996704,-0.9694824,0.11193848,-0.23590088,0.12695312,-0.18554688,-0.099609375,3.9348736,0.5537625,-0.31760973,20.696276,-0.97991943,0.015686035,-0.03564453,0.01171875,-0.0068359375,-9.765625E-4,1.4185833,-2.3158588,-57.11755,16.791304,0.5223999,0.0052490234,0.831604,-0.0048828125,-0.018554688,-0.016601562,26.116247,-5.99424,-128.95384,13.370346,0.0,0.0,0.0,0.0,0.0,0.0,0.0,-25.97776,-128.19394,12.958021,-0.9840088,-0.07745361,-0.11968994,9.765625E-4,-0.09277344,-0.041015625,0.0,0.32648885,45.000217,0.6818478,
0.2539062462165021,13,-0.7761841,-0.34655762,0.526001,0.01953125,0.061523438,0.05859375,0.0,0.0,0.0,0.0,0.0,0.0,0.0,0.0,0.0,0.0,0.0,-0.026911795,0.013986155,-0.99966586,-0.98651123,0.082214355,-0.08703613,0.18457031,-0.08203125,0.046875,7.9244666,-0.5571576,0.2895568,-20.696182,-0.9724121,0.07165527,0.037597656,0.0068359375,0.026367188,0.013671875,6.869184,-4.6942806,-56.21995,-14.4924965,0.5036011,0.087524414,0.84783936,0.033203125,-0.07910156,-0.034179688,22.049412,-3.8884087,-128.17432,-11.648174,0.0,0.0,0.0,0.0,0.0,0.0,0.0,-22.781576,-127.86624,-18.21423,0.0,0.0,0.0,0.0,0.0,0.0,0.0,0.026911795,-0.013986155,0.99966586,-0.9694214,0.09741211,-0.2796631,0.083984375,-0.14257812,-0.09472656,3.8970187,0.5571576,-0.2895568,20.696182,-0.9781494,0.015991211,-0.06939697,0.03125,0.0126953125,-0.020507812,1.3170041,-2.465514,-57.093594,16.949429,0.5269165,0.0036010742,0.86950684,-0.005859375,-0.037109375,-0.03515625,25.744888,-6.26529,-128.92435,13.524948,0.0,0.0,0.0,0.0,0.0,0.0,0.0,-26.249332,-128.17212,13.133595,-0.9768677,-0.084228516,-0.1317749,-0.018554688,-0.055664062,-0.040039062,0.0,0.41932648,44.99946,0.61829126,
0.2734374959254638,14,-0.7616577,-0.29327393,0.538208,9.765625E-4,0.061523438,0.021484375,0.0,0.0,0.0,0.0,0.0,0.0,0.0,0.0,0.0,0.0,0.0,-0.026762396,0.014000542,-0.999641,-0.96643066,0.09124756,-0.18408203,0.109375,-0.1171875,0.046875,8.0695915,-0.5540651,0.28985462,-20.69567,-0.9837036,0.06463623,0.06732178,-0.013671875,0.0087890625,0.013671875,7.0149255,-4.877097,-56.2035,-14.417736,0.52770996,0.09222412,0.82128906,0.033203125,-0.041015625,-0.052734375,22.313047,-4.1262374,-128.1583,-11.530937,0.0,0.0,0.0,0.0,0.0,0.0,0.0,-23.009872,-127.840485,-18.119982,0.0,0.0,0.0,0.0,0.0,0.0,0.0,0.026762396,-0.014000542,0.999641,-0.9523926,0.1159668,-0.26068115,0.11425781,-0.17285156,-0.0859375,3.865891,0.5540651,-0.28985462,20.69567,-0.996521,0.0030517578,-0.10003662,-0.005859375,0.05078125,-0.001953125,1.2771753,-2.5473585,-57.09526,17.040972,0.5269165,0.016662598,0.8654785,0.0126953125,-0.037109375,-0.03515625,25.58596,-6.393834,-128.92807,13.62641,0.0,0.0,0.0,0.0,0.0,0.0,0.0,-26.378239,-128.18027,13.241733,-0.97784424,-0.0670166,-0.103515625,-0.056640625,-0.017578125,-0.0390625,0.0,0.43432137,44.998024,0.61859524,
0.2929687456344255,15,-0.78967285,-0.3031006,0.5426636,0.01953125,0.024414062,0.0390625,0.0,0.0,0.0,0.0,0.0,0.0,0.0,0.0,0.0,0.0,0.0,-0.026723742,0.013639344,-0.99972785,-0.95373535,0.06439209,-0.1786499,-0.07910156,-0.061523438,0.047851562,7.9288497,-0.5532626,0.28237668,-20.697464,-0.9888916,0.056274414,0.04345703,0.025390625,0.0078125,-0.0234375,6.9784226,-4.9515147,-56.22193,-14.564827,0.47564697,0.0947876,0.86169434,0.052734375,-0.0029296875,-0.033203125,22.520735,-4.235706,-128.17896,-11.692852,0.0,0.0,0.0,0.0,0.0,0.0,0.0,-23.11354,-127.85687,-18.299374,0.0,0.0,0.0,0.0,0.0,0.0,0.0,0.026723742,-0.013639344,0.99972785,-0.94628906,0.11206055,-0.2786255,0.07421875,-0.17285156,-0.125,3.8376758,0.5532626,-0.28237668,20.697464,-0.9786377,0.0028076172,-0.11413574,0.01171875,0.01171875,-0.001953125,1.2508571,-2.6609726,-57.08945,17.152657,0.5169678,0.0064086914,0.8755493,0.0126953125,-0.017578125,-0.03515625,25.687458,-6.503561,-128.91853,13.676954,0.0,0.0,0.0,0.0,0.0,0.0,0.0,-26.488314,-128.18161,13.303695,-0.96777344,-0.08148193,-0.12475586,-0.11425781,-0.018554688,-9.765625E-4,0.0,0.48040393,45.00143,0.60111535,
0.3124999953433872,16,-0.8046875,-0.30700684,0.5578003,0.01953125,0.04296875,0.05859375,0.0,0.0,0.0,0.0,0.0,0.0,0.0,0.0,0.0,0.0,0.0,-0.02744478,0.013902897,-0.999638,-0.96173096,0.064331055,-0.14294434,0.0146484375,-0.043945312,0.047851562,7.9346905,-0.5681924,0.28783306,-20.695604,-1.0047607,0.06097412,0.03253174,0.005859375,0.0078125,0.033203125,7.026018,-5.0666637,-56.208443,-14.593185,0.5296631,0.082214355,0.84381104,0.013671875,-0.0029296875,-0.033203125,22.62892,-4.382024,-128.16092,-11.715786,0.0,0.0,0.0,0.0,0.0,0.0,0.0,-23.251766,-127.83797,-18.34397,0.0,0.0,0.0,0.0,0.0,0.0,0.0,0.02744478,-0.013902897,0.999638,-0.9453125,0.11999512,-0.2883911,0.061523438,-0.16015625,-0.111328125,3.8137727,0.5681924,-0.28783306,20.695604,-0.98461914,0.0018920898,-0.1071167,0.01171875,-0.0068359375,-9.765625E-4,1.2400156,-2.743638,-57.095104,17.207743,0.5249634,0.022583008,0.8694458,0.013671875,-0.018554688,-0.016601562,25.526896,-6.633964,-128.92435,13.679842,0.0,0.0,0.0,0.0,0.0,0.0,0.0,-26.61904,-128.19482,13.309909,-0.9770508,-0.09820557,-0.099243164,-0.11425781,-0.038085938,0.017578125,0.0,0.52659893,44.997776,0.61136836,
0.3320312450523489,17,-0.79473877,-0.29614258,0.5527344,9.765625E-4,0.061523438,0.021484375,0.0,0.0,0.0,0.0,0.0,0.0,0.0,0.0,0.0,0.0,0.0,-0.026533812,0.012772553,-0.9997042,-0.9623413,0.09906006,-0.18902588,0.034179688,-0.0625,-0.0087890625,7.783968,-0.5493324,0.26443145,-20.696978,-0.9873047,0.07543945,0.016784668,0.005859375,-0.0107421875,0.033203125,7.050711,-5.121252,-56.235622,-14.689104,0.52038574,0.12719727,0.868042,0.052734375,-0.022460938,-0.052734375,22.517694,-4.4148273,-128.19142,-11.808065,0.0,0.0,0.0,0.0,0.0,0.0,0.0,-23.28451,-127.86116,-18.44025,0.0,0.0,0.0,0.0,0.0,0.0,0.0,0.026533812,-0.012772553,0.9997042,-0.9473877,0.124938965,-0.28234863,0.1328125,-0.115234375,-0.12695312,3.8089945,0.5493324,-0.26443145,20.696978,-0.9975586,-0.0029296875,-0.08514404,0.030273438,-0.0068359375,-0.020507812,1.2017076,-2.7725453,-57.067795,17.204205,0.49890137,0.014282227,0.87164307,0.0126953125,-0.037109375,-0.03515625,25.362293,-6.7023983,-128.88724,13.625114,0.0,0.0,0.0,0.0,0.0,0.0,0.0,-26.689083,-128.15837,13.269316,-0.9769287,-0.089904785,-0.14587402,-0.09472656,-0.018554688,0.017578125,0.0,0.59980595,44.998734,0.55899894,
0.3515624947613106,18,-0.77978516,-0.2991333,0.5623169,0.020507812,-0.03125,0.0390625,0.0,0.0,0.0,0.0,0.0,0.0,0.0,0.0,0.0,0.0,0.0,-0.02449432,0.012301325,-0.9997833,-0.9736328,0.07446289,-0.1574707,-0.060546875,-0.04296875,0.047851562,7.7190213,-0.50710785,0.25467557,-20.698612,-0.99871826,0.061767578,0.030578613,-0.013671875,0.0087890625,0.013671875,7.051991,-5.1434216,-56.254005,-14.801591,0.53009033,0.10656738,0.85791016,0.0126953125,0.036132812,-0.033203125,22.554947,-4.4344463,-128.21136,-11.925203,0.0,0.0,0.0,0.0,0.0,0.0,0.0,-23.298124,-127.872375,-18.572296,0.0,0.0,0.0,0.0,0.0,0.0,0.0,0.02449432,-0.012301325,0.9997833,-0.95843506,0.12890625,-0.27819824,0.046875,-0.14550781,-0.115234375,3.8858473,0.50710785,-0.25467557,20.698612,-0.98065186,-0.009338379,-0.070373535,0.01171875,-0.0068359375,-0.01953125,1.2647038,-2.90735,-57.058887,17.251116,0.5270386,0.017578125,0.87145996,0.032226562,-0.017578125,0.0029296875,25.501184,-6.829069,-128.88315,13.678112,0.0,0.0,0.0,0.0,0.0,0.0,0.0,-26.815798,-128.1572,13.340989,-0.9882202,-0.09350586,-0.078186035,-0.11328125,0.018554688,0.037109375,0.0,0.56747407,45.000336,0.5397809,
0.37109374447027227,19,-0.8115845,-0.31097412,0.5390625,0.001953125,-0.03125,0.0390625,0.0,0.0,0.0,0.0,0.0,0.0,0.0,0.0,0.0,0.0,0.0,-0.023529023,0.011356341,-0.9997918,-0.92749023,0.07574463,-0.18682861,-0.00390625,-0.0625,0.029296875,7.613834,-0.4871225,0.23511147,-20.698792,-1.0028076,0.058044434,0.022583008,0.005859375,-0.0107421875,-0.0234375,7.10473,-5.1909223,-56.27629,-14.865168,0.50683594,0.10217285,0.84606934,0.033203125,0.016601562,-0.051757812,22.556747,-4.463379,-128.23123,-12.022892,0.0,0.0,0.0,0.0,0.0,0.0,0.0,-23.31964,-127.89117,-18.690197,0.0,0.0,0.0,0.0,0.0,0.0,0.0,0.023529023,-0.011356341,0.9997918,-0.9603882,0.10522461,-0.28259277,-0.040039062,-0.13671875,-0.14355469,3.862039,0.4871225,-0.23511147,20.698792,-1.0114746,0.007385254,-0.10888672,0.029296875,-0.045898438,-9.765625E-4,1.2705699,-2.980512,-57.039207,17.319828,0.49682617,0.014343262,0.8666382,0.0126953125,-0.037109375,-0.016601562,25.56066,-6.9013786,-128.862,13.712213,0.0,0.0,0.0,0.0,0.0,0.0,0.0,-26.888449,-128.13423,13.392848,-0.9699707,-0.101257324,-0.095336914,-0.11425781,-0.056640625,-0.020507812,0.0,0.62522864,44.998905,0.49641532,
0.39062499417923396,20,-0.8099365,-0.2695923,0.5374756,-0.017578125,-0.0126953125,0.021484375,0.0,0.0,0.0,0.0,0.0,0.0,0.0,0.0,0.0,0.0,0.0,-0.023408324,0.010797032,-0.9998314,-0.94573975,0.06335449,-0.20050049,-0.15429688,0.047851562,-0.0078125,7.5074944,-0.4846243,0.223532,-20.69961,-0.9923096,0.07373047,0.010803223,-0.033203125,-0.009765625,-0.0048828125,7.113864,-5.2164893,-56.295685,-14.979952,0.5083618,0.13238525,0.85528564,0.033203125,-0.0029296875,-0.033203125,22.470268,-4.4522457,-128.25262,-12.182089,0.0,0.0,0.0,0.0,0.0,0.0,0.0,-23.302015,-127.91211,-18.866291,0.0,0.0,0.0,0.0,0.0,0.0,0.0,0.023408324,-0.010797032,0.9998314,-0.946228,0.092285156,-0.26611328,-9.765625E-4,-0.1171875,-0.125,3.8128486,0.4846243,-0.223532,20.69961,-0.99871826,-0.0045776367,-0.10998535,0.030273438,-0.026367188,-0.01953125,1.2143426,-2.9675071,-57.0318,17.41276,0.52490234,0.01763916,0.86450195,-0.0048828125,0.0,-0.03515625,25.473272,-6.8892946,-128.85394,13.779469,0.0,0.0,0.0,0.0,0.0,0.0,0.0,-26.876144,-128.13878,13.451936,-0.961792,-0.09625244,-0.1161499,-0.09472656,9.765625E-4,-0.0390625,0.0,0.6193648,45.000633,0.47145438,
0.41015624388819566,21,-0.79852295,-0.3149414,0.53082275,0.001953125,-0.05078125,0.0390625,0.0,0.0,0.0,0.0,0.0,0.0,0.0,0.0,0.0,0.0,0.0,-0.0218094,0.010534495,-0.99986094,-0.95892334,0.04937744,-0.12432861,-0.2109375,0.0126953125,0.01171875,7.437275,-0.4515217,0.21809669,-20.70022,-0.98779297,0.059326172,0.03753662,-0.013671875,-0.028320312,-0.0048828125,7.1400137,-5.266405,-56.30272,-15.09389,0.5262451,0.1204834,0.8364258,0.0126953125,0.036132812,-0.033203125,22.517212,-4.4967527,-128.25665,-12.309105,0.0,0.0,0.0,0.0,0.0,0.0,0.0,-23.334045,-127.918015,-19.028881,0.0,0.0,0.0,0.0,0.0,0.0,0.0,0.0218094,-0.010534495,0.99986094,-0.96435547,0.0904541,-0.27490234,0.0546875,-0.19140625,-0.12402344,3.748835,0.4515217,-0.21809669,20.70022,-0.99871826,-0.0045776367,-0.10998535,0.030273438,-0.026367188,-0.01953125,1.1899254,-3.0040011,-57.031834,17.507486,0.51208496,0.009216309,0.88256836,0.0126953125,-0.055664062,-0.015625,25.4871,-6.9257884,-128.85397,13.874195,0.0,0.0,0.0,0.0,0.0,0.0,0.0,-26.914083,-128.1427,13.55124,-0.9708252,-0.088378906,-0.1159668,-0.037109375,-0.017578125,-0.020507812,0.0,0.62983155,45.00018,0.46038195,
0.42968749359715736,22,-0.7952881,-0.3406372,0.52453613,-0.016601562,-0.03125,0.040039062,0.0,0.0,0.0,0.0,0.0,0.0,0.0,0.0,0.0,0.0,0.0,-0.021382987,0.011405722,-0.9998763,-0.95806885,0.036743164,-0.15216064,-0.041015625,-0.080078125,-0.0078125,7.5916348,-0.44269437,0.23613383,-20.70054,-0.9990845,0.0513916,0.06225586,-0.013671875,-0.009765625,-0.0234375,7.257906,-5.3941336,-56.269917,-15.0661745,0.4960327,0.11303711,0.85601807,0.032226562,0.036132812,-0.0146484375,22.6775,-4.6492867,-128.2252,-12.279732,0.0,0.0,0.0,0.0,0.0,0.0,0.0,-23.482183,-127.878265,-19.009645,0.0,0.0,0.0,0.0,0.0,0.0,0.0,0.021382987,-0.011405722,0.9998763,-0.95635986,0.10107422,-0.24212646,0.07910156,-0.15820312,-0.109375,3.6931076,0.44269437,-0.23613383,20.70054,-0.982666,-0.0031738281,-0.09222412,0.030273438,-0.045898438,-0.01953125,1.1530093,-3.0795507,-57.05485,17.633137,0.5118408,0.027526855,0.86151123,0.013671875,-0.018554688,0.0029296875,25.043056,-7.0997353,-128.86646,14.007182,0.0,0.0,0.0,0.0,0.0,0.0,0.0,-27.08757,-128.15901,13.67811,-0.98394775,-0.072631836,-0.11755371,-0.017578125,9.765625E-4,0.017578125,0.0,0.612593,45.000698,0.5002283,
0.44921874330611905,23,-0.82159424,-0.2913208,0.51171875,0.020507812,-0.03125,0.0390625,0.0,0.0,0.0,0.0,0.0,0.0,0.0,0.0,0.0,0.0,0.0,-0.020509034,0.010541392,-0.9998707,-0.9608154,0.057556152,-0.1706543,-0.00390625,-0.043945312,0.029296875,7.5368953,-0.42459896,0.21823947,-20.700424,-0.99053955,0.06890869,0.06036377,-0.0126953125,0.0087890625,-0.0234375,7.2460566,-5.4257874,-56.288136,-15.104822,0.5037842,0.09631348,0.8479614,0.033203125,-0.041015625,-0.034179688,22.759651,-4.708731,-128.24387,-12.2691555,0.0,0.0,0.0,0.0,0.0,0.0,0.0,-23.541328,-127.8956,-19.003067,0.0,0.0,0.0,0.0,0.0,0.0,0.0,0.020509034,-0.010541392,0.9998707,-0.96240234,0.10809326,-0.25775146,0.17871094,-0.17871094,-0.09472656,3.655645,0.42459896,-0.21823947,20.700424,-0.98876953,-0.0068359375,-0.101135254,0.030273438,-0.026367188,-9.765625E-4,1.1708609,-3.1626558,-57.040234,17.795116,0.50671387,0.008605957,0.8586426,0.03125,-0.017578125,-0.03515625,24.951572,-7.2238293,-128.85178,14.163034,0.0,0.0,0.0,0.0,0.0,0.0,0.0,-27.211086,-128.14915,13.848892,-0.9829712,-0.07659912,-0.111694336,-0.037109375,9.765625E-4,0.017578125,0.0,0.6258968,44.99943,0.46157968,
0.46874999301508075,24,-0.81463623,-0.31195068,0.54608154,-0.017578125,0.005859375,0.0029296875,0.0,0.0,0.0,0.0,0.0,0.0,0.0,0.0,0.0,0.0,0.0,-0.019105732,0.010501596,-0.9998732,-0.96813965,0.035827637,-0.12927246,-0.13574219,-0.005859375,0.047851562,7.588248,-0.3955477,0.21741559,-20.700478,-0.97540283,0.038024902,0.04437256,-0.013671875,-0.029296875,0.0146484375,7.298664,-5.4964457,-56.283092,-15.121723,0.5079956,0.11505127,0.8206177,0.033203125,-0.0029296875,-0.033203125,22.787573,-4.800516,-128.23969,-12.247291,0.0,0.0,0.0,0.0,0.0,0.0,0.0,-23.638586,-127.87967,-18.965963,0.0,0.0,0.0,0.0,0.0,0.0,0.0,0.019105732,-0.010501596,0.9998732,-0.9562988,0.09552002,-0.30950928,0.0546875,-0.057617188,-0.14453125,3.6070635,0.3955477,-0.21741559,20.700478,-0.98443604,0.008605957,-0.095214844,-0.0068359375,-0.0068359375,-9.765625E-4,1.003077,-3.0888934,-57.043,17.767363,0.51776123,0.012756348,0.8555298,0.032226562,-0.017578125,0.0029296875,24.621826,-7.231767,-128.84785,14.145275,0.0,0.0,0.0,0.0,0.0,0.0,0.0,-27.218912,-128.14896,13.833012,-0.97491455,-0.09503174,-0.123046875,-0.056640625,9.765625E-4,0.017578125,0.0,0.6138855,44.99844,0.46088517,
0.48828124272404244,25,-0.772522,-0.31298828,0.538208,0.01953125,-0.0126953125,-0.016601562,0.0,0.0,0.0,0.0,0.0,0.0,0.0,0.0,0.0,0.0,0.0,-0.01809749,0.009774029,-0.9998829,-0.95477295,0.05621338,-0.13128662,0.0146484375,-0.025390625,0.06640625,7.6428785,-0.37467346,0.20235269,-20.700678,-0.993103,0.01751709,0.06500244,-0.033203125,-0.009765625,-0.0048828125,7.375999,-5.583559,-56.28583,-15.0955925,0.5171509,0.120666504,0.8334961,0.033203125,0.016601562,-0.033203125,22.806902,-4.907246,-128.23473,-12.167502,0.0,0.0,0.0,0.0,0.0,0.0,0.0,-23.741985,-127.865906,-18.89201,0.0,0.0,0.0,0.0,0.0,0.0,0.0,0.01809749,-0.009774029,0.9998829,-0.96643066,0.10809326,-0.25775146,0.01171875,-0.14941406,-0.119140625,3.6174705,0.37467346,-0.20235269,20.700678,-0.9795532,-0.0014038086,-0.08532715,0.0107421875,-0.02734375,0.017578125,0.9634743,-3.121197,-57.030567,17.81045,0.50598145,-0.0048217773,0.88165283,0.013671875,9.765625E-4,-0.03515625,24.452406,-7.3276224,-128.83612,14.209864,0.0,0.0,0.0,0.0,0.0,0.0,0.0,-27.314884,-128.1394,13.91103,-0.9840698,-0.09686279,-0.1270752,9.765625E-4,0.020507812,-9.765625E-4,0.0,0.6104369,44.998062,0.42881525,
0.5078124924330042,26,-0.7895508,-0.3071289,0.5267334,0.020507812,-0.03125,0.020507812,0.0,0.0,0.0,0.0,0.0,0.0,0.0,0.0,0.0,0.0,0.0,-0.01852715,0.009974709,-0.9999799,-0.9534912,0.08001709,-0.15576172,0.052734375,-0.0078125,0.029296875,7.677236,-0.3835708,0.20650741,-20.702684,-1.0012817,0.043701172,0.05029297,-0.052734375,-0.02734375,-0.0048828125,7.3943577,-5.6391506,-56.2752,-15.088822,0.50286865,0.10626221,0.83428955,0.013671875,-0.0029296875,-0.033203125,23.164242,-5.0000663,-128.2243,-12.151602,0.0,0.0,0.0,0.0,0.0,0.0,0.0,-23.82644,-127.84844,-18.902735,0.0,0.0,0.0,0.0,0.0,0.0,0.0,0.01852715,-0.009974709,0.9999799,-0.9492798,0.10217285,-0.26690674,0.013671875,-0.11328125,-0.140625,3.5805304,0.3835708,-0.20650741,20.702684,-1.0045166,0.0032348633,-0.09899902,0.030273438,-0.026367188,-9.765625E-4,0.9715643,-3.132131,-57.037632,17.862356,0.5250244,0.019470215,0.8734741,0.0126953125,-0.017578125,-0.03515625,24.44823,-7.354465,-128.843,14.221605,0.0,0.0,0.0,0.0,0.0,0.0,0.0,-27.34226,-128.14758,13.938973,-0.9790039,-0.09490967,-0.13201904,9.765625E-4,0.01953125,0.056640625,0.0,0.6232722,45.002613,0.43734932,
0.5273437421419659,27,-0.80670166,-0.2824707,0.51745605,0.020507812,-0.0126953125,0.001953125,0.0,0.0,0.0,0.0,0.0,0.0,0.0,0.0,0.0,0.0,0.0,-0.018256366,0.009631626,-0.9999459,-0.9546509,0.06719971,-0.15093994,-0.24902344,-0.0234375,0.048828125,7.6247034,-0.37796324,0.19940448,-20.701979,-0.97509766,0.051330566,0.076171875,0.005859375,0.0078125,0.0146484375,7.382513,-5.7319384,-56.28199,-15.19624,0.49102783,0.114990234,0.8688965,0.013671875,-0.021484375,-0.034179688,23.362038,-5.150051,-128.23122,-12.22429,0.0,0.0,0.0,0.0,0.0,0.0,0.0,-23.97456,-127.84998,-18.979736,0.0,0.0,0.0,0.0,0.0,0.0,0.0,0.018256366,-0.009631626,0.9999459,-0.9492798,0.10101318,-0.23327637,0.076171875,-0.15527344,-0.12695312,3.6085289,0.37796324,-0.19940448,20.701979,-0.98327637,0.0073242188,-0.0713501,0.01171875,-0.0068359375,-9.765625E-4,1.0642244,-3.2453282,-57.02487,17.953373,0.5098877,0.021484375,0.864563,0.03125,-0.017578125,-0.03515625,24.379784,-7.498353,-128.82439,14.314539,0.0,0.0,0.0,0.0,0.0,0.0,0.0,-27.48732,-128.12192,14.047128,-0.9953003,-0.09222412,-0.09710693,9.765625E-4,0.038085938,0.056640625,0.0,0.6340917,45.0007,0.42187655,
0.5468749918509276,28,-0.805542,-0.29925537,0.5132446,0.020507812,-0.0126953125,0.0390625,0.0,0.0,0.0,0.0,0.0,0.0,0.0,0.0,0.0,0.0,0.0,-0.018941492,0.0100946,-0.9998749,-0.94299316,0.117370605,-0.18621826,-0.19238281,0.0126953125,0.030273438,7.592462,-0.39214763,0.2089895,-20.70051,-1.0059814,0.01953125,0.024353027,0.005859375,0.0078125,0.0146484375,7.4433403,-5.8667207,-56.27766,-15.342178,0.5041504,0.11773682,0.8659668,0.032226562,0.09277344,-0.033203125,23.278349,-5.2512107,-128.22632,-12.338456,0.0,0.0,0.0,0.0,0.0,0.0,0.0,-24.072329,-127.832634,-19.101736,0.0,0.0,0.0,0.0,0.0,0.0,0.0,0.018941492,-0.0100946,0.9998749,-0.95635986,0.11010742,-0.26965332,0.20019531,-0.123046875,-0.1171875,3.534353,0.39214763,-0.2089895,20.70051,-0.994812,-0.014709473,-0.08416748,0.0107421875,-0.08496094,0.0,1.0797404,-3.2475832,-57.038063,18.051035,0.5100708,0.011230469,0.8805542,0.032226562,-0.017578125,0.0029296875,24.268831,-7.5252914,-128.83716,14.412052,0.0,0.0,0.0,0.0,0.0,0.0,0.0,-27.513163,-128.14336,14.131418,-0.9973755,-0.10467529,-0.111328125,-0.017578125,0.01953125,0.018554688,0.0,0.6451221,44.997936,0.44207186,
0.5664062415598893,29,-0.80426025,-0.322937,0.4951172,0.020507812,-0.0126953125,0.020507812,0.0,0.0,0.0,0.0,0.0,0.0,0.0,0.0,0.0,0.0,0.0,-0.018313944,0.009737944,-0.9999349,-0.97540283,0.09106445,-0.12664795,-0.13574219,0.01171875,0.0107421875,7.540305,-0.3791557,0.20160565,-20.701754,-0.97991943,0.054992676,0.044433594,-0.0126953125,0.0087890625,-0.0048828125,7.511754,-5.9750924,-56.28438,-15.466985,0.5041504,0.12072754,0.8551636,0.013671875,-0.021484375,-0.034179688,23.213573,-5.345489,-128.23152,-12.44577,0.0,0.0,0.0,0.0,0.0,0.0,0.0,-24.16367,-127.83842,-19.217878,0.0,0.0,0.0,0.0,0.0,0.0,0.0,0.018313944,-0.009737944,0.9999349,-0.9553833,0.11895752,-0.27148438,0.095703125,-0.13671875,-0.12792969,3.498887,0.3791557,-0.20160565,20.701754,-0.98339844,0.0065307617,-0.08428955,0.01171875,-0.026367188,-9.765625E-4,1.0673455,-3.2599766,-57.0346,18.096176,0.49401855,0.018981934,0.8826294,0.032226562,-0.037109375,0.0029296875,24.143322,-7.587103,-128.82498,14.395404,0.0,0.0,0.0,0.0,0.0,0.0,0.0,-27.57622,-128.13448,14.138392,-0.9841919,-0.11352539,-0.117492676,-0.07519531,0.0390625,-0.01953125,0.0,0.6652518,44.999817,0.42605007,
0.585937491268851,30,-0.80444336,-0.3248291,0.52685547,0.020507812,-0.0126953125,0.020507812,0.0,0.0,0.0,0.0,0.0,0.0,0.0,0.0,0.0,0.0,0.0,-0.0189811,0.009688962,-0.9999095,-0.9855957,0.07745361,-0.122680664,0.07128906,-0.1171875,0.009765625,7.7271023,-0.39296544,0.20059155,-20.70123,-1.00177,0.061706543,0.04046631,-0.0126953125,0.02734375,0.013671875,7.7096334,-6.1505857,-56.257694,-15.343881,0.5223999,0.13134766,0.8345947,0.033203125,-0.0029296875,-0.033203125,23.38884,-5.53116,-128.2053,-12.3360815,0.0,0.0,0.0,0.0,0.0,0.0,0.0,-24.336824,-127.81229,-19.141508,0.0,0.0,0.0,0.0,0.0,0.0,0.0,0.0189811,-0.009688962,0.9999095,-0.9594116,0.11987305,-0.25164795,0.10058594,-0.12109375,-0.11230469,3.4995027,0.39296544,-0.20059155,20.70123,-0.9862671,0.014404297,-0.086242676,-0.0068359375,-0.0068359375,-9.765625E-4,1.0777451,-3.3011765,-57.031403,18.151129,0.4987793,0.013427734,0.8626709,0.032226562,-0.017578125,0.0029296875,23.802681,-7.708372,-128.81995,14.457249,0.0,0.0,0.0,0.0,0.0,0.0,0.0,-27.696466,-128.13573,14.201795,-0.9678955,-0.11340332,-0.13946533,-0.056640625,0.020507812,-0.0390625,0.0,0.6785526,44.999043,0.42315263,
0.6054687409778127,31,-0.77233887,-0.3170166,0.510376,0.020507812,-0.03125,0.001953125,0.0,0.0,0.0,0.0,0.0,0.0,0.0,0.0,0.0,0.0,0.0,-0.018907964,0.0098215,-0.9999442,-0.9495239,0.0791626,-0.19537354,0.052734375,-0.026367188,0.009765625,7.72474,-0.39145416,0.2033355,-20.701946,-0.9942627,0.043518066,0.05029297,-0.0126953125,0.045898438,-0.0048828125,7.741111,-6.173516,-56.25405,-15.346743,0.5120239,0.10479736,0.87561035,0.013671875,-0.0029296875,-0.0146484375,23.310387,-5.533406,-128.20041,-12.318945,0.0,0.0,0.0,0.0,0.0,0.0,0.0,-24.340324,-127.8027,-19.12228,0.0,0.0,0.0,0.0,0.0,0.0,0.0,0.018907964,-0.0098215,0.9999442,-0.95843506,0.11694336,-0.25860596,0.07421875,-0.15332031,-0.14453125,3.470739,0.39145416,-0.2033355,20.701946,-0.9867554,-0.0038452148,-0.11303711,-0.0068359375,-0.0068359375,-9.765625E-4,1.1695231,-3.3622067,-57.03637,18.232027,0.52996826,0.008605957,0.87145996,0.0126953125,-0.037109375,-0.016601562,23.746544,-7.77977,-128.82343,14.501047,0.0,0.0,0.0,0.0,0.0,0.0,0.0,-27.76921,-128.14444,14.244809,-0.9770508,-0.0982666,-0.09625244,9.765625E-4,0.01953125,0.056640625,0.0,0.70524997,45.000137,0.42865783,
0.6249999906867744,32,-0.8074951,-0.30316162,0.5112915,0.01953125,-0.0126953125,-0.016601562,0.0,0.0,0.0,0.0,0.0,0.0,0.0,0.0,0.0,0.0,0.0,-0.018745333,0.0105300965,-0.99989736,-0.947876,0.047302246,-0.1383667,-0.059570312,0.06542969,-0.0078125,7.709303,-0.38808718,0.21800564,-20.700974,-0.99572754,0.063964844,0.07421875,-0.0126953125,0.0087890625,-0.0048828125,7.69136,-6.160956,-56.243015,-15.394115,0.5140381,0.110839844,0.84710693,0.052734375,-0.0029296875,-0.051757812,23.41949,-5.552164,-128.19139,-12.369954,0.0,0.0,0.0,0.0,0.0,0.0,0.0,-24.353228,-127.79303,-19.188723,0.0,0.0,0.0,0.0,0.0,0.0,0.0,0.018745333,-0.0105300965,0.99989736,-0.95739746,0.107055664,-0.25091553,0.072265625,-0.17089844,-0.14257812,3.4667878,0.38808718,-0.21800564,20.700974,-0.9984741,-6.1035156E-5,-0.078186035,0.01171875,-0.0068359375,-0.01953125,1.2595874,-3.4413338,-57.046997,18.307806,0.49475098,0.0043945312,0.8637085,0.0126953125,-0.037109375,-0.016601562,23.80292,-7.8676157,-128.83574,14.595949,0.0,0.0,0.0,0.0,0.0,0.0,0.0,-27.856094,-128.15712,14.347983,-0.97998047,-0.08441162,-0.10986328,-0.017578125,0.01953125,0.056640625,0.0,0.70924336,44.997837,0.4605838,
0.6445312403957361,33,-0.8134155,-0.32580566,0.526062,9.765625E-4,0.061523438,0.0029296875,0.0,0.0,0.0,0.0,0.0,0.0,0.0,0.0,0.0,0.0,0.0,-0.0190728,0.010980023,-0.99992025,-0.97979736,0.061523438,-0.1060791,0.109375,-0.06347656,0.046875,7.8263655,-0.3948653,0.22732054,-20.70145,-0.99609375,0.047912598,0.025512695,-0.032226562,0.02734375,-0.024414062,7.8112783,-6.234526,-56.218143,-15.303763,0.51068115,0.08734131,0.8547363,0.052734375,-0.0029296875,-0.033203125,23.317947,-5.590677,-128.16359,-12.2619505,0.0,0.0,0.0,0.0,0.0,0.0,0.0,-24.391045,-127.75675,-19.081783,0.0,0.0,0.0,0.0,0.0,0.0,0.0,0.0190728,-0.010980023,0.99992025,-0.9562988,0.09436035,-0.27789307,0.09375,-0.15332031,-0.125,3.4267986,0.3948653,-0.22732054,20.70145,-0.99572754,-0.013793945,-0.07623291,0.01171875,-0.026367188,-0.01953125,1.303863,-3.4838827,-57.055805,18.400997,0.50286865,-0.012756348,0.8777466,0.013671875,-0.018554688,-0.016601562,23.568848,-7.9720306,-128.83928,14.692535,0.0,0.0,0.0,0.0,0.0,0.0,0.0,-27.961143,-128.16391,14.436358,-0.98913574,-0.099487305,-0.14605713,-0.07519531,0.01953125,0.037109375,0.0,0.72959054,44.99883,0.48021114,
0.6640624901046978,34,-0.8111572,-0.32696533,0.47540283,0.095703125,-0.049804688,-0.018554688,0.0,0.0,0.0,0.0,0.0,0.0,0.0,0.0,0.0,0.0,0.0,-0.021332055,0.010395264,-0.99983877,-0.9383545,0.08666992,-0.1697998,0.109375,-0.0087890625,0.009765625,7.76119,-0.4416392,0.2152142,-20.69976,-0.98413086,0.04748535,0.027526855,-0.013671875,-0.009765625,-0.0234375,7.805975,-6.25229,-56.237087,-15.30521,0.4951172,0.11895752,0.85614014,0.052734375,-0.022460938,-0.052734375,23.326244,-5.581243,-128.18806,-12.272958,0.0,0.0,0.0,0.0,0.0,0.0,0.0,-24.377396,-127.781044,-19.103489,0.0,0.0,0.0,0.0,0.0,0.0,0.0,0.021332055,-0.010395264,0.99983877,-0.9503174,0.09918213,-0.2590332,0.091796875,-0.17089844,-0.123046875,3.3900933,0.4416392,-0.2152142,20.69976,-1.0056763,-0.0045166016,-0.10296631,-0.0068359375,-0.026367188,-0.01953125,1.3260368,-3.4183028,-57.04866,18.432621,0.49365234,0.005432129,0.8607178,0.03125,-0.036132812,-0.03515625,23.615234,-7.912073,-128.8292,14.666892,0.0,0.0,0.0,0.0,0.0,0.0,0.0,-27.901325,-128.15874,14.404963,-0.9779663,-0.09033203,-0.10803223,-0.037109375,9.765625E-4,0.037109375,0.0,0.748915,44.996914,0.45185181,
0.6835937398136595,35,-0.8128662,-0.26861572,0.5276489,0.01953125,-0.0126953125,-0.016601562,0.0,0.0,0.0,0.0,0.0,0.0,0.0,0.0,0.0,0.0,0.0,-0.021554053,0.0095908465,-0.99992317,-0.9523926,0.08874512,-0.1428833,-0.24902344,0.103515625,0.030273438,7.6247034,-0.44623667,0.19856025,-20.70151,-0.99713135,0.046020508,0.02154541,-0.013671875,0.0087890625,0.013671875,7.766095,-6.281772,-56.262295,-15.429497,0.50024414,0.12774658,0.8424072,0.051757812,0.016601562,-0.033203125,23.233154,-5.6188254,-128.20926,-12.366457,0.0,0.0,0.0,0.0,0.0,0.0,0.0,-24.417574,-127.79472,-19.188591,0.0,0.0,0.0,0.0,0.0,0.0,0.0,0.021554053,-0.0095908465,0.99992317,-0.96136475,0.095214844,-0.2531128,0.07421875,-0.15332031,-0.14453125,3.3681924,0.44623667,-0.19856025,20.70151,-0.97631836,0.009216309,-0.07836914,0.030273438,-0.026367188,-9.765625E-4,1.428618,-3.4519062,-57.03372,18.535313,0.49676514,0.0013427734,0.8687134,0.013671875,9.765625E-4,-0.0546875,23.560307,-7.96432,-128.80818,14.718214,0.0,0.0,0.0,0.0,0.0,0.0,0.0,-27.954552,-128.146,14.44413,-0.9972534,-0.09185791,-0.1239624,9.765625E-4,0.01953125,0.056640625,0.0,0.7744195,45.000492,0.41493273,
0.7031249895226211,36,-0.796875,-0.27349854,0.53912354,0.020507812,-0.03125,-0.03515625,0.0,0.0,0.0,0.0,0.0,0.0,0.0,0.0,0.0,0.0,0.0,-0.01995486,0.00886921,-0.9999054,-0.94366455,0.060791016,-0.101745605,-0.09765625,0.083984375,0.0107421875,7.681172,-0.41312903,0.18362014,-20.701141,-0.9841919,0.04534912,0.03845215,-0.013671875,0.0087890625,0.013671875,7.8452773,-6.3505144,-56.26822,-15.43601,0.50634766,0.12841797,0.8651123,0.033203125,-0.0029296875,-0.033203125,23.164572,-5.686759,-128.21292,-12.3214,0.0,0.0,0.0,0.0,0.0,0.0,0.0,-24.484806,-127.7986,-19.144978,0.0,0.0,0.0,0.0,0.0,0.0,0.0,0.01995486,-0.00886921,0.9999054,-0.96032715,0.097229004,-0.26098633,0.14941406,-0.09375,-0.14453125,3.361909,0.41312903,-0.18362014,20.701141,-0.9937134,-0.013916016,-0.06829834,0.01171875,-0.045898438,-0.01953125,1.4686042,-3.4715917,-57.02236,18.630066,0.5027466,0.0064697266,0.8626709,0.03125,-0.037109375,-0.015625,23.622478,-7.9826794,-128.80055,14.837146,0.0,0.0,0.0,0.0,0.0,0.0,0.0,-27.972143,-128.14693,14.557833,-0.9881592,-0.0892334,-0.10998535,-0.017578125,-0.017578125,-9.765625E-4,0.0,0.7449263,44.99866,0.384274,
0.7226562392315828,37,-0.7937012,-0.28344727,0.5220947,0.01953125,-0.0126953125,-0.016601562,0.0,0.0,0.0,0.0,0.0,0.0,0.0,0.0,0.0,0.0,0.0,-0.01976806,0.007968331,-0.9999428,-0.9534912,0.08404541,-0.17749023,0.052734375,0.08300781,0.0107421875,7.64542,-0.40925914,0.16496918,-20.701916,-1.0115967,0.032409668,0.036315918,0.005859375,-0.0107421875,-0.0048828125,7.840472,-6.3759017,-56.28436,-15.450655,0.48498535,0.11016846,0.8727417,0.013671875,-0.021484375,-0.034179688,23.156816,-5.739473,-128.22958,-12.309656,0.0,0.0,0.0,0.0,0.0,0.0,0.0,-24.548859,-127.7955,-19.1022,0.0,0.0,0.0,0.0,0.0,0.0,0.0,0.01976806,-0.007968331,0.9999428,-0.9644165,0.10699463,-0.23699951,0.06347656,-0.10449219,-0.15332031,3.348605,0.40925914,-0.16496918,20.701916,-0.9818115,-0.018066406,-0.070373535,0.01171875,-0.0068359375,-0.01953125,1.4679378,-3.4574392,-57.003963,18.660162,0.4725952,-0.0048217773,0.8638916,0.032226562,-0.017578125,-0.015625,23.497456,-8.010599,-128.77832,14.835295,0.0,0.0,0.0,0.0,0.0,0.0,0.0,-28.001373,-128.11858,14.578252,-0.98413086,-0.09893799,-0.11419678,-0.07519531,9.765625E-4,-0.020507812,0.0,0.75211793,45.00005,0.343727,
0.7421874889405445,38,-0.8119507,-0.2774048,0.557251,0.057617188,-0.0126953125,-0.017578125,0.0,0.0,0.0,0.0,0.0,0.0,0.0,0.0,0.0,0.0,0.0,-0.02007851,0.0077461684,-0.99989825,-0.97546387,0.086364746,-0.1583252,-0.13574219,0.12109375,0.048828125,7.5044622,-0.4156874,0.1603697,-20.700994,-0.9887085,0.0625,0.026611328,-0.0126953125,0.0087890625,-0.0048828125,7.741441,-6.3417854,-56.30494,-15.589267,0.5137329,0.15185547,0.8594971,0.013671875,-0.0029296875,-0.033203125,23.189777,-5.7092214,-128.24469,-12.420273,0.0,0.0,0.0,0.0,0.0,0.0,0.0,-24.51308,-127.80602,-19.227406,0.0,0.0,0.0,0.0,0.0,0.0,0.0,0.02007851,-0.0077461684,0.99989825,-0.958374,0.10095215,-0.22235107,0.14550781,-0.14648438,-0.12011719,3.3456218,0.4156874,-0.1603697,20.700994,-0.9944458,8.544922E-4,-0.080200195,0.0107421875,-0.0078125,0.017578125,1.5578367,-3.5066702,-57.003464,18.788134,0.4829712,0.020874023,0.88067627,-0.0048828125,-0.018554688,-0.03515625,23.42828,-8.092838,-128.77359,15.004794,0.0,0.0,0.0,0.0,0.0,0.0,0.0,-28.082565,-128.115,14.7612505,-0.9779053,-0.08892822,-0.1418457,-0.09472656,-0.018554688,-0.020507812,0.0,0.7502892,44.998352,0.33353406,
0.7617187386495062,39,-0.7989502,-0.25579834,0.52941895,0.020507812,-0.0126953125,0.001953125,0.0,0.0,0.0,0.0,0.0,0.0,0.0,0.0,0.0,0.0,0.0,-0.020710438,0.006877098,-0.99991477,-0.9543457,0.08850098,-0.09637451,-0.060546875,-0.0068359375,0.0107421875,7.5538263,-0.42876956,0.14237727,-20.701334,-0.9794922,0.036132812,0.047302246,-0.032226562,0.0087890625,0.013671875,7.836842,-6.4616737,-56.308994,-15.548448,0.49212646,0.12200928,0.8463135,0.013671875,-0.021484375,-0.015625,23.206095,-5.8410316,-128.25153,-12.332819,0.0,0.0,0.0,0.0,0.0,0.0,0.0,-24.648874,-127.81359,-19.129053,0.0,0.0,0.0,0.0,0.0,0.0,0.0,0.020710438,-0.006877098,0.99991477,-0.9614258,0.11883545,-0.23382568,0.14746094,-0.11035156,-0.14257812,3.3439243,0.42876956,-0.14237727,20.701334,-0.991333,0.0126953125,-0.100097656,-0.0068359375,-0.0068359375,-9.765625E-4,1.6511421,-3.5505307,-56.981556,18.910147,0.48864746,-0.004638672,0.8618164,0.0126953125,-0.017578125,-0.03515625,23.262383,-8.195015,-128.74878,15.13673,0.0,0.0,0.0,0.0,0.0,0.0,0.0,-28.186058,-128.0892,14.903505,-0.9770508,-0.10662842,-0.13031006,-0.017578125,-0.018554688,0.017578125,0.0,0.76969475,44.999344,0.29354924,
0.7812499883584679,40,-0.78479004,-0.28930664,0.54663086,-0.017578125,-0.0126953125,0.0029296875,0.0,0.0,0.0,0.0,0.0,0.0,0.0,0.0,0.0,0.0,0.0,-0.019515544,0.006362404,-0.99991316,-0.96276855,0.06237793,-0.14196777,0.16601562,-0.045898438,-0.0087890625,7.649629,-0.4040313,0.1317215,-20.701302,-0.99450684,0.06933594,0.04449463,-0.0126953125,0.045898438,0.051757812,7.895084,-6.499421,-56.303818,-15.477877,0.50616455,0.124816895,0.8286133,0.033203125,-0.0029296875,-0.033203125,23.319706,-5.9108458,-128.24396,-12.249394,0.0,0.0,0.0,0.0,0.0,0.0,0.0,-24.71867,-127.80058,-19.045418,0.0,0.0,0.0,0.0,0.0,0.0,0.0,0.019515544,-0.006362404,0.99991316,-0.96655273,0.13171387,-0.24639893,0.095703125,-0.13671875,-0.12792969,3.4194202,0.4040313,-0.1317215,20.701302,-0.98669434,-0.005004883,-0.09814453,-0.0068359375,-0.0068359375,-0.01953125,1.7387757,-3.6430697,-56.972,18.969345,0.49456787,-4.8828125E-4,0.8557739,0.032226562,9.765625E-4,-0.03515625,23.127655,-8.326853,-128.7359,15.16814,0.0,0.0,0.0,0.0,0.0,0.0,0.0,-28.316256,-128.08095,14.92466,-0.9750366,-0.10864258,-0.12438965,0.020507812,-0.055664062,0.036132812,0.0,0.74627864,44.99856,0.27175868,
0.8007812380674296,41,-0.78692627,-0.27941895,0.5587158,0.020507812,-0.0126953125,0.020507812,0.0,0.0,0.0,0.0,0.0,0.0,0.0,0.0,0.0,0.0,0.0,-0.01695183,0.0052166893,-0.9999829,-0.9528198,0.058288574,-0.15594482,0.109375,0.009765625,0.028320312,7.6628304,-0.35095432,0.108001634,-20.702747,-0.98883057,0.02520752,0.070007324,-0.0126953125,0.02734375,0.033203125,7.881473,-6.4292,-56.325077,-15.4183855,0.5100708,0.10974121,0.8687744,0.013671875,-0.041015625,-0.015625,23.281424,-5.860422,-128.26418,-12.171387,0.0,0.0,0.0,0.0,0.0,0.0,0.0,-24.671139,-127.816574,-18.96059,0.0,0.0,0.0,0.0,0.0,0.0,0.0,0.01695183,-0.0052166893,0.9999829,-0.96240234,0.11114502,-0.27752686,0.06347656,-0.10449219,-0.15332031,3.5036404,0.35095432,-0.108001634,20.702747,-1.0007935,-0.018615723,-0.07519531,-0.024414062,-0.0068359375,-0.038085938,1.7604753,-3.7242744,-56.94226,18.975973,0.4987793,0.0033569336,0.8676758,0.03125,-0.036132812,-0.03515625,23.066422,-8.426527,-128.70848,15.159207,0.0,0.0,0.0,0.0,0.0,0.0,0.0,-28.416513,-128.05814,14.924171,-0.9770508,-0.111450195,-0.13342285,-0.017578125,9.765625E-4,0.017578125,0.0,0.71655965,45.000053,0.22260809,
0.8203124877763913,42,-0.8257446,-0.29907227,0.5474243,0.020507812,-0.03125,0.020507812,0.0,0.0,0.0,0.0,0.0,0.0,0.0,0.0,0.0,0.0,0.0,-0.015524238,0.004978223,-0.9999502,-0.9764404,0.09338379,-0.18389893,-0.09765625,-0.0068359375,0.0107421875,7.656886,-0.32139906,0.10306464,-20.702068,-1.008667,0.03125,0.042236328,-0.013671875,-0.0107421875,0.033203125,7.85388,-6.3998985,-56.329628,-15.438383,0.5341797,0.11340332,0.84814453,0.052734375,-0.060546875,-0.052734375,23.441315,-5.8514385,-128.26959,-12.172266,0.0,0.0,0.0,0.0,0.0,0.0,0.0,-24.659166,-127.81891,-18.972286,0.0,0.0,0.0,0.0,0.0,0.0,0.0,0.015524238,-0.004978223,0.9999502,-0.96240234,0.10412598,-0.2588501,0.041992188,-0.140625,-0.15039062,3.5178616,0.32139906,-0.10306464,20.702068,-0.98394775,-0.012756348,-0.10809326,-0.005859375,0.0126953125,-0.020507812,1.7809219,-3.746257,-56.938293,18.992542,0.50164795,-0.0044555664,0.8597412,-0.0048828125,0.0,-0.03515625,23.156105,-8.453706,-128.70044,15.150387,0.0,0.0,0.0,0.0,0.0,0.0,0.0,-28.44366,-128.0566,14.9200535,-0.9779663,-0.085510254,-0.105895996,-0.056640625,-0.018554688,0.017578125,0.0,0.6962715,44.997845,0.21321085,
0.839843737485353,43,-0.810791,-0.28631592,0.54125977,-0.055664062,0.024414062,0.00390625,0.0,0.0,0.0,0.0,0.0,0.0,0.0,0.0,0.0,0.0,0.0,-0.015284836,0.005431149,-1.000025,-0.9628296,0.057556152,-0.16473389,-0.17382812,-0.005859375,0.029296875,7.6233134,-0.3164447,0.112441614,-20.703619,-0.96520996,0.04547119,0.050354004,0.005859375,0.0078125,0.033203125,7.8366413,-6.429493,-56.32908,-15.5422325,0.52197266,0.10290527,0.8430786,0.013671875,-0.021484375,-0.034179688,23.567081,-5.891378,-128.26959,-12.256624,0.0,0.0,0.0,0.0,0.0,0.0,0.0,-24.687311,-127.82244,-19.086508,0.0,0.0,0.0,0.0,0.0,0.0,0.0,0.015284836,-0.005431149,1.000025,-0.9623413,0.08843994,-0.26904297,0.03125,-0.111328125,-0.13964844,3.4904835,0.3164447,-0.112441614,20.703619,-0.9989624,-0.018310547,-0.10699463,-0.005859375,0.0126953125,-0.020507812,1.8589901,-3.74526,-56.951237,19.018387,0.5147705,0.0016479492,0.8616333,0.0126953125,-0.017578125,-0.03515625,23.287817,-8.424798,-128.71452,15.094278,0.0,0.0,0.0,0.0,0.0,0.0,0.0,-28.415855,-128.07985,14.858831,-0.9678955,-0.10107422,-0.11328125,-0.056640625,0.01953125,-9.765625E-4,0.0,0.6974129,45.001034,0.23374158,
0.8593749871943147,44,-0.7965698,-0.31396484,0.5377197,-0.017578125,-0.0126953125,0.0029296875,0.0,0.0,0.0,0.0,0.0,0.0,0.0,0.0,0.0,0.0,0.0,-0.0143325925,0.0058333715,-0.9999931,-0.94525146,0.095581055,-0.16070557,-0.041015625,0.0107421875,0.0107421875,7.6308007,-0.29672986,0.120768875,-20.702957,-0.98931885,0.07507324,0.04650879,-0.0126953125,0.045898438,0.033203125,7.8536544,-6.4622736,-56.323166,-15.622219,0.49987793,0.10522461,0.84313965,0.013671875,-0.07910156,-0.034179688,23.601189,-5.929433,-128.26083,-12.330387,0.0,0.0,0.0,0.0,0.0,0.0,0.0,-24.71865,-127.82164,-19.180565,0.0,0.0,0.0,0.0,0.0,0.0,0.0,0.0143325925,-0.0058333715,0.9999931,-0.9562988,0.08538818,-0.26519775,0.043945312,-0.12402344,-0.15234375,3.4500306,0.29672986,-0.120768875,20.702957,-0.98101807,-0.017700195,-0.107177734,0.01171875,-0.0068359375,-9.765625E-4,1.9173442,-3.737406,-56.96173,19.071667,0.5076294,0.010681152,0.8536377,0.013671875,9.765625E-4,-0.016601562,23.367609,-8.391869,-128.72272,15.112589,0.0,0.0,0.0,0.0,0.0,0.0,0.0,-28.38219,-128.09366,14.875271,-0.9829712,-0.0793457,-0.12670898,-0.017578125,0.057617188,0.038085938,0.0,0.6839671,44.99917,0.25269556,
0.8789062369032764,45,-0.78674316,-0.28930664,0.5466919,0.020507812,-0.03125,0.020507812,0.0,0.0,0.0,0.0,0.0,0.0,0.0,0.0,0.0,0.0,0.0,-0.012101203,0.0061452435,-1.0000637,-0.94940186,0.0847168,-0.13500977,-0.022460938,0.0107421875,0.029296875,7.681299,-0.25053218,0.1272256,-20.70442,-0.9934082,0.074157715,0.050476074,0.0068359375,0.026367188,0.013671875,7.890632,-6.454103,-56.313866,-15.64162,0.51135254,0.12945557,0.8473511,0.013671875,-0.041015625,-0.034179688,23.505377,-5.912935,-128.25377,-12.348293,0.0,0.0,0.0,0.0,0.0,0.0,0.0,-24.700033,-127.82244,-19.205223,0.0,0.0,0.0,0.0,0.0,0.0,0.0,0.012101203,-0.0061452435,1.0000637,-0.9562988,0.088378906,-0.2730713,0.09863281,-0.119140625,-0.12988281,3.410706,0.25053218,-0.1272256,20.70442,-0.9807129,-0.003112793,-0.10614014,0.01171875,-0.026367188,-0.01953125,1.938156,-3.720535,-56.971195,19.077415,0.48565674,-0.0026855469,0.8648071,0.0126953125,-0.037109375,-0.016601562,23.492916,-8.356965,-128.7305,15.046341,0.0,0.0,0.0,0.0,0.0,0.0,0.0,-28.348335,-128.1038,14.803585,-0.97802734,-0.08947754,-0.096069336,-0.09472656,0.018554688,0.056640625,0.0,0.65958226,45.00138,0.26854563,
0.8984374866122381,46,-0.8057251,-0.28533936,0.53125,0.01953125,0.024414062,0.020507812,0.0,0.0,0.0,0.0,0.0,0.0,0.0,0.0,0.0,0.0,0.0,-0.012020111,0.0064994735,-1.0000407,-0.9667969,0.064575195,-0.17150879,-0.060546875,-0.0068359375,0.029296875,7.7225294,-0.24885273,0.13455924,-20.703941,-0.9981079,0.04876709,0.03643799,-0.013671875,0.0087890625,0.033203125,7.966368,-6.4953537,-56.300407,-15.644514,0.52386475,0.10095215,0.8331909,0.033203125,-0.041015625,-0.034179688,23.51126,-5.920431,-128.2401,-12.388199,0.0,0.0,0.0,0.0,0.0,0.0,0.0,-24.69683,-127.81419,-19.274105,0.0,0.0,0.0,0.0,0.0,0.0,0.0,0.012020111,-0.0064994735,1.0000407,-0.9633789,0.091308594,-0.2600708,0.115234375,-0.1171875,-0.12792969,3.3730135,0.24885273,-0.13455924,20.703941,-0.9998779,-0.018493652,-0.088134766,-0.0068359375,0.03125,-0.001953125,1.9679177,-3.7018666,-56.983833,19.0993,0.49346924,0.004638672,0.8477783,0.03125,-0.036132812,-0.03515625,23.520742,-8.342979,-128.736,15.029217,0.0,0.0,0.0,0.0,0.0,0.0,0.0,-28.333977,-128.10722,14.787045,-0.961792,-0.10290527,-0.1272583,-0.056640625,0.01953125,0.018554688,0.0,0.6615338,45.00027,0.2845148,
0.9179687363211998,47,-0.7927246,-0.30700684,0.5605469,0.01953125,0.005859375,0.001953125,0.0,0.0,0.0,0.0,0.0,0.0,0.0,0.0,0.0,0.0,0.0,-0.011263013,0.006664916,-1.0000284,-0.9296875,0.059936523,-0.17114258,-0.060546875,0.046875,0.0107421875,7.6541944,-0.23317921,0.13798441,-20.703688,-0.9859619,0.0524292,0.030517578,-0.032226562,0.0087890625,0.033203125,7.925928,-6.46951,-56.303867,-15.69731,0.51519775,0.12164307,0.8364258,0.033203125,-0.041015625,-0.015625,23.67523,-5.923835,-128.24286,-12.478614,0.0,0.0,0.0,0.0,0.0,0.0,0.0,-24.694386,-127.814514,-19.377728,0.0,0.0,0.0,0.0,0.0,0.0,0.0,0.011263013,-0.006664916,1.0000284,-0.9684448,0.10015869,-0.24993896,0.111328125,-0.13183594,-0.14355469,3.2686632,0.23317921,-0.13798441,20.703688,-0.973938,-0.012023926,-0.10522461,0.01171875,-0.0068359375,-9.765625E-4,2.0094473,-3.6713,-56.99225,19.14923,0.5097656,0.020568848,0.85858154,0.0126953125,-0.017578125,-0.03515625,23.583424,-8.303455,-128.74536,15.049975,0.0,0.0,0.0,0.0,0.0,0.0,0.0,-28.295053,-128.12279,14.796222,-0.97698975,-0.097839355,-0.12908936,-0.017578125,0.0390625,0.037109375,0.0,0.6944157,44.99882,0.29208392,
0.9374999860301615,48,-0.7885132,-0.29333496,0.5050049,0.020507812,-0.0126953125,0.001953125,0.0,0.0,0.0,0.0,0.0,0.0,0.0,0.0,0.0,0.0,0.0,-0.010798216,0.0067161145,-1.0000845,-0.94451904,0.0769043,-0.1687622,0.052734375,0.064453125,-0.0078125,7.643367,-0.22355628,0.13904439,-20.70485,-0.99938965,0.07269287,0.028625488,-0.032226562,0.0087890625,0.033203125,7.9184203,-6.4380426,-56.30497,-15.709311,0.5363159,0.12017822,0.85614014,0.013671875,-0.021484375,-0.015625,23.781654,-5.88086,-128.24753,-12.523493,0.0,0.0,0.0,0.0,0.0,0.0,0.0,-24.634102,-127.82982,-19.47201,0.0,0.0,0.0,0.0,0.0,0.0,0.0,0.010798216,-0.0067161145,1.0000845,-0.96136475,0.10119629,-0.2598877,0.09863281,-0.119140625,-0.12988281,3.2778144,0.22355628,-0.13904439,20.70485,-0.9996948,-0.006652832,-0.09509277,0.01171875,-0.026367188,-0.01953125,2.0814009,-3.6929753,-56.99174,19.189928,0.51672363,0.033813477,0.8484497,-0.005859375,-0.037109375,-0.03515625,23.585405,-8.310727,-128.74316,15.053464,0.0,0.0,0.0,0.0,0.0,0.0,0.0,-28.302258,-128.12648,14.792978,-0.9586792,-0.09899902,-0.13311768,-0.037109375,0.0390625,0.018554688,0.0,0.683324,45.00129,0.2948302,
0.9570312357391232,49,-0.7848511,-0.27355957,0.53686523,-0.017578125,-0.0126953125,0.0029296875,0.0,0.0,0.0,0.0,0.0,0.0,0.0,0.0,0.0,0.0,0.0,-0.009446591,0.006598103,-1.0001074,-0.96765137,0.072387695,-0.16052246,0.109375,0.02734375,-0.0087890625,7.642519,-0.19557425,0.13660116,-20.705322,-0.99212646,0.049438477,0.04534912,-0.033203125,-0.009765625,0.033203125,7.911799,-6.3981223,-56.308346,-15.704534,0.53015137,0.11352539,0.8432007,0.013671875,-0.021484375,-0.015625,23.868893,-5.8462553,-128.25464,-12.544543,0.0,0.0,0.0,0.0,0.0,0.0,0.0,-24.589203,-127.84268,-19.52037,0.0,0.0,0.0,0.0,0.0,0.0,0.0,0.009446591,-0.006598103,1.0001074,-0.95532227,0.09918213,-0.2619629,0.1171875,-0.08105469,-0.15039062,3.2549784,0.19557425,-0.13660116,20.705322,-0.98773193,-8.544922E-4,-0.11602783,0.0107421875,-0.0078125,0.017578125,2.098258,-3.6868062,-56.994907,19.197775,0.5050659,0.028198242,0.87750244,0.0126953125,-0.017578125,-0.03515625,23.723541,-8.305481,-128.74142,15.022209,0.0,0.0,0.0,0.0,0.0,0.0,0.0,-28.29701,-128.12474,14.7617235,-0.97802734,-0.09893799,-0.11816406,-0.037109375,0.0390625,-9.765625E-4,0.0,0.67467797,45.00182,0.29052204,
0.9765624854480849,50,-0.7796631,-0.29919434,0.54248047,0.01953125,0.005859375,0.001953125,0.0,0.0,0.0,0.0,0.0,0.0,0.0,0.0,0.0,0.0,0.0,-0.008675545,0.0066024014,-1.0001223,-0.9624634,0.08514404,-0.16546631,0.034179688,-0.0078125,0.029296875,7.6724796,-0.17961022,0.13669017,-20.705633,-0.975647,0.06298828,0.028625488,-0.033203125,-0.009765625,0.013671875,7.9345665,-6.4091964,-56.30562,-15.718304,0.50286865,0.101135254,0.86376953,0.052734375,-0.021484375,-0.034179688,23.850294,-5.8569336,-128.24533,-12.559095,0.0,0.0,0.0,0.0,0.0,0.0,0.0,-24.602222,-127.82796,-19.525175,0.0,0.0,0.0,0.0,0.0,0.0,0.0,0.008675545,-0.0066024014,1.0001223,-0.9553833,0.11193848,-0.24194336,0.061523438,-0.140625,-0.13085938,3.2724342,0.17961022,-0.13669017,20.705633,-0.99383545,-0.015686035,-0.08618164,-0.0078125,-0.026367188,-9.765625E-4,2.206821,-3.715089,-56.995277,19.254002,0.5349121,0.01184082,0.86242676,0.013671875,9.765625E-4,-0.03515625,23.766058,-8.305098,-128.74202,15.017709,0.0,0.0,0.0,0.0,0.0,0.0,0.0,-28.295439,-128.13123,14.741147,-0.9779663,-0.09295654,-0.13397217,-0.017578125,0.0390625,0.018554688,0.0,0.6533492,45.00249,0.29142076,
0.9960937351570466,51,-0.79333496,-0.3395996,0.53338623,9.765625E-4,-0.0126953125,0.020507812,0.0,0.0,0.0,0.0,0.0,0.0,0.0,0.0,0.0,0.0,0.0,-0.007884175,0.006500869,-1.0000858,-0.94366455,0.070129395,-0.18859863,-0.09765625,0.047851562,0.0107421875,7.6362514,-0.16322723,0.13458815,-20.704878,-0.9915161,0.03564453,0.039367676,-0.013671875,0.0087890625,0.013671875,7.9323153,-6.3835034,-56.314342,-15.774088,0.5039673,0.107055664,0.8569336,0.013671875,0.016601562,-0.051757812,23.767958,-5.7974977,-128.2536,-12.615942,0.0,0.0,0.0,0.0,0.0,0.0,0.0,-24.545189,-127.83343,-19.579062,0.0,0.0,0.0,0.0,0.0,0.0,0.0,0.007884175,-0.006500869,1.0000858,-0.958313,0.095336914,-0.2788086,0.115234375,-0.09863281,-0.1484375,3.2803817,0.16322723,-0.13458815,20.704878,-0.9920654,0.025390625,-0.09313965,0.030273438,-0.0078125,-9.765625E-4,2.235021,-3.7270658,-56.9923,19.279224,0.5107422,0.015625,0.85858154,0.032226562,9.765625E-4,-0.03515625,23.831656,-8.337041,-128.74231,15.021535,0.0,0.0,0.0,0.0,0.0,0.0,0.0,-28.327671,-128.13438,14.7496195,-0.973999,-0.11047363,-0.13537598,0.020507812,0.057617188,0.038085938,0.0,0.63754845,45.000782,0.28749293,
1.0156249848660084,52,-0.8066406,-0.30700684,0.54693604,0.020507812,-0.06933594,0.001953125,0.0,0.0,0.0,0.0,0.0,0.0,0.0,0.0,0.0,0.0,0.0,-0.0066610277,0.006063491,-1.0001292,-0.96380615,0.058410645,-0.13110352,-0.15429688,0.08496094,0.01171875,7.626736,-0.13790378,0.12553309,-20.705776,-0.9916382,0.031555176,0.04724121,-0.032226562,0.0087890625,0.013671875,7.9267454,-6.380856,-56.323982,-15.814007,0.52490234,0.10290527,0.8312988,0.033203125,-0.0029296875,-0.033203125,23.897842,-5.8091435,-128.26477,-12.64048,0.0,0.0,0.0,0.0,0.0,0.0,0.0,-24.547443,-127.852844,-19.629839,0.0,0.0,0.0,0.0,0.0,0.0,0.0,0.0066610277,-0.006063491,1.0001292,-0.9573364,0.09527588,-0.2600708,0.076171875,-0.13671875,-0.14648438,3.2826486,0.13790378,-0.12553309,20.705776,-0.97454834,-0.004638672,-0.064453125,0.030273438,-0.026367188,-9.765625E-4,2.2664998,-3.7285705,-56.98596,19.299763,0.5020752,0.023132324,0.8805542,0.032226562,-0.017578125,-0.015625,23.918455,-8.322491,-128.72874,15.014387,0.0,0.0,0.0,0.0,0.0,0.0,0.0,-28.313206,-128.12003,14.737238,-0.9719238,-0.10272217,-0.13623047,-0.037109375,0.076171875,0.038085938,0.0,0.61788005,45.002598,0.26872247,
1.03515623457497,53,-0.8097534,-0.29711914,0.54907227,-0.016601562,-0.049804688,0.001953125,0.0,0.0,0.0,0.0,0.0,0.0,0.0,0.0,0.0,0.0,0.0,-0.0066643655,0.006154035,-1.0001101,-0.9446411,0.06793213,-0.14813232,0.0146484375,-0.0078125,0.047851562,7.7064257,-0.13797292,0.1274076,-20.70538,-0.9782715,0.043884277,0.05230713,-0.032226562,0.0087890625,0.013671875,8.020446,-6.460463,-56.307858,-15.770216,0.5161133,0.11871338,0.8364258,0.033203125,-0.021484375,-0.034179688,23.89812,-5.874506,-128.24677,-12.563103,0.0,0.0,0.0,0.0,0.0,0.0,0.0,-24.610256,-127.83751,-19.56184,0.0,0.0,0.0,0.0,0.0,0.0,0.0,0.0066643655,-0.006154035,1.0001101,-0.9633179,0.08929443,-0.24822998,0.03125,-0.12988281,-0.119140625,3.2841394,0.13797292,-0.1274076,20.70538,-1.013855,-0.016052246,-0.10095215,0.030273438,-0.0068359375,-0.020507812,2.3333876,-3.7590218,-56.98682,19.327984,0.50305176,0.026184082,0.8775635,0.032226562,9.765625E-4,-0.03515625,23.998222,-8.368519,-128.72816,14.99383,0.0,0.0,0.0,0.0,0.0,0.0,0.0,-28.359158,-128.11913,14.721054,-0.9951782,-0.08898926,-0.12487793,-0.037109375,-0.018554688,0.017578125,0.0,0.63181746,45.00155,0.27270037,
1.0546874842839318,54,-0.78063965,-0.28741455,0.5187988,0.020507812,-0.0126953125,0.001953125,0.0,0.0,0.0,0.0,0.0,0.0,0.0,0.0,0.0,0.0,0.0,-0.007647246,0.005768408,-1.0000743,-0.96502686,0.043701172,-0.14208984,-0.059570312,0.06542969,-0.0078125,7.6751647,-0.15832111,0.119423926,-20.704638,-0.9753418,0.04083252,0.05328369,0.005859375,0.0078125,-0.0048828125,8.01724,-6.4991403,-56.31987,-15.778083,0.5059204,0.109191895,0.8284302,0.033203125,-0.0029296875,-0.033203125,23.9014,-5.923994,-128.25946,-12.531676,0.0,0.0,0.0,0.0,0.0,0.0,0.0,-24.656103,-127.85463,-19.538666,0.0,0.0,0.0,0.0,0.0,0.0,0.0,0.007647246,-0.005768408,1.0000743,-0.96429443,0.078430176,-0.23950195,0.10058594,-0.140625,-0.09277344,3.2703397,0.15832111,-0.119423926,20.704638,-1.013855,-0.016052246,-0.10095215,0.030273438,-0.0068359375,-0.020507812,2.439115,-3.7787173,-56.978344,19.42584,0.5031128,0.017028809,0.8845825,0.0126953125,-0.017578125,-0.03515625,24.023504,-8.388215,-128.71968,15.091686,0.0,0.0,0.0,0.0,0.0,0.0,0.0,-28.379383,-128.10957,14.827885,-0.96984863,-0.096069336,-0.12213135,-0.017578125,0.057617188,0.056640625,0.0,0.6556901,44.999912,0.25454473,
1.0742187339928935,55,-0.80389404,-0.2744751,0.53826904,-0.017578125,0.005859375,0.0029296875,0.0,0.0,0.0,0.0,0.0,0.0,0.0,0.0,0.0,0.0,0.0,-0.00672403,0.0060532126,-1.0001472,-0.9666748,0.066223145,-0.117126465,-0.07910156,-0.0068359375,0.047851562,7.7376876,-0.13920847,0.12532026,-20.706148,-0.9753418,0.04083252,0.05328369,0.005859375,0.0078125,-0.0048828125,8.070468,-6.523336,-56.302032,-15.745907,0.5168457,0.099121094,0.8400879,0.033203125,-0.0029296875,-0.033203125,23.88834,-5.9481897,-128.24161,-12.4995,0.0,0.0,0.0,0.0,0.0,0.0,0.0,-24.682182,-127.83127,-19.50175,0.0,0.0,0.0,0.0,0.0,0.0,0.0,0.00672403,-0.0060532126,1.0001472,-0.95928955,0.08343506,-0.26123047,0.16992188,-0.11328125,-0.10546875,3.2258577,0.13920847,-0.12532026,20.706148,-0.99664307,-0.007873535,-0.08319092,0.01171875,-0.026367188,-9.765625E-4,2.533814,-3.772934,-56.986977,19.45683,0.501709,0.01953125,0.8586426,0.0126953125,-0.055664062,-0.03515625,24.219164,-8.348954,-128.72522,15.028528,0.0,0.0,0.0,0.0,0.0,0.0,0.0,-28.339916,-128.1161,14.763766,-0.98602295,-0.07940674,-0.11871338,-0.017578125,0.038085938,0.056640625,0.0,0.6613877,45.00281,0.2679249,
1.0937499837018552,56,-0.7927246,-0.2932129,0.5467529,0.020507812,-0.049804688,0.001953125,0.0,0.0,0.0,0.0,0.0,0.0,0.0,0.0,0.0,0.0,0.0,-0.005888194,0.006008259,-1.0000921,-0.9570923,0.03765869,-0.14624023,-0.00390625,-0.025390625,0.047851562,7.7939715,-0.12190458,0.1243896,-20.70501,-1.0095825,0.0670166,0.0335083,0.005859375,0.0078125,0.033203125,8.145434,-6.5323586,-56.294777,-15.680558,0.53692627,0.095825195,0.8390503,0.052734375,-0.0029296875,-0.051757812,23.898535,-5.924671,-128.23639,-12.453844,0.0,0.0,0.0,0.0,0.0,0.0,0.0,-24.652172,-127.82982,-19.472149,0.0,0.0,0.0,0.0,0.0,0.0,0.0,0.005888194,-0.006008259,1.0000921,-0.95526123,0.09039307,-0.27996826,0.12695312,-0.051757812,-0.12011719,3.1541154,0.12190458,-0.1243896,20.70501,-0.9915161,0.0028686523,-0.09313965,0.049804688,-0.0068359375,-0.020507812,2.5322685,-3.7126465,-56.991573,19.417038,0.4968872,0.011230469,0.87268066,0.03125,-0.036132812,-0.03515625,24.22321,-8.302095,-128.72166,14.8911915,0.0,0.0,0.0,0.0,0.0,0.0,0.0,-28.29318,-128.11234,14.632623,-0.96173096,-0.10644531,-0.15625,9.765625E-4,0.01953125,0.056640625,0.0,0.66867083,44.999985,0.26640972,
1.1132812334108169,57,-0.7819214,-0.25976562,0.53497314,0.020507812,-0.03125,-0.03515625,0.0,0.0,0.0,0.0,0.0,0.0,0.0,0.0,0.0,0.0,0.0,-0.0047161877,0.005695335,-1.000114,-0.9613037,0.02508545,-0.16796875,0.015625,0.046875,0.06640625,7.7995853,-0.097640306,0.11791107,-20.705458,-0.99121094,0.078430176,0.0256958,-0.013671875,0.0087890625,0.013671875,8.157428,-6.502038,-56.304245,-15.668826,0.52575684,0.092163086,0.8311157,0.033203125,0.016601562,-0.033203125,23.898947,-5.8826203,-128.24303,-12.465814,0.0,0.0,0.0,0.0,0.0,0.0,0.0,-24.602295,-127.84127,-19.504255,0.0,0.0,0.0,0.0,0.0,0.0,0.0,0.0047161877,-0.005695335,1.000114,-0.9573364,0.099121094,-0.25006104,0.15234375,-0.115234375,-0.107421875,3.1784146,0.097640306,-0.11791107,20.705458,-0.9901123,0.0234375,-0.09710693,0.030273438,-0.026367188,-0.01953125,2.5472198,-3.7387187,-56.982174,19.420046,0.5159302,0.01751709,0.8685303,0.013671875,-0.018554688,-0.016601562,24.261927,-8.351305,-128.70479,14.869128,0.0,0.0,0.0,0.0,0.0,0.0,0.0,-28.343254,-128.08966,14.618628,-0.96173096,-0.10644531,-0.15625,9.765625E-4,0.01953125,0.056640625,0.0,0.6538364,45.000893,0.25318265,
1.1328124831197786,58,-0.8017578,-0.28930664,0.5390625,0.09472656,0.005859375,-0.055664062,0.0,0.0,0.0,0.0,0.0,0.0,0.0,0.0,0.0,0.0,0.0,-0.005409628,0.00527867,-1.0001076,-0.95874023,0.060302734,-0.14105225,-0.022460938,0.029296875,0.029296875,7.778519,-0.111996084,0.109284855,-20.705328,-0.9909668,0.053588867,0.029541016,0.005859375,-0.0107421875,-0.0048828125,8.149652,-6.5169525,-56.3113,-15.683498,0.50335693,0.12750244,0.8699951,0.013671875,-0.0029296875,-0.033203125,23.988297,-5.9052787,-128.2521,-12.488649,0.0,0.0,0.0,0.0,0.0,0.0,0.0,-24.61859,-127.85322,-19.5455,0.0,0.0,0.0,0.0,0.0,0.0,0.0,0.005409628,-0.00527867,1.0001076,-0.958374,0.1071167,-0.26275635,0.12011719,-0.08300781,-0.1328125,3.2219105,0.111996084,-0.109284855,20.705328,-0.9894409,0.004760742,-0.09118652,0.01171875,-0.0068359375,-9.765625E-4,2.6298687,-3.7651067,-56.97099,19.453417,0.5111084,0.019165039,0.8835449,0.013671875,9.765625E-4,-0.016601562,24.359524,-8.3521,-128.69673,14.866514,0.0,0.0,0.0,0.0,0.0,0.0,0.0,-28.344463,-128.0796,14.617934,-0.9840698,-0.09210205,-0.11602783,9.765625E-4,0.0390625,0.018554688,0.0,0.6480166,45.00086,0.23401396,
1.1523437328287403,59,-0.7733154,-0.3347168,0.53601074,0.09472656,0.005859375,-0.017578125,0.0,0.0,0.0,0.0,0.0,0.0,0.0,0.0,0.0,0.0,0.0,-0.005695969,0.005219085,-1.0000981,-0.95758057,0.07305908,-0.13305664,0.09082031,-0.0625,0.046875,7.8315554,-0.11792341,0.10805122,-20.70513,-0.98742676,0.038330078,0.047302246,-0.013671875,-0.009765625,-0.0048828125,8.188322,-6.5686545,-56.30228,-15.631234,0.52386475,0.10205078,0.81848145,0.013671875,-0.0029296875,-0.033203125,24.009533,-5.976743,-128.24191,-12.404868,0.0,0.0,0.0,0.0,0.0,0.0,0.0,-24.687532,-127.84393,-19.468876,0.0,0.0,0.0,0.0,0.0,0.0,0.0,0.005695969,-0.005219085,1.0000981,-0.9675293,0.12084961,-0.24163818,0.08105469,-0.140625,-0.11230469,3.254858,0.11792341,-0.10805122,20.70513,-0.9881592,0.014343262,-0.076293945,0.030273438,-0.0078125,-9.765625E-4,2.6827042,-3.8210318,-56.965958,19.48189,0.5031128,0.010986328,0.88861084,0.032226562,9.765625E-4,-0.016601562,24.189543,-8.455749,-128.6861,14.874508,0.0,0.0,0.0,0.0,0.0,0.0,0.0,-28.446686,-128.06453,14.631956,-0.97595215,-0.1005249,-0.15307617,0.020507812,0.095703125,0.01953125,0.0,0.6637776,45.000267,0.23105669,
1.171874982537702,60,-0.7755127,-0.3189087,0.54418945,0.020507812,-0.03125,-0.03515625,0.0,0.0,0.0,0.0,0.0,0.0,0.0,0.0,0.0,0.0,0.0,-0.0059232414,0.0050575277,-1.0000991,-0.9680176,0.044677734,-0.13214111,0.09082031,0.009765625,0.046875,7.9073324,-0.122629136,0.10470651,-20.70515,-1.003479,0.037841797,0.053222656,-0.013671875,0.0087890625,0.033203125,8.204946,-6.5916224,-56.295002,-15.553705,0.53515625,0.1104126,0.8491211,0.052734375,-0.022460938,-0.052734375,24.130585,-6.0243645,-128.23659,-12.29251,0.0,0.0,0.0,0.0,0.0,0.0,0.0,-24.729443,-127.83862,-19.3667,0.0,0.0,0.0,0.0,0.0,0.0,0.0,0.0059232414,-0.0050575277,1.0000991,-0.9674072,0.10308838,-0.23608398,0.087890625,-0.10839844,-0.09863281,3.331724,0.122629136,-0.10470651,20.70515,-0.9795532,-0.005493164,-0.064453125,0.0107421875,-0.045898438,0.018554688,2.7400975,-3.8836913,-56.9586,19.5161,0.5120239,0.02532959,0.8745117,0.013671875,9.765625E-4,-0.03515625,24.168598,-8.548065,-128.6802,14.89929,0.0,0.0,0.0,0.0,0.0,0.0,0.0,-28.539549,-128.0638,14.654608,-0.9993286,-0.1026001,-0.12219238,9.765625E-4,0.01953125,0.09472656,0.0,0.64841175,45.000595,0.2237289,
1.1914062322466636,61,-0.7940674,-0.25769043,0.5491333,0.09472656,-0.0126953125,9.765625E-4,0.0,0.0,0.0,0.0,0.0,0.0,0.0,0.0,0.0,0.0,0.0,-0.0053715706,0.004659606,-1.0001007,-0.9708252,0.057495117,-0.12408447,0.0146484375,-0.025390625,0.047851562,7.944506,-0.11120844,0.0964683,-20.705187,-0.9968872,0.055603027,0.04046631,-0.013671875,-0.009765625,0.0146484375,8.23063,-6.6365457,-56.296852,-15.527246,0.49920654,0.1227417,0.86206055,0.033203125,-0.0029296875,-0.033203125,24.282463,-6.1140146,-128.23526,-12.251879,0.0,0.0,0.0,0.0,0.0,0.0,0.0,-24.82312,-127.83135,-19.320389,0.0,0.0,0.0,0.0,0.0,0.0,0.0,0.0053715706,-0.004659606,1.0001007,-0.9593506,0.10015869,-0.25299072,0.15527344,-0.1171875,-0.08984375,3.346207,0.11120844,-0.0964683,20.705187,-0.99243164,0.0048217773,-0.0881958,0.0107421875,-0.0078125,0.017578125,2.779674,-3.9251866,-56.950226,19.55806,0.48266602,-0.002746582,0.8658447,0.032226562,-0.017578125,-0.015625,24.098772,-8.638531,-128.66681,14.9362135,0.0,0.0,0.0,0.0,0.0,0.0,0.0,-28.629293,-128.04683,14.704125,-0.99224854,-0.11035156,-0.12835693,0.020507812,-0.018554688,0.055664062,0.0,0.6559835,45.00042,0.20613977,
1.2109374819556253,62,-0.8007202,-0.29718018,0.54193115,0.01953125,0.005859375,-0.016601562,0.0,0.0,0.0,0.0,0.0,0.0,0.0,0.0,0.0,0.0,0.0,-0.0048119426,0.00428431,-1.0000924,-0.9389038,0.046325684,-0.1730957,0.07128906,0.028320312,0.047851562,7.9567027,-0.099621475,0.08869848,-20.705011,-0.96954346,0.03527832,0.08105469,-0.013671875,0.0087890625,0.013671875,8.2090845,-6.6293435,-56.302483,-15.518551,0.5079346,0.107055664,0.84710693,0.013671875,-0.0029296875,-0.033203125,24.427792,-6.129958,-128.24051,-12.199501,0.0,0.0,0.0,0.0,0.0,0.0,0.0,-24.831501,-127.844734,-19.289713,0.0,0.0,0.0,0.0,0.0,0.0,0.0,0.0048119426,-0.00428431,1.0000924,-0.9594116,0.10803223,-0.25482178,0.123046875,-0.10449219,-0.095703125,3.3785813,0.099621475,-0.08869848,20.705011,-0.9707031,-0.009460449,-0.076416016,0.030273438,-0.026367188,-0.01953125,2.7789695,-3.9434521,-56.94425,19.567339,0.4857788,-0.008850098,0.87384033,0.032226562,9.765625E-4,-0.03515625,23.973013,-8.699803,-128.6602,14.944508,0.0,0.0,0.0,0.0,0.0,0.0,0.0,-28.69154,-128.03421,14.726686,-1.0022583,-0.0791626,-0.12567139,0.040039062,0.0390625,0.018554688,0.0,0.6372479,45.00018,0.1897108,
1.230468731664587,63,-0.7885132,-0.31103516,0.53063965,0.076171875,-0.0126953125,-0.036132812,0.0,0.0,0.0,0.0,0.0,0.0,0.0,0.0,0.0,0.0,0.0,-0.0047330856,0.0042321095,-1.0001649,-0.96154785,0.08013916,-0.15563965,-0.022460938,0.083984375,0.06640625,7.884187,-0.09798908,0.08761779,-20.706514,-0.9819946,0.052978516,0.04937744,0.025390625,0.0078125,-0.0048828125,8.1680355,-6.5963182,-56.313972,-15.589493,0.5058594,0.10827637,0.8185425,0.032226562,0.036132812,-0.033203125,24.406797,-6.072234,-128.24936,-12.243378,0.0,0.0,0.0,0.0,0.0,0.0,0.0,-24.769024,-127.85438,-19.34048,0.0,0.0,0.0,0.0,0.0,0.0,0.0,0.0047330856,-0.0042321095,1.0001649,-0.9663696,0.097229004,-0.25793457,0.08300781,-0.10449219,-0.13378906,3.395287,0.09798908,-0.08761779,20.706514,-0.9907837,-0.0107421875,-0.099121094,0.030273438,-0.0068359375,-0.020507812,2.7665446,-3.9501772,-56.941685,19.534477,0.5007324,0.0025024414,0.8626709,0.0126953125,-0.055664062,-0.015625,24.02628,-8.6983795,-128.65443,14.89033,0.0,0.0,0.0,0.0,0.0,0.0,0.0,-28.689901,-128.03299,14.679607,-0.9859619,-0.06866455,-0.12347412,0.05859375,0.001953125,-0.0390625,0.0,0.6360435,45.00344,0.18741813,
1.2499999813735487,64,-0.80755615,-0.30511475,0.5270996,0.09472656,-0.0126953125,-0.017578125,0.0,0.0,0.0,0.0,0.0,0.0,0.0,0.0,0.0,0.0,0.0,-0.005679637,0.004143904,-1.0001246,-0.9484253,0.083740234,-0.14294434,-0.2109375,0.030273438,0.030273438,7.831781,-0.11758569,0.085791655,-20.705679,-0.9923096,0.041503906,0.04534912,0.005859375,-0.0107421875,-0.0048828125,8.161759,-6.649621,-56.32478,-15.690713,0.48425293,0.1328125,0.85632324,0.013671875,-0.0029296875,-0.0146484375,24.39669,-6.130491,-128.25716,-12.335241,0.0,0.0,0.0,0.0,0.0,0.0,0.0,-24.831766,-127.859726,-19.421822,0.0,0.0,0.0,0.0,0.0,0.0,0.0,0.005679637,-0.004143904,1.0001246,-0.96032715,0.088256836,-0.23736572,0.08203125,-0.16015625,-0.091796875,3.4112227,0.11758569,-0.085791655,20.705679,-0.9857178,-0.011047363,-0.08227539,0.01171875,-0.0068359375,-0.01953125,2.825562,-3.963346,-56.936314,19.586185,0.5027466,0.0014648438,0.8637085,0.013671875,9.765625E-4,-0.016601562,23.953917,-8.751345,-128.64377,14.9289875,0.0,0.0,0.0,0.0,0.0,0.0,0.0,-28.74363,-128.02536,14.716235,-0.99102783,-0.072387695,-0.13153076,-0.017578125,0.020507812,-9.765625E-4,0.0,0.6387216,45.001816,0.18283275,
1.2695312310825104,65,-0.8139038,-0.26568604,0.52368164,0.01953125,0.005859375,-0.016601562,0.0,0.0,0.0,0.0,0.0,0.0,0.0,0.0,0.0,0.0,0.0,-0.006973386,0.0038956634,-1.0001118,-0.9967041,0.07373047,-0.115600586,-0.13574219,-0.024414062,0.06640625,7.8436766,-0.14437115,0.080652304,-20.705414,-0.9866333,0.02960205,0.035339355,0.025390625,0.0068359375,0.033203125,8.249907,-6.767273,-56.316563,-15.691912,0.5233154,0.12530518,0.8512573,0.013671875,-0.021484375,-0.034179688,24.387047,-6.2341175,-128.24698,-12.292996,0.0,0.0,0.0,0.0,0.0,0.0,0.0,-24.930199,-127.85258,-19.394896,0.0,0.0,0.0,0.0,0.0,0.0,0.0,0.006973386,-0.0038956634,1.0001118,-0.9543457,0.10217285,-0.2609253,0.12207031,-0.08496094,-0.115234375,3.3419917,0.14437115,-0.080652304,20.705414,-0.9958496,-0.01965332,-0.07922363,-0.0078125,-0.0078125,0.017578125,2.8834405,-3.93298,-56.934345,19.626831,0.49658203,-0.0034179688,0.8567505,-0.0048828125,0.0,-0.016601562,24.084131,-8.719168,-128.64342,14.941805,0.0,0.0,0.0,0.0,0.0,0.0,0.0,-28.710651,-128.02846,14.735777,-0.98095703,-0.08416748,-0.13079834,-0.056640625,-0.018554688,0.037109375,0.0,0.6867082,45.0009,0.17050059,
1.2890624807914721,66,-0.79174805,-0.28149414,0.52508545,0.01953125,-0.0126953125,-0.03515625,0.0,0.0,0.0,0.0,0.0,0.0,0.0,0.0,0.0,0.0,0.0,-0.007948726,0.0035325715,-1.0000658,-0.9807739,0.064697266,-0.14953613,-0.022460938,-0.043945312,0.029296875,7.9177012,-0.16456208,0.073135175,-20.704464,-0.9867554,0.025634766,0.038330078,0.005859375,0.0078125,0.0146484375,8.335479,-6.84355,-56.314396,-15.6259,0.50079346,0.09832764,0.8529053,0.013671875,-0.0029296875,-0.0146484375,24.267977,-6.2938976,-128.24464,-12.22416,0.0,0.0,0.0,0.0,0.0,0.0,0.0,-24.995949,-127.83673,-19.310081,0.0,0.0,0.0,0.0,0.0,0.0,0.0,0.007948726,-0.0035325715,1.0000658,-0.96240234,0.11193848,-0.23791504,0.22460938,-0.10839844,-0.08300781,3.3323116,0.16456208,-0.073135175,20.704464,-0.99542236,0.0048828125,-0.090148926,0.01171875,-0.0068359375,-0.01953125,2.9023871,-3.8914077,-56.926807,19.617424,0.48999023,0.020996094,0.8786621,0.013671875,-0.018554688,-0.016601562,24.019535,-8.696289,-128.62933,14.881084,0.0,0.0,0.0,0.0,0.0,0.0,0.0,-28.687136,-128.01566,14.659887,-0.9659424,-0.11651611,-0.12359619,-0.037109375,9.765625E-4,0.017578125,0.0,0.6842068,44.999203,0.1535142,
1.3085937305004338,67,-0.77282715,-0.2677002,0.52679443,0.01953125,-0.0126953125,-0.016601562,0.0,0.0,0.0,0.0,0.0,0.0,0.0,0.0,0.0,0.0,0.0,-0.0075256526,0.0028143506,-1.0000893,-0.94262695,0.06793213,-0.15209961,-0.022460938,0.0107421875,0.047851562,7.892473,-0.15580389,0.058265783,-20.704948,-1.008606,0.06756592,0.05834961,0.025390625,-0.01171875,0.0146484375,8.331308,-6.8443165,-56.32566,-15.639654,0.5222168,0.123535156,0.8265991,0.013671875,-0.0029296875,-0.033203125,24.402822,-6.316494,-128.25986,-12.266556,0.0,0.0,0.0,0.0,0.0,0.0,0.0,-25.011166,-127.85715,-19.370953,0.0,0.0,0.0,0.0,0.0,0.0,0.0,0.0075256526,-0.0028143506,1.0000893,-0.958374,0.10614014,-0.26080322,0.0703125,-0.091796875,-0.12011719,3.3596368,0.15580389,-0.058265783,20.704948,-0.98779297,-0.0087890625,-0.10412598,0.030273438,-0.0078125,-9.765625E-4,2.915375,-3.9073675,-56.91102,19.600645,0.5029297,0.0021972656,0.8786621,0.0126953125,-0.037109375,-0.016601562,24.042345,-8.700366,-128.61285,14.834227,0.0,0.0,0.0,0.0,0.0,0.0,0.0,-28.692623,-127.9974,14.618109,-0.96984863,-0.0960083,-0.12609863,-0.017578125,9.765625E-4,0.037109375,0.0,0.68072784,45.00016,0.12151247,
1.3281249802093955,68,-0.77789307,-0.2637329,0.5338745,0.01953125,0.005859375,0.001953125,0.0,0.0,0.0,0.0,0.0,0.0,0.0,0.0,0.0,0.0,0.0,-0.006819725,0.0022459722,-1.0001035,-0.9448242,0.05316162,-0.13934326,0.09082031,0.045898438,0.06640625,7.897893,-0.14118862,0.046498585,-20.705242,-0.98809814,0.0501709,0.053344727,0.025390625,-0.0107421875,-0.0048828125,8.332252,-6.838442,-56.336,-15.617399,0.5430908,0.10443115,0.84802246,0.033203125,-0.0029296875,-0.033203125,24.505474,-6.3299546,-128.26904,-12.245559,0.0,0.0,0.0,0.0,0.0,0.0,0.0,-25.017035,-127.86908,-19.37143,0.0,0.0,0.0,0.0,0.0,0.0,0.0,0.006819725,-0.0022459722,1.0001035,-0.9603882,0.112976074,-0.25476074,0.0703125,-0.111328125,-0.10058594,3.4245124,0.14118862,-0.046498585,20.705242,-0.9892578,0.013549805,-0.092163086,0.030273438,-0.0078125,-9.765625E-4,2.8944852,-3.9608178,-56.89688,19.560726,0.5050049,0.017211914,0.8775635,0.03125,-0.017578125,-0.03515625,24.072454,-8.758766,-128.59805,14.788662,0.0,0.0,0.0,0.0,0.0,0.0,0.0,-28.750854,-127.97953,14.574091,-0.9871826,-0.10858154,-0.121398926,0.020507812,-0.017578125,0.037109375,0.0,0.6754631,45.00064,0.096453786,
1.3476562299183572,69,-0.80493164,-0.26660156,0.53637695,0.020507812,-0.0126953125,0.001953125,0.0,0.0,0.0,0.0,0.0,0.0,0.0,0.0,0.0,0.0,0.0,-0.006701261,0.001981207,-1.0000732,-0.9564209,0.08392334,-0.14379883,0.09082031,0.08203125,0.029296875,7.84998,-0.13873556,0.041017108,-20.704615,-1.0021362,0.015197754,0.042175293,-0.013671875,0.0087890625,0.033203125,8.308227,-6.7897,-56.345512,-15.607132,0.50219727,0.120666504,0.86798096,0.013671875,-0.021484375,-0.034179688,24.390951,-6.252798,-128.27501,-12.217185,0.0,0.0,0.0,0.0,0.0,0.0,0.0,-24.943872,-127.866486,-19.330597,0.0,0.0,0.0,0.0,0.0,0.0,0.0,0.006701261,-0.001981207,1.0000732,-0.95532227,0.105041504,-0.2529297,0.10546875,-0.087890625,-0.1171875,3.4213092,0.13873556,-0.041017108,20.704615,-0.9758911,-0.012084961,-0.09625244,0.048828125,-0.0078125,-0.001953125,2.925898,-3.9668343,-56.88847,19.558434,0.48864746,-0.0036621094,0.86279297,0.013671875,9.765625E-4,-0.016601562,24.171026,-8.762766,-128.58762,14.744989,0.0,0.0,0.0,0.0,0.0,0.0,0.0,-28.755613,-127.96408,14.543723,-0.9647217,-0.085510254,-0.11590576,9.765625E-4,-0.017578125,-9.765625E-4,0.0,0.6853365,44.999092,0.0845537,
1.367187479627319,70,-0.8199463,-0.27539062,0.5534668,0.01953125,0.005859375,0.020507812,0.0,0.0,0.0,0.0,0.0,0.0,0.0,0.0,0.0,0.0,0.0,-0.006366849,0.002006517,-1.0000839,-0.95861816,0.072265625,-0.16564941,-0.060546875,-0.025390625,0.029296875,7.872851,-0.13181412,0.041541114,-20.704838,-1.0055542,0.034301758,0.02935791,0.005859375,-0.0107421875,0.0146484375,8.33913,-6.8141923,-56.344925,-15.61916,0.5028076,0.09729004,0.8548584,0.013671875,-0.021484375,-0.034179688,24.37851,-6.273613,-128.27988,-12.234272,0.0,0.0,0.0,0.0,0.0,0.0,0.0,-24.967155,-127.86679,-19.342525,0.0,0.0,0.0,0.0,0.0,0.0,0.0,0.006366849,-0.002006517,1.0000839,-0.9614258,0.107055664,-0.24890137,0.09765625,-0.10058594,-0.14941406,3.4415076,0.13181412,-0.041541114,20.704838,-0.98187256,-0.012939453,-0.095214844,0.030273438,-0.026367188,-9.765625E-4,2.9534004,-3.9938726,-56.88974,19.580132,0.5107422,0.009643555,0.857605,0.032226562,-0.017578125,-0.015625,24.027714,-8.822907,-128.58542,14.754909,0.0,0.0,0.0,0.0,0.0,0.0,0.0,-28.814407,-127.96581,14.539961,-0.96569824,-0.08331299,-0.13677979,-0.037109375,-0.017578125,-9.765625E-4,0.0,0.67873085,44.999577,0.085963815,
1.3867187293362806,71,-0.7819214,-0.2755127,0.5507202,0.020507812,-0.0126953125,0.020507812,0.0,0.0,0.0,0.0,0.0,0.0,0.0,0.0,0.0,0.0,0.0,-0.005325407,0.0020259684,-1.0001267,-0.9606323,0.07019043,-0.1428833,0.034179688,0.0107421875,0.047851562,7.881498,-0.110251516,0.04194382,-20.705723,-1.0095825,0.06616211,0.024597168,-0.013671875,-0.009765625,0.0146484375,8.391103,-6.8168077,-56.33871,-15.614851,0.5142822,0.12957764,0.82373047,0.013671875,-0.0029296875,-0.033203125,24.21814,-6.245535,-128.27199,-12.24252,0.0,0.0,0.0,0.0,0.0,0.0,0.0,-24.942713,-127.857574,-19.339329,0.0,0.0,0.0,0.0,0.0,0.0,0.0,0.005325407,-0.0020259684,1.0001267,-0.958374,0.1060791,-0.25390625,0.12011719,-0.10253906,-0.11328125,3.418332,0.110251516,-0.04194382,20.705723,-0.98217773,0.01727295,-0.088256836,0.01171875,-0.026367188,-9.765625E-4,2.98662,-4.012642,-56.88878,19.584352,0.4800415,0.027770996,0.883667,-0.005859375,-0.037109375,-0.03515625,24.033358,-8.849831,-128.58151,14.7151375,0.0,0.0,0.0,0.0,0.0,0.0,0.0,-28.840508,-127.959145,14.518019,-0.98809814,-0.08135986,-0.11779785,-0.056640625,0.0390625,-9.765625E-4,0.0,0.69437814,45.00099,0.087461635,
1.4062499790452423,72,-0.8045044,-0.29925537,0.51123047,0.01953125,0.024414062,-0.053710938,0.0,0.0,0.0,0.0,0.0,0.0,0.0,0.0,0.0,0.0,0.0,-0.005909145,0.0022391565,-1.0001016,-0.97509766,0.041992188,-0.14886475,0.052734375,-0.0625,0.046875,7.925755,-0.12233752,0.046357486,-20.705204,-1.0095825,0.06616211,0.024597168,-0.013671875,-0.009765625,0.0146484375,8.427812,-6.8595705,-56.32688,-15.593516,0.52459717,0.13684082,0.8760376,0.051757812,0.03515625,-0.033203125,24.23674,-6.2882977,-128.26016,-12.221186,0.0,0.0,0.0,0.0,0.0,0.0,0.0,-24.983744,-127.85578,-19.325302,0.0,0.0,0.0,0.0,0.0,0.0,0.0,0.005909145,-0.0022391565,1.0001016,-0.96643066,0.10015869,-0.24206543,0.08300781,-0.10449219,-0.13378906,3.4219387,0.12233752,-0.046357486,20.705204,-0.9985962,-0.0028686523,-0.09112549,0.01171875,-0.0068359375,-9.765625E-4,3.026533,-4.016583,-56.896114,19.606508,0.4880371,0.025939941,0.88061523,0.032226562,-0.017578125,-0.015625,24.083939,-8.865437,-128.58246,14.716861,0.0,0.0,0.0,0.0,0.0,0.0,0.0,-28.85688,-127.95398,14.532192,-0.9768677,-0.07165527,-0.121520996,-0.07519531,-0.037109375,-0.001953125,0.0,0.695554,44.999996,0.09664208,
1.425781228754204,73,-0.7923584,-0.322937,0.5147095,0.076171875,-0.0126953125,-0.017578125,0.0,0.0,0.0,0.0,0.0,0.0,0.0,0.0,0.0,0.0,0.0,-0.0053628087,0.0026449722,-1.0001341,-0.9605713,0.0803833,-0.20404053,-0.15429688,-0.024414062,0.047851562,7.9057927,-0.11102611,0.05475913,-20.70588,-0.99816895,0.046691895,0.04534912,0.025390625,-0.0107421875,-0.0048828125,8.418929,-6.850127,-56.324776,-15.66219,0.52783203,0.09802246,0.82922363,0.013671875,-0.0029296875,-0.033203125,24.217367,-6.2463827,-128.25308,-12.228529,0.0,0.0,0.0,0.0,0.0,0.0,0.0,-24.938084,-127.84376,-19.339294,0.0,0.0,0.0,0.0,0.0,0.0,0.0,0.0053628087,-0.0026449722,1.0001341,-0.95526123,0.0803833,-0.24749756,0.068359375,-0.08984375,-0.13769531,3.3901513,0.11102611,-0.05475913,20.70588,-0.98339844,0.0065307617,-0.08428955,0.01171875,-0.026367188,-0.01953125,3.0303466,-3.991392,-56.904675,19.611214,0.50512695,0.015014648,0.8885498,0.013671875,-0.018554688,-0.016601562,24.093235,-8.85792,-128.5909,14.6969185,0.0,0.0,0.0,0.0,0.0,0.0,0.0,-28.850983,-127.96882,14.503817,-0.9769287,-0.088134766,-0.12689209,9.765625E-4,0.01953125,0.018554688,0.0,0.6864008,45.00146,0.11533111,
1.4453124784631657,74,-0.81359863,-0.31097412,0.5371094,0.020507812,-0.03125,-0.016601562,0.0,0.0,0.0,0.0,0.0,0.0,0.0,0.0,0.0,0.0,0.0,-0.004694462,0.0026958426,-1.0001552,-0.95654297,0.074035645,-0.13500977,-0.24902344,0.013671875,0.06738281,7.8964515,-0.097191334,0.055812303,-20.706312,-1.0021973,0.045959473,0.03540039,0.005859375,-0.0107421875,0.0146484375,8.4514065,-6.903196,-56.32437,-15.776762,0.5059204,0.1071167,0.84020996,-0.005859375,-0.0029296875,-0.0146484375,24.114758,-6.297243,-128.25432,-12.337839,0.0,0.0,0.0,0.0,0.0,0.0,0.0,-24.997734,-127.83389,-19.427044,0.0,0.0,0.0,0.0,0.0,0.0,0.0,0.004694462,-0.0026958426,1.0001552,-0.9644165,0.10809326,-0.25872803,0.10253906,-0.10449219,-0.115234375,3.3883603,0.097191334,-0.055812303,20.706312,-0.9866333,-0.005065918,-0.09118652,0.030273438,-0.0078125,-9.765625E-4,3.0555012,-3.985929,-56.909195,19.605148,0.47705078,0.016723633,0.8887329,0.03125,-0.017578125,-0.03515625,24.157026,-8.840893,-128.59418,14.64362,0.0,0.0,0.0,0.0,0.0,0.0,0.0,-28.832962,-127.96273,14.46184,-0.9841919,-0.10876465,-0.10839844,0.020507812,0.01953125,0.037109375,0.0,0.6731844,45.002453,0.11814089,
1.4648437281721274,75,-0.8066406,-0.29815674,0.5311279,-0.0546875,-0.0126953125,0.0029296875,0.0,0.0,0.0,0.0,0.0,0.0,0.0,0.0,0.0,0.0,0.0,-0.0040544868,0.0024714703,-1.0001711,-0.9525757,0.071777344,-0.101501465,-0.060546875,0.047851562,0.047851562,7.9810658,-0.08393997,0.051167093,-20.706642,-0.9770508,0.05102539,0.036499023,0.044921875,0.0068359375,0.0146484375,8.512439,-6.9363394,-56.31959,-15.717865,0.51342773,0.13232422,0.85528564,0.013671875,-0.0029296875,-0.033203125,24.139471,-6.3264623,-128.24832,-12.261851,0.0,0.0,0.0,0.0,0.0,0.0,0.0,-25.024288,-127.83,-19.35922,0.0,0.0,0.0,0.0,0.0,0.0,0.0,0.0040544868,-0.0024714703,1.0001711,-0.9543457,0.10308838,-0.2510376,0.1328125,-0.13378906,-0.10644531,3.4099023,0.08393997,-0.051167093,20.706642,-0.9939575,-0.018493652,-0.099121094,0.01171875,-0.0068359375,-9.765625E-4,3.0757442,-3.995792,-56.90073,19.610205,0.49902344,0.021057129,0.88061523,0.032226562,-0.017578125,-0.015625,24.162394,-8.849257,-128.58646,14.6271515,0.0,0.0,0.0,0.0,0.0,0.0,0.0,-28.840336,-127.9548,14.442214,-0.97595215,-0.09307861,-0.125,-0.017578125,9.765625E-4,0.037109375,0.0,0.6548202,45.00331,0.10855082,
1.484374977881089,76,-0.7888794,-0.2833252,0.5527344,0.020507812,-0.0126953125,0.001953125,0.0,0.0,0.0,0.0,0.0,0.0,0.0,0.0,0.0,0.0,0.0,-0.004817784,0.0024887875,-1.0001482,-0.9578247,0.05328369,-0.11541748,-0.00390625,-0.0078125,0.047851562,8.058149,-0.09974462,0.051525623,-20.70617,-0.991272,0.043640137,0.033447266,-0.013671875,0.0087890625,0.033203125,8.565615,-6.9860067,-56.307453,-15.648396,0.513855,0.10119629,0.8312378,0.013671875,-0.0029296875,-0.0146484375,24.205366,-6.3735623,-128.23753,-12.184034,0.0,0.0,0.0,0.0,0.0,0.0,0.0,-25.063646,-127.817444,-19.300297,0.0,0.0,0.0,0.0,0.0,0.0,0.0,0.004817784,-0.0024887875,1.0001482,-0.9553833,0.10809326,-0.2647705,0.1484375,-0.12988281,-0.12207031,3.416728,0.09974462,-0.051525623,20.70617,-0.97436523,0.008178711,-0.07739258,0.048828125,-0.026367188,-9.765625E-4,3.130441,-3.9805615,-56.90359,19.608313,0.5050659,0.021118164,0.8805542,0.013671875,-0.018554688,0.021484375,24.249882,-8.797872,-128.58551,14.564606,0.0,0.0,0.0,0.0,0.0,0.0,0.0,-28.789429,-127.95513,14.373851,-0.97595215,-0.10272217,-0.13220215,-0.017578125,-0.017578125,-0.020507812,0.0,0.64976275,45.002506,0.10885513,
1.5039062275900508,77,-0.7885132,-0.2874756,0.4991455,0.01953125,0.005859375,0.001953125,0.0,0.0,0.0,0.0,0.0,0.0,0.0,0.0,0.0,0.0,0.0,-0.004675597,0.0020272683,-1.0000855,-0.9737549,0.06665039,-0.16345215,0.109375,0.009765625,0.046875,8.038905,-0.09679958,0.041970734,-20.704868,-1.0008545,0.059387207,0.061279297,-0.013671875,-0.0107421875,0.033203125,8.5556345,-6.975094,-56.31786,-15.638614,0.5150757,0.11071777,0.86291504,0.033203125,-0.0029296875,-0.0146484375,24.221645,-6.368959,-128.24745,-12.173664,0.0,0.0,0.0,0.0,0.0,0.0,0.0,-25.060377,-127.8263,-19.285847,0.0,0.0,0.0,0.0,0.0,0.0,0.0,0.004675597,-0.0020272683,1.0000855,-0.96643066,0.111083984,-0.258667,0.08105469,-0.140625,-0.11230469,3.4234831,0.09679958,-0.041970734,20.704868,-0.9852905,0.01550293,-0.09814453,0.01171875,-0.026367188,-9.765625E-4,3.138186,-3.9852455,-56.891415,19.609657,0.49987793,0.0032958984,0.8717041,0.013671875,-0.018554688,-0.016601562,24.080482,-8.838672,-128.56712,14.547788,0.0,0.0,0.0,0.0,0.0,0.0,0.0,-28.829971,-127.93093,14.355754,-0.9921875,-0.09667969,-0.1340332,-0.037109375,9.765625E-4,-9.765625E-4,0.0,0.6512534,44.99963,0.08817378,
1.5234374772990125,78,-0.7932129,-0.3269043,0.49884033,0.01953125,0.005859375,0.001953125,0.0,0.0,0.0,0.0,0.0,0.0,0.0,0.0,0.0,0.0,0.0,-0.0047516227,0.0021450606,-1.0001453,-0.95739746,0.08898926,-0.1694336,0.015625,-0.0078125,0.029296875,8.009179,-0.09837288,0.044409405,-20.70611,-1.0008545,0.059387207,0.061279297,-0.013671875,-0.0107421875,0.033203125,8.540517,-6.968121,-56.31813,-15.6644745,0.47192383,0.11340332,0.8668823,-0.005859375,-0.0029296875,-0.033203125,24.15283,-6.361986,-128.24771,-12.199525,0.0,0.0,0.0,0.0,0.0,0.0,0.0,-25.062243,-127.81372,-19.28793,0.0,0.0,0.0,0.0,0.0,0.0,0.0,0.0047516227,-0.0021450606,1.0001453,-0.96240234,0.1081543,-0.27459717,0.13183594,-0.036132812,-0.10449219,3.3641212,0.09837288,-0.044409405,20.70611,-0.9713745,0.0061035156,-0.07043457,0.0126953125,-0.0068359375,-0.0390625,3.0307343,-3.910376,-56.90008,19.521748,0.5158081,0.01763916,0.86053467,0.013671875,-0.018554688,-0.016601562,23.825562,-8.818033,-128.5696,14.440734,0.0,0.0,0.0,0.0,0.0,0.0,0.0,-28.809706,-127.93548,14.248116,-0.9851074,-0.097839355,-0.12609863,0.020507812,-0.017578125,-0.020507812,0.0,0.6628953,45.002174,0.09336902,
1.5429687270079742,79,-0.78845215,-0.31304932,0.51867676,0.020507812,-0.03125,0.001953125,0.0,0.0,0.0,0.0,0.0,0.0,0.0,0.0,0.0,0.0,0.0,-0.0053866208,0.0024824347,-1.0001007,-0.9544678,0.08288574,-0.13793945,-0.1171875,0.047851562,0.047851562,8.034899,-0.11152008,0.051394083,-20.705187,-0.99053955,0.068115234,0.049438477,0.0068359375,0.0078125,-0.0234375,8.53449,-7.030208,-56.309406,-15.69121,0.517395,0.13226318,0.8513794,0.033203125,-0.0029296875,-0.051757812,24.243513,-6.494955,-128.24126,-12.264139,0.0,0.0,0.0,0.0,0.0,0.0,0.0,-25.202988,-127.80729,-19.331436,0.0,0.0,0.0,0.0,0.0,0.0,0.0,0.0053866208,-0.0024824347,1.0001007,-0.958313,0.0970459,-0.22735596,0.0703125,-0.111328125,-0.10058594,3.3433971,0.11152008,-0.051394083,20.705187,-1.0015259,-0.006958008,-0.06726074,0.030273438,-0.026367188,-9.765625E-4,2.999635,-3.8797042,-56.910267,19.491638,0.4998169,0.0013427734,0.87072754,-0.0048828125,0.0,-0.016601562,23.614237,-8.837058,-128.57793,14.393637,0.0,0.0,0.0,0.0,0.0,0.0,0.0,-28.828163,-127.94162,14.199785,-0.9738159,-0.08416748,-0.13775635,0.020507812,-0.017578125,0.037109375,0.0,0.66886854,45.000225,0.10809624,
1.5624999767169359,80,-0.79467773,-0.30700684,0.55859375,0.01953125,-0.0126953125,-0.016601562,0.0,0.0,0.0,0.0,0.0,0.0,0.0,0.0,0.0,0.0,0.0,-0.0049488246,0.0024622644,-1.0001036,-0.9706421,0.07122803,-0.111083984,-0.022460938,0.06542969,0.029296875,8.090075,-0.10245535,0.050976522,-20.705242,-0.9958496,0.05908203,0.06921387,-0.0126953125,0.0087890625,-0.0048828125,8.544609,-7.0570316,-56.30261,-15.670921,0.513855,0.10217285,0.8283081,0.033203125,-0.021484375,-0.034179688,24.353502,-6.561659,-128.23462,-12.242076,0.0,0.0,0.0,0.0,0.0,0.0,0.0,-25.268068,-127.79838,-19.311878,0.0,0.0,0.0,0.0,0.0,0.0,0.0,0.0049488246,-0.0024622644,1.0001036,-0.95739746,0.108947754,-0.23504639,0.12402344,-0.048828125,-0.13769531,3.395979,0.10245535,-0.050976522,20.705242,-1.003479,0.0072021484,-0.10498047,0.0107421875,-0.0078125,0.017578125,3.0434966,-3.9349492,-56.904167,19.522188,0.51483154,-0.007446289,0.8696289,-0.0048828125,0.0,-0.016601562,23.495375,-8.92561,-128.56448,14.413978,0.0,0.0,0.0,0.0,0.0,0.0,0.0,-28.91615,-127.92599,14.218898,-0.9840088,-0.084106445,-0.1328125,-0.017578125,-0.018554688,0.055664062,0.0,0.6542127,45.000465,0.10755435,
1.5820312264258976,81,-0.79455566,-0.31689453,0.5465698,0.020507812,-0.0126953125,0.001953125,0.0,0.0,0.0,0.0,0.0,0.0,0.0,0.0,0.0,0.0,0.0,-0.0054578185,0.002713235,-1.0001321,-0.9725952,0.07531738,-0.13275146,0.109375,-0.0087890625,0.046875,8.13902,-0.11299318,0.05617237,-20.705833,-0.97491455,0.0546875,0.052368164,0.005859375,-0.0107421875,0.0146484375,8.56534,-7.078036,-56.28789,-15.603144,0.5192261,0.122558594,0.83843994,0.033203125,-0.021484375,-0.034179688,24.431416,-6.5953007,-128.21907,-12.173024,0.0,0.0,0.0,0.0,0.0,0.0,0.0,-25.299185,-127.783745,-19.249985,0.0,0.0,0.0,0.0,0.0,0.0,0.0,0.0054578185,-0.002713235,1.0001321,-0.9543457,0.10809326,-0.26672363,0.171875,-0.095703125,-0.10839844,3.3988028,0.11299318,-0.05617237,20.705833,-0.97436523,0.0072631836,-0.082336426,0.030273438,-0.0078125,-9.765625E-4,3.058575,-3.9484653,-56.90887,19.519772,0.4885254,-0.011474609,0.85388184,0.013671875,9.765625E-4,-0.016601562,23.458384,-8.963448,-128.57019,14.390545,0.0,0.0,0.0,0.0,0.0,0.0,0.0,-28.955418,-127.92698,14.203922,-0.9708252,-0.08929443,-0.11895752,-0.056640625,-0.018554688,0.017578125,0.0,0.6681326,45.001663,0.1184379,
1.6015624761348592,82,-0.79364014,-0.309021,0.548645,0.020507812,-0.03125,0.001953125,0.0,0.0,0.0,0.0,0.0,0.0,0.0,0.0,0.0,0.0,0.0,-0.0049078763,0.0030290799,-1.0001835,-0.9735718,0.07519531,-0.112976074,0.109375,-0.08105469,0.046875,8.238689,-0.10160759,0.06271133,-20.706898,-0.9866333,0.032226562,0.058166504,0.025390625,-0.01171875,0.0146484375,8.59512,-7.0891156,-56.272377,-15.532025,0.5281372,0.11260986,0.83929443,-0.005859375,-0.0029296875,-0.0146484375,24.356178,-6.6054826,-128.20071,-12.037445,0.0,0.0,0.0,0.0,0.0,0.0,0.0,-25.313524,-127.758255,-19.107729,0.0,0.0,0.0,0.0,0.0,0.0,0.0,0.0049078763,-0.0030290799,1.0001835,-0.9614258,0.1149292,-0.2487793,0.09863281,-0.13867188,-0.11035156,3.3997242,0.10160759,-0.06271133,20.706898,-0.9881592,0.018371582,-0.0881958,0.030273438,-0.0078125,-9.765625E-4,3.0381534,-3.9339468,-56.916138,19.509813,0.5059204,-0.01171875,0.87872314,-0.0048828125,0.0,-0.016601562,23.374702,-8.984232,-128.57349,14.373556,0.0,0.0,0.0,0.0,0.0,0.0,0.0,-28.974573,-127.92573,14.191147,-0.9749756,-0.096191406,-0.1081543,-0.037109375,-0.017578125,-9.765625E-4,0.0,0.6450325,45.004185,0.13313109,
1.621093725843821,83,-0.8045044,-0.3100586,0.5270386,9.765625E-4,0.005859375,0.001953125,0.0,0.0,0.0,0.0,0.0,0.0,0.0,0.0,0.0,0.0,0.0,-0.0037049055,0.0033982433,-1.0001137,-0.97857666,0.0793457,-0.1296997,0.0146484375,-0.0625,0.046875,8.366118,-0.07670295,0.07035416,-20.705456,-1.0078735,0.024841309,0.06896973,0.005859375,0.0078125,0.033203125,8.680368,-7.1565695,-56.250473,-15.476444,0.52612305,0.10858154,0.8540039,0.013671875,-0.0029296875,-0.033203125,24.432482,-6.6883707,-128.17633,-11.943098,0.0,0.0,0.0,0.0,0.0,0.0,0.0,-25.389233,-127.73614,-19.028646,0.0,0.0,0.0,0.0,0.0,0.0,0.0,0.0037049055,-0.0033982433,1.0001137,-0.96136475,0.10510254,-0.25390625,0.11328125,-0.15332031,-0.10644531,3.424398,0.07670295,-0.07035416,20.705456,-0.98565674,-0.005126953,-0.086242676,0.030273438,-0.0078125,-9.765625E-4,3.0587668,-3.9871383,-56.923107,19.520613,0.48187256,0.024047852,0.8717041,0.013671875,9.765625E-4,-0.016601562,23.385778,-9.03175,-128.58334,14.385962,0.0,0.0,0.0,0.0,0.0,0.0,0.0,-29.023766,-127.934235,14.206073,-0.9708252,-0.0947876,-0.1459961,-0.017578125,0.01953125,0.037109375,0.0,0.63851285,45.000908,0.15054129,
1.6406249755527826,84,-0.8045654,-0.29919434,0.51916504,0.09472656,-0.0126953125,9.765625E-4,0.0,0.0,0.0,0.0,0.0,0.0,0.0,0.0,0.0,0.0,0.0,-0.003955543,0.0034334667,-1.0001471,-0.93963623,0.06793213,-0.1630249,-0.060546875,0.01171875,0.047851562,8.370765,-0.08189076,0.071083404,-20.706146,-0.99438477,0.07330322,0.04156494,0.024414062,-0.030273438,-0.0048828125,8.682609,-7.1713276,-56.252987,-15.492525,0.49871826,0.09442139,0.85479736,0.033203125,-0.021484375,-0.034179688,24.392248,-6.71215,-128.17717,-11.979931,0.0,0.0,0.0,0.0,0.0,0.0,0.0,-25.418392,-127.72252,-19.049923,0.0,0.0,0.0,0.0,0.0,0.0,0.0,0.003955543,-0.0034334667,1.0001471,-0.9614258,0.1071167,-0.26470947,0.046875,-0.1640625,-0.095703125,3.4672961,0.08189076,-0.071083404,20.706146,-0.97869873,-0.011291504,-0.074401855,0.030273438,-0.0078125,-9.765625E-4,3.0912983,-4.0247107,-56.91729,19.544605,0.49499512,0.023071289,0.8765869,0.013671875,-0.037109375,0.0029296875,23.328789,-9.080641,-128.57367,14.409189,0.0,0.0,0.0,0.0,0.0,0.0,0.0,-29.072184,-127.92329,14.235121,-0.9790039,-0.09240723,-0.098083496,0.0390625,0.020507812,0.037109375,0.0,0.6315367,45.002556,0.15199435,
1.6601562252617443,85,-0.7998047,-0.27160645,0.52734375,0.020507812,-0.03125,-0.016601562,0.0,0.0,0.0,0.0,0.0,0.0,0.0,0.0,0.0,0.0,0.0,-0.003977269,0.0029157044,-1.0001295,-0.9746094,0.07446289,-0.14758301,-0.1171875,-0.04296875,0.06640625,8.335597,-0.08234069,0.06036411,-20.70578,-0.9702759,0.042907715,0.037475586,0.026367188,0.044921875,0.033203125,8.718324,-7.20435,-56.2593,-15.497021,0.515625,0.14807129,0.83477783,0.013671875,-0.021484375,-0.034179688,24.283384,-6.7315016,-128.18816,-11.963147,0.0,0.0,0.0,0.0,0.0,0.0,0.0,-25.44487,-127.72893,-19.014465,0.0,0.0,0.0,0.0,0.0,0.0,0.0,0.003977269,-0.0029157044,1.0001295,-0.95635986,0.10308838,-0.24902344,0.0703125,-0.111328125,-0.10058594,3.468143,0.08234069,-0.06036411,20.70578,-0.9902954,0.012634277,-0.092163086,0.049804688,-0.0068359375,-0.020507812,3.0918682,-4.062412,-56.9049,19.53279,0.4925537,0.0045776367,0.8517456,-0.005859375,-0.037109375,-0.016601562,23.334642,-9.147236,-128.56027,14.385498,0.0,0.0,0.0,0.0,0.0,0.0,0.0,-29.138779,-127.90989,14.21143,-0.9708252,-0.07861328,-0.11871338,-0.017578125,0.0,0.056640625,0.0,0.6706469,45.001186,0.12852621,
1.679687474970706,86,-0.78375244,-0.27557373,0.5209961,0.020507812,-0.03125,-0.016601562,0.0,0.0,0.0,0.0,0.0,0.0,0.0,0.0,0.0,0.0,0.0,-0.0036942065,0.0030656082,-1.0001197,-0.9406128,0.069885254,-0.15411377,-0.2109375,-0.060546875,0.029296875,8.354916,-0.076482445,0.06346758,-20.705578,-0.99798584,0.020751953,0.05810547,0.026367188,0.026367188,0.0146484375,8.772679,-7.260704,-56.249634,-15.553177,0.51586914,0.10614014,0.8204956,-0.025390625,-0.021484375,-0.034179688,24.324833,-6.77186,-128.17401,-12.009872,0.0,0.0,0.0,0.0,0.0,0.0,0.0,-25.479816,-127.71814,-19.072945,0.0,0.0,0.0,0.0,0.0,0.0,0.0,0.0036942065,-0.0030656082,1.0001197,-0.95129395,0.099121094,-0.2531128,0.16503906,-0.12792969,-0.12109375,3.4661102,0.076482445,-0.06346758,20.705578,-1.0048218,-0.014404297,-0.09106445,0.01171875,-0.0068359375,-0.01953125,3.1136987,-4.070274,-56.909653,19.54468,0.49664307,0.031555176,0.85162354,0.013671875,-0.018554688,-0.016601562,23.243324,-9.184994,-128.5588,14.376169,0.0,0.0,0.0,0.0,0.0,0.0,0.0,-29.175903,-127.91324,14.194987,-0.9911499,-0.09667969,-0.1340332,-0.037109375,0.09472656,0.057617188,0.0,0.66883147,45.000732,0.13546757,
1.6992187246796677,87,-0.8088379,-0.2803955,0.5432739,0.020507812,-0.0126953125,0.001953125,0.0,0.0,0.0,0.0,0.0,0.0,0.0,0.0,0.0,0.0,0.0,-0.0037362278,0.002654215,-1.0001534,-0.9445801,0.07092285,-0.15106201,-0.19238281,-0.005859375,0.029296875,8.316046,-0.0773513,0.054950465,-20.706276,-1.0056763,0.06298828,0.030517578,0.005859375,0.0078125,0.033203125,8.808947,-7.3333707,-56.256466,-15.626116,0.51501465,0.10784912,0.8510132,0.013671875,-0.021484375,-0.015625,24.387007,-6.8757086,-128.18336,-12.13528,0.0,0.0,0.0,0.0,0.0,0.0,0.0,-25.580666,-127.72802,-19.20715,0.0,0.0,0.0,0.0,0.0,0.0,0.0,0.0037362278,-0.002654215,1.0001534,-0.95635986,0.10217285,-0.26287842,0.12011719,-0.10253906,-0.11328125,3.45264,0.0773513,-0.054950465,20.706276,-0.987854,0.036010742,-0.09313965,0.030273438,-0.0078125,-9.765625E-4,3.175395,-4.1005507,-56.900963,19.577656,0.5028076,0.033447266,0.86151123,0.013671875,9.765625E-4,-0.016601562,23.287514,-9.206301,-128.54848,14.383642,0.0,0.0,0.0,0.0,0.0,0.0,0.0,-29.197472,-127.90517,14.195677,-0.991272,-0.10284424,-0.10827637,-0.017578125,0.038085938,0.056640625,0.0,0.7024014,45.001747,0.11680205,
1.7187499743886294,88,-0.7909546,-0.2774048,0.5628052,0.01953125,0.024414062,-0.03515625,0.0,0.0,0.0,0.0,0.0,0.0,0.0,0.0,0.0,0.0,0.0,-0.002935797,0.0025763677,-1.000105,-0.97442627,0.09020996,-0.14544678,-0.07910156,-0.04296875,0.06640625,8.374424,-0.06077996,0.053338785,-20.705273,-0.98132324,0.071777344,-0.013000488,0.005859375,0.0078125,0.0146484375,8.882347,-7.3677306,-56.256256,-15.657711,0.52911377,0.10858154,0.84710693,0.013671875,-0.0029296875,-0.033203125,24.293474,-6.8824725,-128.1868,-12.223093,0.0,0.0,0.0,0.0,0.0,0.0,0.0,-25.580933,-127.74094,-19.314583,0.0,0.0,0.0,0.0,0.0,0.0,0.0,0.002935797,-0.0025763677,1.000105,-0.96643066,0.10223389,-0.26971436,0.15527344,-0.09765625,-0.109375,3.4864423,0.06077996,-0.053338785,20.705273,-1.0106201,-0.005493164,-0.09399414,0.01171875,-0.026367188,-0.01953125,3.19396,-4.093512,-56.900608,19.56183,0.49890137,0.03125,0.8685303,0.013671875,-0.037109375,0.0029296875,23.376045,-9.176384,-128.54585,14.3224945,0.0,0.0,0.0,0.0,0.0,0.0,0.0,-29.166945,-127.90441,14.130781,-0.9659424,-0.10998535,-0.10247803,0.020507812,0.01953125,0.056640625,0.0,0.6603603,45.00008,0.113986075,
1.7382812240975911,89,-0.7949829,-0.26757812,0.5510864,0.01953125,0.005859375,-0.016601562,0.0,0.0,0.0,0.0,0.0,0.0,0.0,0.0,0.0,0.0,0.0,-0.0018865168,0.0024158896,-1.0001835,-0.9788208,0.061706543,-0.14758301,0.015625,-0.043945312,0.029296875,8.372829,-0.039056927,0.0500164,-20.7069,-0.9729004,0.05670166,0.046447754,-0.0126953125,0.0087890625,-0.0048828125,8.902826,-7.353898,-56.25959,-15.683268,0.4970703,0.12097168,0.84332275,0.013671875,0.016601562,-0.0146484375,24.2067,-6.8481593,-128.18909,-12.264702,0.0,0.0,0.0,0.0,0.0,0.0,0.0,-25.54691,-127.74623,-19.35439,0.0,0.0,0.0,0.0,0.0,0.0,0.0,0.0018865168,-0.0024158896,1.0001835,-0.94732666,0.11291504,-0.25683594,0.07910156,-0.13867188,-0.12988281,3.4928384,0.039056927,-0.0500164,20.7069,-1.000061,-0.02319336,-0.10205078,-0.0068359375,-0.0068359375,-0.01953125,3.1437953,-4.0900393,-56.897606,19.518763,0.49884033,0.013305664,0.86865234,0.0126953125,-0.055664062,-0.015625,23.298405,-9.195047,-128.54156,14.272589,0.0,0.0,0.0,0.0,0.0,0.0,0.0,-29.1873,-127.90122,14.09061,-0.99108887,-0.0803833,-0.114746094,0.040039062,0.057617188,0.056640625,0.0,0.64812964,45.003674,0.10748148,
1.7578124738065528,90,-0.7845459,-0.30316162,0.5227051,0.020507812,-0.03125,-0.016601562,0.0,0.0,0.0,0.0,0.0,0.0,0.0,0.0,0.0,0.0,0.0,-0.0021361113,0.0026544211,-1.0001696,-0.96777344,0.061340332,-0.1171875,0.072265625,0.08300781,0.047851562,8.356842,-0.044223666,0.054954752,-20.706614,-0.9770508,0.050964355,0.04046631,0.005859375,-0.0107421875,0.0146484375,8.911605,-7.337046,-56.25907,-15.702309,0.5057373,0.09631348,0.84698486,0.013671875,-0.0029296875,-0.033203125,24.180275,-6.7916417,-128.19533,-12.307567,0.0,0.0,0.0,0.0,0.0,0.0,0.0,-25.481632,-127.760475,-19.422024,0.0,0.0,0.0,0.0,0.0,0.0,0.0,0.0021361113,-0.0026544211,1.0001696,-0.94940186,0.124816895,-0.2565918,0.0859375,-0.10644531,-0.11621094,3.5461333,0.044223666,-0.054954752,20.706614,-0.98553467,0.0028076172,-0.10015869,0.0107421875,-0.06542969,0.0,3.1929178,-4.1283507,-56.89561,19.48975,0.48693848,0.027038574,0.87561035,0.013671875,-0.018554688,-0.016601562,23.417652,-9.189018,-128.53903,14.173223,0.0,0.0,0.0,0.0,0.0,0.0,0.0,-29.180891,-127.90405,13.965065,-0.98498535,-0.06689453,-0.10949707,9.765625E-4,0.057617188,0.0,0.0,0.64268756,45.00315,0.11806443,
1.7773437235155145,91,-0.7835083,-0.3071289,0.51867676,0.057617188,-0.0126953125,-0.017578125,0.0,0.0,0.0,0.0,0.0,0.0,0.0,0.0,0.0,0.0,0.0,-0.002572924,0.0028772925,-1.0001199,-0.9546509,0.070129395,-0.14794922,0.12890625,0.08203125,0.029296875,8.304988,-0.053266436,0.05956887,-20.705584,-1.0095825,0.032287598,0.038269043,-0.013671875,-0.0107421875,0.033203125,8.820225,-7.282892,-56.264393,-15.690026,0.5164795,0.1381836,0.8435669,0.013671875,0.016601562,-0.033203125,24.222652,-6.7740035,-128.19337,-12.273664,0.0,0.0,0.0,0.0,0.0,0.0,0.0,-25.457174,-127.76466,-19.40616,0.0,0.0,0.0,0.0,0.0,0.0,0.0,0.002572924,-0.0028772925,1.0001199,-0.9543457,0.11395264,-0.25280762,0.09863281,-0.13867188,-0.11035156,3.539778,0.053266436,-0.05956887,20.705584,-0.98046875,0.0015258789,-0.080322266,0.029296875,-0.02734375,0.017578125,3.1891754,-4.133239,-56.90218,19.47599,0.49389648,0.026184082,0.8696289,-0.0048828125,0.0,0.001953125,23.464449,-9.198898,-128.54921,14.1524935,0.0,0.0,0.0,0.0,0.0,0.0,0.0,-29.191013,-127.91029,13.948671,-0.9738159,-0.07763672,-0.113708496,-0.037109375,0.01953125,-9.765625E-4,0.0,0.65888095,45.00073,0.12776972,
1.7968749732244762,92,-0.81085205,-0.27941895,0.5393677,0.020507812,-0.0126953125,0.001953125,0.0,0.0,0.0,0.0,0.0,0.0,0.0,0.0,0.0,0.0,0.0,-0.001801014,0.0028833384,-1.0001323,-0.9846802,0.07366943,-0.14642334,-0.041015625,0.06542969,0.029296875,8.295856,-0.037287235,0.05969404,-20.705837,-0.98309326,0.048339844,0.034484863,-0.013671875,-0.009765625,-0.0048828125,8.797611,-7.246571,-56.266045,-15.714161,0.5123291,0.12750244,0.8473511,0.033203125,0.016601562,-0.051757812,24.258736,-6.7326384,-128.19794,-12.294113,0.0,0.0,0.0,0.0,0.0,0.0,0.0,-25.410446,-127.76772,-19.439344,0.0,0.0,0.0,0.0,0.0,0.0,0.0,0.001801014,-0.0028833384,1.0001323,-0.9604492,0.11401367,-0.25671387,0.08300781,-0.10449219,-0.13378906,3.5893238,0.037287235,-0.05969404,20.705837,-0.97229004,0.010131836,-0.07836914,0.01171875,-0.026367188,-9.765625E-4,3.178045,-4.1716623,-56.898384,19.468628,0.5057373,0.010559082,0.86065674,0.032226562,9.765625E-4,0.0029296875,23.345478,-9.269539,-128.53644,14.149488,0.0,0.0,0.0,0.0,0.0,0.0,0.0,-29.260685,-127.89436,13.945878,-0.9758911,-0.08526611,-0.12585449,-0.017578125,0.057617188,0.038085938,0.0,0.6376151,45.00151,0.12858924,
1.816406222933438,93,-0.79559326,-0.30316162,0.5308838,0.020507812,-0.049804688,-0.016601562,0.0,0.0,0.0,0.0,0.0,0.0,0.0,0.0,0.0,0.0,0.0,-9.807646E-4,0.0030583006,-1.0000976,-0.97058105,0.07531738,-0.14172363,-0.09765625,-0.0068359375,0.047851562,8.326382,-0.020305067,0.0633163,-20.70512,-0.99658203,0.0335083,0.061157227,-0.03125,0.06542969,0.013671875,8.812092,-7.273206,-56.262657,-15.746294,0.49822998,0.12365723,0.87390137,0.013671875,-0.0029296875,-0.033203125,24.327353,-6.7772017,-128.19687,-12.301858,0.0,0.0,0.0,0.0,0.0,0.0,0.0,-25.458397,-127.764626,-19.440863,0.0,0.0,0.0,0.0,0.0,0.0,0.0,9.807646E-4,-0.0030583006,1.0000976,-0.96746826,0.109069824,-0.25274658,0.08300781,-0.10449219,-0.13378906,3.6052718,0.020305067,-0.0633163,20.70512,-0.98498535,0.023071289,-0.07434082,0.01171875,-0.026367188,-9.765625E-4,3.1926725,-4.2002244,-56.90103,19.484215,0.5079956,0.006225586,0.88061523,0.0146484375,0.038085938,-0.016601562,23.202602,-9.345182,-128.5358,14.15613,0.0,0.0,0.0,0.0,0.0,0.0,0.0,-29.337366,-127.889885,13.958194,-0.9840698,-0.09222412,-0.107055664,-0.017578125,0.038085938,0.056640625,0.0,0.6270173,45.000046,0.13699538,
1.8359374726423996,94,-0.79663086,-0.29919434,0.5309448,0.01953125,0.005859375,0.001953125,0.0,0.0,0.0,0.0,0.0,0.0,0.0,0.0,0.0,0.0,0.0,-0.0023051798,0.0032470431,-1.0001327,-0.94140625,0.08050537,-0.1184082,0.034179688,0.046875,0.029296875,8.341508,-0.047725827,0.06722387,-20.705849,-0.99017334,0.04827881,0.050354004,0.005859375,-0.0107421875,0.0146484375,8.799264,-7.3305597,-56.254356,-15.751562,0.49822998,0.12365723,0.87390137,0.013671875,-0.0029296875,-0.033203125,24.439375,-6.883461,-128.18658,-12.290173,0.0,0.0,0.0,0.0,0.0,0.0,0.0,-25.564655,-127.75434,-19.429178,0.0,0.0,0.0,0.0,0.0,0.0,0.0,0.0023051798,-0.0032470431,1.0001327,-0.9633789,0.09527588,-0.25897217,0.10546875,-0.087890625,-0.1171875,3.5999997,0.047725827,-0.06722387,20.705849,-1.0064087,0.001159668,-0.082092285,0.029296875,-0.046875,0.018554688,3.1411788,-4.170345,-56.907944,19.435064,0.49298096,0.030029297,0.8775635,0.013671875,9.765625E-4,-0.016601562,23.234798,-9.334408,-128.54164,14.103979,0.0,0.0,0.0,0.0,0.0,0.0,0.0,-29.325153,-127.8913,13.912073,-0.9881592,-0.09698486,-0.11016846,-0.017578125,0.038085938,0.056640625,0.0,0.6391219,45.00156,0.14462951,
1.8554687223513613,95,-0.80859375,-0.309021,0.5410156,-0.017578125,0.005859375,0.0029296875,0.0,0.0,0.0,0.0,0.0,0.0,0.0,0.0,0.0,0.0,0.0,-0.002177894,0.0033635611,-1.0001582,-0.95269775,0.05987549,-0.08874512,0.14746094,-0.044921875,0.06542969,8.404151,-0.045087516,0.06963615,-20.706375,-0.98638916,0.039367676,0.04534912,-0.013671875,-0.009765625,-0.0048828125,8.801742,-7.3365955,-56.239475,-15.656928,0.48217773,0.13500977,0.8297119,0.013671875,-0.0029296875,-0.033203125,24.434404,-6.9138846,-128.16713,-12.1285305,0.0,0.0,0.0,0.0,0.0,0.0,0.0,-25.603096,-127.72888,-19.246424,0.0,0.0,0.0,0.0,0.0,0.0,0.0,0.002177894,-0.0033635611,1.0001582,-0.9533081,0.10205078,-0.24212646,0.083984375,-0.14257812,-0.09472656,3.5741813,0.045087516,-0.06963615,20.706375,-0.9887085,-0.010986328,-0.08227539,-0.0078125,-0.0078125,0.017578125,3.1639068,-4.165613,-56.91109,19.452751,0.5117798,0.010620117,0.8605957,-0.0048828125,0.018554688,-0.016601562,23.19401,-9.319352,-128.54337,14.113041,0.0,0.0,0.0,0.0,0.0,0.0,0.0,-29.309864,-127.8934,13.908742,-0.96569824,-0.08331299,-0.13378906,-0.037109375,0.01953125,0.037109375,0.0,0.64859885,45.002556,0.14993261,
1.874999972060323,96,-0.7807617,-0.27752686,0.53082275,0.01953125,-0.0126953125,-0.016601562,0.0,0.0,0.0,0.0,0.0,0.0,0.0,0.0,0.0,0.0,0.0,-0.0032850206,0.0031289821,-1.0001831,-0.97869873,0.06750488,-0.12188721,0.072265625,0.10058594,0.047851562,8.402515,-0.0680109,0.06477963,-20.706892,-0.9951782,0.04748535,0.049316406,-0.0126953125,0.0087890625,-0.0048828125,8.791022,-7.3737016,-56.23943,-15.622618,0.506958,0.11315918,0.81762695,0.0126953125,0.036132812,-0.033203125,24.578207,-6.9826756,-128.16467,-12.045109,0.0,0.0,0.0,0.0,0.0,0.0,0.0,-25.668348,-127.724266,-19.170021,0.0,0.0,0.0,0.0,0.0,0.0,0.0,0.0032850206,-0.0031289821,1.0001831,-0.95635986,0.10308838,-0.25,0.13769531,-0.119140625,-0.091796875,3.558755,0.0680109,-0.06477963,20.706892,-0.9954834,-0.0010986328,-0.07525635,0.048828125,-0.026367188,-9.765625E-4,3.2204518,-4.1701355,-56.904037,19.501091,0.4975586,-0.0014038086,0.85375977,0.03125,-0.017578125,-0.03515625,23.137209,-9.351862,-128.53471,14.149239,0.0,0.0,0.0,0.0,0.0,0.0,0.0,-29.343176,-127.88129,13.938227,-0.9850464,-0.08538818,-0.105895996,-0.017578125,0.0390625,0.037109375,0.0,0.6749498,45.00343,0.13857228,
1.8945312217692847,97,-0.7937622,-0.29516602,0.5546875,0.01953125,0.005859375,-0.016601562,0.0,0.0,0.0,0.0,0.0,0.0,0.0,0.0,0.0,0.0,0.0,-0.0026002228,0.003163608,-1.0001334,-0.9534912,0.07989502,-0.13500977,-0.00390625,0.06542969,0.029296875,8.429373,-0.053833514,0.06549649,-20.70586,-1.005127,0.04876709,0.05230713,-0.013671875,0.0087890625,0.033203125,8.79511,-7.3905625,-56.23802,-15.609761,0.5102539,0.12860107,0.8335571,0.033203125,-0.021484375,-0.034179688,24.613316,-7.0318832,-128.16129,-12.012386,0.0,0.0,0.0,0.0,0.0,0.0,0.0,-25.718685,-127.71737,-19.13622,0.0,0.0,0.0,0.0,0.0,0.0,0.0,0.0026002228,-0.003163608,1.0001334,-0.96136475,0.10412598,-0.25091553,0.1328125,-0.13378906,-0.10644531,3.5829358,0.053833514,-0.06549649,20.70586,-1.0101318,0.012939453,-0.078125,0.029296875,-0.045898438,-9.765625E-4,3.2621882,-4.2228026,-56.90383,19.51521,0.51605225,-0.0026855469,0.88061523,-0.0048828125,-0.01953125,0.021484375,23.10187,-9.427049,-128.5305,14.136929,0.0,0.0,0.0,0.0,0.0,0.0,0.0,-29.417133,-127.8808,13.918425,-0.98394775,-0.08105469,-0.14367676,0.020507812,0.057617188,0.018554688,0.0,0.68119484,45.001,0.1405755,
1.9140624714782464,98,-0.79455566,-0.3012085,0.5258789,0.020507812,-0.049804688,0.001953125,0.0,0.0,0.0,0.0,0.0,0.0,0.0,0.0,0.0,0.0,0.0,-0.0025444627,0.0031525344,-1.0001246,-0.96759033,0.080444336,-0.18914795,-0.30566406,-0.022460938,0.030273438,8.417529,-0.052680075,0.065267235,-20.705679,-0.9767456,0.06085205,0.041503906,0.005859375,0.0078125,0.033203125,8.769545,-7.4276724,-56.24094,-15.702284,0.5322876,0.121276855,0.8452759,0.052734375,-0.021484375,-0.034179688,24.807552,-7.112191,-128.1655,-12.08077,0.0,0.0,0.0,0.0,0.0,0.0,0.0,-25.793407,-127.72074,-19.217148,0.0,0.0,0.0,0.0,0.0,0.0,0.0,0.0025444627,-0.0031525344,1.0001246,-0.96643066,0.112976074,-0.24676514,0.13574219,-0.1171875,-0.109375,3.6189318,0.052680075,-0.065267235,20.705679,-0.98895264,0.030151367,-0.092163086,0.030273438,-0.026367188,-0.01953125,3.2818136,-4.242051,-56.90292,19.52455,0.48657227,-0.006591797,0.8598633,0.013671875,-0.018554688,0.0029296875,23.11206,-9.461765,-128.52675,14.135848,0.0,0.0,0.0,0.0,0.0,0.0,0.0,-29.451923,-127.86821,13.92745,-0.99823,-0.0803833,-0.10675049,-0.037109375,0.0390625,0.018554688,0.0,0.6640124,45.00086,0.14015974,
1.933593721187208,99,-0.79956055,-0.29925537,0.5151367,0.01953125,-0.0126953125,-0.016601562,0.0,0.0,0.0,0.0,0.0,0.0,0.0,0.0,0.0,0.0,0.0,-0.0036854446,0.0034473676,-1.0001757,-0.94732666,0.08843994,-0.10736084,-0.32421875,-0.0048828125,0.030273438,8.431981,-0.076300114,0.0713712,-20.706736,-1.0005493,0.06921387,0.06530762,0.026367188,0.026367188,-0.0048828125,8.790687,-7.549856,-56.232006,-15.815324,0.5109253,0.11010742,0.8244629,0.013671875,-0.0029296875,-0.0146484375,25.01284,-7.287409,-128.15231,-12.163751,0.0,0.0,0.0,0.0,0.0,0.0,0.0,-25.965727,-127.7015,-19.307703,0.0,0.0,0.0,0.0,0.0,0.0,0.0,0.0036854446,-0.0034473676,1.0001757,-0.9664917,0.12084961,-0.24169922,0.1484375,-0.14941406,-0.10253906,3.6322174,0.076300114,-0.0713712,20.706736,-0.98291016,0.031921387,-0.086242676,0.030273438,-0.026367188,-9.765625E-4,3.348605,-4.256675,-56.90089,19.579954,0.5148926,0.003479004,0.87060547,0.013671875,-0.018554688,-0.016601562,22.954016,-9.526722,-128.52214,14.172494,0.0,0.0,0.0,0.0,0.0,0.0,0.0,-29.517351,-127.864876,13.958275,-0.9901123,-0.08428955,-0.11584473,-0.037109375,9.765625E-4,-9.765625E-4,0.0,0.66842425,45.003254,0.1526525,
1.9531249708961698,100,-0.80493164,-0.28527832,0.5689697,0.076171875,-0.0126953125,-0.017578125,0.0,0.0,0.0,0.0,0.0,0.0,0.0,0.0,0.0,0.0,0.0,-0.0041661263,0.003614709,-1.0001434,-0.9445801,0.06964111,-0.103637695,-0.00390625,-0.0078125,0.029296875,8.586455,-0.08625078,0.07483567,-20.706068,-0.9884033,0.037719727,0.028442383,-0.03125,0.045898438,0.013671875,8.907437,-7.6607547,-56.20137,-15.718403,0.49121094,0.12689209,0.8493042,0.033203125,0.016601562,-0.033203125,24.949467,-7.3967485,-128.1188,-12.022151,0.0,0.0,0.0,0.0,0.0,0.0,0.0,-26.083202,-127.655396,-19.143778,0.0,0.0,0.0,0.0,0.0,0.0,0.0,0.0041661263,-0.003614709,1.0001434,-0.9604492,0.124816895,-0.25250244,0.0703125,-0.111328125,-0.10058594,3.6906147,0.08625078,-0.07483567,20.706068,-0.9782715,0.0071411133,-0.061462402,0.048828125,-0.0078125,-0.001953125,3.346909,-4.3007874,-56.903347,19.57932,0.5118408,0.0075683594,0.864624,0.013671875,9.765625E-4,-0.016601562,22.90177,-9.601936,-128.52121,14.185756,0.0,0.0,0.0,0.0,0.0,0.0,0.0,-29.591972,-127.8647,13.966948,-0.9697876,-0.0881958,-0.13189697,9.765625E-4,0.01953125,0.056640625,0.0,0.661569,45.00199,0.15989,
1.9726562206051315,101,-0.7788696,-0.2666626,0.5348511,0.01953125,-0.0126953125,-0.016601562,0.0,0.0,0.0,0.0,0.0,0.0,0.0,0.0,0.0,0.0,0.0,-0.003863573,0.0025376184,-1.0001278,-0.96343994,0.085876465,-0.119018555,-0.041015625,-0.0068359375,0.047851562,8.581307,-0.079987764,0.052536573,-20.705746,-0.9873657,0.041259766,0.05029297,0.0068359375,0.06347656,0.033203125,8.939515,-7.697192,-56.216564,-15.669667,0.50427246,0.13061523,0.8444214,0.033203125,-0.0029296875,-0.033203125,24.994282,-7.4548664,-128.13135,-11.946873,0.0,0.0,0.0,0.0,0.0,0.0,0.0,-26.140816,-127.66215,-19.069923,0.0,0.0,0.0,0.0,0.0,0.0,0.0,0.003863573,-0.0025376184,1.0001278,-0.9664917,0.11694336,-0.24468994,0.05078125,-0.091796875,-0.13964844,3.7098765,0.079987764,-0.052536573,20.705746,-0.9835205,-0.0033569336,-0.07336426,0.01171875,-0.026367188,-9.765625E-4,3.3001957,-4.336607,-56.87504,19.532656,0.49194336,0.0061035156,0.87768555,0.0126953125,-0.017578125,-0.03515625,22.978838,-9.631557,-128.4945,14.155329,0.0,0.0,0.0,0.0,0.0,0.0,0.0,-29.621761,-127.83192,13.949451,-0.9718628,-0.09112549,-0.12695312,9.765625E-4,0.038085938,0.056640625,0.0,0.6929177,45.00075,0.11150338,
1.9921874703140932,102,-0.78289795,-0.2695923,0.54089355,0.020507812,-0.049804688,-0.016601562,0.0,0.0,0.0,0.0,0.0,0.0,0.0,0.0,0.0,0.0,0.0,-0.003393501,0.00270275,-1.0001539,-0.963501,0.07891846,-0.10522461,-0.15429688,-0.005859375,0.047851562,8.675388,-0.07025561,0.055955302,-20.706287,-0.99261475,0.06555176,0.026611328,0.026367188,0.044921875,0.0146484375,9.018354,-7.765511,-56.199177,-15.669401,0.52001953,0.110839844,0.833313,0.072265625,-0.0029296875,-0.033203125,25.020998,-7.5184135,-128.11667,-11.933134,0.0,0.0,0.0,0.0,0.0,0.0,0.0,-26.196817,-127.6485,-19.075457,0.0,0.0,0.0,0.0,0.0,0.0,0.0,0.003393501,-0.00270275,1.0001539,-0.9604492,0.11785889,-0.24078369,0.06640625,-0.12597656,-0.11621094,3.76728,0.07025561,-0.055955302,20.706287,-0.9906616,-0.0029296875,-0.09710693,0.030273438,0.01171875,-0.001953125,3.3095555,-4.3802843,-56.881832,19.53692,0.51898193,-6.1035156E-4,0.8775635,0.013671875,-0.018554688,-0.016601562,23.025166,-9.683968,-128.50856,14.162546,0.0,0.0,0.0,0.0,0.0,0.0,0.0,-29.673462,-127.839485,13.972642,-0.9770508,-0.11444092,-0.12548828,-0.017578125,0.0390625,0.037109375,0.0,0.6694688,45.002213,0.11933948,
2.011718720023055,103,-0.8048706,-0.2695923,0.5274658,0.020507812,-0.0126953125,0.001953125,0.0,0.0,0.0,0.0,0.0,0.0,0.0,0.0,0.0,0.0,0.0,-0.0041602254,0.002251816,-1.000176,-0.9645386,0.07910156,-0.13879395,-0.022460938,-0.0068359375,0.06640625,8.6302395,-0.086131394,0.046619575,-20.706745,-0.97058105,0.034484863,0.06713867,0.0068359375,0.06347656,0.033203125,9.056576,-7.829907,-56.20551,-15.674611,0.50787354,0.109191895,0.8244629,0.033203125,-0.021484375,-0.034179688,25.120668,-7.5909514,-128.12138,-11.929644,0.0,0.0,0.0,0.0,0.0,0.0,0.0,-26.267447,-127.653336,-19.076485,0.0,0.0,0.0,0.0,0.0,0.0,0.0,0.0041602254,-0.002251816,1.000176,-0.9543457,0.101135254,-0.25897217,0.0859375,-0.10644531,-0.11621094,3.6946979,0.086131394,-0.046619575,20.706745,-0.98272705,-0.007080078,-0.096191406,0.030273438,-0.026367188,-9.765625E-4,3.3516438,-4.3627133,-56.866695,19.539616,0.49945068,0.010803223,0.8427124,-0.0048828125,-0.018554688,-0.016601562,23.074612,-9.665474,-128.48323,14.111862,0.0,0.0,0.0,0.0,0.0,0.0,0.0,-29.655556,-127.81524,13.922337,-0.9667969,-0.09197998,-0.13995361,-0.017578125,0.0390625,0.018554688,0.0,0.73343825,45.002342,0.09826839,
