TOTAL_TIME,0m44s
TOTAL_FRAMES,2247
SELECTED_FRAMES,2247
NO_OF_JOINTS,12
FREQUENCY,51.2
DESCRIPTION,Capture 17
TIME_STAMP,Oct 11, 2010

Time,Frame,Pelvis_accelX_Pelvis,Pelvis_accelY_Pelvis,Pelvis_accelZ_Pelvis,Pelvis_gyroX_Pelvis,Pelvis_gyroY_Pelvis,Pelvis_gyroZ_Pelvis,Pelvis_Joint angle_Pelvis,Pelvis_Relative pos X_Pelvis,Pelvis_Relative pos Y_Pelvis,Pelvis_Relative pos Z_Pelvis,RightPelvis_accelX_RightPelvis,RightPelvis_accelY_RightPelvis,RightPelvis_accelZ_RightPelvis,RightPelvis_gyroX_RightPelvis,RightPelvis_gyroY_RightPelvis,RightPelvis_gyroZ_RightPelvis,RightPelvis_Joint angle_RightPelvis,RightPelvis_Relative pos X_RightPelvis,RightPelvis_Relative pos Y_RightPelvis,RightPelvis_Relative pos Z_RightPelvis,RightUpLeg_accelX_RightUpLeg,RightUpLeg_accelY_RightUpLeg,RightUpLeg_accelZ_RightUpLeg,RightUpLeg_gyroX_RightUpLeg,RightUpLeg_gyroY_RightUpLeg,RightUpLeg_gyroZ_RightUpLeg,RightUpLeg_Joint angle_RightUpLeg,RightUpLeg_Relative pos X_RightUpLeg,RightUpLeg_Relative pos Y_RightUpLeg,RightUpLeg_Relative pos Z_RightUpLeg,RightLeg_accelX_RightLeg,RightLeg_accelY_RightLeg,RightLeg_accelZ_RightLeg,RightLeg_gyroX_RightLeg,RightLeg_gyroY_RightLeg,RightLeg_gyroZ_RightLeg,RightLeg_Joint angle_RightLeg,RightLeg_Relative pos X_RightLeg,RightLeg_Relative pos Y_RightLeg,RightLeg_Relative pos Z_RightLeg,RightFoot_accelX_RightFoot,RightFoot_accelY_RightFoot,RightFoot_accelZ_RightFoot,RightFoot_gyroX_RightFoot,RightFoot_gyroY_RightFoot,RightFoot_gyroZ_RightFoot,RightFoot_Joint angle_RightFoot,RightFoot_Relative pos X_RightFoot,RightFoot_Relative pos Y_RightFoot,RightFoot_Relative pos Z_RightFoot,RightFootEnd_accelX_RightFootEnd,RightFootEnd_accelY_RightFootEnd,RightFootEnd_accelZ_RightFootEnd,RightFootEnd_gyroX_RightFootEnd,RightFootEnd_gyroY_RightFootEnd,RightFootEnd_gyroZ_RightFootEnd,RightFootEnd_Joint angle_RightFootEnd,RightFootEnd_Relative pos X_RightFootEnd,RightFootEnd_Relative pos Y_RightFootEnd,RightFootEnd_Relative pos Z_RightFootEnd,LeftPelvis_accelX_LeftPelvis,LeftPelvis_accelY_LeftPelvis,LeftPelvis_accelZ_LeftPelvis,LeftPelvis_gyroX_LeftPelvis,LeftPelvis_gyroY_LeftPelvis,LeftPelvis_gyroZ_LeftPelvis,LeftPelvis_Joint angle_LeftPelvis,LeftPelvis_Relative pos X_LeftPelvis,LeftPelvis_Relative pos Y_LeftPelvis,LeftPelvis_Relative pos Z_LeftPelvis,LeftUpLeg_accelX_LeftUpLeg,LeftUpLeg_accelY_LeftUpLeg,LeftUpLeg_accelZ_LeftUpLeg,LeftUpLeg_gyroX_LeftUpLeg,LeftUpLeg_gyroY_LeftUpLeg,LeftUpLeg_gyroZ_LeftUpLeg,LeftUpLeg_Joint angle_LeftUpLeg,LeftUpLeg_Relative pos X_LeftUpLeg,LeftUpLeg_Relative pos Y_LeftUpLeg,LeftUpLeg_Relative pos Z_LeftUpLeg,LeftLeg_accelX_LeftLeg,LeftLeg_accelY_LeftLeg,LeftLeg_accelZ_LeftLeg,LeftLeg_gyroX_LeftLeg,LeftLeg_gyroY_LeftLeg,LeftLeg_gyroZ_LeftLeg,LeftLeg_Joint angle_LeftLeg,LeftLeg_Relative pos X_LeftLeg,LeftLeg_Relative pos Y_LeftLeg,LeftLeg_Relative pos Z_LeftLeg,LeftFoot_accelX_LeftFoot,LeftFoot_accelY_LeftFoot,LeftFoot_accelZ_LeftFoot,LeftFoot_gyroX_LeftFoot,LeftFoot_gyroY_LeftFoot,LeftFoot_gyroZ_LeftFoot,LeftFoot_Joint angle_LeftFoot,LeftFoot_Relative pos X_LeftFoot,LeftFoot_Relative pos Y_LeftFoot,LeftFoot_Relative pos Z_LeftFoot,LeftFootEnd_accelX_LeftFootEnd,LeftFootEnd_accelY_LeftFootEnd,LeftFootEnd_accelZ_LeftFootEnd,LeftFootEnd_gyroX_LeftFootEnd,LeftFootEnd_gyroY_LeftFootEnd,LeftFootEnd_gyroZ_LeftFootEnd,LeftFootEnd_Joint angle_LeftFootEnd,LeftFootEnd_Relative pos X_LeftFootEnd,LeftFootEnd_Relative pos Y_LeftFootEnd,LeftFootEnd_Relative pos Z_LeftFootEnd,Spine_accelX_Spine,Spine_accelY_Spine,Spine_accelZ_Spine,Spine_gyroX_Spine,Spine_gyroY_Spine,Spine_gyroZ_Spine,Spine_Joint angle_Spine,Spine_Relative pos X_Spine,Spine_Relative pos Y_Spine,Spine_Relative pos Z_Spine,
0.0,0,0.0,0.0,0.0,0.0,0.0,0.0,0.0,0.0,0.0,0.0,0.0,0.0,0.0,0.0,0.0,0.0,0.0,0.0,0.0,0.0,0.0,0.0,0.0,0.0,0.0,0.0,NaN,0.0,0.0,0.0,0.0,0.0,0.0,0.0,0.0,0.0,NaN,0.0,0.0,0.0,0.0,0.0,0.0,0.0,0.0,0.0,NaN,0.0,0.0,0.0,0.0,0.0,0.0,0.0,0.0,0.0,0.0,0.0,0.0,0.0,0.0,0.0,0.0,0.0,0.0,0.0,0.0,0.0,0.0,0.0,0.0,0.0,0.0,0.0,0.0,0.0,NaN,0.0,0.0,0.0,0.0,0.0,0.0,0.0,0.0,0.0,NaN,0.0,0.0,0.0,0.0,0.0,0.0,0.0,0.0,0.0,NaN,0.0,0.0,0.0,0.0,0.0,0.0,0.0,0.0,0.0,0.0,0.0,0.0,0.0,0.0,0.0,0.0,0.0,0.0,0.0,0.0,0.0,0.0,0.0,
0.0195312497089617,1,0.0,0.0,0.0,0.0,0.0,0.0,0.0,0.0,0.0,0.0,0.0,0.0,0.0,0.0,0.0,0.0,0.0,0.0,0.0,0.0,0.0,0.0,0.0,0.0,0.0,0.0,NaN,0.0,0.0,0.0,0.0,0.0,0.0,0.0,0.0,0.0,NaN,0.0,0.0,0.0,0.0,0.0,0.0,0.0,0.0,0.0,NaN,0.0,0.0,0.0,0.0,0.0,0.0,0.0,0.0,0.0,0.0,0.0,0.0,0.0,0.0,0.0,0.0,0.0,0.0,0.0,0.0,0.0,0.0,0.0,0.0,0.0,0.0,0.0,0.0,0.0,NaN,0.0,0.0,0.0,0.0,0.0,0.0,0.0,0.0,0.0,NaN,0.0,0.0,0.0,0.0,0.0,0.0,0.0,0.0,0.0,NaN,0.0,0.0,0.0,0.0,0.0,0.0,0.0,0.0,0.0,0.0,0.0,0.0,0.0,0.0,0.0,0.0,0.0,0.0,0.0,0.0,0.0,0.0,0.0,
0.0390624994179234,2,0.0,0.0,0.0,0.0,0.0,0.0,0.0,0.0,0.0,0.0,0.0,0.0,0.0,0.0,0.0,0.0,0.0,0.0,0.0,0.0,-0.97229004,-0.055908203,-0.08459473,-0.47460938,0.10546875,0.0126953125,NaN,0.0,0.0,0.0,-0.99468994,-0.06732178,0.11114502,0.0107421875,0.1953125,-0.08105469,5.6643777,11.848396,-55.178535,8.00821,0.50561523,0.14916992,0.8446655,0.0126953125,0.0546875,0.00390625,18.74367,24.37341,-125.95031,12.487385,0.0,0.0,0.0,0.0,0.0,0.0,0.0,13.412685,-125.67816,29.21721,0.0,0.0,0.0,0.0,0.0,0.0,0.0,0.0,0.0,0.0,-0.97528076,0.048095703,-0.27661133,-0.2421875,0.057617188,-0.33203125,NaN,0.0,0.0,0.0,-0.9783325,0.0032348633,-0.061462402,0.049804688,0.05078125,-0.0029296875,6.4049625,-3.918538,-56.779476,3.237558,0.50665283,0.039733887,0.84747314,0.50390625,1.171875,0.6230469,52.329403,-0.61185765,-128.46088,9.418636,0.0,0.0,0.0,0.0,0.0,0.0,0.0,-10.995002,-128.34753,26.513182,-0.9686279,-0.21087646,-0.045959473,0.061523438,1.2285156,0.6064453,0.0,0.0,0.0,0.0,
0.0585937491268851,3,-0.77490234,-0.3673706,0.49902344,-0.09277344,-0.0126953125,-0.07128906,0.0,0.0,0.0,0.0,0.0,0.0,0.0,0.0,0.0,0.0,0.0,-0.8052225,8.436501E-4,0.59322226,-1.0126343,-0.07098389,-0.068237305,-0.32421875,0.123046875,0.048828125,14.1581335,-16.6706,0.01746617,12.28154,-0.98583984,-0.040771484,0.103393555,0.08300781,-0.0126953125,-0.0234375,5.70506,-4.979598,-55.194733,20.32885,0.4890747,0.13012695,0.8099365,-0.025390625,0.016601562,0.00390625,18.680874,7.53749,-125.97814,24.72977,0.0,0.0,0.0,0.0,0.0,0.0,0.0,-3.3743029,-125.71613,41.49214,0.0,0.0,0.0,0.0,0.0,0.0,0.0,0.8052225,-8.436501E-4,-0.59322226,-0.96691895,-0.021911621,-0.29681396,-0.1171875,0.013671875,-0.24316406,4.76477,16.6706,-0.01746617,-12.28154,-0.97052,-0.0017089844,-0.07342529,0.06933594,0.10839844,-0.00390625,6.3152514,12.859928,-56.824284,-9.3989,0.5281372,0.024414062,0.8773804,0.28710938,0.625,0.30371094,52.31835,16.104813,-128.50491,-3.2340288,0.0,0.0,0.0,0.0,0.0,0.0,0.0,5.730118,-128.13518,13.865048,-0.9470215,-0.16326904,-0.06085205,0.080078125,0.9472656,0.31640625,0.0,-0.104875036,45.00609,-0.20635965,
0.0781249988358468,4,-0.7501221,-0.4492798,0.4847412,-0.13085938,0.025390625,-0.08886719,0.0,0.0,0.0,0.0,0.0,0.0,0.0,0.0,0.0,0.0,0.0,-0.79956704,0.007851866,0.6006944,-1.0478516,-0.08026123,-0.048034668,-0.022460938,0.047851562,0.08496094,14.181138,-16.553516,0.16255797,12.436236,-0.98431396,-0.052490234,0.15386963,0.12207031,0.0234375,0.07128906,5.6409044,-4.9270706,-55.05687,20.511189,0.46020508,0.14123535,0.8377075,-0.044921875,-0.021484375,0.0029296875,18.705074,7.5746737,-125.838104,25.007814,0.0,0.0,0.0,0.0,0.0,0.0,0.0,-3.3177366,-125.56952,41.78392,0.0,0.0,0.0,0.0,0.0,0.0,0.0,0.79956704,-0.007851866,-0.6006944,-0.98583984,-0.077941895,-0.3145752,-0.0546875,-0.026367188,-0.12792969,4.0923247,16.553516,-0.16255797,-12.436236,-1.0108643,0.026550293,-0.07312012,0.05078125,0.12792969,-0.00390625,6.1929274,12.826887,-56.99241,-9.960765,0.51452637,0.086120605,0.8222656,-0.024414062,-0.037109375,-0.0546875,53.4169,15.80473,-128.65964,-3.518592,0.0,0.0,0.0,0.0,0.0,0.0,0.0,5.144601,-128.23456,13.401122,-0.942749,-0.13372803,-0.09307861,0.15625,0.515625,-0.12890625,0.0,0.10934053,45.00226,-0.44269863,
0.09765624854480849,5,-0.7583618,-0.41577148,0.46936035,-0.055664062,-0.0126953125,-0.12792969,0.0,0.0,0.0,0.0,0.0,0.0,0.0,0.0,0.0,0.0,0.0,-0.7935916,0.015804723,0.60844,-1.0046997,-0.0758667,-0.106933594,0.203125,-0.044921875,0.12109375,14.284648,-16.429808,0.32720673,12.596594,-0.98327637,-0.021118164,0.10748291,0.14355469,0.115234375,0.12792969,5.795556,-4.868802,-54.885506,20.795761,0.4954834,0.14752197,0.82592773,-0.064453125,-0.059570312,0.040039062,18.706713,7.4824667,-125.696526,25.270767,0.0,0.0,0.0,0.0,0.0,0.0,0.0,-3.364129,-125.42126,42.075363,0.0,0.0,0.0,0.0,0.0,0.0,0.0,0.7935916,-0.015804723,-0.60844,-0.9706421,-0.10681152,-0.28753662,0.13867188,-0.15722656,-0.051757812,3.3074253,16.429808,-0.32720673,-12.596594,-1.0026245,-0.04534912,-0.12884521,0.068359375,0.03125,-0.001953125,5.9455733,12.914259,-57.16951,-10.515819,0.5319214,0.059753418,0.8552246,-0.005859375,-0.056640625,-0.016601562,53.348965,15.631513,-128.85403,-4.0812798,0.0,0.0,0.0,0.0,0.0,0.0,0.0,5.108926,-128.43245,12.92536,-0.89404297,-0.14215088,-0.07836914,0.19335938,0.10253906,-0.45898438,0.0,0.3574213,44.99842,-0.7026838,
0.11718749825377019,6,-0.7272339,-0.42962646,0.48443604,0.12988281,0.21191406,-0.07324219,0.0,0.0,0.0,0.0,0.0,0.0,0.0,0.0,0.0,0.0,0.0,-0.7851278,0.022893647,0.6190479,-0.98583984,-0.008850098,-0.17584229,0.27929688,-0.0087890625,0.13964844,14.121772,-16.254581,0.47396946,12.816211,-0.97436523,0.045654297,0.1227417,0.18164062,0.1328125,0.16601562,5.817464,-4.810069,-54.77949,20.848747,0.5232544,0.12042236,0.8482666,-0.10253906,-0.07910156,0.040039062,18.811888,7.1763105,-125.65497,25.16341,0.0,0.0,0.0,0.0,0.0,0.0,0.0,-3.588294,-125.40603,42.02264,0.0,0.0,0.0,0.0,0.0,0.0,0.0,0.7851278,-0.022893647,-0.6190479,-0.9415283,-0.073913574,-0.37817383,0.49414062,-0.083984375,0.0126953125,2.7539213,16.254581,-0.47396946,-12.816211,-0.9906006,-0.03466797,-0.14782715,0.049804688,0.049804688,0.016601562,5.775296,12.8711815,-57.35272,-11.106742,0.51208496,0.04827881,0.87335205,-0.0048828125,-0.038085938,0.0029296875,54.191986,15.306924,-129.0407,-4.6701694,0.0,0.0,0.0,0.0,0.0,0.0,0.0,4.743268,-128.63742,12.310293,-0.8166504,-0.10290527,-0.09552002,0.25097656,0.15820312,-0.34375,0.0,0.54244196,44.98997,-0.9758508,
0.1367187479627319,7,-0.75720215,-0.48065186,0.5401001,0.3173828,0.17480469,-0.11425781,0.0,0.0,0.0,0.0,0.0,0.0,0.0,0.0,0.0,0.0,0.0,-0.7727128,0.027075,0.6341673,-0.9451294,0.035827637,-0.20770264,0.3544922,-0.045898438,0.17578125,13.724801,-15.997553,0.56053644,13.12923,-0.99212646,0.07824707,-0.023864746,0.18261719,0.16992188,0.14746094,5.8996353,-4.745182,-54.768005,20.83312,0.5344238,0.06750488,0.8327637,-0.083984375,-0.020507812,0.07714844,18.995378,6.62061,-125.74357,24.775867,0.0,0.0,0.0,0.0,0.0,0.0,0.0,-3.9436522,-125.49736,41.760643,0.0,0.0,0.0,0.0,0.0,0.0,0.0,0.7727128,-0.027075,-0.6341673,-0.92370605,0.010070801,-0.41729736,0.5908203,-0.0625,0.072265625,2.7698681,15.997553,-0.56053644,-13.12923,-0.9918823,-0.0025024414,-0.13885498,0.0859375,0.01171875,0.016601562,5.8056254,12.483223,-57.42422,-11.671918,0.5229492,0.024597168,0.8644409,-0.0048828125,-0.038085938,0.0029296875,54.37416,14.643234,-129.12166,-5.2248564,0.0,0.0,0.0,0.0,0.0,0.0,0.0,4.2500877,-128.73938,11.860522,-0.84313965,-0.11065674,-0.07080078,0.17480469,0.38378906,-0.20703125,0.0,0.60146946,44.98,-1.1874948,
0.1562499976716936,8,-0.7965698,-0.43328857,0.5335083,0.39160156,0.13769531,-0.26464844,0.0,0.0,0.0,0.0,0.0,0.0,0.0,0.0,0.0,0.0,0.0,-0.7607348,0.030282062,0.64854157,-0.92645264,0.0859375,-0.25097656,0.46679688,-0.064453125,0.21289062,13.182618,-15.749568,0.6269326,13.426822,-0.9859009,0.15472412,0.008361816,0.14355469,0.15234375,0.14746094,6.084698,-4.787136,-54.802483,20.665194,0.5442505,0.0546875,0.8286743,-0.044921875,-0.040039062,0.040039062,19.586205,5.9161205,-125.9088,23.910404,0.0,0.0,0.0,0.0,0.0,0.0,0.0,-4.482233,-125.65805,40.998108,0.0,0.0,0.0,0.0,0.0,0.0,0.0,0.7607348,-0.030282062,-0.64854157,-0.914917,0.08123779,-0.45062256,0.5234375,-0.09277344,0.10253906,2.9974809,15.749568,-0.6269326,-13.426822,-0.97528076,-0.01940918,-0.14294434,0.103515625,-0.046875,0.017578125,5.800019,11.978622,-57.472607,-11.912035,0.5270996,0.031433105,0.8753662,0.013671875,-0.037109375,0.0029296875,54.778973,13.85479,-129.16815,-5.4262753,0.0,0.0,0.0,0.0,0.0,0.0,0.0,3.5547047,-128.79608,11.714947,-0.9000244,-0.1282959,-0.09503174,0.041015625,0.40039062,-0.053710938,0.0,0.63105977,44.980434,-1.3600225,
0.1757812473806553,9,-0.78167725,-0.43322754,0.5599365,0.39257812,0.10058594,-0.2841797,0.0,0.0,0.0,0.0,0.0,0.0,0.0,0.0,0.0,0.0,0.0,-0.7476719,0.033549037,0.6633503,-0.8673706,0.08428955,-0.33691406,0.48632812,-0.06542969,0.19433594,12.627701,-15.479127,0.69456905,13.733408,-0.98931885,0.17230225,-0.034240723,0.12402344,0.09765625,0.109375,5.9526577,-4.9375544,-54.867058,20.230993,0.5516968,0.073913574,0.85253906,-0.025390625,-0.021484375,0.040039062,20.345577,5.031355,-126.0876,22.840656,0.0,0.0,0.0,0.0,0.0,0.0,0.0,-5.223974,-125.84189,40.012802,0.0,0.0,0.0,0.0,0.0,0.0,0.0,0.7476719,-0.033549037,-0.6633503,-0.8928833,0.105773926,-0.45233154,0.4423828,-0.087890625,0.109375,3.148462,15.479127,-0.69456905,-13.733408,-0.99328613,-0.0057373047,-0.19946289,0.103515625,-0.06542969,-9.765625E-4,5.829883,11.3739605,-57.512894,-12.073174,0.520874,0.03765869,0.8604126,-0.0029296875,0.07519531,0.001953125,55.393074,12.978785,-129.20865,-5.545721,0.0,0.0,0.0,0.0,0.0,0.0,0.0,2.7416172,-128.85072,11.635767,-0.91241455,-0.16516113,-0.09283447,0.078125,0.36035156,0.19433594,0.0,0.7731521,44.975357,-1.4032038,
0.19531249708961698,10,-0.76397705,-0.3918457,0.5510864,0.39160156,0.21289062,-0.28320312,0.0,0.0,0.0,0.0,0.0,0.0,0.0,0.0,0.0,0.0,0.0,-0.7350889,0.036709957,0.67719257,-0.86499023,0.11505127,-0.39105225,0.46777344,0.22558594,0.21386719,11.565583,-15.21862,0.7600098,14.019986,-1.005249,0.17572021,-0.029296875,0.103515625,0.041992188,0.052734375,5.2754436,-5.3887615,-55.026455,19.368813,0.5626831,0.06573486,0.8711548,-0.005859375,-0.001953125,0.00390625,21.17748,3.8115368,-126.36484,21.434847,0.0,0.0,0.0,0.0,0.0,0.0,0.0,-6.280754,-126.114914,38.70356,0.0,0.0,0.0,0.0,0.0,0.0,0.0,0.7350889,-0.036709957,-0.67719257,-0.88690186,0.12036133,-0.40856934,0.3828125,-0.08886719,0.051757812,3.320894,15.21862,-0.7600098,-14.019986,-0.9956665,-0.034362793,-0.16766357,0.083984375,-0.0859375,0.037109375,5.8603992,10.858921,-57.562366,-12.240917,0.54071045,0.053222656,0.83721924,-0.005859375,-0.037109375,-0.016601562,56.05106,12.273006,-129.26358,-5.6827316,0.0,0.0,0.0,0.0,0.0,0.0,0.0,2.079154,-128.92587,11.522638,-0.9401245,-0.20214844,-0.068725586,-0.017578125,0.31933594,0.38476562,0.0,0.8399255,44.972862,-1.5262009,
0.21484374679857868,11,-0.729187,-0.37506104,0.5783081,0.39257812,0.06347656,-0.30273438,0.0,0.0,0.0,0.0,0.0,0.0,0.0,0.0,0.0,0.0,0.0,-0.72025836,0.03857942,0.6928678,-0.9204712,0.17028809,-0.38763428,0.46777344,0.24414062,0.1953125,10.604374,-14.911579,0.79871356,14.344511,-0.97943115,0.16802979,-0.034240723,0.044921875,-0.01171875,-0.0048828125,4.499323,-5.94123,-55.253323,18.653255,0.55029297,0.11206055,0.8599243,0.013671875,-0.0029296875,-0.033203125,21.730183,2.6468105,-126.6832,20.25333,0.0,0.0,0.0,0.0,0.0,0.0,0.0,-7.2523355,-126.42764,37.634598,0.0,0.0,0.0,0.0,0.0,0.0,0.0,0.72025836,-0.03857942,-0.6928678,-0.90411377,0.14904785,-0.41381836,0.375,-0.08203125,-9.765625E-4,3.3688319,14.911579,-0.79871356,-14.344511,-0.98327637,0.022521973,-0.119018555,0.083984375,-0.14355469,0.01953125,5.9925675,10.330048,-57.583458,-12.385597,0.54486084,0.036071777,0.8522949,-0.0048828125,0.0,0.001953125,56.95231,11.7269535,-129.2756,-5.7143016,0.0,0.0,0.0,0.0,0.0,0.0,0.0,1.4578266,-128.95747,11.446754,-1.0165405,-0.27539062,-0.14300537,0.021484375,0.4345703,0.32910156,0.0,0.97564906,44.97209,-1.4898626,
0.23437499650754037,12,-0.83013916,-0.296875,0.61499023,0.31933594,-0.0859375,-0.32128906,0.0,0.0,0.0,0.0,0.0,0.0,0.0,0.0,0.0,0.0,0.0,-0.7123714,0.03895168,0.7009433,-0.96069336,0.23400879,-0.3725586,0.4111328,0.09863281,0.15820312,10.013824,-14.748297,0.8064205,14.5117,-0.9942627,0.144104,0.009216309,0.0048828125,-0.06640625,-0.0234375,4.048543,-6.4840775,-55.41878,18.231136,0.5566406,0.075927734,0.8338623,0.052734375,-0.022460938,-0.07128906,22.119688,1.5684624,-126.93799,19.540207,0.0,0.0,0.0,0.0,0.0,0.0,0.0,-8.144932,-126.67647,37.02608,0.0,0.0,0.0,0.0,0.0,0.0,0.0,0.7123714,-0.03895168,-0.7009433,-0.92333984,0.16778564,-0.38659668,0.32910156,-0.018554688,-0.033203125,3.4028327,14.748297,-0.8064205,-14.5117,-0.99438477,0.055664062,-0.090148926,0.026367188,-0.16308594,0.0390625,6.1639247,9.958942,-57.56534,-12.328592,0.5081177,0.04119873,0.8774414,0.033203125,0.01953125,0.0029296875,56.544697,11.393619,-129.24884,-5.474822,0.0,0.0,0.0,0.0,0.0,0.0,0.0,1.3351994,-128.9354,11.812598,-1.1085815,-0.22174072,-0.15765381,-0.016601562,0.53125,0.12011719,0.0,1.1414043,44.972607,-1.3391308,
0.2539062462165021,13,-0.86083984,-0.31671143,0.5757446,0.28222656,-0.0859375,-0.3388672,0.0,0.0,0.0,0.0,0.0,0.0,0.0,0.0,0.0,0.0,0.0,-0.7111964,0.039234046,0.7020245,-0.95062256,0.22515869,-0.2374878,0.16601562,0.10058594,0.12207031,9.54594,-14.72397,0.81226635,14.534083,-0.99072266,0.063964844,0.06036377,0.0048828125,-0.06640625,-0.061523438,3.750506,-7.0246,-55.538216,18.021358,0.54467773,0.1395874,0.8543701,0.0126953125,0.03515625,-0.0703125,22.15144,0.752161,-127.11232,19.226313,0.0,0.0,0.0,0.0,0.0,0.0,0.0,-8.824984,-126.85159,36.786903,0.0,0.0,0.0,0.0,0.0,0.0,0.0,0.7111964,-0.039234046,-0.7020245,-0.9556885,0.20117188,-0.32434082,0.2939453,-0.00390625,-0.056640625,3.4944077,14.72397,-0.81226635,-14.534083,-0.9848633,0.036987305,-0.09716797,0.02734375,-0.14355469,0.020507812,6.3223567,9.786693,-57.553154,-12.096519,0.5250244,0.01550293,0.87249756,0.013671875,0.0,0.021484375,55.94229,11.34164,-129.21686,-5.1100903,0.0,0.0,0.0,0.0,0.0,0.0,0.0,1.4509125,-128.90648,12.273411,-1.062439,-0.15167236,-0.19396973,-0.017578125,0.20898438,0.05859375,0.0,1.242078,44.96936,-1.2548971,
0.2734374959254638,14,-0.79034424,-0.30426025,0.4831543,0.16992188,-0.0859375,-0.2998047,0.0,0.0,0.0,0.0,0.0,0.0,0.0,0.0,0.0,0.0,0.0,-0.7116632,0.040383868,0.7015872,-0.97058105,0.14898682,-0.107421875,-0.022460938,0.0107421875,0.047851562,9.497259,-14.733636,0.83607125,14.525032,-0.9840698,0.017211914,0.06402588,0.0048828125,-0.06640625,-0.041992188,3.8301678,-7.22714,-55.547382,18.182148,0.51501465,0.11895752,0.8029175,0.013671875,-0.0029296875,-0.08886719,22.192503,0.49606705,-127.13928,19.400501,0.0,0.0,0.0,0.0,0.0,0.0,0.0,-9.0629635,-126.89369,36.968983,0.0,0.0,0.0,0.0,0.0,0.0,0.0,0.7116632,-0.040383868,-0.7015872,-0.95654297,0.15563965,-0.2965088,0.13867188,-0.0234375,-0.072265625,3.509782,14.733636,-0.83607125,-14.525032,-0.99664307,0.030883789,-0.04840088,0.028320312,-0.12402344,9.765625E-4,6.403401,9.7547655,-57.561035,-11.830142,0.5418701,0.028015137,0.8533325,0.013671875,0.0,0.0029296875,55.42123,11.4220495,-129.20193,-4.650573,0.0,0.0,0.0,0.0,0.0,0.0,0.0,1.6326303,-128.89857,12.791093,-0.9786377,-0.06750488,-0.22607422,0.05859375,0.13183594,0.2109375,0.0,1.3267629,44.97047,-1.2427154,
0.2929687456344255,15,-0.74328613,-0.29156494,0.4743042,0.16894531,-0.01171875,-0.28125,0.0,0.0,0.0,0.0,0.0,0.0,0.0,0.0,0.0,0.0,0.0,-0.7113384,0.042843617,0.7016534,-0.9951782,0.032958984,-0.060668945,-0.17285156,0.13964844,0.048828125,9.593885,-14.726908,0.88699573,14.526401,-0.9622803,-0.020996094,0.11743164,0.025390625,-0.0107421875,-0.0048828125,3.8659418,-7.2861667,-55.499313,18.366203,0.52368164,0.08929443,0.82714844,0.013671875,-0.0029296875,-0.051757812,21.823917,0.53345823,-127.07755,19.688906,0.0,0.0,0.0,0.0,0.0,0.0,0.0,-8.987894,-126.826996,37.28018,0.0,0.0,0.0,0.0,0.0,0.0,0.0,0.7113384,-0.042843617,-0.7016534,-0.9805908,0.11383057,-0.20703125,0.09472656,-0.07714844,-0.0859375,3.3602195,14.726908,-0.88699573,-14.526401,-0.9659424,0.022399902,-0.053588867,0.009765625,-0.08496094,0.01953125,6.421259,9.789001,-57.606644,-11.715669,0.52508545,0.02142334,0.87841797,0.032226562,9.765625E-4,-0.016601562,54.527893,11.535175,-129.23442,-4.411243,0.0,0.0,0.0,0.0,0.0,0.0,0.0,1.9294748,-128.92519,13.131918,-1.0100098,-0.03717041,-0.21038818,0.020507812,0.20703125,0.30664062,0.0,1.4348735,44.962093,-1.2907486,
0.3124999953433872,16,-0.7623291,-0.2836914,0.4609375,0.24316406,0.0625,-0.18847656,0.0,0.0,0.0,0.0,0.0,0.0,0.0,0.0,0.0,0.0,0.0,-0.7118137,0.043111533,0.70126575,-1.0403442,-0.044921875,-0.054748535,-0.060546875,0.15722656,0.0859375,9.589807,-14.736751,0.8925425,14.518374,-0.98583984,-0.039733887,0.09942627,0.045898438,0.043945312,0.033203125,3.921713,-7.309089,-55.474144,18.527222,0.5088501,0.10522461,0.8273926,0.013671875,-0.021484375,-0.052734375,21.458406,0.6172471,-127.03868,19.941902,0.0,0.0,0.0,0.0,0.0,0.0,0.0,-8.85354,-126.79061,37.55886,0.0,0.0,0.0,0.0,0.0,0.0,0.0,0.7118137,-0.043111533,-0.70126575,-0.99053955,0.08618164,-0.19366455,0.31152344,-0.13574219,-0.034179688,3.158147,14.736751,-0.8925425,-14.518374,-0.9749756,0.01763916,-0.04559326,-0.0068359375,-0.026367188,-0.01953125,6.206304,10.0493,-57.632084,-11.632545,0.49865723,0.015563965,0.8536377,0.013671875,0.0,0.0029296875,54.079067,11.7924595,-129.24034,-4.179329,0.0,0.0,0.0,0.0,0.0,0.0,0.0,2.2286177,-128.93494,13.385736,-1.1297607,-0.018005371,-0.1630249,0.020507812,0.22851562,0.020507812,0.0,1.4164572,44.96514,-1.326548,
0.3320312450523489,17,-0.7496948,-0.2658081,0.50250244,0.3173828,0.13671875,-0.15136719,0.0,0.0,0.0,0.0,0.0,0.0,0.0,0.0,0.0,0.0,0.0,-0.71420634,0.040342007,0.6989465,-1.032959,-0.091308594,-0.062194824,0.16601562,-0.044921875,0.12109375,9.589212,-14.786284,0.83520454,14.470358,-0.98583984,-0.04071045,0.09838867,0.06640625,0.099609375,0.051757812,4.1207952,-7.248745,-55.500008,18.675177,0.48162842,0.1038208,0.8175049,-0.005859375,-0.059570312,0.0029296875,21.128763,0.8009081,-127.04749,20.077074,0.0,0.0,0.0,0.0,0.0,0.0,0.0,-8.652943,-126.807,37.70495,0.0,0.0,0.0,0.0,0.0,0.0,0.0,0.71420634,-0.040342007,-0.6989465,-0.9784546,0.08129883,-0.21759033,0.37695312,-0.19921875,0.016601562,3.0578067,14.786284,-0.83520454,-14.470358,-0.96520996,-0.0024414062,-0.014892578,-0.0068359375,-0.0068359375,-9.765625E-4,5.938415,10.421129,-57.598225,-11.545912,0.51849365,0.024108887,0.83551025,0.032226562,-0.017578125,-0.015625,53.177025,12.163577,-129.19298,-3.9539165,0.0,0.0,0.0,0.0,0.0,0.0,0.0,2.719411,-128.89067,13.67749,-1.0473633,0.0076293945,-0.17749023,0.09667969,-0.033203125,-0.28808594,0.0,1.2763906,44.968857,-1.2912687,
0.3515624947613106,18,-0.7658081,-0.26574707,0.5187378,0.27929688,0.21191406,-0.11328125,0.0,0.0,0.0,0.0,0.0,0.0,0.0,0.0,0.0,0.0,0.0,-0.71634,0.036960214,0.69696766,-0.96313477,-0.044128418,-0.117248535,0.4111328,-0.12011719,0.08300781,9.566285,-14.83046,0.7651911,14.429391,-0.9961548,-0.021606445,0.039978027,0.06640625,0.15527344,0.10839844,4.5126243,-7.0720057,-55.535915,18.792511,0.5311279,0.115600586,0.82159424,-0.025390625,-0.07910156,0.021484375,21.151205,0.8724494,-127.10074,20.011078,0.0,0.0,0.0,0.0,0.0,0.0,0.0,-8.592297,-126.892426,37.631157,0.0,0.0,0.0,0.0,0.0,0.0,0.0,0.71634,-0.036960214,-0.69696766,-0.9654541,0.11480713,-0.21807861,0.2734375,-0.19335938,-0.013671875,3.0896513,14.83046,-0.7651911,-14.429391,-0.991333,-0.0025024414,-0.046447754,-0.005859375,0.05078125,-0.001953125,5.6464605,10.752836,-57.54511,-11.410667,0.51464844,0.033813477,0.8464966,0.0126953125,-0.037109375,-0.016601562,52.441364,12.464003,-129.13309,-3.7234306,0.0,0.0,0.0,0.0,0.0,0.0,0.0,3.1441422,-128.82962,13.972174,-0.92663574,-0.012939453,-0.19500732,0.078125,-0.08984375,-0.32714844,0.0,1.0496649,44.974934,-1.3061818,
0.37109374447027227,19,-0.7817383,-0.26379395,0.5071411,0.3173828,0.21191406,-0.09472656,0.0,0.0,0.0,0.0,0.0,0.0,0.0,0.0,0.0,0.0,0.0,-0.7177992,0.03320447,0.69575524,-0.9351196,0.035827637,-0.23846436,0.52441406,-0.06640625,0.13867188,9.328244,-14.860669,0.6874355,14.404289,-0.9968262,0.053649902,-0.024047852,0.06640625,0.13671875,0.14648438,4.7693315,-7.045173,-55.61154,18.664978,0.5560303,0.10144043,0.8253174,-0.025390625,-0.059570312,0.05859375,21.352915,0.5516143,-127.21482,19.584867,0.0,0.0,0.0,0.0,0.0,0.0,0.0,-8.893206,-127.03539,37.216652,0.0,0.0,0.0,0.0,0.0,0.0,0.0,0.7177992,-0.03320447,-0.69575524,-0.932312,0.13647461,-0.24163818,0.25976562,-0.29492188,0.0,3.1978803,14.860669,-0.6874355,-14.404289,-0.97943115,3.6621094E-4,-0.06640625,0.032226562,0.0703125,-0.021484375,5.2588887,11.055281,-57.475693,-11.189508,0.49920654,0.047912598,0.8864136,0.05078125,-0.017578125,-0.015625,52.229584,12.675152,-129.06505,-3.477107,0.0,0.0,0.0,0.0,0.0,0.0,0.0,3.4102879,-128.76399,14.246993,-0.9399414,-0.032165527,-0.20141602,0.05859375,-0.03515625,-0.078125,0.0,0.828868,44.98313,-1.2916615,
0.39062499417923396,20,-0.79467773,-0.2736206,0.5073242,0.3173828,0.21191406,-0.09472656,0.0,0.0,0.0,0.0,0.0,0.0,0.0,0.0,0.0,0.0,0.0,-0.72022486,0.02811583,0.6933184,-0.9351196,0.035827637,-0.23846436,0.52441406,-0.06640625,0.13867188,8.983079,-14.910887,0.58208483,14.353841,-1.0004883,0.06652832,-0.016052246,0.06738281,0.15527344,0.08984375,5.156321,-7.095391,-55.716892,18.61453,0.54022217,0.11431885,0.83929443,-0.005859375,-0.040039062,0.040039062,21.529142,0.059131622,-127.36847,19.208757,0.0,0.0,0.0,0.0,0.0,0.0,0.0,-9.298467,-127.19053,36.88626,0.0,0.0,0.0,0.0,0.0,0.0,0.0,0.72022486,-0.02811583,-0.6933184,-0.9090576,0.11621094,-0.35308838,0.3310547,-0.13574219,-0.015625,3.5265334,14.910887,-0.58208483,-14.353841,-0.9897461,-0.0038452148,-0.11004639,-0.005859375,0.032226562,-0.0390625,4.970511,11.223579,-57.363323,-10.953847,0.5327759,0.041992188,0.8463135,0.013671875,9.765625E-4,-0.016601562,52.874683,12.680668,-128.9447,-3.1815162,0.0,0.0,0.0,0.0,0.0,0.0,0.0,3.303976,-128.65584,14.4851265,-1.0146484,-0.11785889,-0.13452148,0.19238281,-0.0546875,0.07421875,0.0,0.53734165,44.983585,-1.2660042,
0.41015624388819566,21,-0.81781006,-0.3069458,0.5670166,0.16699219,0.21191406,-0.09277344,0.0,0.0,0.0,0.0,0.0,0.0,0.0,0.0,0.0,0.0,0.0,-0.71874774,0.025660973,0.69502795,-0.9088745,0.1270752,-0.27166748,0.2607422,0.13574219,0.12109375,7.7871194,-14.880307,0.53126174,14.389233,-0.99658203,0.13006592,-0.036499023,0.06542969,0.080078125,0.109375,4.493006,-7.8813252,-55.911293,17.873959,0.5635376,0.0690918,0.81799316,-0.044921875,-0.001953125,0.022460938,21.83885,-1.2817054,-127.60684,18.192753,0.0,0.0,0.0,0.0,0.0,0.0,0.0,-10.528656,-127.43272,35.930386,0.0,0.0,0.0,0.0,0.0,0.0,0.0,0.71874774,-0.025660973,-0.69502795,-0.9160156,0.10058594,-0.37701416,0.2841797,-0.10839844,-0.025390625,3.816544,14.880307,-0.53126174,-14.389233,-0.9923706,-0.021850586,-0.15374756,0.0126953125,0.05078125,-0.020507812,4.8764443,11.101465,-57.301186,-10.90872,0.53674316,0.038085938,0.8463135,-0.0048828125,-0.018554688,-0.03515625,53.216106,12.358694,-128.87637,-3.106678,0.0,0.0,0.0,0.0,0.0,0.0,0.0,3.0439463,-128.5962,14.59227,-0.99560547,-0.168396,-0.15655518,0.34472656,-0.26367188,0.14746094,0.0,0.385666,44.98786,-1.2621589,
0.42968749359715736,22,-0.8217163,-0.3383789,0.602478,0.16796875,0.11816406,-0.09277344,0.0,0.0,0.0,0.0,0.0,0.0,0.0,0.0,0.0,0.0,0.0,-0.7136323,0.024129719,0.7003553,-0.9281006,0.11260986,-0.2635498,0.2607422,0.08105469,0.10253906,7.2232504,-14.774401,0.49956,14.499526,-1.0026855,0.12963867,0.0031738281,0.044921875,0.043945312,0.051757812,4.378375,-8.199125,-56.016678,17.726536,0.54278564,0.07879639,0.873291,0.013671875,-0.001953125,0.00390625,22.01019,-2.007134,-127.74539,17.819254,0.0,0.0,0.0,0.0,0.0,0.0,0.0,-11.088949,-127.563896,35.640976,0.0,0.0,0.0,0.0,0.0,0.0,0.0,0.7136323,-0.024129719,-0.7003553,-0.92303467,0.0848999,-0.38323975,0.20898438,-0.09375,-0.08691406,3.9850671,14.774401,-0.49956,-14.499526,-0.99017334,-0.0211792,-0.12890625,0.030273438,-0.0068359375,-0.020507812,4.7667837,10.939684,-57.264046,-10.981224,0.5187988,0.022766113,0.85546875,0.0146484375,0.076171875,-0.017578125,53.694115,11.992189,-128.84079,-3.1427765,0.0,0.0,0.0,0.0,0.0,0.0,0.0,2.681244,-128.57187,14.559608,-0.9864502,-0.17028809,-0.16760254,0.421875,-0.22460938,0.109375,0.0,0.31123,44.98992,-1.232932,
0.44921874330611905,23,-0.7605591,-0.3267212,0.57354736,0.16894531,0.08105469,-0.055664062,0.0,0.0,0.0,0.0,0.0,0.0,0.0,0.0,0.0,0.0,0.0,-0.70607245,0.024429131,0.7078769,-0.94421387,0.111206055,-0.30480957,0.18457031,0.17285156,0.08496094,6.78969,-14.6178875,0.5057587,14.655248,-1.0045166,0.13647461,0.013122559,0.044921875,0.025390625,0.033203125,4.116183,-8.452572,-56.07171,17.580421,0.53796387,0.09967041,0.8430176,0.033203125,-0.0029296875,-0.033203125,22.200197,-2.5690308,-127.832275,17.559387,0.0,0.0,0.0,0.0,0.0,0.0,0.0,-11.540623,-127.65446,35.43654,0.0,0.0,0.0,0.0,0.0,0.0,0.0,0.70607245,-0.024429131,-0.7078769,-0.94018555,0.08874512,-0.35827637,0.15332031,-0.13378906,-0.087890625,3.990763,14.6178875,-0.5057587,-14.655248,-0.96765137,-0.006713867,-0.070495605,0.01171875,-0.0068359375,-9.765625E-4,4.719578,10.741045,-57.273903,-11.161036,0.49847412,0.033813477,0.83758545,0.013671875,-0.018554688,-0.016601562,53.860584,11.646444,-128.85199,-3.2737885,0.0,0.0,0.0,0.0,0.0,0.0,0.0,2.3772068,-128.58621,14.449261,-0.9984131,-0.12286377,-0.13861084,0.3642578,-0.29882812,-0.043945312,0.0,0.33840784,44.987385,-1.2149882,
0.46874999301508075,24,-0.7662964,-0.37597656,0.5910034,0.16894531,0.08105469,-0.09375,0.0,0.0,0.0,0.0,0.0,0.0,0.0,0.0,0.0,0.0,0.0,-0.69603777,0.025905807,0.7178217,-0.92755127,0.086364746,-0.3300171,0.015625,0.13769531,0.06640625,6.336761,-14.410137,0.5363305,14.861135,-0.9795532,0.09979248,0.024902344,0.005859375,0.0078125,0.033203125,3.7361736,-8.662851,-56.094936,17.41968,0.5218506,0.09197998,0.86169434,-0.005859375,-0.021484375,0.021484375,22.372414,-3.0120664,-127.87189,17.326456,0.0,0.0,0.0,0.0,0.0,0.0,0.0,-11.90555,-127.69343,35.242805,0.0,0.0,0.0,0.0,0.0,0.0,0.0,0.69603777,-0.025905807,-0.7178217,-0.9361572,0.09075928,-0.3602295,0.203125,-0.14453125,-0.080078125,3.9226117,14.410137,-0.5363305,-14.861135,-0.9765625,4.8828125E-4,-0.084350586,-0.0068359375,-0.0068359375,-0.01953125,4.615752,10.561963,-57.305107,-11.319255,0.5090332,0.038269043,0.8744507,-0.0048828125,-0.018554688,-0.03515625,53.905117,11.342703,-128.87358,-3.327229,0.0,0.0,0.0,0.0,0.0,0.0,0.0,2.1352148,-128.61858,14.428537,-0.99798584,-0.056396484,-0.15704346,0.30664062,-0.31835938,-0.06347656,0.0,0.37086254,44.989887,-1.2640536,
0.48828124272404244,25,-0.7188721,-0.3861084,0.53234863,0.16894531,0.0625,-0.11230469,0.0,0.0,0.0,0.0,0.0,0.0,0.0,0.0,0.0,0.0,0.0,-0.6845954,0.028213885,0.7285717,-0.94207764,0.121032715,-0.30969238,0.09082031,0.10058594,0.06640625,6.14781,-14.173246,0.5841148,15.0836935,-0.99328613,0.110839844,0.043762207,0.0068359375,0.026367188,0.033203125,3.4413939,-8.766577,-56.102013,17.349243,0.53125,0.05670166,0.8483887,0.033203125,-0.021484375,-0.034179688,22.455725,-3.3574018,-127.90234,17.206856,0.0,0.0,0.0,0.0,0.0,0.0,0.0,-12.148955,-127.727356,35.174316,0.0,0.0,0.0,0.0,0.0,0.0,0.0,0.6845954,-0.028213885,-0.7285717,-0.9472046,0.08691406,-0.3701172,0.16796875,-0.14941406,-0.08300781,3.7394738,14.173246,-0.5841148,-15.0836935,-0.9892578,0.017578125,-0.10308838,-0.0078125,-0.026367188,-9.765625E-4,4.534707,10.353604,-57.352848,-11.544775,0.51568604,0.04888916,0.8424072,0.013671875,0.0,0.0029296875,54.205868,11.024659,-128.91699,-3.4864616,0.0,0.0,0.0,0.0,0.0,0.0,0.0,1.7728672,-128.66841,14.247625,-0.94525146,-0.052368164,-0.13812256,0.19238281,-0.28125,-0.0625,0.0,0.5219263,44.985947,-1.2516543,
0.5078124924330042,26,-0.7241821,-0.3671875,0.57232666,0.16894531,0.0625,-0.07519531,0.0,0.0,0.0,0.0,0.0,0.0,0.0,0.0,0.0,0.0,0.0,-0.67490184,0.028810816,0.7375095,-0.93792725,0.12646484,-0.24645996,0.22265625,-0.0087890625,0.083984375,6.0455885,-13.972561,0.59647316,15.268733,-0.9882202,0.07757568,0.00982666,-0.013671875,0.0087890625,0.013671875,3.4234831,-8.768627,-56.12328,17.480747,0.54626465,0.1171875,0.8373413,0.013671875,-0.0029296875,-0.033203125,22.752949,-3.5904603,-127.93915,17.283867,0.0,0.0,0.0,0.0,0.0,0.0,0.0,-12.349453,-127.77793,35.265785,0.0,0.0,0.0,0.0,0.0,0.0,0.0,0.67490184,-0.028810816,-0.7375095,-0.946228,0.09863281,-0.35308838,0.13574219,-0.13671875,-0.08886719,3.6988292,13.972561,-0.59647316,-15.268733,-0.99365234,0.0032348633,-0.122924805,-0.025390625,-0.0068359375,-9.765625E-4,4.4913926,10.150454,-57.36371,-11.7073765,0.5286255,0.028076172,0.8404541,0.013671875,-0.018554688,0.0029296875,54.07351,10.734037,-128.9165,-3.5710497,0.0,0.0,0.0,0.0,0.0,0.0,0.0,1.5732994,-128.6707,14.207742,-0.94525146,-0.049621582,-0.12310791,0.057617188,-0.24511719,-0.0234375,0.0,0.60256505,44.985268,-1.2059369,
0.5273437421419659,27,-0.72424316,-0.35638428,0.5635376,0.16894531,0.024414062,-0.07519531,0.0,0.0,0.0,0.0,0.0,0.0,0.0,0.0,0.0,0.0,0.0,-0.66591364,0.029085137,0.74566233,-0.9219971,0.119384766,-0.26556396,-0.060546875,0.01171875,0.047851562,5.9964266,-13.786478,0.6021526,15.437523,-1.0044556,0.069885254,0.02960205,-0.013671875,-0.009765625,-0.0048828125,3.43245,-8.75996,-56.131493,17.60997,0.5458374,0.093811035,0.82128906,0.052734375,-0.022460938,-0.052734375,22.790411,-3.7527714,-127.96819,17.328573,0.0,0.0,0.0,0.0,0.0,0.0,0.0,-12.427956,-127.81314,35.351215,0.0,0.0,0.0,0.0,0.0,0.0,0.0,0.66591364,-0.029085137,-0.74566233,-0.9281616,0.11517334,-0.33013916,0.2109375,-0.19140625,-0.08886719,3.6051629,13.786478,-0.6021526,-15.437523,-0.97161865,0.0056152344,-0.11419678,-0.025390625,-0.026367188,-0.01953125,4.326128,10.06959,-57.375156,-11.8144,0.5130005,0.02935791,0.87145996,0.013671875,-0.018554688,0.021484375,54.141697,10.54985,-128.92012,-3.6011267,0.0,0.0,0.0,0.0,0.0,0.0,0.0,1.4089088,-128.67525,14.187896,-0.9717407,-0.066711426,-0.13342285,0.115234375,-0.20703125,0.0146484375,0.0,0.69877744,44.9871,-1.1307137,
0.5468749918509276,28,-0.7736206,-0.3139038,0.5620117,0.09375,0.11816406,0.001953125,0.0,0.0,0.0,0.0,0.0,0.0,0.0,0.0,0.0,0.0,0.0,-0.6596854,0.029015033,0.7511746,-0.92419434,0.10882568,-0.30914307,-0.24902344,0.08496094,-0.0068359375,5.7014174,-13.657533,0.60070103,15.551644,-0.98272705,0.093933105,0.025817871,-0.051757812,0.009765625,-0.024414062,3.3300781,-8.908421,-56.15518,17.666834,0.5006714,0.091430664,0.85479736,0.051757812,0.016601562,-0.033203125,22.906488,-4.0974545,-128.0064,17.388206,0.0,0.0,0.0,0.0,0.0,0.0,0.0,-12.695477,-127.84499,35.44941,0.0,0.0,0.0,0.0,0.0,0.0,0.0,0.6596854,-0.029015033,-0.7511746,-0.92926025,0.13494873,-0.3307495,0.17675781,-0.1953125,-0.09277344,3.5992382,13.657533,-0.60070103,-15.551644,-1.013794,-0.013183594,-0.095947266,0.01171875,-0.026367188,-9.765625E-4,4.160525,10.036384,-57.373356,-11.831003,0.52093506,0.016540527,0.8674927,0.013671875,9.765625E-4,-0.016601562,53.965343,10.422485,-128.91032,-3.5340605,0.0,0.0,0.0,0.0,0.0,0.0,0.0,1.3659925,-128.67154,14.299052,-0.9595337,-0.066833496,-0.13342285,0.07714844,-0.11328125,0.13085938,0.0,0.69066447,44.987003,-1.1311327,
0.5664062415598893,29,-0.78271484,-0.30700684,0.5662842,0.056640625,0.061523438,0.001953125,0.0,0.0,0.0,0.0,0.0,0.0,0.0,0.0,0.0,0.0,0.0,-0.6572226,0.027883071,0.7533669,-0.93078613,0.13726807,-0.25933838,0.015625,0.08300781,0.029296875,5.49501,-13.606546,0.57726604,15.597029,-0.9980469,0.08288574,0.008850098,-0.051757812,0.009765625,-0.0048828125,3.3161154,-9.078678,-56.204475,17.6661,0.5414429,0.06939697,0.82788086,0.052734375,-0.022460938,-0.052734375,23.077173,-4.470982,-128.07074,17.31674,0.0,0.0,0.0,0.0,0.0,0.0,0.0,-13.0066395,-127.91473,35.407898,0.0,0.0,0.0,0.0,0.0,0.0,0.0,0.6572226,-0.027883071,-0.7533669,-0.9273071,0.14575195,-0.32165527,0.12207031,-0.20019531,-0.115234375,3.6478703,13.606546,-0.57726604,-15.597029,-0.994751,-0.01171875,-0.090148926,-0.0068359375,-0.045898438,-0.018554688,3.9965491,10.086441,-57.348545,-11.774214,0.50994873,0.0513916,0.8643799,0.032226562,-0.017578125,-0.015625,53.83737,10.400492,-128.87703,-3.4129725,0.0,0.0,0.0,0.0,0.0,0.0,0.0,1.3948822,-128.64807,14.445352,-0.9546509,-0.089538574,-0.11303711,0.0390625,-0.20898438,0.14941406,0.0,0.69796455,44.988503,-1.0561914,
0.585937491268851,30,-0.7675781,-0.309021,0.54608154,0.020507812,-0.0126953125,0.001953125,0.0,0.0,0.0,0.0,0.0,0.0,0.0,0.0,0.0,0.0,0.0,-0.65857697,0.026136223,0.752313,-0.93096924,0.12658691,-0.28515625,-0.041015625,-0.061523438,0.0107421875,5.316771,-13.634583,0.54110086,15.575212,-0.9854126,0.10333252,0.0020751953,-0.05078125,0.028320312,-0.04296875,3.3738842,-9.288963,-56.251,17.656332,0.5120239,0.10687256,0.85595703,0.051757812,0.016601562,-0.0703125,23.266342,-4.8982997,-128.1245,17.239058,0.0,0.0,0.0,0.0,0.0,0.0,0.0,-13.373566,-127.971664,35.35846,0.0,0.0,0.0,0.0,0.0,0.0,0.0,0.65857697,-0.026136223,-0.752313,-0.932251,0.13293457,-0.3218994,0.10644531,-0.16601562,-0.13867188,3.7138855,13.634583,-0.54110086,-15.575212,-0.9836426,-0.004211426,-0.086242676,-0.0078125,-0.06542969,0.0,3.837982,10.228828,-57.31824,-11.678258,0.552063,0.045959473,0.86016846,0.013671875,0.0,0.0029296875,53.727257,10.457192,-128.83647,-3.2316084,0.0,0.0,0.0,0.0,0.0,0.0,0.0,1.5263987,-128.61894,14.664338,-0.9822998,-0.13787842,-0.11505127,-0.095703125,-0.19140625,0.16894531,0.0,0.6851404,44.993065,-0.96333694,
0.6054687409778127,31,-0.807251,-0.26934814,0.598938,-0.0546875,-0.0126953125,0.041015625,0.0,0.0,0.0,0.0,0.0,0.0,0.0,0.0,0.0,0.0,0.0,-0.66238403,0.023503834,0.7489179,-0.9206543,0.07232666,-0.3026123,-0.2861328,0.0859375,-0.0068359375,4.9649105,-13.713405,0.48660222,15.504922,-1.0001831,0.078125,0.0018920898,-0.07128906,-0.02734375,-0.061523438,3.3238404,-9.671837,-56.323082,17.544773,0.541626,0.07720947,0.8309326,0.07128906,0.03515625,-0.08886719,23.486317,-5.464297,-128.2095,17.069616,0.0,0.0,0.0,0.0,0.0,0.0,0.0,-13.8966675,-128.05835,35.2088,0.0,0.0,0.0,0.0,0.0,0.0,0.0,0.66238403,-0.023503834,-0.7489179,-0.9373169,0.12701416,-0.31500244,-0.083984375,-0.19042969,-0.15820312,3.8497496,13.713405,-0.48660222,-15.504922,-0.9869995,-0.019592285,-0.10211182,-0.0078125,-0.02734375,0.018554688,3.6943269,10.40567,-57.263016,-11.537308,0.51257324,-0.003112793,0.84869385,0.013671875,9.765625E-4,-0.016601562,53.62783,10.577887,-128.78006,-3.055954,0.0,0.0,0.0,0.0,0.0,0.0,0.0,1.7197685,-128.5563,14.877527,-1.0008545,-0.18847656,-0.10119629,-0.09472656,-0.11328125,-0.041015625,0.0,0.6306632,44.991592,-0.8542106,
0.6249999906867744,32,-0.777771,-0.30108643,0.56817627,-0.07324219,-0.05078125,0.059570312,0.0,0.0,0.0,0.0,0.0,0.0,0.0,0.0,0.0,0.0,0.0,-0.6671787,0.021764446,0.7447121,-0.9197998,0.05517578,-0.23754883,-0.2861328,0.12207031,-0.025390625,4.6250787,-13.812667,0.4505915,15.417849,-0.994812,0.0892334,-0.026794434,-0.072265625,-0.045898438,-0.08105469,3.265967,-10.009131,-56.39111,17.373257,0.55041504,0.12298584,0.8394165,0.051757812,0.03515625,-0.0703125,23.751505,-5.902452,-128.28763,16.80429,0.0,0.0,0.0,0.0,0.0,0.0,0.0,-14.318365,-128.14627,34.95166,0.0,0.0,0.0,0.0,0.0,0.0,0.0,0.6671787,-0.021764446,-0.7447121,-0.9402466,0.111206055,-0.30541992,-0.037109375,-0.19824219,-0.16796875,3.8655362,13.812667,-0.4505915,-15.417849,-0.980896,-0.015930176,-0.08929443,0.029296875,-0.045898438,-9.765625E-4,3.5447526,10.654585,-57.23213,-11.429834,0.5333252,0.03527832,0.8862915,0.013671875,0.0,0.0029296875,53.357246,10.786221,-128.74837,-2.9248867,0.0,0.0,0.0,0.0,0.0,0.0,0.0,2.0423355,-128.52869,15.062605,-0.9641113,-0.14605713,-0.0993042,0.05859375,-0.20605469,-0.099609375,0.0,0.5538868,44.99358,-0.818731,
0.6445312403957361,33,-0.80462646,-0.30999756,0.546875,-0.16699219,-0.05078125,0.041992188,0.0,0.0,0.0,0.0,0.0,0.0,0.0,0.0,0.0,0.0,0.0,-0.6696933,0.022186492,0.74249464,-0.9349365,0.045410156,-0.1998291,-0.17285156,0.01171875,-0.06347656,4.5971694,-13.864725,0.45932916,15.371942,-0.97717285,0.045166016,0.034484863,-0.051757812,-0.02734375,-0.08105469,3.3707492,-10.093895,-56.385757,17.360703,0.55029297,0.11816406,0.8284912,0.0126953125,0.0546875,-0.051757812,23.882124,-6.0221343,-128.27951,16.695723,0.0,0.0,0.0,0.0,0.0,0.0,0.0,-14.431126,-128.15161,34.84486,0.0,0.0,0.0,0.0,0.0,0.0,0.0,0.6696933,-0.022186492,-0.74249464,-0.93414307,0.09539795,-0.30871582,-0.08691406,-0.14941406,-0.21484375,3.73675,13.864725,-0.45932916,-15.371942,-0.9915161,-0.0031738281,-0.074279785,-0.0068359375,-0.045898438,-0.018554688,3.4912684,10.807674,-57.252758,-11.433052,0.5149536,0.011474609,0.87054443,0.013671875,-0.018554688,-0.016601562,53.22137,10.8930235,-128.75987,-2.874179,0.0,0.0,0.0,0.0,0.0,0.0,0.0,2.200221,-128.53845,15.140275,-0.9689331,-0.11071777,-0.12042236,0.19238281,-0.1875,0.034179688,0.0,0.5569942,44.994965,-0.842114,
0.6640624901046978,34,-0.7835083,-0.30126953,0.5097656,-0.12890625,-0.087890625,0.07910156,0.0,0.0,0.0,0.0,0.0,0.0,0.0,0.0,0.0,0.0,0.0,-0.6736757,0.02223049,0.7389446,-0.9628906,0.055847168,-0.2052002,-0.22949219,0.08496094,-0.043945312,4.5385933,-13.947178,0.46024004,15.298445,-0.9981079,0.014343262,0.024291992,-0.091796875,-0.06347656,-0.04296875,3.4473054,-10.202998,-56.38808,17.29824,0.55029297,0.11816406,0.8284912,0.0126953125,0.0546875,-0.051757812,23.886013,-6.123792,-128.28412,16.537176,0.0,0.0,0.0,0.0,0.0,0.0,0.0,-14.5327835,-128.15622,34.686314,0.0,0.0,0.0,0.0,0.0,0.0,0.0,0.6736757,-0.02223049,-0.7389446,-0.9562378,0.077697754,-0.2999878,-0.099609375,-0.13671875,-0.20117188,3.603642,13.947178,-0.46024004,-15.298445,-0.9767456,-0.012329102,-0.072387695,0.0107421875,-0.06542969,0.0,3.4590418,10.993497,-57.265038,-11.43811,0.5369873,0.03277588,0.8633423,0.013671875,9.765625E-4,-0.016601562,53.048927,11.014575,-128.7662,-2.8135471,0.0,0.0,0.0,0.0,0.0,0.0,0.0,2.3375788,-128.54239,15.207037,-1.0014038,-0.09631348,-0.07623291,0.15429688,-0.15039062,0.12988281,0.0,0.5344478,44.996864,-0.86644894,
0.6835937398136595,35,-0.7802124,-0.3494873,0.52905273,-0.12988281,-0.0126953125,0.07910156,0.0,0.0,0.0,0.0,0.0,0.0,0.0,0.0,0.0,0.0,0.0,-0.67574495,0.022982012,0.7369148,-0.9609375,0.051635742,-0.16973877,-0.22949219,0.06738281,0.01171875,4.5941005,-13.990015,0.47579888,15.256421,-0.9883423,0.04046631,0.041381836,-0.091796875,-0.044921875,-0.024414062,3.5656254,-10.189641,-56.363186,17.358322,0.54577637,0.08795166,0.8251343,0.051757812,0.0546875,-0.0703125,23.62034,-6.0287185,-128.25111,16.572412,0.0,0.0,0.0,0.0,0.0,0.0,0.0,-14.404516,-128.12106,34.738052,0.0,0.0,0.0,0.0,0.0,0.0,0.0,0.67574495,-0.022982012,-0.7369148,-0.9522095,0.072753906,-0.29907227,-0.06738281,-0.14941406,-0.19628906,3.3988028,13.990015,-0.47579888,-15.256421,-0.98773193,-0.012023926,-0.078308105,-0.0078125,-0.026367188,-9.765625E-4,3.4487252,11.160802,-57.287704,-11.497611,0.5349121,0.019836426,0.85943604,0.032226562,9.765625E-4,-0.016601562,52.822678,11.153275,-128.78317,-2.8265963,0.0,0.0,0.0,0.0,0.0,0.0,0.0,2.5238295,-128.55884,15.218238,-1.0036011,-0.116882324,-0.0637207,0.07714844,-0.16992188,0.12988281,0.0,0.5283387,44.992085,-0.9186766,
0.7031249895226211,36,-0.77337646,-0.33465576,0.5439453,-0.016601562,-0.032226562,0.095703125,0.0,0.0,0.0,0.0,0.0,0.0,0.0,0.0,0.0,0.0,0.0,-0.6765021,0.022043709,0.7363252,-0.98968506,-0.0020141602,-0.15393066,-0.13574219,-0.061523438,-0.026367188,4.642875,-14.005691,0.45637313,15.244215,-0.98913574,0.016052246,0.085876465,-0.072265625,-0.02734375,-0.024414062,3.6152508,-10.0784,-56.367313,17.41388,0.49188232,0.11029053,0.8451538,0.051757812,0.0546875,-0.051757812,23.455612,-5.8103676,-128.25311,16.664545,0.0,0.0,0.0,0.0,0.0,0.0,0.0,-14.195501,-128.12935,34.825474,0.0,0.0,0.0,0.0,0.0,0.0,0.0,0.6765021,-0.022043709,-0.7363252,-0.9592285,0.06677246,-0.2892456,-0.02734375,-0.14941406,-0.15722656,3.3020935,14.005691,-0.45637313,-15.244215,-0.97216797,0.010803223,-0.05255127,0.0107421875,-0.045898438,0.0,3.4847012,11.270205,-57.28513,-11.597131,0.5289917,0.04168701,0.8623047,0.03125,-0.037109375,-0.015625,52.246777,11.200439,-128.77089,-2.8396559,0.0,0.0,0.0,0.0,0.0,0.0,0.0,2.7408428,-128.55257,15.284835,-0.9842529,-0.110961914,-0.08453369,9.765625E-4,-0.18847656,0.015625,0.0,0.4570763,44.99523,-0.9271023,
0.7226562392315828,37,-0.7871704,-0.336792,0.5025635,-0.017578125,-0.0126953125,0.05859375,0.0,0.0,0.0,0.0,0.0,0.0,0.0,0.0,0.0,0.0,0.0,-0.6774088,0.022335872,0.73546576,-0.9520874,0.036621094,-0.15814209,-0.09765625,-0.0068359375,0.0107421875,4.7536154,-14.024463,0.46242177,15.226421,-1.0057373,0.029052734,0.049194336,-0.052734375,-0.02734375,-0.0234375,3.6659145,-9.975323,-56.352318,17.47337,0.5181885,0.0579834,0.8444824,0.051757812,0.0546875,-0.051757812,23.079788,-5.618135,-128.23373,16.77348,0.0,0.0,0.0,0.0,0.0,0.0,0.0,-13.932772,-128.09538,34.965767,0.0,0.0,0.0,0.0,0.0,0.0,0.0,0.6774088,-0.022335872,-0.73546576,-0.9602051,0.061828613,-0.28442383,-0.001953125,-0.19433594,-0.1640625,3.1053884,14.024463,-0.46242177,-15.226421,-0.9801636,0.013122559,-0.06738281,-0.0068359375,-0.045898438,-0.018554688,3.4758122,11.457699,-57.30179,-11.667509,0.50756836,0.012756348,0.8486328,0.032226562,-0.017578125,0.0029296875,52.178043,11.34589,-128.77359,-2.8315544,0.0,0.0,0.0,0.0,0.0,0.0,0.0,2.8805008,-128.55531,15.290344,-1.0044556,-0.096191406,-0.082214355,-0.018554688,-0.18847656,-0.041992188,0.0,0.44316736,44.994175,-0.9582751,
0.7421874889405445,38,-0.7762451,-0.31121826,0.47875977,0.01953125,0.061523438,0.040039062,0.0,0.0,0.0,0.0,0.0,0.0,0.0,0.0,0.0,0.0,0.0,-0.6778585,0.021996194,0.73504347,-0.96899414,0.048034668,-0.19238281,-0.060546875,-0.061523438,-0.0078125,4.782744,-14.0337715,0.4553894,15.217678,-0.99072266,0.028503418,0.050231934,-0.032226562,0.02734375,-0.0048828125,3.752072,-9.878516,-56.351875,17.523376,0.5118408,0.10522461,0.8204956,0.033203125,-0.0029296875,-0.033203125,23.175186,-5.454211,-128.22757,16.803852,0.0,0.0,0.0,0.0,0.0,0.0,0.0,-13.816411,-128.09741,34.97513,0.0,0.0,0.0,0.0,0.0,0.0,0.0,0.6778585,-0.021996194,-0.73504347,-0.9591675,0.058898926,-0.28344727,0.0546875,-0.19140625,-0.12402344,2.9794014,14.0337715,-0.4553894,-15.217678,-1.012207,0.013061523,-0.088012695,-0.0068359375,-0.026367188,-0.01953125,3.4355857,11.625977,-57.308422,-11.707514,0.50756836,0.012756348,0.8486328,0.032226562,-0.017578125,0.0029296875,52.185555,11.435406,-128.77321,-2.8004923,0.0,0.0,0.0,0.0,0.0,0.0,0.0,2.9700165,-128.55493,15.321406,-1.0095215,-0.09515381,-0.08416748,0.0390625,-0.20703125,0.015625,0.0,0.38063538,44.99334,-0.9954042,
0.7617187386495062,39,-0.7873535,-0.32684326,0.5185547,0.07519531,0.080078125,0.076171875,0.0,0.0,0.0,0.0,0.0,0.0,0.0,0.0,0.0,0.0,0.0,-0.67772824,0.023030866,0.7351482,-0.9463501,0.021057129,-0.20288086,0.052734375,0.009765625,0.0107421875,4.819995,-14.031076,0.47681034,15.219847,-0.9855957,0.034057617,0.06414795,-0.032226562,0.045898438,0.033203125,3.7354398,-9.804562,-56.324642,17.520512,0.5181885,0.11456299,0.8609619,0.052734375,-0.0029296875,-0.033203125,22.858095,-5.297805,-128.19397,16.81854,0.0,0.0,0.0,0.0,0.0,0.0,0.0,-13.60163,-128.05038,35.016296,0.0,0.0,0.0,0.0,0.0,0.0,0.0,0.67772824,-0.023030866,-0.7351482,-0.96728516,0.066833496,-0.29016113,0.1171875,-0.234375,-0.11035156,2.753637,14.031076,-0.47681034,-15.219847,-0.9864502,0.0016479492,-0.08227539,-0.0068359375,-0.0068359375,-0.01953125,3.3894582,11.816155,-57.33493,-11.759914,0.49884033,0.036315918,0.8635254,-0.0048828125,-0.018554688,-0.03515625,51.50052,11.590893,-128.79785,-2.8164768,0.0,0.0,0.0,0.0,0.0,0.0,0.0,3.3285217,-128.57562,15.399342,-0.9894409,-0.121032715,-0.055908203,0.057617188,-0.24609375,0.072265625,0.0,0.37049603,44.992302,-1.0679698,
0.7812499883584679,40,-0.7920532,-0.34570312,0.4876709,0.055664062,0.13671875,0.040039062,0.0,0.0,0.0,0.0,0.0,0.0,0.0,0.0,0.0,0.0,0.0,-0.67743,0.02272819,0.73535204,-0.97076416,0.06982422,-0.21881104,-0.022460938,-0.025390625,0.0107421875,4.688972,-14.0248995,0.47054404,15.224068,-1.0145264,0.037231445,0.05218506,-0.032226562,0.02734375,0.013671875,3.7470064,-9.722683,-56.32354,17.528248,0.5274048,0.13128662,0.8296509,0.033203125,-0.0029296875,-0.0146484375,22.913235,-5.207833,-128.19452,16.840199,0.0,0.0,0.0,0.0,0.0,0.0,0.0,-13.518942,-128.05359,35.035774,0.0,0.0,0.0,0.0,0.0,0.0,0.0,0.67743,-0.02272819,-0.73535204,-0.9602661,0.07965088,-0.29101562,0.10449219,-0.20214844,-0.1171875,2.6535056,14.0248995,-0.47054404,-15.224068,-0.9836426,-0.008178711,-0.07928467,0.0126953125,0.0126953125,-0.020507812,3.3313127,11.970454,-57.339096,-11.769687,0.532959,0.043762207,0.85827637,0.0126953125,-0.037109375,-0.03515625,51.220028,11.708963,-128.79572,-2.791791,0.0,0.0,0.0,0.0,0.0,0.0,0.0,3.5518818,-128.5693,15.46976,-0.9946289,-0.14434814,-0.055419922,0.07714844,-0.15039062,0.015625,0.0,0.22671765,44.98775,-1.1816175,
0.8007812380674296,41,-0.7873535,-0.33862305,0.53723145,0.09375,0.09863281,0.0390625,0.0,0.0,0.0,0.0,0.0,0.0,0.0,0.0,0.0,0.0,0.0,-0.67450374,0.022506375,0.73813176,-0.9326782,0.06726074,-0.2421875,-0.041015625,-0.061523438,0.029296875,4.591115,-13.964317,0.46595177,15.281616,-0.9840088,0.05230713,0.03253174,-0.051757812,0.028320312,0.013671875,3.7594233,-9.679636,-56.332092,17.565077,0.5371094,0.11053467,0.833313,0.052734375,-0.022460938,-0.052734375,22.992796,-5.206705,-128.20476,16.839874,0.0,0.0,0.0,0.0,0.0,0.0,0.0,-13.499291,-128.06021,35.042503,0.0,0.0,0.0,0.0,0.0,0.0,0.0,0.67450374,-0.022506375,-0.73813176,-0.9522705,0.0914917,-0.2987671,0.13964844,-0.21679688,-0.09375,2.5861127,13.964317,-0.46595177,-15.281616,-0.9939575,-0.01953125,-0.09411621,-0.0068359375,-0.0068359375,-9.765625E-4,3.2766194,12.065816,-57.33613,-11.798418,0.5288696,0.01373291,0.8624878,0.03125,-0.036132812,-0.03515625,51.214245,11.743072,-128.78006,-2.744297,0.0,0.0,0.0,0.0,0.0,0.0,0.0,3.622466,-128.55704,15.536068,-0.97735596,-0.13897705,-0.03137207,0.115234375,-0.24511719,0.0146484375,0.0,0.17131853,44.99002,-1.2152401,
0.8203124877763913,42,-0.7783203,-0.32788086,0.51831055,0.09375,0.13671875,0.020507812,0.0,0.0,0.0,0.0,0.0,0.0,0.0,0.0,0.0,0.0,0.0,-0.6726093,0.022615422,0.73982584,-0.9413452,0.09295654,-0.2220459,0.09082031,-0.026367188,0.028320312,4.5021954,-13.925099,0.4682094,15.316689,-0.98413086,0.046447754,0.03149414,-0.032226562,0.0087890625,0.013671875,3.7924566,-9.645027,-56.3304,17.606209,0.5315552,0.07537842,0.8407593,0.033203125,-0.041015625,-0.034179688,22.89343,-5.2299633,-128.2055,16.860018,0.0,0.0,0.0,0.0,0.0,0.0,0.0,-13.449518,-128.05211,35.09694,0.0,0.0,0.0,0.0,0.0,0.0,0.0,0.6726093,-0.022615422,-0.73982584,-0.93518066,0.09539795,-0.30474854,0.10546875,-0.24023438,-0.07714844,2.5453749,13.925099,-0.4682094,-15.316689,-0.99542236,0.0048217773,-0.08319092,0.030273438,-0.044921875,-0.038085938,3.1634738,12.170445,-57.340813,-11.754599,0.51013184,0.059143066,0.8763428,0.013671875,9.765625E-4,-0.03515625,51.244255,11.800093,-128.78207,-2.6653576,0.0,0.0,0.0,0.0,0.0,0.0,0.0,3.711793,-128.56479,15.628906,-0.99560547,-0.13482666,-0.03527832,0.15332031,-0.24511719,0.052734375,0.0,0.11274798,44.987644,-1.2727039,
0.839843737485353,43,-0.79870605,-0.28735352,0.5231323,0.13085938,0.099609375,9.765625E-4,0.0,0.0,0.0,0.0,0.0,0.0,0.0,0.0,0.0,0.0,0.0,-0.67270344,0.021051433,0.7397915,-0.92871094,0.06616211,-0.23040771,0.109375,-0.02734375,-0.0087890625,4.3712564,-13.927049,0.4358299,15.315977,-1.003479,0.06817627,0.01171875,-0.032226562,0.02734375,0.013671875,3.7831514,-9.644777,-56.36484,17.519285,0.52716064,0.11755371,0.8353882,0.033203125,-0.0029296875,-0.033203125,23.049828,-5.317838,-128.24652,16.704441,0.0,0.0,0.0,0.0,0.0,0.0,0.0,-13.515364,-128.09285,34.95075,0.0,0.0,0.0,0.0,0.0,0.0,0.0,0.67270344,-0.021051433,-0.7397915,-0.9331665,0.095458984,-0.32751465,0.07910156,-0.17675781,-0.08984375,2.6251755,13.927049,-0.4358299,-15.315977,-0.9761963,-0.027648926,-0.101257324,-0.0068359375,-0.045898438,-0.018554688,3.0766351,12.2485,-57.305576,-11.6983795,0.51519775,0.043151855,0.88238525,0.013671875,9.765625E-4,-0.03515625,51.26073,11.816147,-128.74303,-2.6021519,0.0,0.0,0.0,0.0,0.0,0.0,0.0,3.7772446,-128.53264,15.713318,-0.96221924,-0.15093994,-0.020690918,0.09667969,-0.26464844,0.052734375,0.0,0.015964717,44.98815,-1.2656614,
0.8593749871943147,44,-0.78881836,-0.29125977,0.55462646,0.09375,0.13671875,0.020507812,0.0,0.0,0.0,0.0,0.0,0.0,0.0,0.0,0.0,0.0,0.0,-0.6725098,0.01959318,0.7400488,-0.9229126,0.04937744,-0.24645996,0.015625,-0.026367188,-0.0078125,4.0914154,-13.9230385,0.40563956,15.321304,-0.99786377,0.08868408,0.014831543,-0.051757812,0.028320312,0.013671875,3.7135167,-9.73233,-56.407032,17.405067,0.508728,0.095336914,0.842041,0.051757812,0.016601562,-0.033203125,23.194279,-5.519444,-128.28882,16.529293,0.0,0.0,0.0,0.0,0.0,0.0,0.0,-13.677713,-128.1272,34.792603,0.0,0.0,0.0,0.0,0.0,0.0,0.0,0.6725098,-0.01959318,-0.7400488,-0.9432373,0.10333252,-0.30749512,0.0546875,-0.19140625,-0.12402344,2.6907184,13.9230385,-0.40563956,-15.321304,-0.97869873,-0.0021972656,-0.10217285,0.0107421875,-0.045898438,0.0,3.0417595,12.308768,-57.272377,-11.666623,0.51904297,0.042419434,0.8713989,0.033203125,0.07714844,-0.0546875,51.428833,11.803486,-128.70789,-2.524272,0.0,0.0,0.0,0.0,0.0,0.0,0.0,3.7528152,-128.50046,15.785581,-0.9663086,-0.15008545,-0.007751465,0.0390625,-0.2265625,0.0146484375,0.0,-0.11712068,44.988464,-1.2975249,
0.8789062369032764,45,-0.8087158,-0.30407715,0.5469971,0.01953125,0.024414062,0.020507812,0.0,0.0,0.0,0.0,0.0,0.0,0.0,0.0,0.0,0.0,0.0,-0.67112815,0.018656667,0.74132746,-0.92614746,0.03466797,-0.24157715,-0.022460938,0.0107421875,0.0107421875,3.9723685,-13.894436,0.38625085,15.347776,-0.99365234,0.06536865,0.041503906,-0.07128906,-0.0087890625,-0.0048828125,3.6360426,-9.75728,-56.431385,17.346548,0.53375244,0.08709717,0.835022,0.052734375,-0.0029296875,-0.033203125,23.253517,-5.6189437,-128.32262,16.468094,0.0,0.0,0.0,0.0,0.0,0.0,0.0,-13.7418,-128.16495,34.74768,0.0,0.0,0.0,0.0,0.0,0.0,0.0,0.67112815,-0.018656667,-0.74132746,-0.9482422,0.09240723,-0.29675293,0.040039062,-0.19628906,-0.10839844,2.7320132,13.894436,-0.38625085,-15.347776,-0.98895264,-0.016662598,-0.10015869,0.01171875,-0.044921875,-0.038085938,3.0291188,12.340191,-57.253563,-11.659395,0.52612305,0.023376465,0.8804321,0.033203125,0.01953125,0.0029296875,51.184147,11.784211,-128.68015,-2.459589,0.0,0.0,0.0,0.0,0.0,0.0,0.0,3.8535957,-128.47357,15.90276,-0.95703125,-0.13153076,-0.016296387,-0.018554688,-0.13085938,-0.060546875,0.0,-0.1636369,44.988853,-1.2803564,
0.8984374866122381,46,-0.81695557,-0.2793579,0.5593262,0.09472656,0.024414062,0.01953125,0.0,0.0,0.0,0.0,0.0,0.0,0.0,0.0,0.0,0.0,0.0,-0.6717398,0.01762555,0.7407434,-0.96899414,0.05529785,-0.26342773,-0.07910156,0.046875,-0.026367188,3.8132079,-13.907097,0.3649035,15.335686,-1.026001,0.053649902,0.039367676,-0.07128906,-0.0087890625,-0.024414062,3.5939577,-9.81168,-56.45729,17.28456,0.526001,0.099609375,0.87750244,0.072265625,-0.021484375,-0.034179688,23.231537,-5.722895,-128.35057,16.397331,0.0,0.0,0.0,0.0,0.0,0.0,0.0,-13.798864,-128.18788,34.69818,0.0,0.0,0.0,0.0,0.0,0.0,0.0,0.6717398,-0.01762555,-0.7407434,-0.9501953,0.080566406,-0.2831421,0.056640625,-0.17480469,-0.12695312,2.6930451,13.907097,-0.3649035,-15.335686,-0.98461914,-0.009216309,-0.07336426,-0.0087890625,-0.06542969,0.018554688,3.0277615,12.4930935,-57.234882,-11.650479,0.50457764,0.031799316,0.8425293,0.032226562,-0.017578125,-0.015625,50.995117,11.924181,-128.6601,-2.4153128,0.0,0.0,0.0,0.0,0.0,0.0,0.0,4.060734,-128.45164,15.975156,-0.977417,-0.14123535,-0.0015258789,0.0390625,-0.16894531,-0.041992188,0.0,-0.25098243,44.986107,-1.29802,
0.9179687363211998,47,-0.79174805,-0.27752686,0.5231323,0.09472656,0.024414062,0.01953125,0.0,0.0,0.0,0.0,0.0,0.0,0.0,0.0,0.0,0.0,0.0,-0.6744286,0.016283516,0.73838276,-0.9387207,0.06640625,-0.2401123,-0.1171875,-0.04296875,0.0107421875,3.7137275,-13.962764,0.33711925,15.286812,-0.97888184,0.054260254,0.026611328,-0.052734375,-0.02734375,0.013671875,3.589051,-9.918494,-56.490288,17.214968,0.55718994,0.10925293,0.8234863,0.033203125,0.016601562,-0.0703125,23.277666,-5.875844,-128.38744,16.300884,0.0,0.0,0.0,0.0,0.0,0.0,0.0,-13.931884,-128.23311,34.609734,0.0,0.0,0.0,0.0,0.0,0.0,0.0,0.6744286,-0.016283516,-0.73838276,-0.9562988,0.089416504,-0.2779541,0.022460938,-0.17871094,-0.12988281,2.7236893,13.962764,-0.33711925,-15.286812,-0.9765625,-0.0045166016,-0.074401855,-0.0078125,-0.045898438,0.018554688,3.0302174,12.624602,-57.214535,-11.591391,0.5227661,0.04284668,0.8483887,0.013671875,-0.018554688,-0.016601562,50.706493,12.033647,-128.63008,-2.3210812,0.0,0.0,0.0,0.0,0.0,0.0,0.0,4.2704535,-128.42442,16.111267,-0.9366455,-0.11047363,-0.008850098,0.11621094,-0.13085938,0.03515625,0.0,-0.29097766,44.98886,-1.2579119,
0.9374999860301615,48,-0.7645874,-0.29534912,0.52233887,0.01953125,0.005859375,0.0390625,0.0,0.0,0.0,0.0,0.0,0.0,0.0,0.0,0.0,0.0,0.0,-0.67357033,0.015166242,0.73915493,-0.92852783,0.07470703,-0.17401123,-0.060546875,-0.043945312,0.0107421875,3.670345,-13.944995,0.31398824,15.302798,-0.97161865,0.029296875,0.02545166,-0.09082031,-0.0078125,-0.024414062,3.6476018,-9.892675,-56.509396,17.278584,0.5153198,0.12640381,0.8522339,0.033203125,-0.0029296875,-0.051757812,23.326435,-5.86051,-128.40402,16.35403,0.0,0.0,0.0,0.0,0.0,0.0,0.0,-13.911514,-128.25778,34.664402,0.0,0.0,0.0,0.0,0.0,0.0,0.0,0.67357033,-0.015166242,-0.73915493,-0.9562988,0.08935547,-0.27008057,0.109375,-0.1875,-0.1015625,2.7095666,13.944995,-0.31398824,-15.302798,-0.9875488,-0.0012207031,-0.08325195,0.01171875,-0.026367188,-9.765625E-4,3.0068705,12.754318,-57.189827,-11.590448,0.5170288,0.0524292,0.866333,0.03125,-0.017578125,-0.03515625,50.44976,12.147301,-128.60439,-2.301365,0.0,0.0,0.0,0.0,0.0,0.0,0.0,4.46828,-128.40018,16.166588,-0.97424316,-0.12164307,-0.017028809,0.11621094,-0.11230469,0.09277344,0.0,-0.33839184,44.988106,-1.2314485,
0.9570312357391232,49,-0.7897339,-0.2677002,0.5112915,0.01953125,0.005859375,0.020507812,0.0,0.0,0.0,0.0,0.0,0.0,0.0,0.0,0.0,0.0,0.0,-0.6747693,0.01525475,0.73807675,-0.95880127,0.06463623,-0.20819092,-0.15429688,-0.025390625,-0.044921875,3.711934,-13.969819,0.3158206,15.280477,-0.9970703,0.049621582,0.0423584,-0.07128906,-0.0087890625,-0.024414062,3.7503493,-9.888952,-56.506622,17.323812,0.52801514,0.103759766,0.84210205,0.072265625,-0.060546875,-0.052734375,23.294933,-5.8639045,-128.4004,16.362766,0.0,0.0,0.0,0.0,0.0,0.0,0.0,-13.904055,-128.24892,34.678528,0.0,0.0,0.0,0.0,0.0,0.0,0.0,0.6747693,-0.01525475,-0.73807675,-0.9522705,0.08538818,-0.26916504,0.12207031,-0.20019531,-0.115234375,2.6226392,13.969819,-0.3158206,-15.280477,-0.9887085,-0.016113281,-0.058410645,0.047851562,-0.046875,0.017578125,3.0083675,12.910936,-57.191128,-11.57121,0.5279541,0.036621094,0.8643799,0.013671875,9.765625E-4,-0.016601562,50.377983,12.267071,-128.6044,-2.2694674,0.0,0.0,0.0,0.0,0.0,0.0,0.0,4.605281,-128.40442,16.207142,-0.97436523,-0.12988281,0.022644043,0.0390625,-0.1328125,0.111328125,0.0,-0.3339716,44.98864,-1.2351619,
0.9765624854480849,50,-0.79248047,-0.293396,0.49023438,0.07519531,0.061523438,0.0390625,0.0,0.0,0.0,0.0,0.0,0.0,0.0,0.0,0.0,0.0,0.0,-0.6756444,0.015058432,0.73722917,-0.95758057,0.002380371,-0.17321777,-0.09765625,-0.025390625,-0.0078125,3.7336047,-13.987932,0.31175622,15.262929,-0.98461914,0.030456543,0.042297363,-0.072265625,-0.02734375,-0.024414062,3.8294518,-9.822535,-56.49945,17.35056,0.47698975,0.1171875,0.8688965,0.051757812,0.03515625,-0.051757812,23.202593,-5.7817545,-128.39273,16.373327,0.0,0.0,0.0,0.0,0.0,0.0,0.0,-13.789535,-128.23448,34.702927,0.0,0.0,0.0,0.0,0.0,0.0,0.0,0.6756444,-0.015058432,-0.73722917,-0.946228,0.08441162,-0.27319336,0.107421875,-0.22363281,-0.07910156,2.5664349,13.987932,-0.31175622,-15.262929,-0.9784546,-6.1035156E-4,-0.06939697,0.01171875,-0.0068359375,-0.01953125,2.9929056,13.084647,-57.18927,-11.513672,0.508667,0.03375244,0.84851074,0.013671875,-0.018554688,-0.016601562,49.733414,12.446378,-128.59862,-2.1753416,0.0,0.0,0.0,0.0,0.0,0.0,0.0,4.9367847,-128.39992,16.363811,-0.97125244,-0.122924805,0.0048217773,0.0390625,-0.1328125,0.111328125,0.0,-0.38390836,44.98557,-1.2707007,
0.9960937351570466,51,-0.80474854,-0.28533936,0.53125,0.057617188,0.024414062,0.057617188,0.0,0.0,0.0,0.0,0.0,0.0,0.0,0.0,0.0,0.0,0.0,-0.6766211,0.014289277,0.7363308,-0.9595337,0.008483887,-0.20373535,0.07128906,-0.099609375,0.009765625,3.8209543,-14.008155,0.29583237,15.24433,-0.9961548,0.047790527,0.032470703,-0.072265625,-0.02734375,-0.024414062,3.862039,-9.7284775,-56.50602,17.327986,0.5206299,0.08734131,0.835022,0.052734375,-0.0029296875,-0.033203125,23.331884,-5.7005386,-128.4062,16.362587,0.0,0.0,0.0,0.0,0.0,0.0,0.0,-13.718212,-128.24706,34.68765,0.0,0.0,0.0,0.0,0.0,0.0,0.0,0.6766211,-0.014289277,-0.7363308,-0.96643066,0.09832764,-0.27770996,0.111328125,-0.16992188,-0.103515625,2.564222,14.008155,-0.29583237,-15.24433,-0.9717407,-0.008422852,-0.08337402,0.030273438,-0.026367188,-0.01953125,3.001527,13.20118,-57.176792,-11.485228,0.5299072,0.036743164,0.86035156,0.013671875,0.01953125,-0.03515625,49.476795,12.5450115,-128.58383,-2.127325,0.0,0.0,0.0,0.0,0.0,0.0,0.0,5.116749,-128.39243,16.4435,-0.97229004,-0.120910645,0.0028686523,0.020507812,-0.07519531,0.0546875,0.0,-0.40787932,44.985424,-1.2477937,
1.0156249848660084,52,-0.82470703,-0.30108643,0.5394287,0.056640625,0.061523438,0.020507812,0.0,0.0,0.0,0.0,0.0,0.0,0.0,0.0,0.0,0.0,0.0,-0.67751116,0.012966789,0.7355897,-0.95910645,0.043029785,-0.215271,0.052734375,0.028320312,0.0107421875,3.7502973,-14.026583,0.26845273,15.228987,-0.9758301,0.026672363,0.07305908,-0.07128906,0.009765625,-0.0048828125,3.7971523,-9.70089,-56.535183,17.264973,0.55236816,0.117004395,0.84820557,0.052734375,-0.0029296875,-0.033203125,23.375158,-5.6407356,-128.42844,16.337515,0.0,0.0,0.0,0.0,0.0,0.0,0.0,-13.672541,-128.27097,34.656757,0.0,0.0,0.0,0.0,0.0,0.0,0.0,0.67751116,-0.012966789,-0.7355897,-0.96136475,0.09729004,-0.26690674,0.044921875,-0.18164062,-0.09277344,2.6203246,14.026583,-0.26845273,-15.228987,-0.99871826,-0.013793945,-0.072265625,-0.0078125,-0.026367188,-9.765625E-4,2.9707816,13.310476,-57.14593,-11.4151125,0.53308105,0.034606934,0.8703003,0.013671875,0.01953125,-0.03515625,49.435524,12.650312,-128.54893,-2.0329924,0.0,0.0,0.0,0.0,0.0,0.0,0.0,5.2001786,-128.3599,16.529804,-0.9560547,-0.11828613,0.014892578,-0.018554688,-0.07519531,0.016601562,0.0,-0.49504495,44.98628,-1.2489655,
1.03515623457497,53,-0.8095093,-0.3012085,0.5053711,0.057617188,0.024414062,0.057617188,0.0,0.0,0.0,0.0,0.0,0.0,0.0,0.0,0.0,0.0,0.0,-0.6789374,0.012321159,0.7342553,-0.9337158,0.06518555,-0.21844482,-0.041015625,-0.061523438,0.029296875,3.7151508,-14.056108,0.25508618,15.201361,-1.0010986,0.049865723,0.03643799,-0.07128906,-0.0087890625,-0.024414062,3.7853246,-9.719049,-56.547928,17.232128,0.5350342,0.10168457,0.8460083,0.052734375,-0.021484375,-0.034179688,23.260324,-5.638686,-128.44366,16.311865,0.0,0.0,0.0,0.0,0.0,0.0,0.0,-13.628166,-128.27438,34.650364,0.0,0.0,0.0,0.0,0.0,0.0,0.0,0.6789374,-0.012321159,-0.7342553,-0.95532227,0.091308594,-0.26208496,0.018554688,-0.21289062,-0.125,2.612544,14.056108,-0.25508618,-15.201361,-0.9855957,-0.009216309,-0.068359375,0.01171875,-0.026367188,-9.765625E-4,2.9737453,13.4317255,-57.131165,-11.37294,0.54089355,0.041992188,0.8522949,0.033203125,0.057617188,0.001953125,49.463802,12.768427,-128.52899,-1.9780846,0.0,0.0,0.0,0.0,0.0,0.0,0.0,5.3111935,-128.34233,16.581755,-0.94592285,-0.12731934,0.026611328,-0.037109375,-0.018554688,0.017578125,0.0,-0.53165185,44.984966,-1.2464672,
1.0546874842839318,54,-0.81604004,-0.25280762,0.5328369,-0.017578125,0.024414062,0.040039062,0.0,0.0,0.0,0.0,0.0,0.0,0.0,0.0,0.0,0.0,0.0,-0.6796346,0.010915834,0.73359007,-0.9448242,0.054382324,-0.1828003,-0.060546875,-0.025390625,0.0107421875,3.6715186,-14.070543,0.22599162,15.187589,-0.9688721,0.023010254,0.0413208,-0.033203125,-0.028320312,-0.0234375,3.7521763,-9.71792,-56.57976,17.180706,0.5272217,0.1204834,0.83447266,0.033203125,-0.0029296875,-0.033203125,23.231302,-5.631447,-128.47505,16.263157,0.0,0.0,0.0,0.0,0.0,0.0,0.0,-13.60309,-128.30902,34.60752,0.0,0.0,0.0,0.0,0.0,0.0,0.0,0.6796346,-0.010915834,-0.73359007,-0.9532471,0.08532715,-0.25732422,0.044921875,-0.18164062,-0.09277344,2.6704915,14.070543,-0.22599162,-15.187589,-0.99853516,-0.00390625,-0.08319092,0.01171875,-0.0068359375,-9.765625E-4,2.9725602,13.542529,-57.10542,-11.323782,0.5009155,0.041259766,0.86846924,0.03125,-0.017578125,-0.03515625,49.482555,12.855754,-128.49907,-1.9031668,0.0,0.0,0.0,0.0,0.0,0.0,0.0,5.4296055,-128.31683,16.669147,-0.95318604,-0.15264893,0.032043457,-0.037109375,-0.01953125,0.11328125,0.0,-0.57970446,44.984066,-1.2064312,
1.0742187339928935,55,-0.8046875,-0.28344727,0.51342773,0.01953125,0.061523438,0.021484375,0.0,0.0,0.0,0.0,0.0,0.0,0.0,0.0,0.0,0.0,0.0,-0.6802621,0.010198429,0.73303986,-0.9406128,0.07434082,-0.24987793,0.015625,-0.0625,0.009765625,3.6635103,-14.083538,0.2111391,15.176198,-0.9946289,0.03173828,0.042297363,-0.051757812,0.028320312,-0.0048828125,3.7850142,-9.7044115,-56.589924,17.151964,0.5510254,0.10253906,0.8243408,0.032226562,0.03515625,-0.0703125,23.284733,-5.6360283,-128.48567,16.189985,0.0,0.0,0.0,0.0,0.0,0.0,0.0,-13.591545,-128.32524,34.54293,0.0,0.0,0.0,0.0,0.0,0.0,0.0,0.6802621,-0.010198429,-0.73303986,-0.94421387,0.095214844,-0.2680664,0.07714844,-0.17480469,-0.107421875,2.6752515,14.083538,-0.2111391,-15.176198,-0.99676514,-0.014709473,-0.080200195,0.030273438,-0.026367188,-9.765625E-4,3.0197985,13.685587,-57.084103,-11.279942,0.53082275,0.024841309,0.8563843,-0.0048828125,0.0,-0.016601562,49.58433,12.922451,-128.473,-1.7978687,0.0,0.0,0.0,0.0,0.0,0.0,0.0,5.4720893,-128.29495,16.765934,-0.97351074,-0.14855957,0.034179688,-0.037109375,-0.018554688,0.09375,0.0,-0.60760045,44.984848,-1.1897066,
1.0937499837018552,56,-0.8218384,-0.2637329,0.51000977,0.01953125,0.024414062,0.020507812,0.0,0.0,0.0,0.0,0.0,0.0,0.0,0.0,0.0,0.0,0.0,-0.6840302,0.008527655,0.7295842,-0.9458008,0.0625,-0.22717285,-0.041015625,0.0107421875,0.0107421875,3.5514297,-14.161546,0.1765489,15.104654,-0.9967041,0.06188965,0.018676758,-0.052734375,-0.02734375,-0.0234375,3.783669,-9.80065,-56.6279,17.053143,0.56207275,0.09527588,0.84594727,0.033203125,-0.0029296875,-0.033203125,23.382801,-5.7557273,-128.51881,16.05811,0.0,0.0,0.0,0.0,0.0,0.0,0.0,-13.701717,-128.37541,34.41514,0.0,0.0,0.0,0.0,0.0,0.0,0.0,0.6840302,-0.008527655,-0.7295842,-0.9371948,0.09423828,-0.2730713,0.09375,-0.17285156,-0.10546875,2.719086,14.161546,-0.1765489,-15.104654,-0.9747925,-0.012268066,-0.08135986,0.01171875,-0.026367188,-9.765625E-4,3.0528731,13.859823,-57.048096,-11.189936,0.5397949,0.026000977,0.85235596,0.013671875,9.765625E-4,-0.016601562,49.705696,13.074119,-128.43361,-1.6756821,0.0,0.0,0.0,0.0,0.0,0.0,0.0,5.611549,-128.25754,16.881805,-0.97351074,-0.14855957,0.034179688,-0.037109375,-0.018554688,0.09375,0.0,-0.68223655,44.985657,-1.1654482,
1.1132812334108169,57,-0.8340454,-0.2557373,0.5321655,0.01953125,0.005859375,0.0390625,0.0,0.0,0.0,0.0,0.0,0.0,0.0,0.0,0.0,0.0,0.0,-0.68809444,0.0069387644,0.7257961,-0.9506836,0.066345215,-0.18554688,-0.2109375,-0.005859375,-0.0078125,3.5064335,-14.245688,0.14365394,15.026229,-0.993103,0.05041504,0.048339844,-0.051757812,0.009765625,-0.024414062,3.8605685,-9.88356,-56.659714,17.037056,0.55041504,0.11987305,0.8571167,0.051757812,0.016601562,-0.033203125,23.482187,-5.852021,-128.5519,16.021973,0.0,0.0,0.0,0.0,0.0,0.0,0.0,-13.795506,-128.40709,34.379013,0.0,0.0,0.0,0.0,0.0,0.0,0.0,0.68809444,-0.0069387644,-0.7257961,-0.94421387,0.097229004,-0.27398682,0.0087890625,-0.12792969,-0.15625,2.7750928,14.245688,-0.14365394,-15.026229,-0.9838867,-0.018859863,-0.08331299,0.029296875,-0.02734375,0.017578125,3.1072161,13.974664,-57.020233,-11.116865,0.5050659,0.046203613,0.8734131,-0.0048828125,0.018554688,-0.016601562,49.64979,13.145151,-128.3974,-1.5625477,0.0,0.0,0.0,0.0,0.0,0.0,0.0,5.738805,-128.21252,17.016676,-0.982605,-0.14538574,0.022277832,-0.037109375,0.0,0.056640625,0.0,-0.7327452,44.986774,-1.1247656,
1.1328124831197786,58,-0.7897949,-0.27947998,0.53100586,0.001953125,-0.05078125,0.0390625,0.0,0.0,0.0,0.0,0.0,0.0,0.0,0.0,0.0,0.0,0.0,-0.69193095,0.004993348,0.7221659,-0.9706421,0.07659912,-0.19702148,-0.17285156,0.030273438,-0.0078125,3.4442372,-14.325117,0.10337779,14.951074,-1.0006714,0.02911377,0.034301758,-0.051757812,-0.0087890625,-0.024414062,3.9528482,-9.939724,-56.696945,17.013477,0.52905273,0.114746094,0.80877686,0.013671875,0.016601562,-0.033203125,23.48852,-5.8938737,-128.58855,15.944004,0.0,0.0,0.0,0.0,0.0,0.0,0.0,-13.836145,-128.4491,34.303196,0.0,0.0,0.0,0.0,0.0,0.0,0.0,0.69193095,-0.004993348,-0.7221659,-0.9533081,0.09515381,-0.2501831,0.022460938,-0.16015625,-0.14941406,2.8375218,14.325117,-0.10337779,-14.951074,-0.97857666,-0.007507324,-0.064453125,0.048828125,-0.026367188,-9.765625E-4,3.1368756,14.114421,-56.97771,-11.0356455,0.49517822,0.048828125,0.8864746,0.0146484375,0.01953125,0.001953125,49.16521,13.267835,-128.35161,-1.4597044,0.0,0.0,0.0,0.0,0.0,0.0,0.0,6.029167,-128.16605,17.185394,-0.96325684,-0.13989258,0.033325195,-0.037109375,-0.07519531,0.036132812,0.0,-0.8147789,44.98651,-1.0917215,
1.1523437328287403,59,-0.83184814,-0.28723145,0.54571533,-0.017578125,0.005859375,0.021484375,0.0,0.0,0.0,0.0,0.0,0.0,0.0,0.0,0.0,0.0,0.0,-0.6953965,0.0038666213,0.71884286,-0.9501343,0.031799316,-0.1720581,-0.24902344,0.0126953125,0.01171875,3.4659972,-14.396862,0.080051035,14.882276,-0.9768677,0.054626465,-0.0031738281,-0.033203125,-0.028320312,-0.0234375,4.0618234,-9.960506,-56.7137,17.006556,0.55981445,0.085632324,0.8330078,0.032226562,0.03515625,-0.051757812,23.516388,-5.9430003,-128.60974,15.9064045,0.0,0.0,0.0,0.0,0.0,0.0,0.0,-13.856558,-128.46826,34.276787,0.0,0.0,0.0,0.0,0.0,0.0,0.0,0.6953965,-0.0038666213,-0.71884286,-0.96240234,0.10308838,-0.24499512,0.06347656,-0.12402344,-0.13378906,2.8550591,14.396862,-0.080051035,-14.882276,-0.9954834,0.0049438477,-0.09710693,0.030273438,-0.026367188,-9.765625E-4,3.181985,14.260834,-56.955658,-10.965628,0.50305176,0.03515625,0.8754883,-0.0048828125,0.018554688,-0.016601562,48.883297,13.41515,-128.32455,-1.3540573,0.0,0.0,0.0,0.0,0.0,0.0,0.0,6.2655706,-128.1391,17.327003,-0.98651123,-0.13140869,-0.0012817383,-0.017578125,0.0390625,0.018554688,0.0,-0.8535514,44.98658,-1.0676918,
1.171874982537702,60,-0.824646,-0.2913208,0.5187378,-0.016601562,-0.06933594,0.0390625,0.0,0.0,0.0,0.0,0.0,0.0,0.0,0.0,0.0,0.0,0.0,-0.6962694,0.0027149683,0.71795404,-0.9436035,-0.0018310547,-0.17053223,-0.13574219,-0.0068359375,0.029296875,3.511734,-14.414936,0.05620826,14.863875,-0.98931885,0.007873535,0.038208008,-0.032226562,0.0087890625,-0.0234375,4.119084,-9.886053,-56.726536,17.041876,0.5166626,0.086364746,0.8458252,0.013671875,0.036132812,-0.0146484375,23.33604,-5.844663,-128.61606,15.972509,0.0,0.0,0.0,0.0,0.0,0.0,0.0,-13.691683,-128.46483,34.372765,0.0,0.0,0.0,0.0,0.0,0.0,0.0,0.6962694,-0.0027149683,-0.71795404,-0.9562988,0.08538818,-0.25823975,0.022460938,-0.17871094,-0.12988281,2.8671691,14.414936,-0.05620826,-14.863875,-0.9968872,-0.022583008,-0.07525635,0.029296875,-0.045898438,-9.765625E-4,3.2147324,14.369043,-56.928997,-10.947649,0.51708984,0.028320312,0.87646484,-0.0048828125,0.0,-0.016601562,49.075214,13.530039,-128.29764,-1.3251038,0.0,0.0,0.0,0.0,0.0,0.0,0.0,6.2778068,-128.10988,17.315527,-0.98669434,-0.14935303,0.032165527,-0.09472656,0.01953125,-0.01953125,0.0,-0.9050491,44.98447,-1.0478239,
1.1914062322466636,61,-0.8095703,-0.29333496,0.5074463,0.020507812,-0.049804688,0.001953125,0.0,0.0,0.0,0.0,0.0,0.0,0.0,0.0,0.0,0.0,0.0,-0.697377,0.0033064112,0.7169075,-0.9545288,0.0053710938,-0.18902588,-0.022460938,0.046875,0.029296875,3.5388374,-14.437868,0.06845296,14.842208,-0.97784424,0.023132324,0.051208496,-0.013671875,-0.009765625,-0.0234375,4.0766945,-9.871325,-56.71178,16.986286,0.5211792,0.12158203,0.83148193,0.032226562,0.036132812,-0.033203125,23.30836,-5.762539,-128.60176,15.923708,0.0,0.0,0.0,0.0,0.0,0.0,0.0,-13.625752,-128.44987,34.31663,0.0,0.0,0.0,0.0,0.0,0.0,0.0,0.697377,-0.0033064112,-0.7169075,-0.9532471,0.07745361,-0.2574463,0.009765625,-0.14746094,-0.13671875,2.7743871,14.437868,-0.06845296,-14.842208,-0.9963989,0.0028686523,-0.08117676,-0.0078125,-0.02734375,0.018554688,3.285391,14.45948,-56.94386,-10.950172,0.4977417,0.033447266,0.85858154,-0.0048828125,0.018554688,-0.016601562,49.28636,13.602325,-128.30852,-1.2989635,0.0,0.0,0.0,0.0,0.0,0.0,0.0,6.275326,-128.11592,17.311325,-0.9772949,-0.10845947,0.021118164,-0.017578125,0.0390625,-9.765625E-4,0.0,-0.8985745,44.98482,-1.081567,
1.2109374819556253,62,-0.8043823,-0.29541016,0.47955322,0.01953125,0.005859375,0.020507812,0.0,0.0,0.0,0.0,0.0,0.0,0.0,0.0,0.0,0.0,0.0,-0.6989083,0.0030919537,0.7153827,-0.96832275,0.024230957,-0.16790771,0.034179688,0.046875,0.029296875,3.576153,-14.469568,0.064013034,14.81064,-1.0073242,0.009033203,0.064941406,-0.033203125,-0.028320312,-0.0048828125,4.0761175,-9.803506,-56.707108,16.987177,0.4718628,0.11242676,0.86291504,0.032226562,0.036132812,-0.033203125,23.228392,-5.6106534,-128.59114,15.985569,0.0,0.0,0.0,0.0,0.0,0.0,0.0,-13.473854,-128.42245,34.37791,0.0,0.0,0.0,0.0,0.0,0.0,0.0,0.6989083,-0.0030919537,-0.7153827,-0.95721436,0.06359863,-0.24383545,0.037109375,-0.19433594,-0.12597656,2.6900637,14.469568,-0.064013034,-14.81064,-0.9781494,0.022094727,-0.09124756,0.01171875,-0.0068359375,-0.01953125,3.3581796,14.599263,-56.93958,-10.942795,0.5311279,0.03552246,0.87335205,0.0126953125,-0.07519531,0.0029296875,49.39697,13.734824,-128.3044,-1.2759533,0.0,0.0,0.0,0.0,0.0,0.0,0.0,6.3622303,-128.11421,17.316679,-0.9854126,-0.109313965,0.021118164,9.765625E-4,0.057617188,0.018554688,0.0,-0.9450333,44.98193,-1.1176866,
1.230468731664587,63,-0.82873535,-0.29223633,0.53167725,0.01953125,0.024414062,0.001953125,0.0,0.0,0.0,0.0,0.0,0.0,0.0,0.0,0.0,0.0,0.0,-0.6999898,0.0032607168,0.7143713,-0.9607544,0.061462402,-0.16473389,0.052734375,-0.026367188,0.009765625,3.6858366,-14.491957,0.067506954,14.7897005,-0.9834595,0.0025634766,0.049072266,-0.013671875,0.0087890625,0.013671875,4.118418,-9.714639,-56.6933,17.03135,0.5116577,0.089416504,0.83599854,0.051757812,0.016601562,-0.033203125,23.124012,-5.4462748,-128.57167,16.083746,0.0,0.0,0.0,0.0,0.0,0.0,0.0,-13.294023,-128.39363,34.4818,0.0,0.0,0.0,0.0,0.0,0.0,0.0,0.6999898,-0.0032607168,-0.7143713,-0.9613037,0.076538086,-0.26135254,0.09375,-0.17285156,-0.10546875,2.6177835,14.491957,-0.067506954,-14.7897005,-0.99560547,-0.007019043,-0.07324219,0.01171875,-0.0068359375,-9.765625E-4,3.4358137,14.73478,-56.94222,-10.930551,0.513916,0.02947998,0.8664551,0.032226562,9.765625E-4,0.0029296875,49.266556,13.859806,-128.2988,-1.2304277,0.0,0.0,0.0,0.0,0.0,0.0,0.0,6.5423455,-128.10507,17.384773,-0.95092773,-0.10961914,0.015075684,-0.055664062,0.057617188,0.038085938,0.0,-0.9518197,44.982803,-1.13798,
1.2499999813735487,64,-0.79467773,-0.27557373,0.50927734,0.020507812,-0.0126953125,0.001953125,0.0,0.0,0.0,0.0,0.0,0.0,0.0,0.0,0.0,0.0,0.0,-0.70008504,0.0032481821,0.71422243,-0.96087646,0.051574707,-0.15490723,-0.041015625,-0.025390625,0.029296875,3.7101405,-14.493931,0.067247435,14.786619,-0.98864746,0.032287598,0.059143066,0.005859375,0.0078125,-0.0048828125,4.146615,-9.657285,-56.683804,17.107105,0.5142822,0.12243652,0.8630371,0.013671875,-0.0029296875,-0.033203125,22.995592,-5.329682,-128.56183,16.227938,0.0,0.0,0.0,0.0,0.0,0.0,0.0,-13.150654,-128.37259,34.638535,0.0,0.0,0.0,0.0,0.0,0.0,0.0,0.70008504,-0.0032481821,-0.71422243,-0.95928955,0.08734131,-0.25421143,0.11328125,-0.13476562,-0.12597656,2.560861,14.493931,-0.067247435,-14.786619,-0.9828491,-0.016052246,-0.078308105,0.047851562,-0.02734375,0.017578125,3.5003417,14.747104,-56.946335,-10.959909,0.5059204,0.017333984,0.87158203,-0.0048828125,-0.038085938,0.0029296875,49.37564,13.875552,-128.29991,-1.2187004,0.0,0.0,0.0,0.0,0.0,0.0,0.0,6.513068,-128.09857,17.378725,-0.97839355,-0.12774658,0.00970459,-0.07519531,0.076171875,0.0,0.0,-0.9861578,44.979427,-1.1711978,
1.2695312310825104,65,-0.8276367,-0.29229736,0.51379395,0.01953125,0.005859375,0.001953125,0.0,0.0,0.0,0.0,0.0,0.0,0.0,0.0,0.0,0.0,0.0,-0.7000781,0.0033599762,0.71426225,-0.95825195,0.028015137,-0.1739502,-0.13574219,0.01171875,0.047851562,3.7578604,-14.493789,0.069561936,14.787443,-0.98620605,0.04876709,0.07611084,-0.0126953125,0.02734375,0.033203125,4.14345,-9.619802,-56.679184,17.19384,0.5039673,0.11407471,0.83044434,0.013671875,-0.0029296875,-0.0146484375,22.890821,-5.2195144,-128.55466,16.415527,0.0,0.0,0.0,0.0,0.0,0.0,0.0,-13.032096,-128.3544,34.828346,0.0,0.0,0.0,0.0,0.0,0.0,0.0,0.7000781,-0.0033599762,-0.71426225,-0.9724121,0.09320068,-0.23425293,0.13378906,-0.15332031,-0.08691406,2.523674,14.493789,-0.069561936,-14.787443,-0.9837036,-0.014221191,-0.062438965,0.01171875,-0.026367188,-9.765625E-4,3.556113,14.833277,-56.947235,-10.953581,0.50878906,0.052612305,0.85040283,0.0126953125,-0.017578125,-0.03515625,49.559742,13.954271,-128.29141,-1.1756535,0.0,0.0,0.0,0.0,0.0,0.0,0.0,6.497658,-128.08888,17.385164,-0.9805298,-0.13677979,0.03540039,-0.055664062,0.095703125,0.01953125,0.0,-0.99059427,44.98011,-1.1825144,
1.2890624807914721,66,-0.82958984,-0.27856445,0.48321533,0.01953125,0.024414062,0.001953125,0.0,0.0,0.0,0.0,0.0,0.0,0.0,0.0,0.0,0.0,0.0,-0.7023642,0.003281816,0.7120538,-0.95996094,0.048706055,-0.17077637,0.07128906,-0.0078125,0.06542969,3.7722144,-14.541116,0.067943744,14.74172,-0.9961548,0.045898438,0.025512695,-0.013671875,0.0087890625,0.013671875,4.17082,-9.593777,-56.667645,17.170292,0.5209961,0.110839844,0.82647705,-0.005859375,-0.0029296875,-0.033203125,23.000767,-5.170628,-128.5447,16.415562,0.0,0.0,0.0,0.0,0.0,0.0,0.0,-13.00712,-128.33711,34.818367,0.0,0.0,0.0,0.0,0.0,0.0,0.0,0.7023642,-0.003281816,-0.7120538,-0.9522705,0.09515381,-0.25219727,0.15039062,-0.15136719,-0.08496094,2.5010808,14.541116,-0.067943744,-14.74172,-0.9915161,-0.0051879883,-0.06732178,-0.0078125,-0.0078125,0.017578125,3.5960271,14.95453,-56.94231,-10.869846,0.49871826,0.013427734,0.8616333,-0.005859375,-0.037109375,-0.03515625,49.35427,14.0602255,-128.28038,-1.0375528,0.0,0.0,0.0,0.0,0.0,0.0,0.0,6.668709,-128.07487,17.54855,-0.99072266,-0.14807129,0.012268066,-0.055664062,0.076171875,0.0,0.0,-1.0315272,44.97931,-1.2247972,
1.3085937305004338,67,-0.7908325,-0.27746582,0.5389404,0.056640625,0.04296875,0.020507812,0.0,0.0,0.0,0.0,0.0,0.0,0.0,0.0,0.0,0.0,0.0,-0.7036783,0.0024819123,0.7107069,-0.9537964,0.064575195,-0.21716309,0.09082031,-0.026367188,0.046875,3.7495139,-14.568324,0.051383268,14.713837,-0.9793091,0.043029785,0.04638672,-0.0126953125,0.045898438,0.013671875,4.1233606,-9.580074,-56.68726,17.071037,0.4968872,0.10626221,0.84906006,0.013671875,-0.0029296875,-0.0146484375,23.08511,-5.1649737,-128.5637,16.321167,0.0,0.0,0.0,0.0,0.0,0.0,0.0,-12.997657,-128.34918,34.725815,0.0,0.0,0.0,0.0,0.0,0.0,0.0,0.7036783,-0.0024819123,-0.7107069,-0.95532227,0.092285156,-0.25811768,0.11328125,-0.13476562,-0.12597656,2.5284781,14.568324,-0.051383268,-14.713837,-0.9916382,-0.005004883,-0.08520508,0.01171875,-0.0068359375,-9.765625E-4,3.6151423,15.001051,-56.92475,-10.834311,0.49871826,0.019470215,0.8586426,-0.0048828125,-0.018554688,-0.03515625,49.596767,14.108754,-128.26169,-0.9783478,0.0,0.0,0.0,0.0,0.0,0.0,0.0,6.6289983,-128.05505,17.57148,-1.0078735,-0.11993408,0.03387451,-0.056640625,0.01953125,0.018554688,0.0,-1.0705167,44.97696,-1.2169971,
1.3281249802093955,68,-0.84173584,-0.2814331,0.50823975,0.057617188,-0.0126953125,9.765625E-4,0.0,0.0,0.0,0.0,0.0,0.0,0.0,0.0,0.0,0.0,0.0,-0.7048782,0.0016269563,0.70948005,-0.96710205,0.04309082,-0.1973877,0.09082031,0.009765625,0.046875,3.7385309,-14.593162,0.033683028,14.6884365,-0.9842529,0.045898438,0.06518555,-0.013671875,-0.009765625,0.0146484375,4.078183,-9.574524,-56.705135,16.985828,0.53234863,0.12524414,0.83551025,0.013671875,0.016601562,-0.033203125,23.171688,-5.1592536,-128.58179,16.243624,0.0,0.0,0.0,0.0,0.0,0.0,0.0,-13.004143,-128.36842,34.6436,0.0,0.0,0.0,0.0,0.0,0.0,0.0,0.7048782,-0.0016269563,-0.70948005,-0.95025635,0.09710693,-0.24621582,0.11328125,-0.15332031,-0.10644531,2.5545094,14.593162,-0.033683028,-14.6884365,-0.9902954,0.01361084,-0.094177246,-0.0068359375,-0.0068359375,-9.765625E-4,3.6493192,15.100498,-56.90373,-10.795303,0.5350952,0.028564453,0.8743286,0.032226562,9.765625E-4,-0.016601562,49.43199,14.182956,-128.23921,-0.93283844,0.0,0.0,0.0,0.0,0.0,0.0,0.0,6.7797933,-128.02567,17.646843,-0.99560547,-0.115112305,0.024963379,-0.07519531,-0.018554688,0.017578125,0.0,-1.0979613,44.97566,-1.1939764,
1.3476562299183572,69,-0.82354736,-0.2835083,0.48406982,0.020507812,-0.03125,0.001953125,0.0,0.0,0.0,0.0,0.0,0.0,0.0,0.0,0.0,0.0,0.0,-0.7080333,9.095529E-4,0.70634896,-0.9590454,0.04284668,-0.18566895,-0.07910156,0.06640625,0.047851562,3.7144656,-14.658486,0.018830575,14.623614,-1.0018921,0.023071289,0.042236328,0.005859375,-0.0107421875,0.0146484375,4.126399,-9.634714,-56.713158,16.959742,0.53826904,0.11730957,0.84033203,0.013671875,-0.0029296875,-0.033203125,23.267387,-5.2119765,-128.58861,16.198467,0.0,0.0,0.0,0.0,0.0,0.0,0.0,-13.070914,-128.37474,34.592003,0.0,0.0,0.0,0.0,0.0,0.0,0.0,0.7080333,-9.095529E-4,-0.70634896,-0.95635986,0.105041504,-0.25097656,0.13574219,-0.1171875,-0.109375,2.5689504,14.658486,-0.018830575,-14.623614,-0.9849243,-0.018859863,-0.08325195,0.03125,0.05078125,-0.001953125,3.6812654,15.202955,-56.891537,-10.720797,0.5140381,0.04333496,0.8713989,0.032226562,-0.017578125,-0.015625,49.424873,14.286427,-128.2203,-0.8269043,0.0,0.0,0.0,0.0,0.0,0.0,0.0,6.9046226,-128.0083,17.764036,-0.99871826,-0.12084961,0.019836426,-0.11425781,-0.056640625,-0.001953125,0.0,-1.1295259,44.975502,-1.1901336,
1.367187479627319,70,-0.8060913,-0.24786377,0.5396118,0.020507812,-0.03125,0.001953125,0.0,0.0,0.0,0.0,0.0,0.0,0.0,0.0,0.0,0.0,0.0,-0.71086115,-3.3450965E-4,0.7034678,-0.93896484,0.045532227,-0.21063232,-0.09765625,0.030273438,0.047851562,3.6876955,-14.717031,-0.0069253976,14.563964,-1.0084229,0.039245605,0.035339355,-0.013671875,0.0087890625,0.033203125,4.1661224,-9.678562,-56.737366,16.943016,0.5135498,0.080566406,0.8417969,0.033203125,-0.0029296875,-0.0146484375,23.221579,-5.285449,-128.61212,16.204594,0.0,0.0,0.0,0.0,0.0,0.0,0.0,-13.101917,-128.39012,34.615578,0.0,0.0,0.0,0.0,0.0,0.0,0.0,0.71086115,3.3450965E-4,-0.7034678,-0.9543457,0.1138916,-0.23797607,0.115234375,-0.1171875,-0.12792969,2.635445,14.717031,0.0069253976,-14.563964,-0.97546387,-0.0056762695,-0.05456543,0.01171875,-0.0068359375,-9.765625E-4,3.716995,15.308173,-56.86228,-10.624149,0.52905273,0.02355957,0.8723755,0.013671875,9.765625E-4,-0.016601562,49.281704,14.369823,-128.18188,-0.67562675,0.0,0.0,0.0,0.0,0.0,0.0,0.0,7.0069513,-127.97041,17.922552,-0.9925537,-0.11517334,0.026977539,-0.11425781,-0.057617188,0.055664062,0.0,-1.1764643,44.973763,-1.1674432,
1.3867187293362806,71,-0.817688,-0.2736206,0.49987793,0.020507812,-0.03125,0.001953125,0.0,0.0,0.0,0.0,0.0,0.0,0.0,0.0,0.0,0.0,0.0,-0.71505845,-0.0016805627,0.69920516,-0.9437866,0.06237793,-0.20349121,0.072265625,0.009765625,0.029296875,3.6397023,-14.8039255,-0.03479288,14.475715,-0.99346924,0.03741455,0.05621338,-0.0126953125,0.02734375,0.013671875,4.1057973,-9.755076,-56.765724,16.842339,0.52905273,0.10668945,0.84020996,0.013671875,-0.0029296875,-0.033203125,23.333118,-5.3554993,-128.64273,16.177395,0.0,0.0,0.0,0.0,0.0,0.0,0.0,-13.18557,-128.42366,34.58346,0.0,0.0,0.0,0.0,0.0,0.0,0.0,0.71505845,0.0016805627,-0.69920516,-0.96343994,0.11883545,-0.24072266,0.08496094,-0.087890625,-0.13671875,2.7011013,14.8039255,0.03479288,-14.475715,-0.9788208,0.028625488,-0.060424805,-0.0068359375,-0.0068359375,-9.765625E-4,3.7577562,15.387869,-56.831177,-10.519516,0.51257324,0.007873535,0.8475952,-0.005859375,-0.056640625,-0.016601562,49.13539,14.449493,-128.1418,-0.48856354,0.0,0.0,0.0,0.0,0.0,0.0,0.0,7.091076,-127.92315,18.110271,-0.97839355,-0.13153076,0.0016479492,-0.1328125,-0.095703125,0.055664062,0.0,-1.2265044,44.973164,-1.1462189,
1.4062499790452423,72,-0.81396484,-0.25378418,0.52783203,-0.0546875,-0.049804688,0.021484375,0.0,0.0,0.0,0.0,0.0,0.0,0.0,0.0,0.0,0.0,0.0,-0.7157616,-0.0026364503,0.6984969,-0.96765137,0.07556152,-0.1940918,-0.041015625,-0.0068359375,0.047851562,3.624176,-14.818485,-0.05458269,14.461051,-0.99768066,0.030578613,0.06109619,0.005859375,0.0078125,0.051757812,4.069867,-9.770044,-56.78492,16.840233,0.54418945,0.10827637,0.85198975,0.033203125,-0.021484375,-0.015625,23.175838,-5.3639116,-128.66,16.238676,0.0,0.0,0.0,0.0,0.0,0.0,0.0,-13.148882,-128.43636,34.66455,0.0,0.0,0.0,0.0,0.0,0.0,0.0,0.7157616,0.0026364503,-0.6984969,-0.9624634,0.11785889,-0.2368164,0.037109375,-0.021484375,-0.18554688,2.802188,14.818485,0.05458269,-14.461051,-0.9810791,0.015014648,-0.059448242,-0.0068359375,0.01171875,0.017578125,3.7397356,15.32105,-56.811005,-10.485295,0.5150757,0.036315918,0.8734131,0.03125,-0.055664062,-0.015625,48.975964,14.385804,-128.11082,-0.40130043,0.0,0.0,0.0,0.0,0.0,0.0,0.0,7.0490155,-127.89187,18.206121,-0.98864746,-0.14422607,0.013366699,-0.076171875,-0.11425781,0.07421875,0.0,-1.2508321,44.97381,-1.1119969,
1.425781228754204,73,-0.7967529,-0.27355957,0.5192871,-0.1484375,-0.0126953125,0.041992188,0.0,0.0,0.0,0.0,0.0,0.0,0.0,0.0,0.0,0.0,0.0,-0.7174651,-0.0025769896,0.6967264,-0.942688,0.064208984,-0.18273926,-0.19238281,0.048828125,0.030273438,3.6590714,-14.853751,-0.053351674,14.424397,-0.99505615,0.016845703,0.046142578,0.044921875,0.0068359375,0.0146484375,4.0920854,-9.809808,-56.78187,16.876125,0.5133667,0.12939453,0.85424805,0.033203125,-0.021484375,0.0029296875,23.186144,-5.3715067,-128.65372,16.314718,0.0,0.0,0.0,0.0,0.0,0.0,0.0,-13.146246,-128.42072,34.744556,0.0,0.0,0.0,0.0,0.0,0.0,0.0,0.7174651,0.0025769896,-0.6967264,-0.9633789,0.104003906,-0.23309326,0.01171875,-0.111328125,-0.15820312,2.7860045,14.853751,0.053351674,-14.424397,-0.9716797,-0.005432129,-0.086364746,0.0126953125,0.0126953125,-0.020507812,3.7754836,15.402621,-56.812286,-10.44577,0.5148926,0.0134887695,0.8675537,0.03125,-0.055664062,-0.015625,48.889843,14.435122,-128.11227,-0.34880638,0.0,0.0,0.0,0.0,0.0,0.0,0.0,7.1419606,-127.8937,18.276636,-0.96936035,-0.13867188,0.018432617,-0.056640625,-0.1328125,0.0546875,0.0,-1.2368062,44.97366,-1.1072762,
1.4453124784631657,74,-0.817688,-0.29125977,0.5274658,-0.0546875,-0.0126953125,0.021484375,0.0,0.0,0.0,0.0,0.0,0.0,0.0,0.0,0.0,0.0,0.0,-0.719178,-0.0030440814,0.6950892,-0.96533203,0.0211792,-0.1630249,-0.09765625,0.01171875,0.047851562,3.6614788,-14.8892145,-0.06302192,14.390502,-0.9996338,0.031799316,0.049194336,0.025390625,0.026367188,0.033203125,4.115707,-9.816053,-56.786835,16.888504,0.5150757,0.11682129,0.8324585,0.013671875,-0.0029296875,-0.0146484375,23.197556,-5.352543,-128.66165,16.358435,0.0,0.0,0.0,0.0,0.0,0.0,0.0,-13.126393,-128.42838,34.78822,0.0,0.0,0.0,0.0,0.0,0.0,0.0,0.719178,0.0030440814,-0.6950892,-0.9623413,0.09118652,-0.23730469,0.0107421875,-0.091796875,-0.17871094,2.7383826,14.8892145,0.06302192,-14.390502,-0.99139404,0.013793945,-0.109069824,0.01171875,0.03125,0.016601562,3.8851418,15.457114,-56.80405,-10.461971,0.5286865,0.034057617,0.8424072,0.013671875,-0.037109375,0.0029296875,48.969498,14.446214,-128.09596,-0.30551624,0.0,0.0,0.0,0.0,0.0,0.0,0.0,7.132246,-127.88039,18.309906,-0.9885254,-0.12756348,0.004760742,9.765625E-4,-0.09472656,0.07421875,0.0,-1.2673441,44.976795,-1.114293,
1.4648437281721274,75,-0.7735596,-0.30316162,0.5264282,0.001953125,-0.049804688,0.020507812,0.0,0.0,0.0,0.0,0.0,0.0,0.0,0.0,0.0,0.0,0.0,-0.71888745,-0.0030008978,0.6953632,-0.9351196,0.0345459,-0.19207764,-0.07910156,-0.0068359375,0.047851562,3.738007,-14.883202,-0.062127914,14.396174,-0.9902954,0.043945312,0.0770874,0.0068359375,0.026367188,0.013671875,4.118228,-9.745281,-56.781807,16.917065,0.5209961,0.10583496,0.84606934,0.033203125,0.016601562,-0.0146484375,23.113739,-5.2516603,-128.65866,16.439283,0.0,0.0,0.0,0.0,0.0,0.0,0.0,-13.0028715,-128.41547,34.87749,0.0,0.0,0.0,0.0,0.0,0.0,0.0,0.71888745,0.0030008978,-0.6953632,-0.9623413,0.09118652,-0.23730469,0.0107421875,-0.091796875,-0.17871094,2.740026,14.883202,0.062127914,-14.396174,-0.9836426,-0.008178711,-0.07733154,-0.005859375,0.0126953125,-0.020507812,3.938107,15.451101,-56.804947,-10.467644,0.49505615,0.03503418,0.8795166,0.013671875,-0.018554688,-0.016601562,48.81134,14.398142,-128.08931,-0.25867176,0.0,0.0,0.0,0.0,0.0,0.0,0.0,7.1544037,-127.86812,18.38361,-0.9805298,-0.14135742,0.011413574,0.020507812,-0.09472656,0.09277344,0.0,-1.2622768,44.97619,-1.1108813,
1.484374977881089,76,-0.8083496,-0.31304932,0.50128174,-0.017578125,-0.03125,0.021484375,0.0,0.0,0.0,0.0,0.0,0.0,0.0,0.0,0.0,0.0,0.0,-0.7180436,-0.0029129656,0.696198,-0.9369507,0.04949951,-0.22253418,-0.13574219,0.06640625,0.0107421875,3.6845083,-14.865728,-0.060307417,14.413456,-0.99005127,0.05029297,0.04736328,-0.013671875,0.0087890625,0.013671875,4.083318,-9.76346,-56.781868,16.924091,0.51464844,0.14898682,0.8496094,0.013671875,-0.021484375,-0.015625,23.243412,-5.2747245,-128.6524,16.461838,0.0,0.0,0.0,0.0,0.0,0.0,0.0,-13.052992,-128.40797,34.88835,0.0,0.0,0.0,0.0,0.0,0.0,0.0,0.7180436,0.0029129656,-0.696198,-0.95526123,0.087402344,-0.26812744,0.10253906,-0.06640625,-0.15429688,2.6205487,14.865728,0.060307417,-14.413456,-0.9915161,0.0038452148,-0.09411621,0.0126953125,0.03125,-0.001953125,4.075877,15.340891,-56.821404,-10.645195,0.5310669,0.02960205,0.86938477,0.0126953125,-0.037109375,-0.016601562,48.856487,14.260564,-128.09631,-0.40573692,0.0,0.0,0.0,0.0,0.0,0.0,0.0,7.0384398,-127.88044,18.245989,-1.0037231,-0.12628174,-0.0071411133,0.05859375,-0.055664062,0.07421875,0.0,-1.2716095,44.97446,-1.1233329,
1.5039062275900508,77,-0.8045654,-0.31103516,0.5309448,0.020507812,-0.049804688,0.001953125,0.0,0.0,0.0,0.0,0.0,0.0,0.0,0.0,0.0,0.0,0.0,-0.7174718,-0.0023357593,0.69673616,-0.95617676,0.035095215,-0.22131348,-0.041015625,0.06542969,0.029296875,3.7003639,-14.85389,-0.04835746,14.424598,-0.9857788,0.027160645,0.06213379,-0.0126953125,0.045898438,0.033203125,4.067942,-9.72957,-56.768883,16.917286,0.5091553,0.113708496,0.8678589,0.013671875,-0.001953125,0.00390625,23.218443,-5.232653,-128.64285,16.464521,0.0,0.0,0.0,0.0,0.0,0.0,0.0,-12.9987,-128.39629,34.897797,0.0,0.0,0.0,0.0,0.0,0.0,0.0,0.7174718,0.0023357593,-0.69673616,-0.95526123,0.08148193,-0.27514648,0.11035156,-0.11328125,-0.16308594,2.5386758,14.85389,0.04835746,-14.424598,-0.97857666,-0.0064697266,-0.06842041,0.030273438,-0.0068359375,-0.020507812,4.1612306,15.293629,-56.836044,-10.725864,0.5031128,0.04107666,0.8804321,0.03125,-0.017578125,-0.053710938,49.093327,14.181593,-128.10696,-0.45300484,0.0,0.0,0.0,0.0,0.0,0.0,0.0,6.905829,-127.88451,18.177301,-0.9935303,-0.11669922,-0.0049438477,-0.018554688,-0.09375,-0.001953125,0.0,-1.2634767,44.972332,-1.1503127,
1.5234374772990125,78,-0.8043213,-0.32977295,0.513916,-0.055664062,0.024414062,0.00390625,0.0,0.0,0.0,0.0,0.0,0.0,0.0,0.0,0.0,0.0,0.0,-0.71535987,-0.0012315642,0.6989223,-0.9439087,0.049438477,-0.1809082,-0.041015625,0.06542969,0.047851562,3.7006814,-14.810166,-0.025497211,14.469858,-0.9874878,0.03466797,0.030395508,0.0068359375,0.044921875,0.013671875,4.039584,-9.700912,-56.750534,16.926126,0.50335693,0.13446045,0.8513794,-0.005859375,-0.0029296875,-0.0146484375,23.255602,-5.2142563,-128.62267,16.462698,0.0,0.0,0.0,0.0,0.0,0.0,0.0,-12.970947,-128.37569,34.899612,0.0,0.0,0.0,0.0,0.0,0.0,0.0,0.71535987,0.0012315642,-0.6989223,-0.9633789,0.09136963,-0.27191162,0.12011719,-0.08300781,-0.1328125,2.4547927,14.810166,0.025497211,-14.469858,-0.97857666,-0.007446289,-0.06939697,0.01171875,0.01171875,-0.001953125,4.2220635,15.2379,-56.864708,-10.809607,0.5227051,0.044921875,0.84539795,0.013671875,-0.018554688,0.0029296875,49.06592,14.101752,-128.13388,-0.50862885,0.0,0.0,0.0,0.0,0.0,0.0,0.0,6.8367214,-127.91397,18.125992,-0.9682007,-0.1171875,0.014953613,0.020507812,-0.09375,0.016601562,0.0,-1.2336295,44.972782,-1.1833965,
1.5429687270079742,79,-0.8095703,-0.29919434,0.5133667,0.01953125,-0.0126953125,-0.016601562,0.0,0.0,0.0,0.0,0.0,0.0,0.0,0.0,0.0,0.0,0.0,-0.71377087,2.1883845E-4,0.70058274,-0.9498291,0.05847168,-0.19458008,-0.041015625,0.01171875,0.06640625,3.7608294,-14.777268,0.0045306385,14.504233,-0.9824829,0.06896973,0.042541504,0.0068359375,0.044921875,0.033203125,4.0400205,-9.6341915,-56.714066,16.942984,0.52178955,0.09307861,0.84594727,0.013671875,-0.021484375,-0.034179688,23.234426,-5.1655326,-128.58932,16.490425,0.0,0.0,0.0,0.0,0.0,0.0,0.0,-12.897845,-128.33627,34.93821,0.0,0.0,0.0,0.0,0.0,0.0,0.0,0.71377087,-2.1883845E-4,-0.70058274,-0.9623413,0.09338379,-0.27093506,0.13671875,-0.08105469,-0.13085938,2.3577533,14.777268,-0.0045306385,-14.504233,-0.9815674,-0.0013427734,-0.08227539,0.01171875,0.01171875,-0.001953125,4.2935443,15.137665,-56.894794,-10.902475,0.53723145,0.030456543,0.8812866,0.013671875,-0.018554688,-0.016601562,48.727116,13.967664,-128.15703,-0.5582142,0.0,0.0,0.0,0.0,0.0,0.0,0.0,6.8319864,-127.93646,18.127167,-0.97436523,-0.1270752,0.030639648,0.11621094,-0.055664062,0.0546875,0.0,-1.1958973,44.97364,-1.2324579,
1.5624999767169359,80,-0.7993164,-0.31115723,0.4852295,0.056640625,0.005859375,-0.0546875,0.0,0.0,0.0,0.0,0.0,0.0,0.0,0.0,0.0,0.0,0.0,-0.7117516,0.0016962793,0.7026492,-0.9598999,0.057739258,-0.2033081,0.015625,0.046875,0.047851562,3.7844453,-14.735462,0.035118237,14.547015,-0.9789429,0.053894043,0.046447754,0.0068359375,0.026367188,0.013671875,4.014492,-9.579938,-56.68574,16.962374,0.5118408,0.10015869,0.84503174,0.013671875,-0.0029296875,-0.0146484375,23.201206,-5.1445117,-128.56505,16.54469,0.0,0.0,0.0,0.0,0.0,0.0,0.0,-12.83354,-128.3067,35.008293,0.0,0.0,0.0,0.0,0.0,0.0,0.0,0.7117516,-0.0016962793,-0.7026492,-0.95526123,0.083496094,-0.2810669,0.15527344,-0.09765625,-0.109375,2.2397447,14.735462,-0.035118237,-14.547015,-0.9796753,-0.008300781,-0.07836914,0.0126953125,0.0126953125,-0.020507812,4.3656073,15.080517,-56.9297,-10.993942,0.52893066,0.035705566,0.86035156,0.03125,-0.017578125,-0.03515625,48.791374,13.892477,-128.18456,-0.61603355,0.0,0.0,0.0,0.0,0.0,0.0,0.0,6.7516584,-127.963554,18.066036,-0.96313477,-0.117248535,0.0119018555,0.07714844,-0.11230469,0.0546875,0.0,-1.1686754,44.97321,-1.2923857,
1.5820312264258976,81,-0.80426025,-0.32983398,0.506958,0.09472656,-0.0126953125,-0.055664062,0.0,0.0,0.0,0.0,0.0,0.0,0.0,0.0,0.0,0.0,0.0,-0.708575,0.0023561176,0.70584744,-0.97283936,0.06591797,-0.21289062,-0.00390625,0.046875,0.029296875,3.870295,-14.669701,0.048778944,14.61323,-0.9797363,0.028137207,0.052246094,0.0068359375,0.044921875,0.013671875,3.9978719,-9.476016,-56.669136,17.021397,0.5241699,0.117614746,0.8324585,0.013671875,-0.041015625,-0.034179688,23.26867,-5.022396,-128.54102,16.635994,0.0,0.0,0.0,0.0,0.0,0.0,0.0,-12.727213,-128.28548,35.093864,0.0,0.0,0.0,0.0,0.0,0.0,0.0,0.708575,-0.0023561176,-0.70584744,-0.95318604,0.07165527,-0.2763672,0.11816406,-0.10058594,-0.13085938,2.180411,14.669701,-0.048778944,-14.61323,-0.9914551,0.0068359375,-0.09814453,-0.0068359375,-0.026367188,-0.01953125,4.447965,14.982053,-56.947975,-11.128766,0.51293945,0.022460938,0.8685303,0.032226562,9.765625E-4,-0.03515625,48.65567,13.757793,-128.19876,-0.7270975,0.0,0.0,0.0,0.0,0.0,0.0,0.0,6.6662235,-127.97696,17.974255,-0.9550781,-0.12615967,0.016723633,0.05859375,-0.037109375,0.036132812,0.0,-1.1304153,44.974304,-1.2849078,
1.6015624761348592,82,-0.79541016,-0.31500244,0.5109253,0.09472656,-0.0126953125,-0.09277344,0.0,0.0,0.0,0.0,0.0,0.0,0.0,0.0,0.0,0.0,0.0,-0.70540076,0.00360741,0.70895565,-0.92559814,0.06976318,-0.18597412,0.12792969,0.009765625,0.028320312,3.93099,-14.603983,0.07468456,14.67758,-0.97369385,0.061706543,0.042541504,-0.013671875,0.0087890625,0.013671875,3.971974,-9.4094925,-56.642384,17.068579,0.4928589,0.10736084,0.8421631,0.013671875,-0.021484375,-0.034179688,23.331566,-4.971229,-128.51924,16.709587,0.0,0.0,0.0,0.0,0.0,0.0,0.0,-12.669492,-128.25815,35.17097,0.0,0.0,0.0,0.0,0.0,0.0,0.0,0.70540076,-0.00360741,-0.70895565,-0.96533203,0.07562256,-0.27319336,0.16992188,-0.11328125,-0.10546875,2.0871289,14.603983,-0.07468456,-14.67758,-0.99645996,0.009033203,-0.10900879,-0.0068359375,-0.0068359375,-0.01953125,4.520387,14.924964,-56.978695,-11.236135,0.54071045,0.032165527,0.84436035,0.013671875,9.765625E-4,-0.03515625,48.762062,13.656207,-128.2258,-0.8165293,0.0,0.0,0.0,0.0,0.0,0.0,0.0,6.5468574,-128.0069,17.879162,-0.9906006,-0.12774658,0.02166748,0.0390625,9.765625E-4,0.017578125,0.0,-1.0766139,44.97332,-1.3000553,
1.621093725843821,83,-0.8006592,-0.27661133,0.503479,0.01953125,0.005859375,-0.072265625,0.0,0.0,0.0,0.0,0.0,0.0,0.0,0.0,0.0,0.0,0.0,-0.70391715,0.003478624,0.710488,-0.9313965,0.087768555,-0.21234131,0.07128906,0.009765625,0.047851562,3.9141662,-14.57327,0.072018266,14.709306,-0.98547363,0.036315918,0.04827881,-0.0126953125,0.045898438,0.033203125,3.8924937,-9.406111,-56.65082,17.041126,0.5148926,0.10510254,0.826355,0.033203125,-0.0029296875,-0.033203125,23.34366,-4.964928,-128.52849,16.701923,0.0,0.0,0.0,0.0,0.0,0.0,0.0,-12.650965,-128.26624,35.16793,0.0,0.0,0.0,0.0,0.0,0.0,0.0,0.70391715,-0.003478624,-0.710488,-0.9572754,0.084472656,-0.276062,0.16992188,-0.11328125,-0.10546875,2.0900338,14.57327,-0.072018266,-14.709306,-0.9867554,-0.011962891,-0.086242676,-0.0068359375,-0.0068359375,-0.01953125,4.578768,14.912548,-56.97343,-11.277758,0.5159912,0.02545166,0.86950684,-0.005859375,-0.037109375,-0.016601562,48.41667,13.597906,-128.21788,-0.82168674,0.0,0.0,0.0,0.0,0.0,0.0,0.0,6.6445017,-127.994675,17.931473,-0.97021484,-0.11248779,0.026977539,0.020507812,-0.017578125,0.037109375,0.0,-1.0642955,44.976215,-1.2746608,
1.6406249755527826,84,-0.80682373,-0.28338623,0.5432129,0.09472656,0.024414062,-0.0546875,0.0,0.0,0.0,0.0,0.0,0.0,0.0,0.0,0.0,0.0,0.0,-0.7029037,0.0032341722,0.71141404,-0.94158936,0.07409668,-0.19451904,0.0146484375,0.0107421875,0.06640625,3.8657389,-14.552283,0.0669574,14.728477,-1.0006714,0.028259277,0.025390625,-0.01171875,0.064453125,0.033203125,3.9252567,-9.4082365,-56.65752,17.064486,0.5181885,0.122680664,0.8265991,0.013671875,-0.0029296875,-0.0146484375,23.399231,-4.955519,-128.53464,16.65864,0.0,0.0,0.0,0.0,0.0,0.0,0.0,-12.655249,-128.27255,35.119263,0.0,0.0,0.0,0.0,0.0,0.0,0.0,0.7029037,-0.0032341722,-0.71141404,-0.958313,0.09625244,-0.2649536,0.16796875,-0.12988281,-0.103515625,2.100775,14.552283,-0.0669574,-14.728477,-0.99645996,-0.004211426,-0.059326172,-0.0068359375,-0.0068359375,-9.765625E-4,4.5912857,14.887382,-56.973557,-11.299095,0.51501465,0.025390625,0.87249756,0.0126953125,-0.017578125,-0.03515625,47.978054,13.565561,-128.21312,-0.8339863,0.0,0.0,0.0,0.0,0.0,0.0,0.0,6.7287683,-127.98884,17.962187,-0.97436523,-0.12512207,0.032714844,0.0390625,-0.037109375,0.036132812,0.0,-1.0849731,44.97317,-1.2764473,
1.6601562252617443,85,-0.79956055,-0.2835083,0.49938965,0.09472656,-0.0126953125,-0.055664062,0.0,0.0,0.0,0.0,0.0,0.0,0.0,0.0,0.0,0.0,0.0,-0.7015722,0.0024408773,0.712779,-0.9567261,0.06549072,-0.19537354,-0.022460938,0.029296875,0.029296875,3.8854945,-14.524721,0.05053372,14.756733,-0.9879761,0.051513672,0.029541016,-0.0126953125,0.045898438,0.051757812,3.9737976,-9.374395,-56.67398,17.102737,0.5357666,0.0869751,0.8438721,0.013671875,-0.021484375,-0.034179688,23.25196,-4.9432817,-128.54767,16.656086,0.0,0.0,0.0,0.0,0.0,0.0,0.0,-12.590649,-128.28146,35.136993,0.0,0.0,0.0,0.0,0.0,0.0,0.0,0.7015722,-0.0024408773,-0.712779,-0.9623413,0.09234619,-0.26898193,0.13769531,-0.119140625,-0.091796875,2.1436584,14.524721,-0.05053372,-14.756733,-0.98846436,-0.0032958984,-0.068359375,0.01171875,-0.026367188,-0.01953125,4.633542,14.875029,-56.956593,-11.338337,0.513916,0.0335083,0.8624878,0.013671875,-0.018554688,-0.016601562,48.268394,13.5388155,-128.19466,-0.8461151,0.0,0.0,0.0,0.0,0.0,0.0,0.0,6.6095824,-127.97244,17.91735,-0.9822998,-0.09289551,0.030456543,0.09667969,0.0390625,0.037109375,0.0,-1.0863862,44.976177,-1.2233241,
1.679687474970706,86,-0.82562256,-0.29327393,0.5157471,0.13183594,-0.0126953125,-0.09375,0.0,0.0,0.0,0.0,0.0,0.0,0.0,0.0,0.0,0.0,0.0,-0.6994127,0.0024008388,0.7149091,-0.9671631,0.03930664,-0.22406006,-0.022460938,0.029296875,0.047851562,3.9148164,-14.480012,0.049704798,14.800833,-0.99505615,0.051330566,0.056274414,0.0068359375,0.044921875,0.013671875,3.9434242,-9.336533,-56.673622,17.1097,0.52630615,0.117248535,0.87384033,0.052734375,-0.0029296875,-0.0146484375,23.172417,-4.929862,-128.55325,16.670473,0.0,0.0,0.0,0.0,0.0,0.0,0.0,-12.539232,-128.28299,35.16823,0.0,0.0,0.0,0.0,0.0,0.0,0.0,0.6994127,-0.0024008388,-0.7149091,-0.9623413,0.087402344,-0.262146,0.12207031,-0.08496094,-0.115234375,2.1683497,14.480012,-0.049704798,-14.800833,-0.99194336,-0.01965332,-0.0881958,-0.025390625,-0.0068359375,-9.765625E-4,4.640765,14.834469,-56.95763,-11.379771,0.5239258,0.01763916,0.86450195,-0.0048828125,0.018554688,-0.016601562,47.970634,13.485847,-128.19176,-0.8828306,0.0,0.0,0.0,0.0,0.0,0.0,0.0,6.6563125,-127.9682,17.917683,-0.98950195,-0.09979248,0.040283203,0.05859375,0.057617188,0.076171875,0.0,-1.059108,44.978146,-1.1871985,
1.6992187246796677,87,-0.8104248,-0.31207275,0.50823975,0.09472656,-0.0126953125,-0.037109375,0.0,0.0,0.0,0.0,0.0,0.0,0.0,0.0,0.0,0.0,0.0,-0.69873166,0.002042652,0.71564627,-0.9430542,0.042663574,-0.21160889,0.07128906,0.028320312,0.047851562,3.9293456,-14.465909,0.042289227,14.816097,-0.9959717,0.051879883,0.025512695,-0.013671875,0.0087890625,0.013671875,3.9146667,-9.310701,-56.68715,17.063791,0.53637695,0.12408447,0.8522339,0.013671875,-0.0029296875,-0.0146484375,23.444,-4.9565115,-128.5705,16.630013,0.0,0.0,0.0,0.0,0.0,0.0,0.0,-12.616043,-128.3082,35.106827,0.0,0.0,0.0,0.0,0.0,0.0,0.0,0.69873166,-0.002042652,-0.71564627,-0.9573364,0.091308594,-0.26605225,0.171875,-0.095703125,-0.10839844,2.188475,14.465909,-0.042289227,-14.816097,-0.989563,0.0018920898,-0.09613037,-0.0068359375,-0.026367188,-0.01953125,4.674118,14.836856,-56.948082,-11.399525,0.5266113,0.019042969,0.84350586,0.013671875,-0.018554688,0.0029296875,48.202236,13.447144,-128.18073,-0.8920841,0.0,0.0,0.0,0.0,0.0,0.0,0.0,6.5786037,-127.96512,17.893744,-0.98339844,-0.11413574,0.017028809,0.0390625,-0.017578125,0.037109375,0.0,-1.052769,44.98137,-1.1562756,
1.7187499743886294,88,-0.8057251,-0.2677002,0.49969482,0.09472656,-0.0126953125,-0.055664062,0.0,0.0,0.0,0.0,0.0,0.0,0.0,0.0,0.0,0.0,0.0,-0.69919544,0.0014819866,0.71517813,-0.9569702,0.052978516,-0.23699951,0.034179688,0.028320312,0.047851562,3.8427238,-14.475515,0.030681737,14.806405,-0.97961426,0.03125,0.04333496,-0.0126953125,0.02734375,-0.0048828125,3.8704472,-9.341387,-56.700653,16.991905,0.51971436,0.09124756,0.83703613,0.052734375,-0.021484375,-0.034179688,23.419579,-4.987941,-128.57974,16.529556,0.0,0.0,0.0,0.0,0.0,0.0,0.0,-12.627459,-128.31705,35.014538,0.0,0.0,0.0,0.0,0.0,0.0,0.0,0.69919544,-0.0014819866,-0.71517813,-0.95129395,0.09326172,-0.26507568,0.15527344,-0.1171875,-0.08984375,2.2131088,14.475515,-0.030681737,-14.806405,-0.9928589,-0.019714355,-0.07623291,-0.0068359375,-0.0068359375,-9.765625E-4,4.691603,14.862253,-56.93302,-11.372377,0.50201416,0.034118652,0.8765259,-0.0048828125,-0.018554688,-0.016601562,48.432354,13.469517,-128.16425,-0.8305063,0.0,0.0,0.0,0.0,0.0,0.0,0.0,6.533958,-127.94713,17.928635,-0.9793091,-0.09869385,0.024353027,0.020507812,0.057617188,0.038085938,0.0,-1.094421,44.97967,-1.1631696,
1.7382812240975911,89,-0.78619385,-0.25177002,0.5708618,0.057617188,-0.049804688,-0.036132812,0.0,0.0,0.0,0.0,0.0,0.0,0.0,0.0,0.0,0.0,0.0,-0.6977778,6.450936E-4,0.7164749,-0.94488525,0.053649902,-0.22729492,-0.041015625,0.083984375,0.047851562,3.796482,-14.446164,0.013355449,14.833252,-0.9993286,0.03930664,0.012573242,-0.013671875,0.0087890625,0.013671875,3.8208005,-9.386722,-56.72611,16.979227,0.5317993,0.14959717,0.85058594,0.013671875,-0.0029296875,-0.033203125,23.352709,-5.0688806,-128.61412,16.504286,0.0,0.0,0.0,0.0,0.0,0.0,0.0,-12.662377,-128.34381,35.008255,0.0,0.0,0.0,0.0,0.0,0.0,0.0,0.6977778,-6.450936E-4,-0.7164749,-0.96240234,0.10217285,-0.26086426,0.11816406,-0.10058594,-0.13085938,2.2987397,14.446164,-0.013355449,-14.833252,-0.9755249,-0.0016479492,-0.07043457,0.01171875,-0.0068359375,-9.765625E-4,4.6780553,14.812078,-56.92142,-11.394765,0.5166626,0.032836914,0.8464966,0.013671875,0.01953125,-0.016601562,48.21327,13.417056,-128.15434,-0.85737896,0.0,0.0,0.0,0.0,0.0,0.0,0.0,6.5277677,-127.938965,17.921265,-0.98638916,-0.10046387,0.016296387,0.078125,0.057617188,0.056640625,0.0,-1.0799875,44.978966,-1.0923021,
1.7578124738065528,90,-0.7774658,-0.29144287,0.49884033,0.095703125,-0.087890625,-0.018554688,0.0,0.0,0.0,0.0,0.0,0.0,0.0,0.0,0.0,0.0,0.0,-0.69823277,3.2955874E-4,0.7160751,-0.9607544,0.06463623,-0.19824219,-0.00390625,0.028320312,0.029296875,3.8131564,-14.45558,0.0068228813,14.824975,-0.97454834,0.033935547,0.05029297,-0.03125,0.06542969,-0.0048828125,3.8603148,-9.413916,-56.73565,17.016758,0.4987793,0.0993042,0.8578491,0.052734375,-0.021484375,-0.034179688,23.257755,-5.1043067,-128.62009,16.53235,0.0,0.0,0.0,0.0,0.0,0.0,0.0,-12.671155,-128.34758,35.046364,0.0,0.0,0.0,0.0,0.0,0.0,0.0,0.69823277,-3.2955874E-4,-0.7160751,-0.97039795,0.09625244,-0.2539673,0.0859375,-0.10644531,-0.11621094,2.3260787,14.45558,-0.0068228813,-14.824975,-0.99212646,0.019470215,-0.0871582,-0.0068359375,-0.045898438,-0.018554688,4.702946,14.853649,-56.912605,-11.373201,0.5126953,0.012756348,0.85357666,0.013671875,-0.018554688,0.0029296875,48.314075,13.448112,-128.14023,-0.80758286,0.0,0.0,0.0,0.0,0.0,0.0,0.0,6.5179696,-127.92148,17.954224,-0.97821045,-0.09655762,0.0044555664,0.0390625,0.0390625,0.07519531,0.0,-1.0671389,44.98141,-1.0612508,
1.7773437235155145,91,-0.805603,-0.2952881,0.5152588,0.076171875,-0.03125,-0.017578125,0.0,0.0,0.0,0.0,0.0,0.0,0.0,0.0,0.0,0.0,0.0,-0.69809544,-1.475215E-4,0.716233,-0.9417114,0.062194824,-0.1828003,-0.022460938,0.0107421875,0.029296875,3.8693845,-14.452742,-0.0030541494,14.828244,-0.9797363,0.027404785,0.035339355,-0.013671875,-0.009765625,0.0146484375,3.9164667,-9.371037,-56.73814,17.06372,0.5161743,0.11968994,0.8324585,0.013671875,-0.021484375,-0.015625,23.23434,-5.0315995,-128.62076,16.564825,0.0,0.0,0.0,0.0,0.0,0.0,0.0,-12.605885,-128.3531,35.077515,0.0,0.0,0.0,0.0,0.0,0.0,0.0,0.69809544,1.475215E-4,-0.716233,-0.95428467,0.095214844,-0.25512695,0.123046875,-0.10449219,-0.095703125,2.356591,14.452742,0.0030541494,-14.828244,-0.9796753,-0.008300781,-0.0793457,0.01171875,-0.0068359375,-0.01953125,4.7092733,14.870225,-56.90196,-11.372096,0.5267334,0.043945312,0.84436035,-0.0048828125,0.0,-0.016601562,48.41037,13.460805,-128.12682,-0.8050518,0.0,0.0,0.0,0.0,0.0,0.0,0.0,6.4910808,-127.9171,17.941704,-0.9946289,-0.11993408,0.019897461,0.020507812,0.038085938,0.07519531,0.0,-1.0688505,44.982815,-1.0325186,
1.7968749732244762,92,-0.76452637,-0.29144287,0.5045166,0.01953125,0.024414062,0.001953125,0.0,0.0,0.0,0.0,0.0,0.0,0.0,0.0,0.0,0.0,0.0,-0.6973712,1.6344804E-4,0.71688944,-0.9428711,0.053527832,-0.21447754,0.015625,0.028320312,0.047851562,3.8848898,-14.437744,0.0033838795,14.841834,-0.99542236,0.03869629,0.04333496,-0.013671875,0.0087890625,0.033203125,3.9226117,-9.362032,-56.728462,17.062788,0.5070801,0.10986328,0.8668213,0.033203125,-0.0029296875,-0.0146484375,23.345573,-5.0238624,-128.61191,16.533453,0.0,0.0,0.0,0.0,0.0,0.0,0.0,-12.616072,-128.35066,35.037994,0.0,0.0,0.0,0.0,0.0,0.0,0.0,0.6973712,-1.6344804E-4,-0.71688944,-0.958313,0.093322754,-0.2640381,0.13574219,-0.13671875,-0.08886719,2.353183,14.437744,-0.0033838795,-14.841834,-0.97961426,-3.0517578E-4,-0.09124756,-0.0078125,-0.02734375,0.018554688,4.718997,14.863686,-56.902546,-11.377352,0.5164795,0.038085938,0.83148193,0.0126953125,-0.037109375,-0.016601562,48.68557,13.436573,-128.12645,-0.7998762,0.0,0.0,0.0,0.0,0.0,0.0,0.0,6.375087,-127.92359,17.912994,-1.0026855,-0.10913086,0.021118164,0.020507812,0.01953125,0.11328125,0.0,-1.0493625,44.981735,-1.0310479,
1.816406222933438,93,-0.7987671,-0.28533936,0.5350952,0.01953125,-0.0126953125,-0.03515625,0.0,0.0,0.0,0.0,0.0,0.0,0.0,0.0,0.0,0.0,0.0,-0.696274,-2.4753716E-4,0.71800226,-0.9511719,0.03289795,-0.19476318,0.015625,0.06542969,0.047851562,3.8600614,-14.41503,-0.005124784,14.864871,-0.98150635,0.036865234,0.06518555,-0.013671875,0.0087890625,0.033203125,3.840889,-9.380875,-56.742764,17.03993,0.49090576,0.10925293,0.85498047,0.013671875,-0.021484375,-0.015625,23.37632,-5.019626,-128.6249,16.527222,0.0,0.0,0.0,0.0,0.0,0.0,0.0,-12.629574,-128.36198,35.02379,0.0,0.0,0.0,0.0,0.0,0.0,0.0,0.696274,2.4753716E-4,-0.71800226,-0.9602661,0.08251953,-0.2701416,0.15039062,-0.15136719,-0.08496094,2.3797326,14.41503,0.005124784,-14.864871,-0.97961426,-3.0517578E-4,-0.09124756,-0.0078125,-0.02734375,0.018554688,4.736482,14.859678,-56.899906,-11.409232,0.5291748,0.029418945,0.87835693,0.013671875,-0.018554688,-0.016601562,49.03737,13.432566,-128.12381,-0.8317566,0.0,0.0,0.0,0.0,0.0,0.0,0.0,6.2550864,-127.92305,17.838284,-0.9874878,-0.12176514,0.007873535,9.765625E-4,0.01953125,0.037109375,0.0,-1.0374894,44.98444,-0.9905841,
1.8359374726423996,94,-0.8138428,-0.27746582,0.529541,0.057617188,-0.0126953125,-0.036132812,0.0,0.0,0.0,0.0,0.0,0.0,0.0,0.0,0.0,0.0,0.0,-0.69632435,-6.1444566E-4,0.7178932,-0.9487915,0.059448242,-0.19158936,-0.022460938,0.046875,0.047851562,3.883781,-14.416074,-0.012720939,14.862616,-1.0005493,0.03479004,0.05218506,-0.0126953125,0.02734375,0.013671875,3.8898265,-9.349407,-56.750195,17.048954,0.53240967,0.13116455,0.83361816,0.033203125,-0.021484375,-0.015625,23.392859,-4.977425,-128.62894,16.496525,0.0,0.0,0.0,0.0,0.0,0.0,0.0,-12.593805,-128.36841,34.990997,0.0,0.0,0.0,0.0,0.0,0.0,0.0,0.69632435,6.1444566E-4,-0.7178932,-0.9572754,0.088378906,-0.269104,0.13769531,-0.119140625,-0.091796875,2.412326,14.416074,0.012720939,-14.862616,-0.9975586,-0.008972168,-0.06628418,0.030273438,-0.0078125,-9.765625E-4,4.7715898,14.873053,-56.88517,-11.387976,0.5126343,0.049865723,0.84039307,0.013671875,9.765625E-4,-0.03515625,49.158924,13.401463,-128.10266,-0.7682266,0.0,0.0,0.0,0.0,0.0,0.0,0.0,6.188343,-127.90487,17.886873,-0.97821045,-0.08428955,0.03857422,0.05859375,0.0390625,0.037109375,0.0,-1.0489886,44.982487,-0.9789715,
1.8554687223513613,95,-0.81640625,-0.32287598,0.5192261,0.01953125,-0.0126953125,-0.03515625,0.0,0.0,0.0,0.0,0.0,0.0,0.0,0.0,0.0,0.0,0.0,-0.6956128,-6.252555E-4,0.71853966,-0.95428467,0.023986816,-0.1720581,0.034179688,0.0107421875,0.047851562,3.9316375,-14.4013405,-0.012944731,14.8759985,-0.96917725,0.04321289,0.016601562,-0.032226562,0.02734375,0.013671875,3.924209,-9.303282,-56.744366,17.061707,0.5162964,0.12036133,0.8718872,-0.005859375,-0.021484375,-0.015625,23.390621,-4.924514,-128.62254,16.478174,0.0,0.0,0.0,0.0,0.0,0.0,0.0,-12.546745,-128.36569,34.971367,0.0,0.0,0.0,0.0,0.0,0.0,0.0,0.6956128,6.252555E-4,-0.71853966,-0.9562378,0.07952881,-0.2692871,0.10546875,-0.10644531,-0.09765625,2.4140294,14.4013405,0.012944731,-14.8759985,-0.99346924,-1.2207031E-4,-0.080200195,0.0107421875,-0.045898438,0.0,4.778113,14.862747,-56.886578,-11.408703,0.5211792,0.03527832,0.8814087,0.013671875,9.765625E-4,-0.016601562,49.421432,13.405841,-128.09972,-0.7866554,0.0,0.0,0.0,0.0,0.0,0.0,0.0,6.110281,-127.90362,17.836494,-0.9934082,-0.09063721,0.014587402,0.020507812,0.0390625,0.056640625,0.0,-1.0384231,44.98162,-0.96614766,
1.874999972060323,96,-0.82562256,-0.29327393,0.5117798,0.056640625,0.005859375,-0.0546875,0.0,0.0,0.0,0.0,0.0,0.0,0.0,0.0,0.0,0.0,0.0,-0.69594306,-8.072313E-4,0.7182414,-0.9484863,0.086242676,-0.23284912,0.052734375,-0.0078125,0.047851562,3.8530037,-14.408179,-0.016712194,14.869824,-1.0007324,0.029785156,0.054138184,-0.0126953125,0.02734375,0.033203125,3.920015,-9.352852,-56.75449,17.053383,0.5037842,0.10333252,0.82928467,0.013671875,-0.021484375,-0.034179688,23.309593,-4.955694,-128.63461,16.430977,0.0,0.0,0.0,0.0,0.0,0.0,0.0,-12.560772,-128.37813,34.931328,0.0,0.0,0.0,0.0,0.0,0.0,0.0,0.69594306,8.072313E-4,-0.7182414,-0.9623413,0.08337402,-0.25134277,0.17480469,-0.07910156,-0.11035156,2.382445,14.408179,0.016712194,-14.869824,-0.9807129,-0.014221191,-0.06842041,0.0107421875,-0.02734375,0.017578125,4.79665,14.783312,-56.89015,-11.467632,0.5170288,0.027404785,0.8724365,0.032226562,-0.017578125,0.0029296875,49.40573,13.317795,-128.10687,-0.8565674,0.0,0.0,0.0,0.0,0.0,0.0,0.0,6.017867,-127.906456,17.766115,-0.99053955,-0.10748291,0.034118652,-0.017578125,-0.018554688,0.017578125,0.0,-1.0639951,44.981422,-0.980408,
1.8945312217692847,97,-0.8059082,-0.2715454,0.54333496,0.076171875,-0.0126953125,-0.036132812,0.0,0.0,0.0,0.0,0.0,0.0,0.0,0.0,0.0,0.0,0.0,-0.6962221,-0.0012343889,0.71802175,-0.9286499,0.06793213,-0.20269775,0.034179688,0.028320312,0.047851562,3.8110504,-14.413956,-0.025555685,14.865276,-0.98516846,0.044006348,-2.4414062E-4,-0.0126953125,0.02734375,0.033203125,3.9181166,-9.390787,-56.768055,17.01782,0.5410156,0.10467529,0.81848145,0.013671875,-0.021484375,-0.015625,23.404486,-5.0296507,-128.64775,16.356094,0.0,0.0,0.0,0.0,0.0,0.0,0.0,-12.635256,-128.3937,34.85405,0.0,0.0,0.0,0.0,0.0,0.0,0.0,0.6962221,0.0012343889,-0.71802175,-0.96032715,0.09411621,-0.2333374,0.14160156,-0.20019531,-0.095703125,2.4013479,14.413956,0.025555685,-14.865276,-0.98773193,-0.010009766,-0.08123779,0.0107421875,-0.02734375,0.017578125,4.8010178,14.849978,-56.883083,-11.444096,0.51690674,0.03253174,0.8654175,0.013671875,0.0,0.0029296875,49.47788,13.365639,-128.09598,-0.84657574,0.0,0.0,0.0,0.0,0.0,0.0,0.0,6.0214725,-127.89627,17.75782,-0.9883423,-0.09442139,-0.003479004,-0.055664062,0.057617188,0.0,0.0,-1.0710812,44.98333,-0.9612292,
1.9140624714782464,98,-0.78845215,-0.30322266,0.51086426,0.020507812,-0.0126953125,0.001953125,0.0,0.0,0.0,0.0,0.0,0.0,0.0,0.0,0.0,0.0,0.0,-0.6971433,-0.0020119287,0.71708226,-0.9387207,0.06414795,-0.19268799,-0.060546875,0.06542969,0.047851562,3.8135674,-14.433027,-0.041653153,14.845827,-0.9729004,0.055603027,0.05340576,-0.032226562,0.0087890625,0.013671875,3.9058022,-9.406773,-56.786247,17.005327,0.5300293,0.10662842,0.8441162,0.013671875,-0.021484375,-0.034179688,23.59974,-5.082,-128.66757,16.393532,0.0,0.0,0.0,0.0,0.0,0.0,0.0,-12.724888,-128.41574,34.87687,0.0,0.0,0.0,0.0,0.0,0.0,0.0,0.6971433,0.0020119287,-0.71708226,-0.9533081,0.10021973,-0.26885986,0.11328125,-0.15332031,-0.10644531,2.4812024,14.433027,0.041653153,-14.845827,-0.9924927,-0.0021972656,-0.072265625,0.0126953125,0.032226562,-0.020507812,4.8013854,14.900905,-56.85759,-11.377087,0.5239258,0.047668457,0.8583374,0.013671875,9.765625E-4,-0.016601562,49.38579,13.393758,-128.07156,-0.74830246,0.0,0.0,0.0,0.0,0.0,0.0,0.0,6.0634966,-127.87503,17.861471,-0.9935913,-0.12371826,0.01184082,0.020507812,0.0390625,0.037109375,0.0,-1.0820975,44.98241,-0.9258013,
1.933593721187208,99,-0.81677246,-0.29125977,0.5393677,0.057617188,0.005859375,9.765625E-4,0.0,0.0,0.0,0.0,0.0,0.0,0.0,0.0,0.0,0.0,0.0,-0.6974264,-0.0021965448,0.7168449,-0.9398804,0.048339844,-0.17901611,-0.060546875,0.029296875,0.047851562,3.851326,-14.43889,-0.04547529,14.840912,-0.9847412,0.02734375,0.050231934,-0.0126953125,0.0087890625,-0.0048828125,3.9117138,-9.405985,-56.78753,16.999771,0.50476074,0.09729004,0.8518677,0.013671875,-0.021484375,-0.015625,23.73823,-5.111313,-128.67328,16.401573,0.0,0.0,0.0,0.0,0.0,0.0,0.0,-12.782053,-128.41734,34.874763,0.0,0.0,0.0,0.0,0.0,0.0,0.0,0.6974264,0.0021965448,-0.7168449,-0.9573364,0.097229004,-0.2630005,0.09277344,-0.07519531,-0.103515625,2.5301807,14.43889,0.04547529,-14.840912,-0.9804077,0.0064697266,-0.08428955,0.030273438,-0.026367188,-0.01953125,4.7830305,14.880695,-56.85722,-11.356585,0.5,0.03918457,0.87249756,-0.0048828125,-0.018554688,0.0029296875,49.25927,13.361213,-128.07365,-0.7255764,0.0,0.0,0.0,0.0,0.0,0.0,0.0,6.0943737,-127.8805,17.909967,-0.9783325,-0.10668945,0.04107666,9.765625E-4,0.01953125,0.037109375,0.0,-1.064415,44.984642,-0.89774,
1.9531249708961698,100,-0.796875,-0.2715454,0.5371704,0.020507812,-0.0126953125,0.020507812,0.0,0.0,0.0,0.0,0.0,0.0,0.0,0.0,0.0,0.0,0.0,-0.69722795,-0.0024867072,0.71704394,-0.95495605,0.049682617,-0.18859863,-0.041015625,0.06542969,0.047851562,3.86822,-14.43478,-0.051482543,14.845031,-0.994812,0.023986816,0.032287598,-0.013671875,0.0087890625,0.033203125,3.9744384,-9.384329,-56.79086,17.028063,0.5241089,0.109558105,0.8609009,0.033203125,-0.021484375,-0.034179688,23.750292,-5.0997677,-128.67903,16.388126,0.0,0.0,0.0,0.0,0.0,0.0,0.0,-12.754763,-128.4252,34.868267,0.0,0.0,0.0,0.0,0.0,0.0,0.0,0.69722795,0.0024867072,-0.71704394,-0.9572754,0.082458496,-0.26324463,0.12011719,-0.12109375,-0.09375,2.5371335,14.43478,0.051482543,-14.845031,-0.97961426,-0.007446289,-0.06744385,0.01171875,-0.0068359375,-0.01953125,4.789334,14.906366,-56.845547,-11.359604,0.5027466,0.028503418,0.85858154,-0.0048828125,-0.018554688,-0.016601562,49.449993,13.364901,-128.06038,-0.74703217,0.0,0.0,0.0,0.0,0.0,0.0,0.0,6.0488105,-127.86495,17.867504,-1.0005493,-0.08483887,0.02368164,-0.017578125,0.01953125,0.037109375,0.0,-1.0728889,44.98487,-0.88723135,
1.9726562206051315,101,-0.80682373,-0.27941895,0.53533936,0.020507812,-0.03125,-0.03515625,0.0,0.0,0.0,0.0,0.0,0.0,0.0,0.0,0.0,0.0,0.0,-0.69670045,-0.0025947057,0.7175416,-0.9489746,0.047729492,-0.2084961,-0.060546875,0.047851562,0.06640625,3.8722677,-14.423861,-0.053718444,14.855336,-1.0112915,0.044189453,0.042297363,0.005859375,0.0078125,0.0146484375,3.9157667,-9.390735,-56.796432,17.006811,0.53570557,0.08514404,0.8270874,-0.005859375,-0.041015625,-0.015625,23.634996,-5.100514,-128.68172,16.39639,0.0,0.0,0.0,0.0,0.0,0.0,0.0,-12.715954,-128.4464,34.89106,0.0,0.0,0.0,0.0,0.0,0.0,0.0,0.69670045,0.0025947057,-0.7175416,-0.9533081,0.092285156,-0.26409912,0.103515625,-0.12402344,-0.09472656,2.564909,14.423861,0.053718444,-14.855336,-0.9995117,-0.001953125,-0.08312988,-0.0068359375,0.01171875,0.017578125,4.8227987,14.902202,-56.849483,-11.361205,0.5126953,0.041809082,0.845459,0.013671875,-0.018554688,-0.016601562,49.91627,13.325456,-128.05759,-0.71345043,0.0,0.0,0.0,0.0,0.0,0.0,0.0,5.8728986,-127.86732,17.847363,-0.97735596,-0.11425781,0.021972656,-0.037109375,9.765625E-4,0.017578125,0.0,-1.0557745,44.985287,-0.8624377,
1.9921874703140932,102,-0.81188965,-0.25976562,0.5158081,0.020507812,-0.03125,-0.03515625,0.0,0.0,0.0,0.0,0.0,0.0,0.0,0.0,0.0,0.0,0.0,-0.6968218,-0.0025040302,0.7174345,-0.93688965,0.050476074,-0.21759033,0.015625,0.0107421875,0.047851562,3.885041,-14.4263735,-0.051841184,14.853119,-0.98876953,0.0256958,0.03729248,-0.032226562,0.0087890625,0.033203125,3.9393501,-9.376648,-56.792984,17.001848,0.54418945,0.11138916,0.8323364,0.013671875,-0.0029296875,-0.033203125,23.678726,-5.0737658,-128.67847,16.358553,0.0,0.0,0.0,0.0,0.0,0.0,0.0,-12.708,-128.44987,34.84511,0.0,0.0,0.0,0.0,0.0,0.0,0.0,0.6968218,0.0025040302,-0.7174345,-0.9562988,0.09515381,-0.24523926,0.06542969,-0.10644531,-0.13574219,2.5763304,14.4263735,0.051841184,-14.853119,-0.98583984,0.03491211,-0.086242676,0.01171875,0.01171875,-0.001953125,4.8428636,14.872247,-56.846943,-11.351248,0.510437,0.010009766,0.83862305,-0.0048828125,-0.018554688,-0.016601562,49.719784,13.272069,-128.04895,-0.65491676,0.0,0.0,0.0,0.0,0.0,0.0,0.0,5.893788,-127.853584,17.935215,-0.97631836,-0.115112305,0.007019043,-0.017578125,0.01953125,0.018554688,0.0,-1.0560651,44.985508,-0.8687122,
2.011718720023055,103,-0.80963135,-0.29327393,0.51934814,9.765625E-4,0.005859375,0.001953125,0.0,0.0,0.0,0.0,0.0,0.0,0.0,0.0,0.0,0.0,0.0,-0.69739,-0.0027617877,0.7169137,-0.95111084,0.039916992,-0.21246338,0.072265625,0.064453125,0.029296875,3.8836293,-14.438137,-0.057177573,14.842335,-0.9974365,0.037841797,0.039367676,-0.032226562,0.0087890625,-0.0048828125,3.954086,-9.394844,-56.80182,16.984327,0.5437622,0.0869751,0.82714844,-0.005859375,0.016601562,-0.033203125,23.505028,-5.0990686,-128.68315,16.309906,0.0,0.0,0.0,0.0,0.0,0.0,0.0,-12.673363,-128.45557,34.82159,0.0,0.0,0.0,0.0,0.0,0.0,0.0,0.69739,0.0027617877,-0.7169137,-0.9603882,0.101135254,-0.24707031,0.12011719,-0.08300781,-0.1328125,2.5888362,14.438137,0.057177573,-14.842335,-0.98547363,0.0026245117,-0.08026123,0.01171875,-0.0068359375,-9.765625E-4,4.881825,14.898643,-56.844658,-11.341129,0.5255127,0.036193848,0.83239746,0.013671875,0.0,0.0029296875,50.081497,13.269767,-128.03975,-0.61224174,0.0,0.0,0.0,0.0,0.0,0.0,0.0,5.7743626,-127.85106,17.932129,-0.99560547,-0.109191895,0.020141602,9.765625E-4,9.765625E-4,-0.020507812,0.0,-1.0549265,44.986877,-0.8528935,
