TOTAL_TIME,0m36s
TOTAL_FRAMES,1862
SELECTED_FRAMES,1862
NO_OF_JOINTS,12
FREQUENCY,51.2
DESCRIPTION,Capture 21
TIME_STAMP,Oct 11, 2010

Time,Frame,Pelvis_accelX_Pelvis,Pelvis_accelY_Pelvis,Pelvis_accelZ_Pelvis,Pelvis_gyroX_Pelvis,Pelvis_gyroY_Pelvis,Pelvis_gyroZ_Pelvis,Pelvis_Joint angle_Pelvis,Pelvis_Relative pos X_Pelvis,Pelvis_Relative pos Y_Pelvis,Pelvis_Relative pos Z_Pelvis,RightPelvis_accelX_RightPelvis,RightPelvis_accelY_RightPelvis,RightPelvis_accelZ_RightPelvis,RightPelvis_gyroX_RightPelvis,RightPelvis_gyroY_RightPelvis,RightPelvis_gyroZ_RightPelvis,RightPelvis_Joint angle_RightPelvis,RightPelvis_Relative pos X_RightPelvis,RightPelvis_Relative pos Y_RightPelvis,RightPelvis_Relative pos Z_RightPelvis,RightUpLeg_accelX_RightUpLeg,RightUpLeg_accelY_RightUpLeg,RightUpLeg_accelZ_RightUpLeg,RightUpLeg_gyroX_RightUpLeg,RightUpLeg_gyroY_RightUpLeg,RightUpLeg_gyroZ_RightUpLeg,RightUpLeg_Joint angle_RightUpLeg,RightUpLeg_Relative pos X_RightUpLeg,RightUpLeg_Relative pos Y_RightUpLeg,RightUpLeg_Relative pos Z_RightUpLeg,RightLeg_accelX_RightLeg,RightLeg_accelY_RightLeg,RightLeg_accelZ_RightLeg,RightLeg_gyroX_RightLeg,RightLeg_gyroY_RightLeg,RightLeg_gyroZ_RightLeg,RightLeg_Joint angle_RightLeg,RightLeg_Relative pos X_RightLeg,RightLeg_Relative pos Y_RightLeg,RightLeg_Relative pos Z_RightLeg,RightFoot_accelX_RightFoot,RightFoot_accelY_RightFoot,RightFoot_accelZ_RightFoot,RightFoot_gyroX_RightFoot,RightFoot_gyroY_RightFoot,RightFoot_gyroZ_RightFoot,RightFoot_Joint angle_RightFoot,RightFoot_Relative pos X_RightFoot,RightFoot_Relative pos Y_RightFoot,RightFoot_Relative pos Z_RightFoot,RightFootEnd_accelX_RightFootEnd,RightFootEnd_accelY_RightFootEnd,RightFootEnd_accelZ_RightFootEnd,RightFootEnd_gyroX_RightFootEnd,RightFootEnd_gyroY_RightFootEnd,RightFootEnd_gyroZ_RightFootEnd,RightFootEnd_Joint angle_RightFootEnd,RightFootEnd_Relative pos X_RightFootEnd,RightFootEnd_Relative pos Y_RightFootEnd,RightFootEnd_Relative pos Z_RightFootEnd,LeftPelvis_accelX_LeftPelvis,LeftPelvis_accelY_LeftPelvis,LeftPelvis_accelZ_LeftPelvis,LeftPelvis_gyroX_LeftPelvis,LeftPelvis_gyroY_LeftPelvis,LeftPelvis_gyroZ_LeftPelvis,LeftPelvis_Joint angle_LeftPelvis,LeftPelvis_Relative pos X_LeftPelvis,LeftPelvis_Relative pos Y_LeftPelvis,LeftPelvis_Relative pos Z_LeftPelvis,LeftUpLeg_accelX_LeftUpLeg,LeftUpLeg_accelY_LeftUpLeg,LeftUpLeg_accelZ_LeftUpLeg,LeftUpLeg_gyroX_LeftUpLeg,LeftUpLeg_gyroY_LeftUpLeg,LeftUpLeg_gyroZ_LeftUpLeg,LeftUpLeg_Joint angle_LeftUpLeg,LeftUpLeg_Relative pos X_LeftUpLeg,LeftUpLeg_Relative pos Y_LeftUpLeg,LeftUpLeg_Relative pos Z_LeftUpLeg,LeftLeg_accelX_LeftLeg,LeftLeg_accelY_LeftLeg,LeftLeg_accelZ_LeftLeg,LeftLeg_gyroX_LeftLeg,LeftLeg_gyroY_LeftLeg,LeftLeg_gyroZ_LeftLeg,LeftLeg_Joint angle_LeftLeg,LeftLeg_Relative pos X_LeftLeg,LeftLeg_Relative pos Y_LeftLeg,LeftLeg_Relative pos Z_LeftLeg,LeftFoot_accelX_LeftFoot,LeftFoot_accelY_LeftFoot,LeftFoot_accelZ_LeftFoot,LeftFoot_gyroX_LeftFoot,LeftFoot_gyroY_LeftFoot,LeftFoot_gyroZ_LeftFoot,LeftFoot_Joint angle_LeftFoot,LeftFoot_Relative pos X_LeftFoot,LeftFoot_Relative pos Y_LeftFoot,LeftFoot_Relative pos Z_LeftFoot,LeftFootEnd_accelX_LeftFootEnd,LeftFootEnd_accelY_LeftFootEnd,LeftFootEnd_accelZ_LeftFootEnd,LeftFootEnd_gyroX_LeftFootEnd,LeftFootEnd_gyroY_LeftFootEnd,LeftFootEnd_gyroZ_LeftFootEnd,LeftFootEnd_Joint angle_LeftFootEnd,LeftFootEnd_Relative pos X_LeftFootEnd,LeftFootEnd_Relative pos Y_LeftFootEnd,LeftFootEnd_Relative pos Z_LeftFootEnd,Spine_accelX_Spine,Spine_accelY_Spine,Spine_accelZ_Spine,Spine_gyroX_Spine,Spine_gyroY_Spine,Spine_gyroZ_Spine,Spine_Joint angle_Spine,Spine_Relative pos X_Spine,Spine_Relative pos Y_Spine,Spine_Relative pos Z_Spine,
0.0,0,0.0,0.0,0.0,0.0,0.0,0.0,0.0,0.0,0.0,0.0,0.0,0.0,0.0,0.0,0.0,0.0,0.0,0.0,0.0,0.0,0.0,0.0,0.0,0.0,0.0,0.0,NaN,0.0,0.0,0.0,0.0,0.0,0.0,0.0,0.0,0.0,NaN,0.0,0.0,0.0,0.0,0.0,0.0,0.0,0.0,0.0,NaN,0.0,0.0,0.0,0.0,0.0,0.0,0.0,0.0,0.0,0.0,0.0,0.0,0.0,0.0,0.0,0.0,0.0,0.0,0.0,0.0,0.0,0.0,0.0,0.0,0.0,0.0,0.0,0.0,0.0,NaN,0.0,0.0,0.0,0.0,0.0,0.0,0.0,0.0,0.0,NaN,0.0,0.0,0.0,0.0,0.0,0.0,0.0,0.0,0.0,NaN,0.0,0.0,0.0,0.0,0.0,0.0,0.0,0.0,0.0,0.0,0.0,0.0,0.0,0.0,0.0,0.0,0.0,0.0,0.0,0.0,0.0,0.0,0.0,
0.0195312497089617,1,0.0,0.0,0.0,0.0,0.0,0.0,0.0,0.0,0.0,0.0,0.0,0.0,0.0,0.0,0.0,0.0,0.0,0.0,0.0,0.0,0.0,0.0,0.0,0.0,0.0,0.0,NaN,0.0,0.0,0.0,0.0,0.0,0.0,0.0,0.0,0.0,NaN,0.0,0.0,0.0,0.0,0.0,0.0,0.0,0.0,0.0,NaN,0.0,0.0,0.0,0.0,0.0,0.0,0.0,0.0,0.0,0.0,0.0,0.0,0.0,0.0,0.0,0.0,0.0,0.0,0.0,0.0,0.0,0.0,0.0,0.0,0.0,0.0,0.0,0.0,0.0,NaN,0.0,0.0,0.0,0.0,0.0,0.0,0.0,0.0,0.0,NaN,0.0,0.0,0.0,0.0,0.0,0.0,0.0,0.0,0.0,NaN,0.0,0.0,0.0,0.0,0.0,0.0,0.0,0.0,0.0,0.0,0.0,0.0,0.0,0.0,0.0,0.0,0.0,0.0,0.0,0.0,0.0,0.0,0.0,
0.0390624994179234,2,0.0,0.0,0.0,0.0,0.0,0.0,0.0,0.0,0.0,0.0,0.0,0.0,0.0,0.0,0.0,0.0,0.0,0.0,0.0,0.0,0.0,0.0,0.0,0.0,0.0,0.0,NaN,0.0,0.0,0.0,0.0,0.0,0.0,0.0,0.0,0.0,NaN,0.0,0.0,0.0,0.0,0.0,0.0,0.0,0.0,0.0,NaN,0.0,0.0,0.0,0.0,0.0,0.0,0.0,0.0,0.0,0.0,0.0,0.0,0.0,0.0,0.0,0.0,0.0,0.0,0.0,0.0,0.0,0.0,0.0,0.0,0.0,0.0,0.0,0.0,0.0,NaN,0.0,0.0,0.0,0.0,0.0,0.0,0.0,0.0,0.0,NaN,0.0,0.0,0.0,0.0,0.0,0.0,0.0,0.0,0.0,NaN,0.0,0.0,0.0,0.0,0.0,0.0,0.0,0.0,0.0,0.0,0.0,0.0,0.0,0.0,0.0,0.0,0.0,0.0,0.0,0.0,0.0,0.0,0.0,
0.0585937491268851,3,-0.8040161,-0.258667,0.5484009,0.01953125,-0.049804688,-0.12890625,0.0,0.0,0.0,0.0,0.0,0.0,0.0,0.0,0.0,0.0,0.0,0.109895915,-0.052127957,0.9926535,-0.9053345,0.01586914,-0.29449463,-0.00390625,0.0107421875,0.029296875,1.614467,2.2751858,-1.0792103,20.551004,-0.9840698,-0.020507812,0.009277344,-0.0068359375,0.26953125,-0.043945312,5.1384687,0.032895327,-58.029327,19.425087,0.53741455,0.12506104,0.8512573,0.033203125,-0.0029296875,-0.033203125,64.05225,4.229988,-129.8381,15.993777,0.0,0.0,0.0,0.0,0.0,0.0,0.0,23.882101,-129.41693,12.29454,0.0,0.0,0.0,0.0,0.0,0.0,0.0,-0.109895915,0.052127957,-0.9926535,0.0,0.0,0.0,0.0,0.0,0.0,NaN,-2.2751858,1.0792103,-20.551004,-0.98431396,-0.119018555,-0.064819336,0.041992188,1.265625,0.68359375,NaN,-2.2751858,1.0792103,-20.551004,0.49316406,0.09490967,0.8742676,0.5234375,1.2089844,0.6796875,24.779947,-2.9933252,-70.71816,-15.096945,0.0,0.0,0.0,0.0,0.0,0.0,0.0,14.071294,-71.27114,-4.6774426,0.0,0.0,0.0,0.0,0.0,0.0,0.0,1.8545423,44.91368,2.1532707,
0.0781249988358468,4,-0.81365967,-0.29815674,0.5352783,0.0,0.025390625,-0.109375,0.0,0.0,0.0,0.0,0.0,0.0,0.0,0.0,0.0,0.0,0.0,0.10777131,-0.050191864,0.99304473,-0.9254761,0.009277344,-0.28631592,-0.060546875,0.029296875,0.029296875,1.5150409,2.2311997,-1.0391272,20.559103,-0.99194336,0.018432617,0.003540039,-0.01171875,0.064453125,-0.08105469,5.109101,0.001663208,-57.990993,19.440496,0.5272217,0.119506836,0.8305054,0.033203125,-0.0029296875,-0.033203125,63.90666,4.0788484,-129.79047,15.777473,0.0,0.0,0.0,0.0,0.0,0.0,0.0,23.721445,-129.38547,12.028773,0.0,0.0,0.0,0.0,0.0,0.0,0.0,-0.10777131,0.050191864,-0.99304473,-0.9713745,0.07543945,-0.23358154,0.06640625,-0.12597656,-0.11621094,7.58654,-2.2311997,1.0391272,-20.559103,-0.9863281,-0.1171875,-0.05480957,0.0029296875,1.0009766,0.58496094,2.6445646,-7.536962,-55.554623,-16.218563,0.4758911,0.085998535,0.8614502,0.3076172,0.68066406,0.36035156,25.622036,-9.982668,-127.32608,-10.891243,0.0,0.0,0.0,0.0,0.0,0.0,0.0,6.959427,-127.7315,-0.26529884,0.0,0.0,0.0,0.0,0.0,0.0,0.0,1.8973947,44.918686,2.0644264,
0.09765624854480849,5,-0.7955322,-0.2874756,0.49926758,-0.017578125,-0.0126953125,-0.12792969,0.0,0.0,0.0,0.0,0.0,0.0,0.0,0.0,0.0,0.0,0.0,0.10771963,-0.04825547,0.993135,-0.9154663,0.007080078,-0.27563477,-0.00390625,0.08300781,0.029296875,1.4031874,2.2301304,-0.99903786,20.560974,-0.9869385,0.018066406,0.0154418945,-0.013671875,-0.0107421875,0.033203125,5.0177827,0.004543543,-57.952347,19.436869,0.5189209,0.103027344,0.8352051,0.052734375,-0.0029296875,-0.0146484375,63.673443,3.9738746,-129.76414,15.797012,0.0,0.0,0.0,0.0,0.0,0.0,0.0,23.619017,-129.3683,12.0530815,0.0,0.0,0.0,0.0,0.0,0.0,0.0,-0.10771963,0.04825547,-0.993135,-0.97332764,0.062561035,-0.22491455,0.038085938,-0.07910156,-0.12597656,7.2993636,-2.2301304,0.99903786,-20.560974,-0.98327637,-0.11529541,-0.049804688,-0.016601562,0.5673828,0.31152344,1.6474638,-7.4304867,-55.614544,-16.333736,0.50305176,0.09124756,0.86120605,-0.041992188,0.038085938,-0.07421875,26.08042,-10.997392,-127.34242,-11.085577,0.0,0.0,0.0,0.0,0.0,0.0,0.0,5.8939886,-127.70553,-0.37724113,-0.97436523,-0.058898926,-0.0138549805,-0.08203125,0.107421875,0.072265625,0.0,1.9582338,44.9198,1.9702111,
0.11718749825377019,6,-0.8250122,-0.2567749,0.52996826,-0.07421875,-0.049804688,-0.14648438,0.0,0.0,0.0,0.0,0.0,0.0,0.0,0.0,0.0,0.0,0.0,0.104203165,-0.045840368,0.9936203,-0.9425659,0.009643555,-0.28308105,-0.041015625,0.029296875,0.029296875,1.2747215,2.1573286,-0.94903773,20.57102,-0.99542236,9.765625E-4,-0.011474609,-0.0126953125,0.02734375,-0.0048828125,4.8852344,-0.044745445,-57.904037,19.428762,0.53015137,0.11242676,0.85406494,0.052734375,-0.0029296875,-0.033203125,63.380424,3.7801218,-129.724,15.787539,0.0,0.0,0.0,0.0,0.0,0.0,0.0,23.430588,-129.3335,12.067612,0.0,0.0,0.0,0.0,0.0,0.0,0.0,-0.104203165,0.045840368,-0.9936203,-0.9783325,0.054626465,-0.2062378,0.13476562,-0.09765625,-0.12890625,6.941842,-2.1573286,0.94903773,-20.57102,-0.9873657,-0.11798096,-0.06878662,-0.037109375,0.038085938,0.056640625,1.3071606,-7.230326,-55.688385,-16.500969,0.519104,0.06732178,0.87023926,0.013671875,9.765625E-4,-0.016601562,25.58524,-11.0449,-127.41295,-11.299897,0.0,0.0,0.0,0.0,0.0,0.0,0.0,5.960107,-127.821,-0.77497387,-0.9772949,-0.05682373,-0.01977539,-0.0625,0.12792969,0.052734375,0.0,2.0257418,44.921314,1.8599871,
0.1367187479627319,7,-0.8065796,-0.2952881,0.5192871,0.020507812,-0.0126953125,0.001953125,0.0,0.0,0.0,0.0,0.0,0.0,0.0,0.0,0.0,0.0,0.0,0.100626886,-0.04372003,0.99408084,-0.9304199,0.017333984,-0.30194092,-0.00390625,0.046875,0.047851562,1.1526698,2.0832882,-0.90514016,20.580557,-0.9879761,0.01739502,-0.0014038086,0.0068359375,0.044921875,-0.0048828125,4.784873,-0.10480142,-57.8587,19.416096,0.5456543,0.13568115,0.8513794,0.013671875,-0.041015625,-0.034179688,63.2401,3.6204715,-129.68483,15.79493,0.0,0.0,0.0,0.0,0.0,0.0,0.0,23.26901,-129.29402,12.067249,0.0,0.0,0.0,0.0,0.0,0.0,0.0,-0.100626886,0.04372003,-0.99408084,-0.9804077,0.06542969,-0.19708252,-0.0087890625,-0.111328125,-0.17773438,6.6417475,-2.0832882,0.90514016,-20.580557,-0.9741821,-0.12872314,-0.07299805,-0.037109375,0.01953125,0.037109375,1.2441119,-7.013234,-55.757107,-16.654524,0.50891113,0.06945801,0.8572998,0.013671875,9.765625E-4,-0.016601562,25.180294,-10.713998,-127.48439,-11.43351,0.0,0.0,0.0,0.0,0.0,0.0,0.0,6.366721,-127.916664,-1.0344048,-0.9890137,-0.050964355,0.0071411133,-0.0078125,0.01171875,0.036132812,0.0,2.0363069,44.92433,1.7696607,
0.1562499976716936,8,-0.8050537,-0.24890137,0.5316162,-0.017578125,0.005859375,0.0029296875,0.0,0.0,0.0,0.0,0.0,0.0,0.0,0.0,0.0,0.0,0.0,0.09579465,-0.04276466,0.99463546,-0.9324341,0.016357422,-0.2901001,-0.060546875,0.029296875,0.047851562,1.0957513,1.9832478,-0.8853611,20.592037,-0.97998047,0.0513916,0.020629883,-0.0126953125,0.02734375,0.013671875,4.6702185,-0.19303942,-57.84003,19.41855,0.51013184,0.12176514,0.8334961,0.033203125,-0.0029296875,-0.033203125,62.96022,3.40245,-129.67015,15.817644,0.0,0.0,0.0,0.0,0.0,0.0,0.0,23.052153,-129.28522,12.098906,0.0,0.0,0.0,0.0,0.0,0.0,0.0,-0.09579465,0.04276466,-0.99463546,-0.9753418,0.068481445,-0.21490479,0.083984375,-0.14257812,-0.09472656,6.4504466,-1.9832478,0.8853611,-20.592037,-0.98431396,-0.117004395,-0.070739746,-0.037109375,0.01953125,0.056640625,1.1607898,-6.751228,-55.793587,-16.78732,0.49938965,0.08276367,0.8892822,0.032226562,0.01953125,-0.016601562,25.095083,-10.363541,-127.52784,-11.544533,0.0,0.0,0.0,0.0,0.0,0.0,0.0,6.746296,-127.979675,-1.1949291,-0.98010254,-0.052124023,0.0040893555,-0.0078125,-0.0078125,0.017578125,0.0,1.9987278,44.928814,1.739228,
0.1757812473806553,9,-0.77648926,-0.30615234,0.5175171,-0.017578125,-0.0126953125,0.0029296875,0.0,0.0,0.0,0.0,0.0,0.0,0.0,0.0,0.0,0.0,0.0,0.09343523,-0.04167763,0.99486786,-0.9246216,0.0013427734,-0.27648926,-0.041015625,0.06542969,0.047851562,1.0402344,1.9343987,-0.86285615,20.596848,-0.9871826,0.009338379,0.0044555664,-0.0126953125,0.02734375,0.013671875,4.549542,-0.19092417,-57.821938,19.411272,0.5182495,0.11846924,0.8619995,0.013671875,-0.0029296875,-0.0146484375,62.810585,3.3066719,-129.65518,15.810964,0.0,0.0,0.0,0.0,0.0,0.0,0.0,22.955412,-129.2797,12.081759,0.0,0.0,0.0,0.0,0.0,0.0,0.0,-0.09343523,0.04167763,-0.99486786,-0.9621582,0.039855957,-0.23236084,0.24316406,-0.0703125,-0.103515625,6.2687593,-1.9343987,0.86285615,-20.596848,-0.9852905,-0.11303711,-0.076660156,-0.017578125,0.0390625,0.037109375,1.2069073,-6.640385,-55.831444,-16.91998,0.5081177,0.07122803,0.8692627,-0.0048828125,0.0,-0.016601562,24.82618,-10.143381,-127.56667,-11.678401,0.0,0.0,0.0,0.0,0.0,0.0,0.0,7.033865,-128.04674,-1.4403276,-0.9819336,-0.040161133,-0.012756348,-0.0068359375,0.01171875,-9.765625E-4,0.0,1.97287,44.92986,1.6969434,
0.19531249708961698,10,-0.80566406,-0.29718018,0.5350952,-0.017578125,0.005859375,0.0029296875,0.0,0.0,0.0,0.0,0.0,0.0,0.0,0.0,0.0,0.0,0.0,0.092868894,-0.04078264,0.99500406,-0.921875,-0.019348145,-0.28070068,-0.041015625,-0.0068359375,0.029296875,1.0208666,1.9226733,-0.8443271,20.599669,-1.0043335,0.0049438477,0.007385254,-0.013671875,0.0087890625,0.033203125,4.4361925,-0.16987479,-57.802868,19.422264,0.5363159,0.119140625,0.8619995,0.033203125,-0.0029296875,-0.033203125,62.52731,3.204609,-129.64655,15.821177,0.0,0.0,0.0,0.0,0.0,0.0,0.0,22.86052,-129.26738,12.12861,0.0,0.0,0.0,0.0,0.0,0.0,0.0,-0.092868894,0.04078264,-0.99500406,-0.97631836,0.055603027,-0.20227051,0.033203125,-0.09375,-0.14160156,6.0544024,-1.9226733,0.8443271,-20.599669,-0.9862671,-0.109069824,-0.078552246,-0.037109375,0.01953125,0.056640625,1.2478812,-6.5600677,-55.868248,-17.063572,0.49908447,0.047058105,0.87646484,0.013671875,9.765625E-4,-0.016601562,24.248734,-9.967897,-127.61125,-11.839571,0.0,0.0,0.0,0.0,0.0,0.0,0.0,7.317135,-128.11435,-1.7851868,-0.98773193,-0.0423584,0.022033691,-0.025390625,0.0126953125,-9.765625E-4,0.0,1.990106,44.932697,1.6559281,
0.21484374679857868,11,-0.8059082,-0.26171875,0.5235596,0.01953125,0.005859375,-0.016601562,0.0,0.0,0.0,0.0,0.0,0.0,0.0,0.0,0.0,0.0,0.0,0.08965069,-0.03972149,0.995271,-0.94573975,-0.0020751953,-0.29595947,0.052734375,0.064453125,0.029296875,0.9157847,1.8560462,-0.8223579,20.605196,-1.008728,0.026733398,0.014465332,0.005859375,0.0078125,0.0146484375,4.368836,-0.2540319,-57.777485,19.384129,0.5116577,0.15301514,0.8397827,0.052734375,-0.021484375,-0.034179688,62.40619,3.0321221,-129.62376,15.785888,0.0,0.0,0.0,0.0,0.0,0.0,0.0,22.688036,-129.25017,12.092287,0.0,0.0,0.0,0.0,0.0,0.0,0.0,-0.08965069,0.03972149,-0.995271,-0.98236084,0.047729492,-0.19940186,0.08984375,-0.1875,-0.12109375,5.816756,-1.8560462,0.8223579,-20.605196,-0.9893799,-0.124694824,-0.07489014,-0.037109375,0.01953125,0.037109375,1.1973029,-6.317608,-55.911453,-17.215227,0.50286865,0.07141113,0.85632324,0.013671875,9.765625E-4,-0.016601562,24.079643,-9.641665,-127.65477,-12.004589,0.0,0.0,0.0,0.0,0.0,0.0,0.0,7.685338,-128.17934,-2.0247593,-0.98236084,-0.06677246,0.009094238,-0.0078125,-0.026367188,-9.765625E-4,0.0,1.968279,44.931923,1.615947,
0.23437499650754037,12,-0.78741455,-0.29736328,0.49505615,0.020507812,-0.0126953125,0.001953125,0.0,0.0,0.0,0.0,0.0,0.0,0.0,0.0,0.0,0.0,0.0,0.084949315,-0.03861085,0.99581045,-0.93078613,-0.008239746,-0.30218506,-0.041015625,0.029296875,0.06640625,0.842791,1.7587135,-0.79936427,20.616364,-0.9920654,0.0134887695,0.0044555664,-0.0126953125,0.045898438,0.033203125,4.275168,-0.32691002,-57.75309,19.374422,0.50494385,0.11212158,0.8314209,0.033203125,-0.021484375,-0.015625,62.28543,2.8811269,-129.60745,15.796337,0.0,0.0,0.0,0.0,0.0,0.0,0.0,22.537113,-129.24242,12.103375,0.0,0.0,0.0,0.0,0.0,0.0,0.0,-0.084949315,0.03861085,-0.99581045,-0.96624756,0.06262207,-0.23388672,0.16796875,-0.11035156,-0.123046875,5.6329775,-1.7587135,0.79936427,-20.616364,-0.9873657,-0.120788574,-0.0748291,-0.017578125,0.0390625,0.037109375,1.196322,-6.0772734,-55.951283,-17.337057,0.48327637,0.07659912,0.8894043,0.032226562,9.765625E-4,0.0029296875,23.894655,-9.306154,-127.6996,-12.121544,0.0,0.0,0.0,0.0,0.0,0.0,0.0,8.059229,-128.24251,-2.211769,-0.9901123,-0.049743652,-0.0126953125,-0.0068359375,-0.044921875,-0.038085938,0.0,1.9312174,44.93864,1.5776731,
0.2539062462165021,13,-0.81378174,-0.26568604,0.5078125,0.020507812,-0.0126953125,0.001953125,0.0,0.0,0.0,0.0,0.0,0.0,0.0,0.0,0.0,0.0,0.0,0.081432045,-0.03757787,0.99606174,-0.95843506,0.019714355,-0.26983643,0.015625,0.064453125,0.029296875,0.798929,1.6858957,-0.7779784,20.621565,-1.0053711,0.0041503906,-0.005554199,-0.013671875,0.0087890625,0.033203125,4.1621246,-0.36396575,-57.73407,19.376017,0.5241699,0.11053467,0.86291504,0.013671875,0.016601562,-0.0146484375,62.174282,2.7457108,-129.59024,15.826023,0.0,0.0,0.0,0.0,0.0,0.0,0.0,22.396471,-129.22766,12.115186,0.0,0.0,0.0,0.0,0.0,0.0,0.0,-0.081432045,0.03757787,-0.99606174,-0.9753418,0.06359863,-0.2288208,0.091796875,-0.055664062,-0.123046875,5.513453,-1.6858957,0.7779784,-20.621565,-0.9994507,-0.107055664,-0.07550049,-0.037109375,0.01953125,0.018554688,1.3653005,-6.0438986,-55.974567,-17.445364,0.493042,0.06402588,0.8724365,0.013671875,0.0,0.0029296875,23.189127,-9.183411,-127.723785,-12.190652,0.0,0.0,0.0,0.0,0.0,0.0,0.0,8.314302,-128.2937,-2.515275,-0.9789429,-0.034179688,-0.031677246,-0.0068359375,0.01171875,-9.765625E-4,0.0,1.9087045,44.937252,1.5392786,
0.2734374959254638,14,-0.8209839,-0.2597046,0.52789307,0.020507812,-0.0126953125,0.001953125,0.0,0.0,0.0,0.0,0.0,0.0,0.0,0.0,0.0,0.0,0.0,0.07553059,-0.03662809,0.9965542,-0.947876,-0.016967773,-0.26641846,-0.060546875,-0.0068359375,0.029296875,0.75666386,1.5637174,-0.758315,20.63176,-0.99420166,0.008728027,-0.005493164,-0.032226562,0.045898438,0.033203125,4.0218997,-0.41432166,-57.71793,19.375683,0.5118408,0.16174316,0.84484863,0.033203125,-0.021484375,-0.034179688,61.927673,2.588338,-129.5818,15.815789,0.0,0.0,0.0,0.0,0.0,0.0,0.0,22.244022,-129.21791,12.123293,0.0,0.0,0.0,0.0,0.0,0.0,0.0,-0.07553059,0.03662809,-0.9965542,-0.97436523,0.07513428,-0.1751709,0.11816406,-0.13867188,-0.09082031,5.386852,-1.5637174,0.758315,-20.63176,-0.98638916,-0.117248535,-0.048828125,-0.017578125,0.01953125,0.037109375,1.4506388,-5.8559,-56.009483,-17.559196,0.49682617,0.050354004,0.8594971,-0.0048828125,0.0,0.001953125,22.814749,-8.906781,-127.75982,-12.264839,0.0,0.0,0.0,0.0,0.0,0.0,0.0,8.654693,-128.34975,-2.70957,-0.9552002,-0.056640625,0.008850098,-0.0068359375,-0.0068359375,-9.765625E-4,0.0,1.847869,44.94038,1.5117188,
0.2929687456344255,15,-0.8154297,-0.3189087,0.5192261,0.01953125,-0.0126953125,-0.053710938,0.0,0.0,0.0,0.0,0.0,0.0,0.0,0.0,0.0,0.0,0.0,0.07445347,-0.035535444,0.9967567,-0.94647217,0.015686035,-0.29675293,-0.00390625,0.06542969,0.029296875,0.7033216,1.5414182,-0.73569393,20.635954,-0.99346924,0.034423828,-0.0032958984,-0.032226562,0.02734375,0.033203125,3.9177167,-0.39933598,-57.697845,19.366976,0.5020752,0.1138916,0.8619385,0.033203125,-0.0029296875,-0.033203125,61.83401,2.518025,-129.56302,15.823501,0.0,0.0,0.0,0.0,0.0,0.0,0.0,22.17186,-129.20738,12.123886,0.0,0.0,0.0,0.0,0.0,0.0,0.0,-0.07445347,0.035535444,-0.9967567,-0.977417,0.08227539,-0.21063232,0.20703125,-0.091796875,-0.10449219,5.275072,-1.5414182,0.73569393,-20.635954,-0.9822998,-0.12286377,-0.07086182,-0.037109375,0.01953125,0.037109375,1.432175,-5.7250943,-56.034744,-17.590345,0.4968872,0.08831787,0.85528564,0.013671875,9.765625E-4,-0.016601562,22.890112,-8.696081,-127.79287,-12.298948,0.0,0.0,0.0,0.0,0.0,0.0,0.0,8.850094,-128.39009,-2.7135925,-0.9837036,-0.026306152,-0.026672363,-0.0078125,-0.0078125,0.036132812,0.0,1.8318549,44.94624,1.46555,
0.3124999953433872,16,-0.8135376,-0.2835083,0.48382568,0.020507812,-0.0126953125,0.001953125,0.0,0.0,0.0,0.0,0.0,0.0,0.0,0.0,0.0,0.0,0.0,0.07116851,-0.034435518,0.9969865,-0.9434204,0.023620605,-0.31451416,-0.00390625,0.06542969,0.029296875,0.64467704,1.4734083,-0.712922,20.640713,-0.98095703,0.017089844,0.0015869141,-0.0126953125,0.02734375,0.033203125,3.875705,-0.4708773,-57.67574,19.372505,0.53302,0.105773926,0.8273926,0.013671875,0.016601562,-0.0146484375,61.84471,2.4101615,-129.54611,15.883552,0.0,0.0,0.0,0.0,0.0,0.0,0.0,22.059961,-129.19855,12.161227,0.0,0.0,0.0,0.0,0.0,0.0,0.0,-0.07116851,0.034435518,-0.9969865,-0.9702759,0.0635376,-0.22491455,0.018554688,-0.09863281,-0.12597656,5.1357603,-1.4734083,0.712922,-20.640713,-0.9904175,-0.120788574,-0.07281494,-0.017578125,0.0390625,0.018554688,1.535696,-5.661395,-56.065002,-17.699482,0.5081177,0.06719971,0.8713379,-0.0048828125,-0.018554688,-0.016601562,22.588083,-8.566858,-127.82403,-12.425501,0.0,0.0,0.0,0.0,0.0,0.0,0.0,9.024431,-128.43958,-2.926693,-0.98620605,-0.054748535,-0.014709473,-0.0078125,-0.045898438,0.018554688,0.0,1.8148489,44.94612,1.4228706,
0.3320312450523489,17,-0.8257446,-0.27947998,0.51586914,0.01953125,0.005859375,0.020507812,0.0,0.0,0.0,0.0,0.0,0.0,0.0,0.0,0.0,0.0,0.0,0.06731787,-0.034047745,0.9972754,-0.9365845,0.006591797,-0.2861328,-0.00390625,0.028320312,0.029296875,0.6324196,1.3936881,-0.70489395,20.646694,-0.9957886,0.023498535,0.0045166016,-0.0126953125,0.02734375,0.033203125,3.778646,-0.49132144,-57.666416,19.359095,0.5169678,0.10797119,0.82836914,-0.025390625,-0.021484375,-0.015625,61.76322,2.343124,-129.54141,15.880674,0.0,0.0,0.0,0.0,0.0,0.0,0.0,21.993584,-129.19917,12.157146,0.0,0.0,0.0,0.0,0.0,0.0,0.0,-0.06731787,0.034047745,-0.9972754,-0.97631836,0.049621582,-0.19744873,0.05078125,-0.111328125,-0.12011719,5.0061727,-1.3936881,0.70489395,-20.646694,-0.98742676,-0.12298584,-0.05493164,-0.017578125,0.01953125,0.018554688,1.562102,-5.4631996,-56.08591,-17.800396,0.49731445,0.07476807,0.8873291,-0.0048828125,-0.018554688,0.0029296875,22.43808,-8.290915,-127.850174,-12.526,0.0,0.0,0.0,0.0,0.0,0.0,0.0,9.325144,-128.47874,-3.0720968,-0.9898071,-0.03717041,-0.004760742,0.0107421875,-0.02734375,0.017578125,0.0,1.7854655,44.947945,1.4140351,
0.3515624947613106,18,-0.822876,-0.2715454,0.52679443,-0.017578125,-0.0126953125,0.021484375,0.0,0.0,0.0,0.0,0.0,0.0,0.0,0.0,0.0,0.0,0.0,0.063633025,-0.03389177,0.9974857,-0.9205322,0.0073242188,-0.2972412,-0.022460938,-0.0078125,0.029296875,0.63796467,1.3174019,-0.7016648,20.651047,-0.9729004,0.017822266,6.1035156E-4,0.005859375,0.0078125,0.033203125,3.6549487,-0.51244926,-57.666245,19.352163,0.5222168,0.119506836,0.8423462,0.033203125,-0.0029296875,-0.0146484375,61.65195,2.236138,-129.54333,15.900401,0.0,0.0,0.0,0.0,0.0,0.0,0.0,21.882011,-129.20332,12.158822,0.0,0.0,0.0,0.0,0.0,0.0,0.0,-0.063633025,0.03389177,-0.9974857,-0.9682617,0.064453125,-0.20709229,0.10253906,-0.10449219,-0.115234375,4.9100347,-1.3174019,0.7016648,-20.651047,-0.9883423,-0.10736084,-0.05859375,-0.037109375,0.01953125,0.018554688,1.5791715,-5.2719064,-56.101303,-17.87658,0.5003052,0.07281494,0.8873291,-0.0048828125,0.0,-0.016601562,22.111162,-8.030895,-127.86497,-12.595394,0.0,0.0,0.0,0.0,0.0,0.0,0.0,9.630989,-128.51123,-3.2303438,-0.98095703,-0.042175293,-0.010803223,0.06738281,-0.045898438,-0.01953125,0.0,1.7594063,44.947277,1.4149442,
0.37109374447027227,19,-0.8046875,-0.2913208,0.5291748,0.020507812,-0.0126953125,0.020507812,0.0,0.0,0.0,0.0,0.0,0.0,0.0,0.0,0.0,0.0,0.0,0.060620904,-0.03413307,0.9977551,-0.9406128,0.005859375,-0.32165527,-0.17285156,0.01171875,0.0107421875,0.66263825,1.2550417,-0.7066604,20.656624,-0.989624,0.029174805,0.005554199,0.0068359375,0.044921875,0.051757812,3.5903056,-0.5650555,-57.671413,19.376135,0.5210571,0.11480713,0.82055664,0.013671875,-0.0029296875,-0.033203125,61.366264,2.0814939,-129.54942,15.908817,0.0,0.0,0.0,0.0,0.0,0.0,0.0,21.733118,-129.20671,12.200773,0.0,0.0,0.0,0.0,0.0,0.0,0.0,-0.060620904,0.03413307,-0.9977551,-0.9702759,0.06359863,-0.22686768,0.056640625,-0.041015625,-0.14648438,4.8729076,-1.2550417,0.7066604,-20.656624,-0.98724365,-0.09838867,-0.07531738,-0.037109375,0.01953125,0.037109375,1.7290694,-5.2623987,-56.096863,-17.972324,0.49066162,0.068481445,0.8444824,0.013671875,9.765625E-4,-0.016601562,22.254354,-7.9640007,-127.864365,-12.664556,0.0,0.0,0.0,0.0,0.0,0.0,0.0,9.674763,-128.51836,-3.256381,-0.9797363,-0.038513184,0.012023926,0.030273438,-0.0078125,-9.765625E-4,0.0,1.7420197,44.95147,1.4319434,
0.39062499417923396,20,-0.8289795,-0.26556396,0.5418701,0.020507812,-0.0126953125,0.001953125,0.0,0.0,0.0,0.0,0.0,0.0,0.0,0.0,0.0,0.0,0.0,0.05704719,-0.03381343,0.99794185,-0.9116211,-0.0026855469,-0.2984619,-0.022460938,0.029296875,0.047851562,0.66529065,1.1810534,-0.7000428,20.660492,-1.0003662,0.03845215,0.004638672,-0.013671875,0.0087890625,0.013671875,3.4848695,-0.61296105,-57.66478,19.38551,0.52459717,0.08135986,0.8418579,0.013671875,-0.0029296875,-0.033203125,61.355644,1.9236073,-129.54736,15.945066,0.0,0.0,0.0,0.0,0.0,0.0,0.0,21.566944,-129.21663,12.191055,0.0,0.0,0.0,0.0,0.0,0.0,0.0,-0.05704719,0.03381343,-0.99794185,-0.97839355,0.066467285,-0.20599365,0.11816406,-0.119140625,-0.11035156,4.7801623,-1.1810534,0.7000428,-20.660492,-0.9751587,-0.11706543,-0.072753906,-0.017578125,0.01953125,0.037109375,1.8108891,-5.138213,-56.115128,-18.051601,0.50445557,0.072631836,0.8982544,0.013671875,9.765625E-4,-0.016601562,22.223152,-7.7786713,-127.88254,-12.7031765,0.0,0.0,0.0,0.0,0.0,0.0,0.0,9.867657,-128.5489,-3.311308,-0.98413086,-0.05493164,-8.544922E-4,0.0107421875,-0.045898438,0.018554688,0.0,1.7292242,44.95064,1.4242191,
0.41015624388819566,21,-0.79870605,-0.28735352,0.52911377,0.01953125,0.005859375,0.001953125,0.0,0.0,0.0,0.0,0.0,0.0,0.0,0.0,0.0,0.0,0.0,0.055081695,-0.032896806,0.9980543,-0.9415283,0.013793945,-0.3314209,-0.00390625,0.1015625,0.029296875,0.55355436,1.1403621,-0.68106586,20.662819,-1.0003662,0.03845215,0.004638672,-0.013671875,0.0087890625,0.013671875,3.520421,-0.7118019,-57.64157,19.355274,0.5311279,0.11047363,0.85302734,0.033203125,0.016601562,0.00390625,61.406338,1.8247665,-129.52417,15.914831,0.0,0.0,0.0,0.0,0.0,0.0,0.0,21.466013,-129.1935,12.143186,0.0,0.0,0.0,0.0,0.0,0.0,0.0,-0.055081695,0.032896806,-0.9980543,-0.9732666,0.054626465,-0.20727539,0.19140625,-0.07714844,-0.10839844,4.6443515,-1.1403621,0.68106586,-20.662819,-0.9812622,-0.117126465,-0.062805176,-0.017578125,0.0390625,0.037109375,1.8782609,-5.031856,-56.136524,-18.134666,0.49713135,0.08502197,0.87127686,-0.0048828125,-0.018554688,-0.016601562,22.284246,-7.601822,-127.90178,-12.775203,0.0,0.0,0.0,0.0,0.0,0.0,0.0,10.036285,-128.57558,-3.3640423,-0.97784424,-0.034362793,-0.015808105,-0.045898438,-0.045898438,0.018554688,0.0,1.7129827,44.951138,1.3870937,
0.42968749359715736,22,-0.8255005,-0.309021,0.5185547,9.765625E-4,0.005859375,-0.016601562,0.0,0.0,0.0,0.0,0.0,0.0,0.0,0.0,0.0,0.0,0.0,0.055100292,-0.03229138,0.9981219,-0.9414673,0.016540527,-0.289917,-0.022460938,0.0107421875,0.029296875,0.5377761,1.140747,-0.6685316,20.664217,-0.99139404,0.002380371,0.014343262,-0.0126953125,0.045898438,-0.0048828125,3.4130013,-0.7114943,-57.631626,19.3583,0.5265503,0.14007568,0.83270264,0.013671875,-0.0029296875,-0.0146484375,61.171032,1.6867138,-129.52536,15.946832,0.0,0.0,0.0,0.0,0.0,0.0,0.0,21.329063,-129.19199,12.183495,0.0,0.0,0.0,0.0,0.0,0.0,0.0,-0.055100292,0.03229138,-0.9981219,-0.97229004,0.06048584,-0.19824219,0.08300781,-0.12402344,-0.11425781,4.475578,-1.140747,0.6685316,-20.664217,-0.98931885,-0.101379395,-0.06738281,9.765625E-4,0.01953125,0.018554688,1.9459158,-4.9423985,-56.16295,-18.23773,0.5192261,0.068237305,0.87719727,0.013671875,9.765625E-4,-0.016601562,21.959486,-7.4583306,-127.92847,-12.862743,0.0,0.0,0.0,0.0,0.0,0.0,0.0,10.234333,-128.61618,-3.55793,-0.97424316,-0.05407715,-0.010864258,-0.044921875,-0.026367188,0.018554688,0.0,1.7271385,44.953648,1.3590018,
0.44921874330611905,23,-0.7925415,-0.29431152,0.51104736,-0.017578125,0.024414062,0.0029296875,0.0,0.0,0.0,0.0,0.0,0.0,0.0,0.0,0.0,0.0,0.0,0.055169135,-0.03142733,0.99808276,-0.90997314,0.043395996,-0.27734375,-0.022460938,0.0107421875,0.047851562,0.5556712,1.1421728,-0.65064317,20.663408,-1.010315,0.0053100586,-0.003540039,-0.0126953125,0.02734375,0.013671875,3.318358,-0.6673757,-57.613823,19.392275,0.5358887,0.09588623,0.8331299,0.013671875,-0.0029296875,-0.0146484375,61.078815,1.653417,-129.51129,16.034954,0.0,0.0,0.0,0.0,0.0,0.0,0.0,21.294373,-129.18826,12.263668,0.0,0.0,0.0,0.0,0.0,0.0,0.0,-0.055169135,0.03142733,-0.99808276,-0.9713135,0.07043457,-0.21588135,0.11816406,-0.13867188,-0.09082031,4.34447,-1.1421728,0.65064317,-20.663408,-0.9873047,-0.107421875,-0.053588867,-0.037109375,0.038085938,0.037109375,1.9321895,-4.823541,-56.19062,-18.280447,0.48101807,0.055847168,0.8755493,-0.041992188,-9.765625E-4,0.001953125,21.71071,-7.284321,-127.96283,-12.920702,0.0,0.0,0.0,0.0,0.0,0.0,0.0,10.4488735,-128.6658,-3.6929398,-0.98046875,-0.07165527,0.0020751953,-0.025390625,-0.026367188,-0.01953125,0.0,1.7287209,44.951927,1.3198774,
0.46874999301508075,24,-0.80584717,-0.27941895,0.5432129,0.01953125,0.005859375,0.001953125,0.0,0.0,0.0,0.0,0.0,0.0,0.0,0.0,0.0,0.0,0.0,0.056284726,-0.031014787,0.9980766,-0.93115234,0.034973145,-0.28204346,-0.07910156,-0.0068359375,0.029296875,0.59676087,1.1652677,-0.64210224,20.66328,-0.98913574,0.04510498,0.0017089844,0.0068359375,0.026367188,0.033203125,3.228891,-0.6034981,-57.60825,19.39603,0.5324707,0.13311768,0.83361816,0.013671875,-0.021484375,-0.034179688,60.90177,1.6450502,-129.50418,16.059841,0.0,0.0,0.0,0.0,0.0,0.0,0.0,21.288273,-129.17876,12.306847,0.0,0.0,0.0,0.0,0.0,0.0,0.0,-0.056284726,0.031014787,-0.9980766,-0.96624756,0.06359863,-0.23980713,0.06347656,-0.14257812,-0.11328125,4.2463007,-1.1652677,0.64210224,-20.66328,-0.9863281,-0.1227417,-0.07684326,-0.017578125,9.765625E-4,0.037109375,1.9609439,-4.788945,-56.202183,-18.321863,0.48510742,0.066833496,0.87945557,0.013671875,0.0,0.0029296875,21.25331,-7.2047324,-127.97478,-12.95911,0.0,0.0,0.0,0.0,0.0,0.0,0.0,10.60844,-128.6966,-3.8885288,-0.9713135,-0.06719971,0.025878906,-0.025390625,-0.0068359375,-9.765625E-4,0.0,1.758207,44.95337,1.2977551,
0.48828124272404244,25,-0.7734375,-0.3032837,0.5026245,0.020507812,-0.0126953125,0.001953125,0.0,0.0,0.0,0.0,0.0,0.0,0.0,0.0,0.0,0.0,0.0,0.057534933,-0.030885475,0.9979583,-0.9175415,0.008300781,-0.31011963,-0.060546875,0.06542969,0.047851562,0.5983981,1.1911504,-0.63942504,20.660831,-0.99432373,0.038269043,0.0036621094,-0.0126953125,0.045898438,0.013671875,3.1796463,-0.58082724,-57.60339,19.36884,0.51678467,0.09613037,0.8449707,0.033203125,-0.021484375,-0.034179688,60.81601,1.6119621,-129.50754,16.037708,0.0,0.0,0.0,0.0,0.0,0.0,0.0,21.253841,-129.18974,12.273057,0.0,0.0,0.0,0.0,0.0,0.0,0.0,-0.057534933,0.030885475,-0.9979583,-0.9692993,0.05871582,-0.24285889,0.0859375,-0.10644531,-0.11621094,4.1810446,-1.1911504,0.63942504,-20.660831,-0.9863281,-0.111206055,-0.06365967,-0.017578125,0.01953125,0.018554688,2.0185819,-4.803031,-56.210205,-18.36045,0.4968872,0.06726074,0.8604126,0.013671875,0.0,0.0029296875,21.169397,-7.17885,-127.98171,-12.983846,0.0,0.0,0.0,0.0,0.0,0.0,0.0,10.664137,-128.71349,-3.9743662,-0.9700928,-0.053344727,0.0059814453,-0.0087890625,-0.046875,0.037109375,0.0,1.7839875,44.950333,1.2883011,
0.5078124924330042,26,-0.8128052,-0.28137207,0.5354004,0.020507812,-0.0126953125,0.001953125,0.0,0.0,0.0,0.0,0.0,0.0,0.0,0.0,0.0,0.0,0.0,0.056534737,-0.030169655,0.998059,-0.93548584,0.013549805,-0.30786133,-0.060546875,-0.025390625,0.047851562,0.591822,1.1704435,-0.62460536,20.662914,-0.97906494,0.04699707,-0.017089844,-0.0126953125,0.045898438,0.013671875,3.0969925,-0.5940752,-57.589546,19.350685,0.5522461,0.11016846,0.84417725,-0.005859375,-0.0029296875,-0.0146484375,60.703655,1.4978392,-129.49034,16.011972,0.0,0.0,0.0,0.0,0.0,0.0,0.0,21.135979,-129.17671,12.220424,0.0,0.0,0.0,0.0,0.0,0.0,0.0,-0.056534737,0.030169655,-0.998059,-0.9692383,0.05657959,-0.21716309,0.11816406,-0.10058594,-0.13085938,4.07655,-1.1704435,0.62460536,-20.662914,-0.99139404,-0.11303711,-0.07165527,-0.017578125,9.765625E-4,0.037109375,2.073676,-4.7344418,-56.227608,-18.408794,0.5153198,0.07104492,0.88220215,0.032226562,9.765625E-4,-0.016601562,21.163515,-7.0685396,-128.00183,-13.005607,0.0,0.0,0.0,0.0,0.0,0.0,0.0,10.77391,-128.74478,-3.9964857,-0.96362305,-0.021972656,-0.018859863,-0.0068359375,0.01171875,-9.765625E-4,0.0,1.801138,44.951508,1.2567841,
0.5273437421419659,27,-0.8126221,-0.3050537,0.538147,9.765625E-4,-0.0126953125,0.001953125,0.0,0.0,0.0,0.0,0.0,0.0,0.0,0.0,0.0,0.0,0.0,0.05664155,-0.029419867,0.9981448,-0.9378052,-0.008117676,-0.30108643,-0.00390625,0.1015625,0.029296875,0.50163126,1.1726542,-0.6090824,20.664692,-0.9937744,0.024291992,0.010498047,-0.0126953125,0.02734375,0.033203125,3.0392485,-0.6283624,-57.575813,19.304844,0.5223999,0.121154785,0.883728,0.052734375,-0.0029296875,-0.0146484375,60.59599,1.3950503,-129.48436,16.010565,0.0,0.0,0.0,0.0,0.0,0.0,0.0,21.029474,-129.17336,12.203126,0.0,0.0,0.0,0.0,0.0,0.0,0.0,-0.05664155,0.029419867,-0.9981448,-0.97229004,0.056640625,-0.22503662,0.19335938,-0.059570312,-0.11035156,3.976064,-1.1726542,0.6090824,-20.664692,-0.9801636,-0.105285645,-0.078430176,-0.037109375,0.01953125,0.018554688,2.136067,-4.736952,-56.24333,-18.481016,0.50323486,0.0670166,0.88031006,-0.0048828125,-0.018554688,0.0029296875,21.037453,-7.037668,-128.01468,-13.0993805,0.0,0.0,0.0,0.0,0.0,0.0,0.0,10.847282,-128.7721,-4.1742563,-0.9882202,-0.061767578,0.011108398,-0.043945312,0.03125,0.017578125,0.0,1.7858963,44.956154,1.2237184,
0.5468749918509276,28,-0.8093872,-0.2993164,0.48358154,0.01953125,0.005859375,0.001953125,0.0,0.0,0.0,0.0,0.0,0.0,0.0,0.0,0.0,0.0,0.0,0.05472207,-0.029001445,0.9982707,-0.9213257,0.023986816,-0.29016113,0.015625,0.0107421875,0.047851562,0.51014066,1.1329157,-0.60041976,20.667297,-0.98950195,0.032287598,-0.002319336,-0.032226562,0.02734375,-0.0048828125,2.9959128,-0.641238,-57.568436,19.33289,0.5235596,0.08050537,0.8260498,0.033203125,0.016601562,-0.0146484375,60.557877,1.3197533,-129.47836,16.014019,0.0,0.0,0.0,0.0,0.0,0.0,0.0,20.949566,-129.17969,12.178197,0.0,0.0,0.0,0.0,0.0,0.0,0.0,-0.05472207,0.029001445,-0.9982707,-0.9804077,0.06738281,-0.18914795,0.061523438,-0.140625,-0.13085938,3.880149,-1.1329157,0.60041976,-20.667297,-0.98742676,-0.13153076,-0.07305908,-0.037109375,0.01953125,0.037109375,2.20478,-4.6657486,-56.259464,-18.562212,0.49816895,0.07501221,0.8753052,0.032226562,9.765625E-4,0.0029296875,21.163656,-6.911162,-128.03624,-13.190072,0.0,0.0,0.0,0.0,0.0,0.0,0.0,10.943663,-128.7964,-4.207143,-0.9425049,-0.06652832,-0.005126953,-0.04296875,-0.005859375,-0.056640625,0.0,1.7695515,44.957493,1.2090895,
0.5664062415598893,29,-0.777771,-0.26971436,0.5149536,0.01953125,0.005859375,-0.016601562,0.0,0.0,0.0,0.0,0.0,0.0,0.0,0.0,0.0,0.0,0.0,0.054675877,-0.02850176,0.9982547,-0.93359375,0.005432129,-0.2753296,-0.060546875,-0.0068359375,0.0107421875,0.51851046,1.1319606,-0.59007484,20.666967,-0.97680664,0.022644043,0.016479492,-0.033203125,-0.009765625,0.013671875,2.9725602,-0.6339233,-57.556297,19.362339,0.54418945,0.11138916,0.83532715,0.013671875,-0.0029296875,-0.033203125,60.57483,1.287626,-129.46793,16.0547,0.0,0.0,0.0,0.0,0.0,0.0,0.0,20.9104,-129.17842,12.189076,0.0,0.0,0.0,0.0,0.0,0.0,0.0,-0.054675877,0.02850176,-0.9982547,-0.9783325,0.055603027,-0.20617676,0.068359375,-0.12792969,-0.09863281,3.786773,-1.1319606,0.59007484,-20.666967,-0.98236084,-0.12591553,-0.05895996,-0.037109375,0.01953125,0.056640625,2.2177026,-4.563424,-56.27779,-18.59655,0.49316406,0.046875,0.88446045,0.05078125,-0.036132812,0.0029296875,20.834318,-6.760362,-128.05396,-13.208005,0.0,0.0,0.0,0.0,0.0,0.0,0.0,11.129286,-128.8238,-4.295126,-0.9771118,-0.046142578,-0.016784668,-0.0068359375,0.049804688,0.03515625,0.0,1.769866,44.9566,1.1866444,
0.585937491268851,30,-0.8198242,-0.2715454,0.5238037,0.020507812,-0.0126953125,0.001953125,0.0,0.0,0.0,0.0,0.0,0.0,0.0,0.0,0.0,0.0,0.0,0.052497864,-0.028151013,0.99835247,-0.94470215,0.0018920898,-0.30682373,-0.060546875,0.0107421875,0.0107421875,0.51926464,1.0868683,-0.58281326,20.66899,-0.9904175,0.036071777,0.0095825195,-0.032226562,0.0087890625,0.013671875,2.9087875,-0.6623558,-57.546577,19.364882,0.53240967,0.13311768,0.8286743,0.013671875,-0.021484375,-0.034179688,60.359093,1.1929454,-129.45923,16.072346,0.0,0.0,0.0,0.0,0.0,0.0,0.0,20.824163,-129.16228,12.243335,0.0,0.0,0.0,0.0,0.0,0.0,0.0,-0.052497864,0.028151013,-0.99835247,-0.97320557,0.040893555,-0.2312622,0.0859375,-0.10644531,-0.11621094,3.6957045,-1.0868683,0.58281326,-20.66899,-0.9752197,-0.13061523,-0.078063965,-0.017578125,0.057617188,0.018554688,2.2544644,-4.4744635,-56.290096,-18.668043,0.50494385,0.06738281,0.8613281,0.03125,-0.017578125,-0.03515625,20.585678,-6.6340237,-128.0711,-13.308023,0.0,0.0,0.0,0.0,0.0,0.0,0.0,11.285021,-128.84724,-4.4527817,-0.97735596,-0.015991211,1.2207031E-4,0.030273438,0.049804688,0.03515625,0.0,1.7617805,44.955914,1.1750007,
0.6054687409778127,31,-0.8198242,-0.29119873,0.5473633,0.057617188,-0.03125,0.01953125,0.0,0.0,0.0,0.0,0.0,0.0,0.0,0.0,0.0,0.0,0.0,0.051677406,-0.0277296,0.9983907,-0.9046631,-0.00579834,-0.29370117,-0.07910156,0.06542969,0.0107421875,0.49692827,1.0698831,-0.5740887,20.66978,-0.9649658,0.016418457,0.012512207,-0.0126953125,0.0087890625,-0.0048828125,2.8675106,-0.6715903,-57.54013,19.343533,0.5303345,0.064697266,0.8317871,0.052734375,-0.021484375,-0.034179688,60.438206,1.1474901,-129.45515,16.048674,0.0,0.0,0.0,0.0,0.0,0.0,0.0,20.768488,-129.16751,12.166612,0.0,0.0,0.0,0.0,0.0,0.0,0.0,-0.051677406,0.0277296,-0.9983907,-0.9672241,0.05456543,-0.20629883,0.061523438,-0.140625,-0.13085938,3.5790536,-1.0698831,0.5740887,-20.66978,-0.9893799,-0.12072754,-0.07879639,-0.037109375,0.0390625,-9.765625E-4,2.3136764,-4.411188,-56.307434,-18.759447,0.5132446,0.066101074,0.8812866,0.013671875,9.765625E-4,-0.016601562,20.513332,-6.5415325,-128.09055,-13.418943,0.0,0.0,0.0,0.0,0.0,0.0,0.0,11.392389,-128.87592,-4.5955353,-0.9937134,-0.030151367,-0.0126953125,-0.08105469,0.0703125,0.016601562,0.0,1.7487835,44.956123,1.1581064,
0.6249999906867744,32,-0.8064575,-0.2874756,0.47766113,0.01953125,0.024414062,0.001953125,0.0,0.0,0.0,0.0,0.0,0.0,0.0,0.0,0.0,0.0,0.0,0.04991889,-0.02744811,0.99850345,-0.9274292,0.01727295,-0.29309082,-0.07910156,0.01171875,0.029296875,0.4685547,1.0334766,-0.56826097,20.672117,-1.0056152,0.02960205,0.0134887695,-0.013671875,0.0087890625,0.013671875,2.8436549,-0.7168015,-57.533596,19.35181,0.55596924,0.09448242,0.84198,0.013671875,-0.021484375,-0.034179688,60.352158,1.0539668,-129.45096,16.06268,0.0,0.0,0.0,0.0,0.0,0.0,0.0,20.67387,-129.16524,12.1778145,0.0,0.0,0.0,0.0,0.0,0.0,0.0,-0.04991889,0.02744811,-0.99850345,-0.9784546,0.09112549,-0.20056152,0.061523438,-0.16015625,-0.111328125,3.5433714,-1.0334766,0.56826097,-20.672117,-0.9810791,-0.0925293,-0.08215332,-0.017578125,9.765625E-4,0.017578125,2.2726226,-4.2470846,-56.318657,-18.7534,0.49523926,0.064819336,0.88635254,0.013671875,-0.018554688,0.0029296875,20.18139,-6.332442,-128.1021,-13.410053,0.0,0.0,0.0,0.0,0.0,0.0,0.0,11.660212,-128.89565,-4.7061434,-0.96777344,-0.037902832,0.0178833,-0.04296875,0.0703125,-0.020507812,0.0,1.733496,44.95764,1.149188,
0.6445312403957361,33,-0.8099365,-0.26464844,0.53948975,0.020507812,-0.0126953125,0.001953125,0.0,0.0,0.0,0.0,0.0,0.0,0.0,0.0,0.0,0.0,0.0,0.046480447,-0.027095985,0.9986808,-0.9042969,0.018676758,-0.27075195,-0.041015625,0.0107421875,0.029296875,0.41448697,0.9622891,-0.56097084,20.675789,-0.97351074,0.033203125,0.02947998,-0.0126953125,0.02734375,0.013671875,2.7764325,-0.7620914,-57.52831,19.36817,0.524292,0.12133789,0.85809326,0.033203125,0.016601562,-0.033203125,60.201916,0.954625,-129.4438,16.118065,0.0,0.0,0.0,0.0,0.0,0.0,0.0,20.578054,-129.15404,12.252258,0.0,0.0,0.0,0.0,0.0,0.0,0.0,-0.046480447,0.027095985,-0.9986808,-0.9763794,0.076416016,-0.22265625,0.048828125,-0.12792969,-0.11816406,3.5617244,-0.9622891,0.56097084,-20.675789,-0.9873047,-0.10437012,-0.0625,-0.037109375,9.765625E-4,0.037109375,2.2348459,-4.088034,-56.330353,-18.727911,0.49017334,0.0748291,0.88134766,0.0126953125,-0.037109375,-0.016601562,19.877472,-6.1329007,-128.11545,-13.3722515,0.0,0.0,0.0,0.0,0.0,0.0,0.0,11.902613,-128.91814,-4.7622385,-0.987854,-0.039123535,-0.00579834,-0.025390625,0.08886719,0.053710938,0.0,1.6675931,44.960392,1.1422424,
0.6640624901046978,34,-0.76849365,-0.2855835,0.48883057,-0.055664062,0.024414062,0.00390625,0.0,0.0,0.0,0.0,0.0,0.0,0.0,0.0,0.0,0.0,0.0,0.044713557,-0.02635723,0.99875253,-0.9175415,0.0021362305,-0.26574707,-0.022460938,-0.0068359375,0.047851562,0.44806132,0.92571026,-0.54567635,20.677275,-1.0033569,0.040222168,0.024475098,-0.0126953125,0.02734375,0.013671875,2.7025502,-0.7462682,-57.51362,19.372988,0.53308105,0.11468506,0.8097534,0.033203125,-0.0029296875,-0.033203125,60.135784,0.9336737,-129.43211,16.141136,0.0,0.0,0.0,0.0,0.0,0.0,0.0,20.557322,-129.13925,12.281486,0.0,0.0,0.0,0.0,0.0,0.0,0.0,-0.044713557,0.02635723,-0.99875253,-0.9642334,0.064453125,-0.21899414,-0.0078125,-0.13085938,-0.15820312,3.476263,-0.92571026,0.54567635,-20.677275,-0.9873047,-0.10449219,-0.055541992,-0.056640625,9.765625E-4,0.017578125,2.28559,-4.0111766,-56.34821,-18.770054,0.49401855,0.057128906,0.87042236,0.013671875,0.0,0.021484375,19.43223,-6.006755,-128.13254,-13.398775,0.0,0.0,0.0,0.0,0.0,0.0,0.0,12.086946,-128.94916,-4.9128094,-0.9770508,-0.052246094,0.009033203,0.030273438,0.107421875,0.07128906,0.0,1.6619442,44.960064,1.1120987,
0.6835937398136595,35,-0.79785156,-0.2755127,0.53912354,0.020507812,-0.0126953125,0.001953125,0.0,0.0,0.0,0.0,0.0,0.0,0.0,0.0,0.0,0.0,0.0,0.041720837,-0.026050286,0.9989101,-0.930603,0.006591797,-0.30993652,0.034179688,0.064453125,0.029296875,0.4387946,0.86375093,-0.53932166,20.680536,-0.9875488,0.030212402,6.1035156E-4,0.005859375,-0.0107421875,0.0146484375,2.627486,-0.7733245,-57.506416,19.359581,0.50897217,0.11212158,0.82055664,0.033203125,-0.041015625,-0.052734375,60.013676,0.8750943,-129.42946,16.164867,0.0,0.0,0.0,0.0,0.0,0.0,0.0,20.504889,-129.13185,12.3373575,0.0,0.0,0.0,0.0,0.0,0.0,0.0,-0.041720837,0.026050286,-0.9989101,-0.9854126,0.06542969,-0.19506836,0.026367188,-0.12597656,-0.15429688,3.406743,-0.86375093,0.53932166,-20.680536,-0.98223877,-0.10845947,-0.054626465,-0.037109375,9.765625E-4,0.017578125,2.317649,-3.8728912,-56.3576,-18.82447,0.50683594,0.08355713,0.8482666,0.013671875,9.765625E-4,-0.03515625,19.430988,-5.8300343,-128.14279,-13.454089,0.0,0.0,0.0,0.0,0.0,0.0,0.0,12.255259,-128.96364,-4.9481306,-0.9939575,-0.047912598,0.0032348633,0.0126953125,0.05078125,-0.001953125,0.0,1.6315222,44.96227,1.1044152,
0.7031249895226211,36,-0.8204346,-0.31103516,0.50946045,0.020507812,-0.03125,0.001953125,0.0,0.0,0.0,0.0,0.0,0.0,0.0,0.0,0.0,0.0,0.0,0.03901702,-0.025258347,0.9990346,-0.93914795,0.037109375,-0.2828369,0.072265625,0.028320312,0.029296875,0.42243615,0.8077739,-0.5229261,20.683113,-0.9937134,0.02545166,-4.272461E-4,0.005859375,0.0078125,0.0146484375,2.6030116,-0.81767243,-57.49641,19.379286,0.50897217,0.11212158,0.82055664,0.033203125,-0.041015625,-0.052734375,59.96935,0.79767114,-129.4204,16.189655,0.0,0.0,0.0,0.0,0.0,0.0,0.0,20.427465,-129.12279,12.362145,0.0,0.0,0.0,0.0,0.0,0.0,0.0,-0.03901702,0.025258347,-0.9990346,-0.97229004,0.06048584,-0.2052002,0.01171875,-0.13085938,-0.13867188,3.3232515,-0.8077739,0.5229261,-20.683113,-0.97924805,-0.11895752,-0.07080078,-0.056640625,9.765625E-4,0.017578125,2.3340585,-3.7389262,-56.38129,-18.859592,0.49694824,0.06719971,0.8643799,0.0126953125,-0.017578125,-0.03515625,19.682575,-5.653681,-128.1684,-13.489296,0.0,0.0,0.0,0.0,0.0,0.0,0.0,12.387587,-128.99542,-4.891159,-0.98895264,-0.041931152,-0.017700195,0.01171875,0.01171875,-0.001953125,0.0,1.6117406,44.963493,1.0738549,
0.7226562392315828,37,-0.8135376,-0.31103516,0.5232544,0.01953125,0.005859375,0.001953125,0.0,0.0,0.0,0.0,0.0,0.0,0.0,0.0,0.0,0.0,0.0,0.03846392,-0.024711184,0.9991098,-0.9274292,0.01727295,-0.29309082,0.015625,0.028320312,0.029296875,0.4414621,0.7963222,-0.5115981,20.68467,-0.9803467,0.005065918,0.010437012,0.0068359375,0.026367188,0.033203125,2.5822496,-0.8076657,-57.482155,19.395088,0.51239014,0.1293335,0.86608887,0.033203125,-0.0029296875,-0.033203125,60.000233,0.7951218,-129.40877,16.213064,0.0,0.0,0.0,0.0,0.0,0.0,0.0,20.421524,-129.1155,12.364463,0.0,0.0,0.0,0.0,0.0,0.0,0.0,-0.03846392,0.024711184,-0.9991098,-0.9692993,0.06451416,-0.21600342,-0.009765625,-0.16699219,-0.13574219,3.2717164,-0.7963222,0.5115981,-20.68467,-0.9963989,-0.09844971,-0.064331055,-0.017578125,0.057617188,0.018554688,2.3404229,-3.65379,-56.398746,-18.864342,0.50909424,0.06921387,0.87127686,0.013671875,9.765625E-4,-0.016601562,19.58877,-5.529263,-128.18376,-13.473472,0.0,0.0,0.0,0.0,0.0,0.0,0.0,12.526182,-129.01949,-4.9044714,-0.9920044,-0.045898438,-0.007751465,-0.0068359375,0.01171875,0.017578125,0.0,1.6109341,44.96589,1.0501323,
0.7421874889405445,38,-0.8086548,-0.29815674,0.5332031,-0.017578125,0.024414062,0.0029296875,0.0,0.0,0.0,0.0,0.0,0.0,0.0,0.0,0.0,0.0,0.0,0.03801778,-0.024345268,0.9991104,-0.9324951,0.010314941,-0.26641846,-0.07910156,0.01171875,0.029296875,0.48335493,0.787086,-0.50402254,20.684683,-0.9986572,0.027832031,-0.013305664,-0.013671875,0.0087890625,0.013671875,2.5033493,-0.7831762,-57.475483,19.419495,0.5202637,0.11743164,0.8688965,0.013671875,-0.0029296875,-0.0146484375,59.975674,0.74730015,-129.4024,16.280521,0.0,0.0,0.0,0.0,0.0,0.0,0.0,20.368114,-129.11172,12.40624,0.0,0.0,0.0,0.0,0.0,0.0,0.0,-0.03801778,0.024345268,-0.9991104,-0.9713135,0.06451416,-0.21398926,0.013671875,-0.11328125,-0.140625,3.1931016,-0.787086,0.50402254,-20.684683,-0.98431396,-0.12371826,-0.079833984,-0.037109375,-0.056640625,0.055664062,2.3560925,-3.5728924,-56.409264,-18.90493,0.4902954,0.08270264,0.8873291,-0.00390625,0.056640625,0.001953125,19.468996,-5.425954,-128.19623,-13.526959,0.0,0.0,0.0,0.0,0.0,0.0,0.0,12.653174,-129.0394,-5.012845,-0.97753906,-0.06652832,-0.025756836,-0.0625,0.06933594,0.03515625,0.0,1.6173848,44.964878,1.0341126,
0.7617187386495062,39,-0.7802124,-0.30828857,0.47491455,0.01953125,0.005859375,0.001953125,0.0,0.0,0.0,0.0,0.0,0.0,0.0,0.0,0.0,0.0,0.0,0.03563708,-0.023824543,0.9992159,-0.94036865,0.024353027,-0.28100586,-0.041015625,0.046875,0.029296875,0.45927542,0.7377979,-0.4932419,20.686867,-0.98535156,0.038879395,0.010620117,-0.0126953125,0.02734375,0.013671875,2.485222,-0.8335772,-57.465824,19.440905,0.5239258,0.101867676,0.8470459,0.052734375,-0.0029296875,-0.0146484375,59.951897,0.6692081,-129.39478,16.331352,0.0,0.0,0.0,0.0,0.0,0.0,0.0,20.290102,-129.10515,12.449537,0.0,0.0,0.0,0.0,0.0,0.0,0.0,-0.03563708,0.023824543,-0.9992159,-0.9642334,0.06439209,-0.20019531,0.111328125,-0.15136719,-0.12402344,3.1311913,-0.7377979,0.4932419,-20.686867,-0.98217773,-0.105407715,-0.06549072,-0.056640625,0.01953125,0.037109375,2.380555,-3.4397268,-56.423073,-18.932003,0.4940796,0.08703613,0.86932373,-0.0048828125,-0.018554688,-0.016601562,19.275501,-5.2683825,-128.20682,-13.534445,0.0,0.0,0.0,0.0,0.0,0.0,0.0,12.84647,-129.06412,-5.093664,-0.97540283,-0.05670166,-0.03765869,-0.025390625,0.01171875,0.017578125,0.0,1.5995486,44.966187,1.0150915,
0.7812499883584679,40,-0.8256836,-0.2814331,0.51190186,0.01953125,0.061523438,-0.03515625,0.0,0.0,0.0,0.0,0.0,0.0,0.0,0.0,0.0,0.0,0.0,0.034604996,-0.022965938,0.9992482,-0.951355,0.023498535,-0.26696777,-0.041015625,0.0107421875,0.029296875,0.5143426,0.7164326,-0.47546613,20.687536,-1.0023804,0.0020751953,-0.005554199,-0.0126953125,0.0087890625,-0.0048828125,2.4257574,-0.79718006,-57.45038,19.433323,0.5492554,0.11419678,0.8383179,0.033203125,-0.0029296875,-0.033203125,59.940613,0.6915176,-129.3757,16.325619,0.0,0.0,0.0,0.0,0.0,0.0,0.0,20.309502,-129.08159,12.437717,0.0,0.0,0.0,0.0,0.0,0.0,0.0,-0.034604996,0.022965938,-0.9992482,-0.97332764,0.07128906,-0.19506836,0.09667969,-0.15527344,-0.10839844,3.0798783,-0.7164326,0.47546613,-20.687536,-0.98327637,-0.11419678,-0.062683105,-0.037109375,0.01953125,0.037109375,2.3584173,-3.3207211,-56.448513,-18.917858,0.49188232,0.05419922,0.86450195,0.013671875,0.01953125,-0.016601562,18.95841,-5.121639,-128.23521,-13.512055,0.0,0.0,0.0,0.0,0.0,0.0,0.0,13.040428,-129.10289,-5.1774416,-0.9668579,-0.041748047,0.008972168,0.030273438,0.03125,0.016601562,0.0,1.5983446,44.96596,0.9781102,
0.8007812380674296,41,-0.8046875,-0.28735352,0.5233154,0.01953125,0.024414062,0.001953125,0.0,0.0,0.0,0.0,0.0,0.0,0.0,0.0,0.0,0.0,0.0,0.033702344,-0.022664089,0.9993315,-0.949646,0.0038452148,-0.27905273,-0.09765625,-0.0068359375,0.029296875,0.51851046,0.69774294,-0.46921694,20.689259,-0.9790039,0.014160156,-0.0053710938,-0.0126953125,0.02734375,-0.0048828125,2.3645506,-0.78722,-57.44239,19.446339,0.51605225,0.11590576,0.8225708,0.013671875,0.016601562,-0.033203125,59.873295,0.6664375,-129.37433,16.389137,0.0,0.0,0.0,0.0,0.0,0.0,0.0,20.286825,-129.07326,12.512997,0.0,0.0,0.0,0.0,0.0,0.0,0.0,-0.033702344,0.022664089,-0.9993315,-0.97943115,0.07537842,-0.2166748,0.08105469,-0.140625,-0.11230469,3.0488305,-0.69774294,0.46921694,-20.689259,-0.9802246,-0.11218262,-0.06866455,-0.037109375,0.0,0.056640625,2.3742156,-3.2109494,-56.45706,-18.924263,0.51135254,0.06793213,0.88726807,0.032226562,-0.037109375,0.0029296875,18.698248,-4.9762626,-128.24283,-13.489396,0.0,0.0,0.0,0.0,0.0,0.0,0.0,13.221758,-129.12105,-5.235589,-0.9691162,-0.052368164,0.0029907227,-0.0068359375,0.05078125,0.016601562,0.0,1.5791931,44.96894,0.96660376,
0.8203124877763913,42,-0.80895996,-0.27545166,0.55126953,0.01953125,0.005859375,-0.016601562,0.0,0.0,0.0,0.0,0.0,0.0,0.0,0.0,0.0,0.0,0.0,0.03285709,-0.022431727,0.9993475,-0.9435425,0.008544922,-0.27020264,-0.00390625,0.028320312,0.029296875,0.54608065,0.6802436,-0.46440628,20.689592,-0.9833374,0.03717041,-0.010253906,-0.013671875,0.0087890625,0.013671875,2.34677,-0.7933706,-57.44351,19.4592,0.53497314,0.101745605,0.8352051,0.013671875,-0.0029296875,-0.0146484375,59.89195,0.61252415,-129.3788,16.377007,0.0,0.0,0.0,0.0,0.0,0.0,0.0,20.227015,-129.08044,12.467357,0.0,0.0,0.0,0.0,0.0,0.0,0.0,-0.03285709,0.022431727,-0.9993475,-0.9793701,0.06958008,-0.23266602,0.12207031,-0.06640625,-0.13476562,3.0232322,-0.6802436,0.46440628,-20.689592,-0.9730835,-0.10638428,-0.070495605,-0.037109375,0.01953125,0.018554688,2.4160557,-3.2676282,-56.455082,-18.949234,0.49536133,0.089660645,0.8892212,-0.0048828125,0.0,-0.016601562,18.658249,-5.008576,-128.24034,-13.517275,0.0,0.0,0.0,0.0,0.0,0.0,0.0,13.200291,-129.12471,-5.285084,-0.98321533,-0.063964844,0.020019531,-0.08300781,0.068359375,0.11035156,0.0,1.5916507,44.967922,0.9570356,
0.839843737485353,43,-0.7987671,-0.27752686,0.5232544,0.01953125,0.024414062,-0.016601562,0.0,0.0,0.0,0.0,0.0,0.0,0.0,0.0,0.0,0.0,0.0,0.031138778,-0.021806907,0.9993977,-0.93951416,0.010559082,-0.2850952,0.015625,-0.026367188,0.029296875,0.5619739,0.64466894,-0.45147058,20.690632,-0.991333,0.03656006,-0.016174316,-0.032226562,0.0087890625,0.013671875,2.2714167,-0.77626693,-57.432507,19.480564,0.5512085,0.11218262,0.83532715,0.052734375,-0.021484375,-0.034179688,59.870575,0.5841985,-129.36877,16.43759,0.0,0.0,0.0,0.0,0.0,0.0,0.0,20.196678,-129.07085,12.514679,0.0,0.0,0.0,0.0,0.0,0.0,0.0,-0.031138778,0.021806907,-0.9993977,-0.9834595,0.072265625,-0.1850586,-0.022460938,-0.15429688,-0.12207031,2.9592276,-0.64466894,0.45147058,-20.690632,-0.9812622,-0.12182617,-0.077819824,-0.037109375,0.01953125,0.018554688,2.4482458,-3.203095,-56.471546,-18.985907,0.49682617,0.08239746,0.85235596,-0.005859375,-0.07519531,-0.015625,18.701803,-4.9203935,-128.25978,-13.552641,0.0,0.0,0.0,0.0,0.0,0.0,0.0,13.289812,-129.15182,-5.3245544,-0.97247314,-0.06982422,-9.1552734E-4,0.009765625,-0.0087890625,0.0546875,0.0,1.5620117,44.968636,0.93254936,
0.8593749871943147,44,-0.8066406,-0.28149414,0.5055542,0.057617188,-0.0126953125,9.765625E-4,0.0,0.0,0.0,0.0,0.0,0.0,0.0,0.0,0.0,0.0,0.0,0.03117165,-0.021751957,0.99943894,-0.9337158,-0.0044555664,-0.26452637,-0.07910156,0.01171875,0.029296875,0.6233823,0.6453494,-0.45033294,20.691484,-0.99676514,-0.009094238,0.0033569336,-0.0126953125,0.02734375,0.013671875,2.2632158,-0.7222408,-57.427216,19.506815,0.51123047,0.11755371,0.8718262,-0.005859375,0.036132812,-0.033203125,59.939877,0.6486591,-129.35715,16.449894,0.0,0.0,0.0,0.0,0.0,0.0,0.0,20.257662,-129.05981,12.509725,0.0,0.0,0.0,0.0,0.0,0.0,0.0,-0.03117165,0.021751957,-0.99943894,-0.9753418,0.05657959,-0.20721436,0.061523438,-0.16015625,-0.111328125,2.922953,-0.6453494,0.45033294,-20.691484,-0.97821045,-0.11694336,-0.07873535,-0.017578125,0.0,0.056640625,2.4608452,-3.1087089,-56.48003,-19.000647,0.47698975,0.06286621,0.87249756,0.013671875,9.765625E-4,-0.016601562,18.725605,-4.783844,-128.2651,-13.554216,0.0,0.0,0.0,0.0,0.0,0.0,0.0,13.415968,-129.16219,-5.3046474,-0.987854,-0.043273926,0.014099121,0.048828125,0.107421875,0.07128906,0.0,1.5689611,44.970303,0.92980665,
0.8789062369032764,45,-0.80493164,-0.26757812,0.53741455,0.020507812,-0.0126953125,0.001953125,0.0,0.0,0.0,0.0,0.0,0.0,0.0,0.0,0.0,0.0,0.0,0.0302127,-0.021690458,0.99946535,-0.94573975,-0.0040283203,-0.29797363,-0.00390625,0.046875,0.047851562,0.63025004,0.62549716,-0.44905975,20.692032,-0.9830322,0.014099121,0.008483887,-0.051757812,0.009765625,-0.0048828125,2.2344956,-0.7365579,-57.42726,19.46216,0.5300293,0.16430664,0.85668945,0.033203125,-0.0029296875,-0.0146484375,59.830265,0.6306365,-129.36209,16.392256,0.0,0.0,0.0,0.0,0.0,0.0,0.0,20.244001,-129.0619,12.483629,0.0,0.0,0.0,0.0,0.0,0.0,0.0,-0.0302127,0.021690458,-0.99946535,-0.9753418,0.058532715,-0.20025635,0.10253906,-0.10449219,-0.115234375,2.8685343,-0.62549716,0.44905975,-20.692032,-0.99438477,-0.10913086,-0.06555176,-0.017578125,0.0,0.056640625,2.5161395,-3.053474,-56.484333,-19.048845,0.47937012,0.0803833,0.8963623,0.032226562,0.01953125,-0.016601562,18.676537,-4.7007422,-128.2713,-13.587979,0.0,0.0,0.0,0.0,0.0,0.0,0.0,13.500135,-129.17067,-5.338743,-0.98876953,-0.03729248,0.006164551,0.0107421875,0.068359375,0.09082031,0.0,1.5680876,44.970158,0.9285436,
0.8984374866122381,46,-0.7918091,-0.2677002,0.5152588,0.020507812,-0.03125,0.001953125,0.0,0.0,0.0,0.0,0.0,0.0,0.0,0.0,0.0,0.0,0.0,0.029664695,-0.021430913,0.9994893,-0.9277954,-0.010314941,-0.29333496,-0.022460938,0.028320312,0.0107421875,0.66617244,0.6141526,-0.44368637,20.692526,-0.98272705,0.025024414,0.006591797,-0.032226562,0.02734375,0.013671875,2.2092142,-0.73089343,-57.423885,19.452953,0.5300293,0.16430664,0.85668945,0.033203125,-0.0029296875,-0.0146484375,59.75488,0.60806006,-129.35435,16.360641,0.0,0.0,0.0,0.0,0.0,0.0,0.0,20.221426,-129.05417,12.452015,0.0,0.0,0.0,0.0,0.0,0.0,0.0,-0.029664695,0.021430913,-0.9994893,-0.9753418,0.058410645,-0.18243408,0.10058594,-0.140625,-0.09277344,2.8143165,-0.6141526,0.44368637,-20.692526,-0.97821045,-0.12194824,-0.067871094,-0.037109375,-0.018554688,0.017578125,2.5403717,-2.9693887,-56.492443,-19.076925,0.49090576,0.062194824,0.86346436,0.013671875,9.765625E-4,-0.016601562,18.553726,-4.5773087,-128.27898,-13.611707,0.0,0.0,0.0,0.0,0.0,0.0,0.0,13.630482,-129.1763,-5.378148,-0.97766113,-0.028686523,1.2207031E-4,-0.13964844,0.048828125,0.111328125,0.0,1.5815188,44.97001,0.91730154,
0.9179687363211998,47,-0.80474854,-0.28735352,0.5352173,0.020507812,-0.0126953125,0.001953125,0.0,0.0,0.0,0.0,0.0,0.0,0.0,0.0,0.0,0.0,0.0,0.029376566,-0.020718375,0.9995164,-0.9255371,0.0064086914,-0.29815674,0.034179688,0.046875,0.047851562,0.66263825,0.6081863,-0.42893454,20.693087,-0.98114014,0.010131836,0.003479004,-0.0126953125,0.02734375,0.051757812,2.1688914,-0.7262117,-57.409515,19.438097,0.5152588,0.117492676,0.8718262,0.032226562,0.036132812,-0.0146484375,59.66252,0.58169013,-129.34511,16.351898,0.0,0.0,0.0,0.0,0.0,0.0,0.0,20.202223,-129.04808,12.469899,0.0,0.0,0.0,0.0,0.0,0.0,0.0,-0.029376566,0.020718375,-0.9995164,-0.965271,0.060424805,-0.20129395,0.13085938,-0.15136719,-0.10449219,2.7645628,-0.6081863,0.42893454,-20.693087,-0.98931885,-0.099609375,-0.056396484,-0.037109375,0.01953125,0.037109375,2.5526698,-2.8682487,-56.51273,-19.07975,0.5130005,0.060424805,0.86431885,-0.0048828125,0.0,0.001953125,18.519093,-4.4593496,-128.3004,-13.590457,0.0,0.0,0.0,0.0,0.0,0.0,0.0,13.773017,-129.2051,-5.4169807,-0.98321533,-0.054870605,-0.0087890625,-0.08300781,0.030273438,0.07421875,0.0,1.5629603,44.97144,0.8862493,
0.9374999860301615,48,-0.8286743,-0.29718018,0.52368164,9.765625E-4,-0.0126953125,0.001953125,0.0,0.0,0.0,0.0,0.0,0.0,0.0,0.0,0.0,0.0,0.0,0.029059708,-0.020542182,0.9994671,-0.9376831,-3.6621094E-4,-0.28027344,-0.022460938,-0.0068359375,0.047851562,0.6723125,0.60162574,-0.4252868,20.692068,-0.9833374,0.03729248,-0.020141602,-0.013671875,0.0087890625,0.013671875,2.135792,-0.722074,-57.40407,19.453426,0.53466797,0.13775635,0.8632202,0.013671875,0.036132812,-0.0146484375,59.580643,0.5209574,-129.33861,16.36353,0.0,0.0,0.0,0.0,0.0,0.0,0.0,20.136974,-129.04979,12.466855,0.0,0.0,0.0,0.0,0.0,0.0,0.0,-0.029059708,0.020542182,-0.9994671,-0.96728516,0.06555176,-0.22790527,0.0859375,-0.10644531,-0.11621094,2.7221076,-0.60162574,0.4252868,-20.692068,-0.9812012,-0.107421875,-0.057556152,-0.037109375,0.0390625,0.018554688,2.6054919,-2.8356435,-56.51824,-19.109053,0.4951172,0.067993164,0.87438965,-0.0048828125,0.0,-0.016601562,18.184261,-4.413954,-128.30176,-13.593146,0.0,0.0,0.0,0.0,0.0,0.0,0.0,13.86441,-129.21628,-5.523363,-0.98132324,-0.064819336,0.0040893555,-0.064453125,0.030273438,0.09277344,0.0,1.5634341,44.96877,0.87879205,
0.9570312357391232,49,-0.77441406,-0.31896973,0.5203247,0.020507812,-0.0126953125,0.001953125,0.0,0.0,0.0,0.0,0.0,0.0,0.0,0.0,0.0,0.0,0.0,0.030686378,-0.02033988,0.9994682,-0.9215088,0.005126953,-0.26367188,-0.022460938,-0.0078125,0.029296875,0.7292733,0.6353035,-0.42109856,20.69209,-1.0010986,0.012817383,0.0025024414,-0.032226562,0.02734375,0.033203125,2.0904083,-0.6442715,-57.4003,19.443155,0.517334,0.1293335,0.84936523,0.052734375,-0.0029296875,-0.033203125,59.545246,0.5776212,-129.33633,16.34501,0.0,0.0,0.0,0.0,0.0,0.0,0.0,20.196514,-129.04263,12.459257,0.0,0.0,0.0,0.0,0.0,0.0,0.0,-0.030686378,0.02033988,-0.9994682,-0.9763794,0.07141113,-0.21087646,0.10253906,-0.10449219,-0.115234375,2.702043,-0.6353035,0.42109856,-20.69209,-0.98638916,-0.11907959,-0.05682373,-0.037109375,0.095703125,0.01953125,2.6053417,-2.879902,-56.52223,-19.114218,0.48138428,0.07647705,0.89538574,0.013671875,-0.018554688,0.0029296875,18.06982,-4.4610243,-128.30843,-13.607178,0.0,0.0,0.0,0.0,0.0,0.0,0.0,13.830682,-129.2212,-5.5641823,-1.0072632,-0.061157227,-0.006652832,-0.029296875,-0.0107421875,0.16796875,0.0,1.5703455,44.970806,0.8669737,
0.9765624854480849,50,-0.8319702,-0.25183105,0.5123291,0.01953125,0.005859375,0.001953125,0.0,0.0,0.0,0.0,0.0,0.0,0.0,0.0,0.0,0.0,0.0,0.027521104,-0.020450464,0.99956095,-0.92858887,0.005554199,-0.30804443,-0.00390625,0.06542969,0.029296875,0.66675967,0.56977177,-0.423388,20.69401,-0.99438477,0.037963867,0.026428223,0.005859375,0.0078125,0.033203125,2.0802724,-0.7436398,-57.401844,19.423563,0.5421753,0.113464355,0.82250977,0.013671875,-0.021484375,-0.034179688,59.669033,0.46254623,-129.34038,16.341396,0.0,0.0,0.0,0.0,0.0,0.0,0.0,20.072462,-129.05098,12.411572,0.0,0.0,0.0,0.0,0.0,0.0,0.0,-0.027521104,0.020450464,-0.99956095,-0.97943115,0.0713501,-0.19897461,0.033203125,-0.11328125,-0.12207031,2.7119496,-0.56977177,0.423388,-20.69401,-0.9883423,-0.120788574,-0.0748291,-0.037109375,0.01953125,0.018554688,2.5907257,-2.7645447,-56.52186,-19.118122,0.4840088,0.07293701,0.8713989,0.032226562,-0.017578125,-0.015625,18.244814,-4.330304,-128.30777,-13.626745,0.0,0.0,0.0,0.0,0.0,0.0,0.0,13.944434,-129.21742,-5.546316,-1.0042114,-0.061340332,0.0052490234,-0.013671875,-0.12695312,0.18847656,0.0,1.5452344,44.971603,0.87754893,
0.9960937351570466,51,-0.80444336,-0.29144287,0.48358154,0.020507812,-0.03125,0.001953125,0.0,0.0,0.0,0.0,0.0,0.0,0.0,0.0,0.0,0.0,0.0,0.026374578,-0.019764125,0.9995993,-0.94158936,0.0076293945,-0.28607178,-0.07910156,-0.0068359375,0.047851562,0.6501176,0.5460355,-0.40917864,20.694803,-0.9834595,0.03314209,-0.0072631836,-0.013671875,0.0087890625,0.013671875,2.0740538,-0.771309,-57.387825,19.442043,0.51190186,0.10601807,0.83917236,0.052734375,-0.021484375,-0.034179688,59.641445,0.40239036,-129.32481,16.365728,0.0,0.0,0.0,0.0,0.0,0.0,0.0,20.01158,-129.0383,12.433401,0.0,0.0,0.0,0.0,0.0,0.0,0.0,-0.026374578,0.019764125,-0.9995993,-0.96520996,0.052612305,-0.20837402,0.10058594,-0.10253906,-0.13183594,2.6377466,-0.5460355,0.40917864,-20.694803,-0.99835205,-0.09820557,-0.08227539,-0.056640625,0.01953125,0.037109375,2.6265175,-2.6987166,-56.537487,-19.154385,0.48120117,0.076660156,0.885376,0.013671875,0.01953125,-0.016601562,18.423105,-4.2529454,-128.32394,-13.660225,0.0,0.0,0.0,0.0,0.0,0.0,0.0,14.021805,-129.23499,-5.582819,-0.97998047,-0.042114258,-0.016784668,-0.0107421875,-0.06738281,0.09375,0.0,1.5308876,44.972363,0.8488029,
1.0156249848660084,52,-0.8109131,-0.2626953,0.52368164,0.01953125,0.005859375,0.001953125,0.0,0.0,0.0,0.0,0.0,0.0,0.0,0.0,0.0,0.0,0.0,0.022393405,-0.019555336,0.9996496,-0.9315796,0.0044555664,-0.2783203,-0.00390625,-0.0068359375,0.06640625,0.6590852,0.46361274,-0.4048561,20.695845,-1.0076904,-0.006713867,0.0013427734,-0.032226562,0.0087890625,0.013671875,2.067343,-0.7986699,-57.383976,19.447428,0.54522705,0.11230469,0.84124756,0.033203125,-0.001953125,0.00390625,59.708878,0.3962764,-129.32033,16.342607,0.0,0.0,0.0,0.0,0.0,0.0,0.0,20.005093,-129.03094,12.400774,0.0,0.0,0.0,0.0,0.0,0.0,0.0,-0.022393405,0.019555336,-0.9996496,-0.9723511,0.06732178,-0.18920898,0.09863281,-0.119140625,-0.12988281,2.5807333,-0.46361274,0.4048561,-20.695845,-0.97821045,-0.11315918,-0.06866455,-0.037109375,9.765625E-4,0.017578125,2.6836526,-2.5739548,-56.54805,-19.209375,0.49291992,0.040161133,0.8675537,0.0126953125,-0.017578125,-0.03515625,18.066143,-4.116726,-128.3306,-13.709169,0.0,0.0,0.0,0.0,0.0,0.0,0.0,14.216103,-129.2525,-5.760836,-0.9557495,-0.021057129,-0.030883789,0.06738281,-0.045898438,-0.01953125,0.0,1.4953835,44.971306,0.84623885,
1.03515623457497,53,-0.836853,-0.26171875,0.5123291,0.01953125,0.005859375,0.001953125,0.0,0.0,0.0,0.0,0.0,0.0,0.0,0.0,0.0,0.0,0.0,0.020694345,-0.018946238,0.999718,-0.94976807,-0.0061035156,-0.2662964,-0.022460938,0.029296875,0.06640625,0.71408963,0.4284378,-0.3922458,20.69726,-0.97991943,0.018310547,-0.013305664,-0.013671875,-0.0107421875,0.033203125,1.9803098,-0.7406081,-57.37406,19.422173,0.5452881,0.11608887,0.8521118,0.033203125,-0.059570312,0.0029296875,59.636074,0.45510018,-129.30698,16.328718,0.0,0.0,0.0,0.0,0.0,0.0,0.0,20.066307,-129.01248,12.401454,0.0,0.0,0.0,0.0,0.0,0.0,0.0,-0.020694345,0.018946238,-0.999718,-0.9753418,0.06542969,-0.19909668,0.15234375,-0.115234375,-0.107421875,2.520958,-0.4284378,0.3922458,-20.69726,-0.9802246,-0.11419678,-0.06567383,-0.056640625,0.0,0.037109375,2.7216043,-2.4600694,-56.559334,-19.23811,0.5270996,0.062561035,0.8652344,0.032226562,9.765625E-4,0.0029296875,17.689802,-3.994471,-128.34506,-13.721017,0.0,0.0,0.0,0.0,0.0,0.0,0.0,14.388334,-129.277,-5.8939705,-1.0014648,-0.014160156,-0.028503418,-0.04296875,0.10839844,0.034179688,0.0,1.4526836,44.974056,0.8222586,
1.0546874842839318,54,-0.79663086,-0.2913208,0.5230713,-0.017578125,0.024414062,0.0029296875,0.0,0.0,0.0,0.0,0.0,0.0,0.0,0.0,0.0,0.0,0.0,0.018505573,-0.018511202,0.9998384,-0.95684814,-0.009887695,-0.2642212,-0.022460938,0.029296875,0.047851562,0.7922884,0.38312292,-0.38323924,20.699755,-0.99823,0.009521484,0.015380859,-0.013671875,0.0087890625,0.013671875,1.9183648,-0.7025578,-57.36855,19.413034,0.5283203,0.12536621,0.8305664,0.013671875,-0.0029296875,-0.033203125,59.586296,0.51252556,-129.30638,16.33636,0.0,0.0,0.0,0.0,0.0,0.0,0.0,20.129358,-129.00478,12.444091,0.0,0.0,0.0,0.0,0.0,0.0,0.0,-0.018505573,0.018511202,-0.9998384,-0.98547363,0.07824707,-0.19384766,0.03515625,-0.07714844,-0.14355469,2.4828582,-0.38312292,0.38323924,-20.699755,-0.9680786,-0.111694336,-0.038757324,-0.037109375,0.01953125,0.018554688,2.763713,-2.4288628,-56.567577,-19.260136,0.4847412,0.04724121,0.85858154,0.013671875,9.765625E-4,-0.016601562,17.252188,-3.9129722,-128.34978,-13.715934,0.0,0.0,0.0,0.0,0.0,0.0,0.0,14.514213,-129.28712,-5.9894333,-0.9486084,-0.0234375,-0.0040893555,-0.1171875,0.14746094,0.034179688,0.0,1.4430845,44.977783,0.8060178,
1.0742187339928935,55,-0.81884766,-0.2744751,0.5336304,9.765625E-4,0.061523438,0.0029296875,0.0,0.0,0.0,0.0,0.0,0.0,0.0,0.0,0.0,0.0,0.0,0.021106899,-0.018361213,0.99969155,-0.9404297,0.019470215,-0.28796387,0.09082031,-0.0087890625,0.009765625,0.8432553,0.43697852,-0.380134,20.696714,-0.9812012,0.009765625,0.029296875,0.025390625,-0.01171875,0.0146484375,1.859306,-0.5990792,-57.364803,19.412634,0.5070801,0.11590576,0.8383179,0.052734375,-0.0029296875,-0.0146484375,59.50637,0.63653535,-129.30052,16.401266,0.0,0.0,0.0,0.0,0.0,0.0,0.0,20.259445,-128.99193,12.53395,0.0,0.0,0.0,0.0,0.0,0.0,0.0,-0.021106899,0.018361213,-0.99969155,-0.9875488,0.08703613,-0.171875,0.07910156,-0.13867188,-0.12988281,2.48955,-0.43697852,0.380134,-20.696714,-0.99035645,-0.10748291,-0.048583984,-0.017578125,0.057617188,0.038085938,2.7514327,-2.4224496,-56.57476,-19.232777,0.50006104,0.0690918,0.8713379,0.013671875,9.765625E-4,-0.016601562,17.115404,-3.8718047,-128.3566,-13.668041,0.0,0.0,0.0,0.0,0.0,0.0,0.0,14.546167,-129.29758,-5.9245086,-0.9393921,-0.06188965,0.007751465,-0.15332031,0.18652344,0.015625,0.0,1.4432921,44.973545,0.79555076,
1.0937499837018552,56,-0.8048096,-0.2617798,0.50964355,0.020507812,-0.0126953125,0.001953125,0.0,0.0,0.0,0.0,0.0,0.0,0.0,0.0,0.0,0.0,0.0,0.022476852,-0.018221477,0.9996683,-0.9436035,0.0078125,-0.30377197,0.034179688,0.064453125,0.047851562,0.85271627,0.46534127,-0.37724108,20.696234,-0.9987793,0.026245117,0.024414062,-0.013671875,0.0087890625,0.013671875,1.8583583,-0.58131534,-57.36455,19.419653,0.52038574,0.12524414,0.86505127,0.013671875,-0.021484375,-0.015625,59.41373,0.6573127,-129.30005,16.43133,0.0,0.0,0.0,0.0,0.0,0.0,0.0,20.284033,-128.9918,12.581574,0.0,0.0,0.0,0.0,0.0,0.0,0.0,-0.022476852,0.018221477,-0.9996683,-0.9924927,0.07336426,-0.19091797,0.12011719,-0.10253906,-0.11328125,2.4678347,-0.46534127,0.37724108,-20.696234,-0.97406006,-0.097717285,-0.06237793,-0.017578125,0.0390625,0.018554688,2.7695148,-2.4026737,-56.580105,-19.239418,0.4873047,0.07965088,0.8873291,0.013671875,-0.018554688,0.0029296875,17.090902,-3.8517041,-128.36313,-13.659131,0.0,0.0,0.0,0.0,0.0,0.0,0.0,14.562767,-129.30278,-5.9085445,-0.94714355,-0.054016113,0.018737793,-0.041015625,0.24414062,0.013671875,0.0,1.458398,44.973392,0.78696245,
1.1132812334108169,57,-0.76153564,-0.2923584,0.5163574,0.01953125,0.024414062,0.020507812,0.0,0.0,0.0,0.0,0.0,0.0,0.0,0.0,0.0,0.0,0.0,0.024508595,-0.017337669,0.9997079,-0.9503174,0.026489258,-0.27978516,-0.07910156,-0.0068359375,0.047851562,0.8166127,0.50740445,-0.35894352,20.697052,-0.9803467,0.037963867,-0.0052490234,-0.0126953125,0.02734375,0.013671875,1.8931022,-0.5720389,-57.34452,19.471813,0.5199585,0.10803223,0.8185425,0.013671875,-0.021484375,0.0029296875,59.428493,0.62682104,-129.2855,16.489655,0.0,0.0,0.0,0.0,0.0,0.0,0.0,20.248138,-128.97754,12.614869,0.0,0.0,0.0,0.0,0.0,0.0,0.0,-0.024508595,0.017337669,-0.9997079,-0.9793701,0.06536865,-0.18920898,0.07910156,-0.15820312,-0.109375,2.4158936,-0.50740445,0.35894352,-20.697052,-0.9914551,-0.12188721,-0.06188965,-0.017578125,0.020507812,-9.765625E-4,2.7713518,-2.3605943,-56.59885,-19.236412,0.4909668,0.07208252,0.86639404,0.032226562,-0.037109375,0.0029296875,16.778435,-3.787984,-128.38126,-13.645495,0.0,0.0,0.0,0.0,0.0,0.0,0.0,14.670913,-129.33368,-5.999941,-0.9193115,-0.05444336,0.0036010742,-0.22949219,0.453125,0.23535156,0.0,1.453631,44.977497,0.74439585,
1.1328124831197786,58,-0.81695557,-0.2783203,0.5623169,-0.018554688,0.061523438,0.0029296875,0.0,0.0,0.0,0.0,0.0,0.0,0.0,0.0,0.0,0.0,0.0,0.026365161,-0.017235551,0.9995657,-0.93011475,0.042114258,-0.3244629,-0.00390625,0.028320312,0.0107421875,0.7979487,0.54584014,-0.35682938,20.694109,-0.993042,0.014709473,-0.008422852,-0.01171875,0.064453125,0.013671875,1.9307709,-0.5830107,-57.33751,19.500692,0.54541016,0.12701416,0.8335571,0.013671875,-0.0029296875,-0.0146484375,59.325603,0.56482005,-129.28183,16.502092,0.0,0.0,0.0,0.0,0.0,0.0,0.0,20.18911,-128.97679,12.644398,0.0,0.0,0.0,0.0,0.0,0.0,0.0,-0.026365161,0.017235551,-0.9995657,-0.9581909,0.058532715,-0.21618652,0.14550781,-0.14648438,-0.12011719,2.3958805,-0.54584014,0.35682938,-20.694109,-0.991333,-0.11291504,-0.081604004,-0.037109375,0.0390625,0.018554688,2.7867072,-2.3323936,-56.605145,-19.244957,0.5140991,0.06329346,0.86932373,0.032226562,9.765625E-4,-0.016601562,16.999691,-3.7560802,-128.38573,-13.652838,0.0,0.0,0.0,0.0,0.0,0.0,0.0,14.693031,-129.3387,-5.9811482,-0.9193115,-0.05444336,0.0036010742,-0.22949219,0.453125,0.23535156,0.0,1.4832042,44.97231,0.7363374,
1.1523437328287403,59,-0.8218384,-0.2755127,0.5238037,0.020507812,-0.068359375,-0.036132812,0.0,0.0,0.0,0.0,0.0,0.0,0.0,0.0,0.0,0.0,0.0,0.027917892,-0.01724182,0.9995608,-0.9144287,0.018249512,-0.34368896,-0.060546875,0.029296875,0.029296875,0.69520646,0.5779886,-0.35695916,20.694008,-0.9729614,0.051452637,0.0028076172,-0.0126953125,0.02734375,-0.0048828125,1.9282352,-0.6678556,-57.336803,19.492601,0.51934814,0.1282959,0.8532715,0.033203125,-0.0029296875,-0.033203125,59.23496,0.39905572,-129.28488,16.543009,0.0,0.0,0.0,0.0,0.0,0.0,0.0,20.018814,-128.98691,12.655925,0.0,0.0,0.0,0.0,0.0,0.0,0.0,-0.027917892,0.01724182,-0.9995608,-0.96520996,0.050842285,-0.2529297,0.13085938,-0.13183594,-0.12402344,2.3512692,-0.5779886,0.35695916,-20.694008,-0.99035645,-0.11566162,-0.09661865,-0.037109375,0.01953125,0.018554688,2.8007903,-2.4099817,-56.603542,-19.285358,0.5075073,0.06665039,0.9022827,0.013671875,0.01953125,-0.016601562,16.94741,-3.8549156,-128.38588,-13.733295,0.0,0.0,0.0,0.0,0.0,0.0,0.0,14.627138,-129.3442,-6.1478267,-1.0134888,-0.0859375,0.039123535,-0.17675781,0.22070312,0.23925781,0.0,1.4857993,44.97394,0.7342746,
1.171874982537702,60,-0.8366089,-0.28344727,0.49621582,0.020507812,-0.049804688,-0.036132812,0.0,0.0,0.0,0.0,0.0,0.0,0.0,0.0,0.0,0.0,0.0,0.02599302,-0.0170267,0.9996704,-0.9187622,-0.008300781,-0.3330078,-0.059570312,0.1015625,0.0107421875,0.5719823,0.5381361,-0.35250548,20.696278,-0.9979248,0.018615723,0.003479004,-0.032226562,0.0087890625,-0.0048828125,1.9902666,-0.8681208,-57.327126,19.456152,0.4993286,0.13562012,0.8405762,0.052734375,-0.0029296875,-0.033203125,59.143414,0.12678194,-129.26764,16.46784,0.0,0.0,0.0,0.0,0.0,0.0,0.0,19.744537,-128.96559,12.576816,0.0,0.0,0.0,0.0,0.0,0.0,0.0,-0.02599302,0.0170267,-0.9996704,-0.9642334,0.055786133,-0.24987793,0.06640625,-0.12597656,-0.11621094,2.3305337,-0.5381361,0.35250548,-20.696278,-0.9802246,-0.12359619,-0.093811035,-0.037109375,-0.018554688,0.037109375,2.8019783,-2.4204595,-56.607162,-19.298979,0.506897,0.08154297,0.8512573,0.013671875,9.765625E-4,-0.016601562,17.184061,-3.880522,-128.3926,-13.766861,0.0,0.0,0.0,0.0,0.0,0.0,0.0,14.60169,-129.35875,-6.177696,-1.0143433,-0.06793213,0.0033569336,-0.044921875,0.107421875,0.09082031,0.0,1.4820619,44.976604,0.72751963,
1.1914062322466636,61,-0.8588867,-0.26953125,0.52264404,0.020507812,-0.049804688,-0.036132812,0.0,0.0,0.0,0.0,0.0,0.0,0.0,0.0,0.0,0.0,0.0,0.023448497,-0.017191013,0.9997434,-0.921875,-0.018249512,-0.2965088,-0.041015625,0.029296875,0.029296875,0.5500081,0.48545602,-0.3559073,20.697786,-0.9973755,0.037353516,0.0075683594,-0.051757812,0.009765625,0.013671875,1.940679,-0.94587433,-57.331112,19.39058,0.51831055,0.12036133,0.8689575,0.051757812,0.016601562,-0.033203125,59.120445,-0.01357007,-129.27516,16.374077,0.0,0.0,0.0,0.0,0.0,0.0,0.0,19.598572,-128.97572,12.457379,0.0,0.0,0.0,0.0,0.0,0.0,0.0,-0.023448497,0.017191013,-0.9997434,-0.9612427,0.06555176,-0.23187256,0.068359375,-0.08984375,-0.13769531,2.33808,-0.48545602,0.3559073,-20.697786,-0.98431396,-0.11981201,-0.07879639,-0.037109375,9.765625E-4,0.017578125,2.7673936,-2.4067612,-56.600574,-19.30978,0.49194336,0.05316162,0.8665161,0.03125,-0.037109375,-0.015625,17.307798,-3.8649025,-128.38943,-13.835514,0.0,0.0,0.0,0.0,0.0,0.0,0.0,14.61693,-129.35497,-6.243534,-1.0178833,-0.03930664,-0.019470215,-0.0087890625,0.029296875,0.091796875,0.0,1.4478712,44.9781,0.7394585,
1.2109374819556253,62,-0.8328247,-0.25585938,0.49047852,0.020507812,-0.049804688,-0.036132812,0.0,0.0,0.0,0.0,0.0,0.0,0.0,0.0,0.0,0.0,0.0,0.019701988,-0.016910918,0.99979156,-0.95422363,-0.040527344,-0.25170898,-0.07910156,0.029296875,0.047851562,0.607807,0.40789226,-0.35010839,20.698786,-0.9897461,-0.007751465,0.02520752,-0.032226562,0.0087890625,-0.0048828125,1.8964074,-0.93551564,-57.326,19.369404,0.5363159,0.12225342,0.83447266,0.033203125,-0.0029296875,-0.033203125,59.162865,0.041839242,-129.26828,16.34448,0.0,0.0,0.0,0.0,0.0,0.0,0.0,19.655472,-128.966,12.428071,0.0,0.0,0.0,0.0,0.0,0.0,0.0,-0.019701988,0.016910918,-0.99979156,-0.96728516,0.058532715,-0.21020508,0.07910156,-0.0048828125,-0.14941406,2.3094428,-0.40789226,0.35010839,-20.698786,-0.9802246,-0.11517334,-0.061767578,-0.037109375,-0.018554688,0.055664062,2.7992525,-2.45568,-56.60442,-19.343292,0.49346924,0.08251953,0.89727783,0.013671875,9.765625E-4,-0.03515625,17.225163,-3.8984184,-128.39188,-13.8785095,0.0,0.0,0.0,0.0,0.0,0.0,0.0,14.592285,-129.3561,-6.312512,-1.0005493,-0.023071289,-0.018554688,-0.1015625,0.10644531,0.12890625,0.0,1.4176689,44.97749,0.73283243,
1.230468731664587,63,-0.81378174,-0.25494385,0.4901123,-0.017578125,-0.0126953125,0.0029296875,0.0,0.0,0.0,0.0,0.0,0.0,0.0,0.0,0.0,0.0,0.0,0.016975343,-0.016741414,0.9998213,-0.9608154,-0.005859375,-0.26904297,-0.00390625,0.029296875,0.047851562,0.6946434,0.35144132,-0.3465992,20.699402,-0.9924927,4.8828125E-4,0.011352539,-0.051757812,-0.0087890625,-0.0048828125,1.8339771,-0.88333195,-57.324265,19.318298,0.5342407,0.1184082,0.83148193,0.033203125,-0.0029296875,-0.0146484375,59.16131,0.15020043,-129.26797,16.265322,0.0,0.0,0.0,0.0,0.0,0.0,0.0,19.770214,-128.95299,12.382699,0.0,0.0,0.0,0.0,0.0,0.0,0.0,-0.016975343,0.016741414,-0.9998213,-0.98339844,0.059326172,-0.15466309,0.055664062,-0.09667969,-0.10449219,2.2684848,-0.35144132,0.3465992,-20.699402,-0.9883423,-0.10748291,-0.048583984,-0.037109375,-0.018554688,0.037109375,2.857869,-2.4110973,-56.603966,-19.387777,0.5095215,0.07470703,0.8972168,-0.0048828125,-0.018554688,0.0029296875,17.022394,-3.8257546,-128.39153,-13.902312,0.0,0.0,0.0,0.0,0.0,0.0,0.0,14.677328,-129.35658,-6.366948,-0.9854126,-0.009643555,-0.027648926,-0.13867188,0.01171875,0.055664062,0.0,1.3840985,44.977543,0.7296225,
1.2499999813735487,64,-0.8043823,-0.29541016,0.47753906,0.020507812,-0.049804688,0.001953125,0.0,0.0,0.0,0.0,0.0,0.0,0.0,0.0,0.0,0.0,0.0,0.014975607,-0.016739663,0.99991226,-0.9493408,0.021240234,-0.23144531,0.034179688,0.1015625,0.047851562,0.7467723,0.31004053,-0.34656292,20.701283,-1.013794,-0.009033203,0.032043457,-0.032226562,0.02734375,0.033203125,1.8055859,-0.84148353,-57.32453,19.323689,0.51745605,0.14129639,0.8199463,0.033203125,-0.021484375,-0.034179688,59.20107,0.27839655,-129.26416,16.31387,0.0,0.0,0.0,0.0,0.0,0.0,0.0,19.903227,-128.93446,12.460267,0.0,0.0,0.0,0.0,0.0,0.0,0.0,-0.014975607,0.016739663,-0.99991226,-0.996521,0.060180664,-0.11791992,0.052734375,-0.09375,-0.12207031,2.2173495,-0.31004053,0.34656292,-20.701283,-0.9711914,-0.11193848,-0.017822266,-0.037109375,0.01953125,0.056640625,2.9147036,-2.2372143,-56.60778,-19.430794,0.48291016,0.084106445,0.8604126,0.013671875,9.765625E-4,-0.016601562,16.951345,-3.6016774,-128.39618,-13.90819,0.0,0.0,0.0,0.0,0.0,0.0,0.0,14.874367,-129.35045,-6.3046436,-0.9927368,-0.020996094,-0.047424316,-0.17578125,0.08886719,0.09277344,0.0,1.3761383,44.980396,0.7324124,
1.2695312310825104,65,-0.78686523,-0.2529297,0.5093994,0.01953125,0.061523438,0.001953125,0.0,0.0,0.0,0.0,0.0,0.0,0.0,0.0,0.0,0.0,0.0,0.014529377,-0.01637299,0.9999057,-0.95544434,0.017456055,-0.23138428,-0.022460938,0.029296875,0.029296875,0.85064846,0.30080333,-0.33897164,20.701149,-0.9945679,-0.0024414062,0.016296387,0.0068359375,0.044921875,0.033203125,1.8009192,-0.7215154,-57.323345,19.364262,0.5131836,0.12567139,0.82958984,0.013671875,-0.021484375,-0.015625,59.26521,0.49675834,-129.2594,16.358315,0.0,0.0,0.0,0.0,0.0,0.0,0.0,20.126892,-128.9219,12.53738,0.0,0.0,0.0,0.0,0.0,0.0,0.0,-0.014529377,0.01637299,-0.9999057,-0.99346924,0.06036377,-0.15258789,0.20507812,-0.10839844,-0.10253906,2.1770875,-0.30080333,0.33897164,-20.701149,-0.97613525,-0.099975586,-0.03552246,-0.037109375,0.01953125,0.018554688,2.9604843,-2.1117013,-56.622654,-19.443483,0.49316406,0.07489014,0.87835693,0.0146484375,0.01953125,0.001953125,16.601624,-3.4294868,-128.40656,-13.872196,0.0,0.0,0.0,0.0,0.0,0.0,0.0,15.059614,-129.36478,-6.2998347,-0.9760742,-0.034057617,-0.05255127,-0.1015625,0.12597656,0.12890625,0.0,1.3828579,44.979584,0.7164257,
1.2890624807914721,66,-0.82196045,-0.2518921,0.5161133,0.01953125,0.024414062,0.020507812,0.0,0.0,0.0,0.0,0.0,0.0,0.0,0.0,0.0,0.0,0.0,0.011700928,-0.01612068,0.99994075,-0.9491577,0.039123535,-0.2520752,0.109375,-0.0087890625,0.046875,0.8536337,0.24224597,-0.33374804,20.701872,-0.98132324,0.0043945312,-0.007446289,0.0068359375,0.026367188,0.013671875,1.7819107,-0.71833795,-57.318817,19.39047,0.5018921,0.1081543,0.84313965,0.052734375,-0.0029296875,-0.0146484375,59.38677,0.5520274,-129.25806,16.427158,0.0,0.0,0.0,0.0,0.0,0.0,0.0,20.18067,-128.92224,12.591213,0.0,0.0,0.0,0.0,0.0,0.0,0.0,-0.011700928,0.01612068,-0.99994075,-0.98846436,0.07611084,-0.15722656,0.1875,-0.12988281,-0.083984375,2.182923,-0.24224597,0.33374804,-20.701872,-0.9812622,-0.11053467,-0.043701172,-0.017578125,0.0390625,0.037109375,2.9855711,-1.9663081,-56.632412,-19.428732,0.52124023,0.06726074,0.8762207,0.013671875,-0.018554688,-0.016601562,16.642155,-3.2277734,-128.4129,-13.80348,0.0,0.0,0.0,0.0,0.0,0.0,0.0,15.234009,-129.36838,-6.1625595,-0.9569092,-0.038879395,-0.007019043,-0.08300781,0.12597656,0.12792969,0.0,1.3443646,44.980583,0.7094293,
1.3085937305004338,67,-0.7838135,-0.27947998,0.53881836,0.01953125,0.061523438,0.001953125,0.0,0.0,0.0,0.0,0.0,0.0,0.0,0.0,0.0,0.0,0.0,0.009352535,-0.015225677,0.99995756,-0.9321289,0.039123535,-0.31158447,0.015625,0.009765625,0.0107421875,0.73114914,0.19362721,-0.3152187,20.702223,-0.9818115,0.022705078,0.0234375,-0.0126953125,0.045898438,0.051757812,1.8206968,-0.7814853,-57.300167,19.444418,0.5413208,0.11413574,0.8668823,-0.005859375,-0.0029296875,-0.0146484375,59.400856,0.5031884,-129.23969,16.510838,0.0,0.0,0.0,0.0,0.0,0.0,0.0,20.13179,-128.90012,12.678713,0.0,0.0,0.0,0.0,0.0,0.0,0.0,-0.009352535,0.015225677,-0.99995756,-0.99053955,0.0869751,-0.15899658,0.12695312,-0.18554688,-0.099609375,2.1957068,-0.19362721,0.3152187,-20.702223,-0.9863281,-0.10949707,-0.042663574,-0.017578125,0.0390625,-9.765625E-4,2.981306,-1.7750527,-56.653416,-19.370428,0.48486328,0.0501709,0.8635254,0.013671875,9.765625E-4,-0.03515625,16.133085,-3.000706,-128.43124,-13.67794,0.0,0.0,0.0,0.0,0.0,0.0,0.0,15.521408,-129.39944,-6.190233,-0.96118164,-0.047424316,-0.020874023,-0.10253906,0.08691406,0.14746094,0.0,1.2470711,44.98296,0.6732611,
1.3281249802093955,68,-0.8149414,-0.265625,0.53167725,9.765625E-4,-0.0126953125,0.001953125,0.0,0.0,0.0,0.0,0.0,0.0,0.0,0.0,0.0,0.0,0.0,0.008616656,-0.015350856,0.99997747,-0.9345093,0.013671875,-0.32659912,-0.060546875,0.06542969,0.0107421875,0.6443735,0.17838976,-0.31781033,20.702633,-0.9766846,0.026794434,0.0036010742,-0.0126953125,0.02734375,0.013671875,1.8662399,-0.8829086,-57.302376,19.457502,0.52545166,0.13513184,0.838562,0.013671875,-0.041015625,-0.034179688,59.436443,0.37719786,-129.24509,16.534395,0.0,0.0,0.0,0.0,0.0,0.0,0.0,20.001024,-128.91385,12.679765,0.0,0.0,0.0,0.0,0.0,0.0,0.0,-0.008616656,0.015350856,-0.99997747,-0.9673462,0.07928467,-0.21575928,0.11425781,-0.17285156,-0.0859375,2.26434,-0.17838976,0.31781033,-20.702633,-0.98217773,-0.10345459,-0.06347656,-0.017578125,0.11425781,0.038085938,2.9185293,-1.6613109,-56.65436,-19.312742,0.4940796,0.08099365,0.87231445,0.0126953125,-0.017578125,-0.03515625,16.16387,-2.935399,-128.42975,-13.640501,0.0,0.0,0.0,0.0,0.0,0.0,0.0,15.586944,-129.39825,-6.149941,-0.991333,-0.070617676,0.023071289,-0.21386719,0.1640625,0.18457031,0.0,1.2429571,44.983654,0.6798428,
1.3476562299183572,69,-0.84088135,-0.25579834,0.5045166,0.01953125,0.005859375,0.020507812,0.0,0.0,0.0,0.0,0.0,0.0,0.0,0.0,0.0,0.0,0.0,0.00657174,-0.015098678,0.99998194,-0.92767334,-0.003479004,-0.28338623,-0.1171875,-0.0068359375,0.0107421875,0.54356664,0.13605592,-0.31258947,20.702726,-0.9880371,0.04650879,-0.027038574,0.026367188,0.044921875,0.033203125,1.908751,-0.99277043,-57.29664,19.459452,0.52575684,0.08917236,0.8409424,0.013671875,-0.001953125,0.00390625,59.383575,0.21527207,-129.2362,16.493723,0.0,0.0,0.0,0.0,0.0,0.0,0.0,19.839296,-128.91278,12.629414,0.0,0.0,0.0,0.0,0.0,0.0,0.0,-0.00657174,0.015098678,-0.99998194,-0.95318604,0.068481445,-0.237854,0.111328125,-0.036132812,-0.12402344,2.2473345,-0.13605592,0.31258947,-20.702726,-0.9995117,-0.11663818,-0.08862305,-0.037109375,0.038085938,0.037109375,2.90697,-1.7589784,-56.654694,-19.320816,0.49328613,0.08477783,0.8822632,0.049804688,-0.036132812,-0.015625,16.3452,-3.063579,-128.43109,-13.668848,0.0,0.0,0.0,0.0,0.0,0.0,0.0,15.462263,-129.40656,-6.1896057,-0.9876709,-0.09033203,0.0289917,-0.13867188,0.10644531,0.12890625,0.0,1.1842021,44.984695,0.6714393,
1.367187479627319,70,-0.82873535,-0.27752686,0.5060425,0.020507812,-0.0126953125,0.020507812,0.0,0.0,0.0,0.0,0.0,0.0,0.0,0.0,0.0,0.0,0.0,0.0042381883,-0.015541804,0.999948,-0.904541,0.0032348633,-0.32818604,-0.07910156,0.01171875,0.047851562,0.47724393,0.087742865,-0.32176352,20.702024,-0.986084,0.047851562,0.006713867,-0.0126953125,0.045898438,0.033203125,1.8952719,-1.1140158,-57.29992,19.432804,0.5582886,0.10998535,0.8520508,0.013671875,-0.001953125,0.00390625,59.316124,0.030722618,-129.24277,16.484644,0.0,0.0,0.0,0.0,0.0,0.0,0.0,19.653065,-128.9189,12.620406,0.0,0.0,0.0,0.0,0.0,0.0,0.0,-0.0042381883,0.015541804,-0.999948,-0.9703369,0.08026123,-0.2107544,0.06542969,-0.10644531,-0.13574219,2.2801027,-0.087742865,0.32176352,-20.702024,-0.9863281,-0.118774414,-0.081726074,-0.037109375,0.057617188,0.018554688,2.8668962,-1.8284988,-56.644245,-19.32903,0.50494385,0.05731201,0.8643799,0.013671875,9.765625E-4,-0.016601562,16.59873,-3.1540544,-128.42845,-13.736959,0.0,0.0,0.0,0.0,0.0,0.0,0.0,15.375843,-129.40614,-6.264763,-0.97650146,-0.070739746,0.0010986328,-0.02734375,0.08691406,0.12890625,0.0,1.1620528,44.98314,0.6942302,
1.3867187293362806,71,-0.7897949,-0.27160645,0.51916504,-0.016601562,-0.049804688,0.001953125,0.0,0.0,0.0,0.0,0.0,0.0,0.0,0.0,0.0,0.0,0.0,0.0025307238,-0.015681518,0.9999665,-0.928772,-0.010192871,-0.3081665,-0.060546875,0.06542969,0.029296875,0.47353953,0.052393585,-0.32465604,20.702408,-0.9844971,0.032409668,-0.019165039,-0.013671875,-0.009765625,0.0146484375,1.870953,-1.2012547,-57.303368,19.379955,0.54107666,0.105529785,0.8362427,0.013671875,-0.021484375,-0.015625,59.230846,-0.11784351,-129.24376,16.409655,0.0,0.0,0.0,0.0,0.0,0.0,0.0,19.504646,-128.91833,12.54057,0.0,0.0,0.0,0.0,0.0,0.0,0.0,-0.0025307238,0.015681518,-0.9999665,-0.9612427,0.072509766,-0.2446289,0.045898438,-0.087890625,-0.17480469,2.2931132,-0.052393585,0.32465604,-20.702408,-0.99243164,-0.12451172,-0.085876465,-0.017578125,0.01953125,0.018554688,2.837384,-1.8217299,-56.639744,-19.334885,0.5019531,0.050231934,0.86743164,-0.0048828125,-0.018554688,-0.03515625,16.631695,-3.1618416,-128.42613,-13.789583,0.0,0.0,0.0,0.0,0.0,0.0,0.0,15.387212,-129.41203,-6.368889,-0.9815674,-0.02368164,-0.0018310547,0.0107421875,0.087890625,0.09082031,0.0,1.1369011,44.98432,0.7025688,
1.4062499790452423,72,-0.824646,-0.28051758,0.50097656,-0.0546875,-0.0126953125,0.0029296875,0.0,0.0,0.0,0.0,0.0,0.0,0.0,0.0,0.0,0.0,0.0,0.0031973422,-0.015602965,1.0000138,-0.9378052,-0.010192871,-0.28033447,0.015625,0.046875,0.029296875,0.52971077,0.06619421,-0.3230298,20.703386,-0.9906616,0.026428223,-0.0063476562,-0.0126953125,0.0087890625,-0.0048828125,1.7931871,-1.159491,-57.303146,19.347948,0.52404785,0.10876465,0.8411865,0.013671875,-0.0029296875,-0.0146484375,59.220764,-0.11837208,-129.24571,16.398056,0.0,0.0,0.0,0.0,0.0,0.0,0.0,19.50051,-128.9233,12.517467,0.0,0.0,0.0,0.0,0.0,0.0,0.0,-0.0031973422,0.015602965,-1.0000138,-0.97229004,0.061645508,-0.22888184,0.020507812,-0.0625,-0.14746094,2.2652903,-0.06619421,0.3230298,-20.703386,-0.9873047,-0.11584473,-0.08465576,-0.037109375,0.0,0.056640625,2.859307,-2.0117245,-56.633945,-19.38646,0.4951172,0.07904053,0.8713379,-0.0048828125,0.0,0.001953125,17.008753,-3.357791,-128.42015,-13.884361,0.0,0.0,0.0,0.0,0.0,0.0,0.0,15.161542,-129.40244,-6.3874474,-0.9694824,-0.018005371,-0.0119018555,-0.08105469,0.10839844,0.053710938,0.0,1.1548464,44.986088,0.6982143,
1.425781228754204,73,-0.7732544,-0.3131714,0.49261475,9.765625E-4,-0.0126953125,0.001953125,0.0,0.0,0.0,0.0,0.0,0.0,0.0,0.0,0.0,0.0,0.0,0.0038361847,-0.014666985,0.99996674,-0.9437866,-0.009277344,-0.24664307,-0.07910156,0.06640625,0.047851562,0.618656,0.07942155,-0.30365205,20.702414,-0.9961548,0.01159668,0.007446289,-0.032226562,0.02734375,0.013671875,1.7203323,-1.064862,-57.283535,19.359823,0.5039673,0.10998535,0.8540039,0.013671875,-0.0029296875,-0.0146484375,59.178577,-0.024515152,-129.22607,16.456013,0.0,0.0,0.0,0.0,0.0,0.0,0.0,19.598936,-128.90596,12.599975,0.0,0.0,0.0,0.0,0.0,0.0,0.0,-0.0038361847,0.014666985,-0.99996674,-0.9904175,0.047729492,-0.19934082,0.016601562,-0.115234375,-0.123046875,2.1564023,-0.07942155,0.30365205,-20.702414,-0.98931885,-0.10632324,-0.060546875,-0.056640625,0.0,0.056640625,2.918462,-2.042077,-56.65891,-19.440937,0.4812622,0.09967041,0.88031006,0.013671875,0.0,0.0029296875,17.104015,-3.381906,-128.44717,-13.934937,0.0,0.0,0.0,0.0,0.0,0.0,0.0,15.115673,-129.42632,-6.38892,-0.9711914,-0.05316162,-0.008911133,-0.15722656,0.06933594,0.09277344,0.0,1.1725769,44.983627,0.6552977,
1.4453124784631657,74,-0.7996216,-0.2913208,0.51519775,0.020507812,-0.0126953125,0.001953125,0.0,0.0,0.0,0.0,0.0,0.0,0.0,0.0,0.0,0.0,0.0,0.006667167,-0.0137391575,1.0000225,-0.93463135,5.493164E-4,-0.27539062,-0.00390625,0.028320312,0.0107421875,0.7504317,0.13803104,-0.28444314,20.703568,-0.98413086,0.0138549805,0.02734375,-0.032226562,0.02734375,0.013671875,1.6872523,-0.9458487,-57.268845,19.35768,0.5116577,0.14587402,0.87316895,0.033203125,-0.0029296875,-0.033203125,59.07995,0.15049672,-129.2117,16.494003,0.0,0.0,0.0,0.0,0.0,0.0,0.0,19.78381,-128.87857,12.686992,0.0,0.0,0.0,0.0,0.0,0.0,0.0,-0.006667167,0.0137391575,-1.0000225,-0.98327637,0.03479004,-0.17785645,0.018554688,-0.07910156,-0.14550781,1.9717923,-0.13803104,0.28444314,-20.703568,-0.9893799,-0.1083374,-0.054626465,-0.037109375,0.01953125,0.056640625,3.054027,-2.066194,-56.68037,-19.54868,0.51293945,0.059509277,0.8583374,-0.0048828125,0.0,0.001953125,16.65777,-3.3769612,-128.46617,-14.00077,0.0,0.0,0.0,0.0,0.0,0.0,0.0,15.174562,-129.4518,-6.5843887,-0.96832275,-0.05810547,-0.010925293,-0.13867188,0.14453125,0.16601562,0.0,1.2336322,44.985218,0.60982037,
1.4648437281721274,75,-0.7807617,-0.26574707,0.50909424,0.076171875,-0.0126953125,9.765625E-4,0.0,0.0,0.0,0.0,0.0,0.0,0.0,0.0,0.0,0.0,0.0,0.007916003,-0.013496075,0.999992,-0.94555664,0.0076293945,-0.2672119,0.015625,0.064453125,0.029296875,0.8096339,0.16388562,-0.27941057,20.702934,-0.98095703,0.018066406,0.0025634766,-0.03125,0.045898438,0.013671875,1.6865562,-0.90807414,-57.2614,19.331484,0.5305786,0.1439209,0.829834,0.013671875,-0.021484375,-0.015625,59.13013,0.22099602,-129.20332,16.456806,0.0,0.0,0.0,0.0,0.0,0.0,0.0,19.855835,-128.87218,12.654571,0.0,0.0,0.0,0.0,0.0,0.0,0.0,-0.007916003,0.013496075,-0.999992,-0.9944458,0.047607422,-0.16662598,0.20605469,-0.072265625,-0.12402344,1.8550909,-0.16388562,0.27941057,-20.702934,-0.9841919,-0.099609375,-0.058410645,-0.037109375,0.01953125,0.018554688,3.172064,-2.0860372,-56.68197,-19.643608,0.48510742,0.0748291,0.8764038,0.0146484375,0.01953125,0.001953125,16.542116,-3.3588915,-128.46765,-14.06344,0.0,0.0,0.0,0.0,0.0,0.0,0.0,15.196433,-129.4552,-6.656962,-0.96435547,-0.05206299,-0.036743164,-0.10253906,0.14453125,0.18457031,0.0,1.2570155,44.983627,0.59715664,
1.484374977881089,76,-0.7938843,-0.25976562,0.5233154,0.01953125,0.005859375,-0.016601562,0.0,0.0,0.0,0.0,0.0,0.0,0.0,0.0,0.0,0.0,0.0,0.009563565,-0.0135021685,0.99997425,-0.9501343,0.044433594,-0.3201294,-0.022460938,0.0107421875,0.047851562,0.8242449,0.1979953,-0.27953675,20.702568,-0.97924805,0.042541504,0.014587402,-0.032226562,0.0087890625,0.033203125,1.6781809,-0.8733984,-57.259857,19.362106,0.51342773,0.13421631,0.85827637,0.052734375,-0.021484375,-0.015625,59.18328,0.25451398,-129.20416,16.538605,0.0,0.0,0.0,0.0,0.0,0.0,0.0,19.886232,-128.87802,12.717609,0.0,0.0,0.0,0.0,0.0,0.0,0.0,-0.009563565,0.0135021685,-0.99997425,-0.97735596,0.062438965,-0.19818115,0.15722656,-0.10058594,-0.091796875,1.799071,-0.1979953,0.27953675,-20.702568,-0.98431396,-0.11236572,-0.05267334,-0.037109375,0.0390625,0.018554688,3.2282238,-2.0713305,-56.68589,-19.681017,0.50286865,0.07147217,0.8543701,0.032226562,-0.017578125,-0.015625,16.781866,-3.324504,-128.46597,-14.074415,0.0,0.0,0.0,0.0,0.0,0.0,0.0,15.186645,-129.44781,-6.5589557,-0.97595215,-0.038330078,-0.016784668,-0.083984375,0.125,0.18457031,0.0,1.2980423,44.982346,0.59496063,
1.5039062275900508,77,-0.81256104,-0.2952881,0.50354004,0.01953125,0.024414062,0.001953125,0.0,0.0,0.0,0.0,0.0,0.0,0.0,0.0,0.0,0.0,0.0,0.010068297,-0.012909557,0.9999976,-0.9335327,0.012573242,-0.31280518,-0.00390625,0.028320312,0.029296875,0.8228193,0.20844495,-0.26726785,20.70305,-0.98706055,0.044555664,-0.03302002,-0.032226562,0.045898438,0.033203125,1.6830716,-0.8910209,-57.25073,19.365223,0.5114746,0.14025879,0.83966064,0.013671875,-0.021484375,0.0029296875,59.08986,0.18079722,-129.19682,16.512127,0.0,0.0,0.0,0.0,0.0,0.0,0.0,19.811861,-128.87093,12.691312,0.0,0.0,0.0,0.0,0.0,0.0,0.0,-0.010068297,0.012909557,-0.9999976,-0.9753418,0.0713501,-0.19799805,0.16992188,-0.13183594,-0.0859375,1.7733234,-0.20844495,0.26726785,-20.70305,-0.9995117,-0.116882324,-0.06774902,-0.037109375,0.01953125,0.018554688,3.2090638,-2.0567498,-56.702946,-19.670832,0.4880371,0.06097412,0.8734741,0.013671875,9.765625E-4,-0.016601562,16.657686,-3.3118515,-128.4856,-14.074363,0.0,0.0,0.0,0.0,0.0,0.0,0.0,15.217129,-129.47086,-6.607261,-0.99090576,-0.039978027,-0.0107421875,-0.083984375,0.10546875,0.16601562,0.0,1.291548,44.983803,0.5677186,
1.5234374772990125,78,-0.8278198,-0.27746582,0.5298462,0.01953125,0.024414062,-0.03515625,0.0,0.0,0.0,0.0,0.0,0.0,0.0,0.0,0.0,0.0,0.0,0.010791749,-0.013427239,1.0000029,-0.89959717,-0.003112793,-0.2680664,-0.060546875,-0.0068359375,0.029296875,0.8221055,0.22342202,-0.27798548,20.70316,-1.0039673,0.0178833,4.8828125E-4,-0.0126953125,0.02734375,0.033203125,1.6621281,-0.8605044,-57.260994,19.375303,0.5307007,0.14575195,0.84661865,0.013671875,-0.0029296875,-0.033203125,59.075527,0.18472648,-129.20679,16.52659,0.0,0.0,0.0,0.0,0.0,0.0,0.0,19.815151,-128.88568,12.696639,0.0,0.0,0.0,0.0,0.0,0.0,0.0,-0.010791749,0.013427239,-1.0000029,-0.9753418,0.07043457,-0.2098999,0.23242188,-0.15527344,-0.091796875,1.8532965,-0.22342202,0.27798548,-20.70316,-0.9902954,-0.10211182,-0.08935547,-0.017578125,0.0390625,0.018554688,3.1387472,-2.0249577,-56.69143,-19.611967,0.4864502,0.08642578,0.899292,0.032226562,9.765625E-4,-0.016601562,16.59255,-3.27523,-128.47661,-14.0322075,0.0,0.0,0.0,0.0,0.0,0.0,0.0,15.262276,-129.46294,-6.5864735,-0.9680176,-0.04144287,-0.01586914,-0.17675781,0.12597656,0.16699219,0.0,1.3107674,44.98385,0.58986163,
1.5429687270079742,79,-0.8265991,-0.2824707,0.49700928,-0.036132812,0.005859375,0.0029296875,0.0,0.0,0.0,0.0,0.0,0.0,0.0,0.0,0.0,0.0,0.0,0.009440839,-0.013392278,1.0000341,-0.9077759,-0.012573242,-0.3114624,-0.09765625,0.047851562,0.029296875,0.76744837,0.19545501,-0.27726164,20.703808,-0.9855957,0.028320312,-0.011291504,-0.0126953125,0.02734375,0.033203125,1.6982353,-0.9501985,-57.25695,19.349062,0.51397705,0.10595703,0.8450928,0.013671875,-0.0029296875,-0.033203125,59.049812,0.07550377,-129.20096,16.457495,0.0,0.0,0.0,0.0,0.0,0.0,0.0,19.703667,-128.8871,12.613747,0.0,0.0,0.0,0.0,0.0,0.0,0.0,-0.009440839,0.013392278,-1.0000341,-0.96136475,0.09411621,-0.22540283,0.10546875,-0.10644531,-0.09765625,1.9335058,-0.19545501,0.27726164,-20.703808,-0.99035645,-0.11315918,-0.05871582,-0.037109375,-0.018554688,0.017578125,3.078098,-1.9946246,-56.68993,-19.537397,0.5213623,0.080078125,0.8831177,-0.0048828125,0.0,0.001953125,16.627005,-3.2293441,-128.47101,-13.944657,0.0,0.0,0.0,0.0,0.0,0.0,0.0,15.304423,-129.45976,-6.4902315,-0.9935303,-0.024353027,-0.0076904297,-0.17675781,0.10644531,0.16699219,0.0,1.2706437,44.98576,0.59044564,
1.5624999767169359,80,-0.8175659,-0.2952881,0.50561523,-0.017578125,-0.03125,0.021484375,0.0,0.0,0.0,0.0,0.0,0.0,0.0,0.0,0.0,0.0,0.0,0.0073551536,-0.013304439,0.9999951,-0.92181396,-0.014282227,-0.30236816,-0.060546875,0.1015625,0.029296875,0.73966366,0.15227646,-0.27544317,20.702997,-0.9985962,0.030395508,0.010498047,-0.032226562,0.0087890625,0.013671875,1.7459642,-1.0651336,-57.25346,19.318066,0.54730225,0.11505127,0.85705566,0.032226562,0.0546875,-0.0146484375,59.058987,-0.059353232,-129.19626,16.372662,0.0,0.0,0.0,0.0,0.0,0.0,0.0,19.56623,-128.88611,12.517514,0.0,0.0,0.0,0.0,0.0,0.0,0.0,-0.0073551536,0.013304439,-0.9999951,-0.97943115,0.08129883,-0.21661377,0.018554688,-0.07910156,-0.14550781,1.9560473,-0.15227646,0.27544317,-20.702997,-0.9752197,-0.121032715,-0.06488037,-0.037109375,0.01953125,0.037109375,3.0485096,-1.9889383,-56.68896,-19.519842,0.50024414,0.07891846,0.87927246,0.013671875,0.0,0.0029296875,16.634188,-3.2244468,-128.4763,-13.945382,0.0,0.0,0.0,0.0,0.0,0.0,0.0,15.310499,-129.46823,-6.493909,-0.99121094,-0.0647583,0.024047852,-0.25195312,0.14453125,0.18554688,0.0,1.250392,44.983746,0.58928955,
1.5820312264258976,81,-0.8330078,-0.2557373,0.52423096,-0.017578125,-0.03125,0.001953125,0.0,0.0,0.0,0.0,0.0,0.0,0.0,0.0,0.0,0.0,0.0,0.006012678,-0.013555945,0.99997616,-0.93255615,0.009521484,-0.30200195,0.072265625,0.08203125,0.0107421875,0.71927714,0.12448096,-0.2806501,20.702606,-0.9906006,-0.0026855469,0.020263672,-0.013671875,0.0087890625,0.033203125,1.7502184,-1.1194516,-57.259018,19.293121,0.5270386,0.11071777,0.82940674,0.013671875,-0.021484375,-0.034179688,59.067974,-0.104782104,-129.20102,16.353136,0.0,0.0,0.0,0.0,0.0,0.0,0.0,19.520641,-128.88683,12.503844,0.0,0.0,0.0,0.0,0.0,0.0,0.0,-0.006012678,0.013555945,-0.99997616,-0.9753418,0.06732178,-0.18719482,0.015625,-0.09667969,-0.14355469,1.9425939,-0.12448096,0.2806501,-20.702606,-0.9761963,-0.117126465,-0.06774902,-0.037109375,9.765625E-4,0.037109375,3.0754895,-1.9751322,-56.688858,-19.556543,0.50286865,0.062438965,0.85736084,0.013671875,9.765625E-4,-0.03515625,16.281307,-3.2023106,-128.4726,-13.994139,0.0,0.0,0.0,0.0,0.0,0.0,0.0,15.380617,-129.47029,-6.658171,-0.97442627,-0.062805176,-0.01184082,-0.13964844,0.06738281,0.1484375,0.0,1.2242173,44.98319,0.6024431,
1.6015624761348592,82,-0.79748535,-0.2894287,0.49139404,-0.016601562,-0.049804688,0.001953125,0.0,0.0,0.0,0.0,0.0,0.0,0.0,0.0,0.0,0.0,0.0,0.0037436783,-0.013693213,1.0000107,-0.95251465,0.01361084,-0.26013184,-0.00390625,0.046875,0.029296875,0.73114914,0.07750657,-0.28349197,20.703323,-0.9680176,0.015319824,0.024414062,-0.013671875,0.0087890625,0.013671875,1.7091477,-1.1056935,-57.260353,19.286873,0.50219727,0.12579346,0.83947754,0.013671875,-0.0029296875,-0.0146484375,59.01981,-0.056319594,-129.20444,16.3733,0.0,0.0,0.0,0.0,0.0,0.0,0.0,19.577896,-128.88367,12.560913,0.0,0.0,0.0,0.0,0.0,0.0,0.0,-0.0037436783,0.013693213,-1.0000107,-0.9804077,0.06542969,-0.19415283,0.01953125,-0.04296875,-0.16796875,1.9235606,-0.07750657,0.28349197,-20.703323,-0.98535156,-0.121032715,-0.054870605,-0.037109375,0.01953125,0.056640625,3.1351278,-2.0034363,-56.677177,-19.606728,0.49176025,0.089416504,0.8463135,0.013671875,0.0,0.0029296875,16.494093,-3.208612,-128.46277,-14.034126,0.0,0.0,0.0,0.0,0.0,0.0,0.0,15.332216,-129.45354,-6.5934453,-0.9749756,-0.036254883,-0.030700684,-0.08203125,0.16503906,0.12792969,0.0,1.204315,44.984745,0.6114706,
1.621093725843821,83,-0.7996826,-0.27954102,0.50738525,9.765625E-4,-0.0126953125,0.020507812,0.0,0.0,0.0,0.0,0.0,0.0,0.0,0.0,0.0,0.0,0.0,0.004573226,-0.013559213,1.0000416,-0.94470215,-0.002319336,-0.25250244,-0.041015625,-0.0068359375,0.029296875,0.79031014,0.09468019,-0.2807178,20.703962,-0.9680176,0.015319824,0.024414062,-0.013671875,0.0087890625,0.013671875,1.6417521,-0.9727187,-57.25944,19.305481,0.52960205,0.14294434,0.83374023,0.033203125,-0.0029296875,-0.033203125,58.933254,0.07665515,-129.20352,16.391909,0.0,0.0,0.0,0.0,0.0,0.0,0.0,19.716547,-128.87404,12.609682,0.0,0.0,0.0,0.0,0.0,0.0,0.0,-0.004573226,0.013559213,-1.0000416,-0.9793701,0.057373047,-0.16955566,0.040039062,-0.04296875,-0.1484375,1.8628812,-0.09468019,0.2807178,-20.703962,-0.99035645,-0.10845947,-0.045654297,-0.037109375,0.01953125,0.018554688,3.2152195,-2.0646996,-56.679817,-19.668304,0.48828125,0.08068848,0.8873291,-0.0048828125,0.0,0.001953125,16.089165,-3.2262316,-128.46674,-14.074877,0.0,0.0,0.0,0.0,0.0,0.0,0.0,15.355517,-129.47092,-6.735731,-0.9760742,-0.048217773,-0.0028686523,-0.04296875,0.20410156,0.0703125,0.0,1.2112103,44.986122,0.6044121,
1.6406249755527826,84,-0.772522,-0.30316162,0.5264282,0.020507812,-0.0126953125,0.020507812,0.0,0.0,0.0,0.0,0.0,0.0,0.0,0.0,0.0,0.0,0.0,0.005363077,-0.013399678,1.0000157,-0.9567261,-0.0021362305,-0.24737549,-0.09765625,0.047851562,0.047851562,0.8292154,0.11103305,-0.27741492,20.703424,-0.96881104,0.022399902,0.016479492,-0.013671875,0.0087890625,0.033203125,1.6634228,-0.8966594,-57.260147,19.351059,0.5286865,0.14178467,0.8613281,0.013671875,-0.0029296875,-0.0146484375,59.02929,0.23772204,-129.206,16.474401,0.0,0.0,0.0,0.0,0.0,0.0,0.0,19.878424,-128.86938,12.701964,0.0,0.0,0.0,0.0,0.0,0.0,0.0,-0.005363077,0.013399678,-1.0000157,-0.98742676,0.06237793,-0.17730713,0.13964844,-0.064453125,-0.13378906,1.789254,-0.11103305,0.27741492,-20.703424,-0.9984741,-0.10626221,-0.061523438,-0.037109375,0.0390625,0.018554688,3.3058858,-2.119746,-56.68364,-19.731712,0.5031128,0.05206299,0.87841797,-0.0048828125,-0.018554688,0.0029296875,15.717411,-3.248993,-128.46378,-14.107422,0.0,0.0,0.0,0.0,0.0,0.0,0.0,15.365021,-129.47635,-6.852968,-0.9500122,-0.040893555,-0.013000488,-0.13671875,0.16601562,0.09082031,0.0,1.2447207,44.984226,0.5960893,
1.6601562252617443,85,-0.7531738,-0.33483887,0.5048218,0.01953125,-0.0126953125,-0.03515625,0.0,0.0,0.0,0.0,0.0,0.0,0.0,0.0,0.0,0.0,0.0,0.008982778,-0.013106953,0.9999366,-0.9458008,-0.0079956055,-0.2901001,-0.041015625,-0.0078125,0.0107421875,0.91983557,0.18597138,-0.27135456,20.701788,-0.99243164,0.0016479492,0.0024414062,0.0068359375,0.044921875,0.033203125,1.6289477,-0.7656375,-57.25544,19.364414,0.53015137,0.11663818,0.8196411,0.013671875,-0.001953125,0.00390625,59.06475,0.4004779,-129.20242,16.533442,0.0,0.0,0.0,0.0,0.0,0.0,0.0,20.04226,-128.86389,12.763814,0.0,0.0,0.0,0.0,0.0,0.0,0.0,-0.008982778,0.013106953,-0.9999366,-0.9873657,0.048583984,-0.17755127,0.12207031,-0.06640625,-0.13476562,1.6871363,-0.18597138,0.27135456,-20.701788,-0.9812622,-0.11224365,-0.060668945,-0.037109375,0.057617188,0.018554688,3.3707492,-2.1644335,-56.69579,-19.790514,0.5203247,0.0791626,0.880188,0.0126953125,-0.055664062,-0.03515625,15.79541,-3.2785664,-128.47913,-14.155824,0.0,0.0,0.0,0.0,0.0,0.0,0.0,15.32234,-129.48927,-6.86786,-0.9592285,-0.052368164,-0.014953613,-0.15332031,0.22558594,0.0146484375,0.0,1.2929184,44.980537,0.57798046,
1.679687474970706,86,-0.80755615,-0.30316162,0.5152588,0.09472656,0.005859375,-0.017578125,0.0,0.0,0.0,0.0,0.0,0.0,0.0,0.0,0.0,0.0,0.0,0.0098516345,-0.012193785,0.9999652,-0.93951416,0.016662598,-0.31762695,-0.022460938,0.046875,0.047851562,0.9671232,0.20395869,-0.25244915,20.70238,-0.9855957,0.028198242,-0.0033569336,-0.0126953125,0.02734375,0.013671875,1.6364989,-0.7808562,-57.237003,19.357416,0.52612305,0.11364746,0.8383179,-0.005859375,-0.0029296875,-0.033203125,59.027924,0.40861052,-129.18314,16.567087,0.0,0.0,0.0,0.0,0.0,0.0,0.0,20.053343,-128.84673,12.820049,0.0,0.0,0.0,0.0,0.0,0.0,0.0,-0.0098516345,0.012193785,-0.9999652,-0.99645996,0.047790527,-0.20227051,0.13085938,-0.16992188,-0.08496094,1.6046185,-0.20395869,0.25244915,-20.70238,-0.97821045,-0.11706543,-0.071777344,-0.037109375,0.057617188,0.018554688,3.3697615,-2.1019108,-56.71773,-19.799204,0.4942627,0.08380127,0.88427734,0.013671875,-0.018554688,-0.016601562,16.084185,-3.1956463,-128.49945,-14.168191,0.0,0.0,0.0,0.0,0.0,0.0,0.0,15.367495,-129.50739,-6.788789,-0.98028564,-0.06286621,0.0010986328,-0.078125,0.22460938,0.013671875,0.0,1.3252015,44.981262,0.5354551,
1.6992187246796677,87,-0.82666016,-0.29522705,0.5276489,0.01953125,0.024414062,0.001953125,0.0,0.0,0.0,0.0,0.0,0.0,0.0,0.0,0.0,0.0,0.0,0.012645364,-0.0112887975,0.99996096,-0.9286499,4.8828125E-4,-0.28729248,-0.022460938,0.0107421875,0.029296875,0.9981881,0.2617985,-0.23371312,20.702293,-0.98828125,0.037597656,-0.026123047,-0.0126953125,0.045898438,0.033203125,1.6062033,-0.71662307,-57.216644,19.361324,0.513855,0.10211182,0.8352051,0.013671875,-0.021484375,-0.034179688,59.064663,0.44035363,-129.16331,16.587423,0.0,0.0,0.0,0.0,0.0,0.0,0.0,20.077362,-128.83495,12.798087,0.0,0.0,0.0,0.0,0.0,0.0,0.0,-0.012645364,0.0112887975,-0.99996096,-0.96520996,0.044799805,-0.22332764,0.19628906,-0.1953125,-0.07324219,1.5602216,-0.2617985,0.23371312,-20.702293,-0.98223877,-0.11291504,-0.08758545,-0.037109375,0.038085938,0.037109375,3.3285491,-2.087737,-56.73924,-19.780617,0.48797607,0.08105469,0.86639404,0.0126953125,-0.037109375,-0.016601562,16.30541,-3.1787834,-128.52325,-14.176291,0.0,0.0,0.0,0.0,0.0,0.0,0.0,15.373968,-129.52913,-6.7705564,-0.9613037,-0.060302734,9.765625E-4,-0.041992188,0.20507812,0.051757812,0.0,1.3133242,44.98286,0.49121413,
1.7187499743886294,88,-0.78686523,-0.2755127,0.5428467,0.056640625,0.024414062,0.001953125,0.0,0.0,0.0,0.0,0.0,0.0,0.0,0.0,0.0,0.0,0.0,0.015874445,-0.011598826,0.9999244,-0.9256592,-0.0015869141,-0.28045654,0.052734375,-0.0078125,0.029296875,1.0538771,0.32865006,-0.24013166,20.701534,-0.9777832,0.023864746,0.0045776367,-0.032226562,0.02734375,0.033203125,1.5693511,-0.6318705,-57.223,19.344181,0.524292,0.12133789,0.85614014,0.033203125,-0.021484375,0.0029296875,59.034576,0.50572896,-129.17715,16.573374,0.0,0.0,0.0,0.0,0.0,0.0,0.0,20.142988,-128.84944,12.786368,0.0,0.0,0.0,0.0,0.0,0.0,0.0,-0.015874445,0.011598826,-0.9999244,-0.96221924,0.064575195,-0.24279785,0.15527344,-0.1171875,-0.08984375,1.6197916,-0.32865006,0.24013166,-20.701534,-0.9831543,-0.10498047,-0.1003418,-0.017578125,0.020507812,-9.765625E-4,3.2761414,-2.1885195,-56.724552,-19.72982,0.5093384,0.077941895,0.8852539,0.0146484375,0.01953125,0.001953125,16.670761,-3.3191876,-128.50821,-14.136334,0.0,0.0,0.0,0.0,0.0,0.0,0.0,15.218739,-129.51884,-6.6941905,-0.9432373,-0.05493164,0.0067749023,-0.07910156,0.20507812,0.051757812,0.0,1.3573582,44.982037,0.50022936,
1.7382812240975911,89,-0.8109131,-0.265625,0.5345459,0.056640625,0.04296875,0.001953125,0.0,0.0,0.0,0.0,0.0,0.0,0.0,0.0,0.0,0.0,0.0,0.01844719,-0.011710633,0.99991536,-0.9333496,0.023254395,-0.2939453,0.0146484375,0.0107421875,0.06640625,1.0364653,0.38191345,-0.24244638,20.701347,-0.9719238,0.019592285,0.012512207,-0.0126953125,0.02734375,0.013671875,1.5642302,-0.5988771,-57.227924,19.34451,0.52801514,0.10986328,0.81658936,0.033203125,-0.021484375,-0.015625,58.89565,0.52120185,-129.18066,16.58899,0.0,0.0,0.0,0.0,0.0,0.0,0.0,20.16515,-128.8506,12.837658,0.0,0.0,0.0,0.0,0.0,0.0,0.0,-0.01844719,0.011710633,-0.99991536,-0.9631958,0.055725098,-0.2468872,0.109375,-0.072265625,-0.1015625,1.6616571,-0.38191345,0.24244638,-20.701347,-0.9995117,-0.110961914,-0.07458496,-0.037109375,9.765625E-4,0.017578125,3.245763,-2.398029,-56.72198,-19.710934,0.4989624,0.06726074,0.8643799,0.013671875,-0.037109375,0.0029296875,16.556442,-3.5474992,-128.51135,-14.154827,0.0,0.0,0.0,0.0,0.0,0.0,0.0,15.00675,-129.5285,-6.75405,-0.91119385,-0.052856445,0.019470215,-0.20996094,0.3203125,0.12597656,0.0,1.3562479,44.98369,0.501811,
1.7578124738065528,90,-0.7930908,-0.26654053,0.5748291,0.020507812,-0.0126953125,0.001953125,0.0,0.0,0.0,0.0,0.0,0.0,0.0,0.0,0.0,0.0,0.0,0.022947162,-0.01243776,0.99975,-0.95562744,0.0099487305,-0.2927246,-0.041015625,0.029296875,0.029296875,1.0598023,0.47507653,-0.25750017,20.697926,-0.9960327,0.04675293,-0.026062012,-0.03125,0.045898438,0.013671875,1.539387,-0.53134227,-57.238598,19.331636,0.5236206,0.14697266,0.8357544,0.013671875,-0.021484375,-0.034179688,58.750404,0.52657175,-129.19185,16.573933,0.0,0.0,0.0,0.0,0.0,0.0,0.0,20.174227,-128.85835,12.84399,0.0,0.0,0.0,0.0,0.0,0.0,0.0,-0.022947162,0.01243776,-0.99975,-0.97839355,0.06451416,-0.21295166,0.10546875,-0.12597656,-0.07714844,1.6792302,-0.47507653,0.25750017,-20.697926,-0.98132324,-0.124816895,-0.06890869,-0.056640625,0.038085938,0.038085938,3.248416,-2.5077238,-56.709236,-19.711573,0.49920654,0.060913086,0.88238525,0.013671875,9.765625E-4,-0.016601562,16.486729,-3.6457713,-128.4961,-14.16552,0.0,0.0,0.0,0.0,0.0,0.0,0.0,14.9151325,-129.51424,-6.778744,-0.9324951,-0.07299805,0.028564453,-0.26757812,0.26171875,0.16503906,0.0,1.4181113,44.97864,0.5270238,
1.7773437235155145,91,-0.82299805,-0.2705078,0.55358887,0.01953125,-0.0126953125,-0.03515625,0.0,0.0,0.0,0.0,0.0,0.0,0.0,0.0,0.0,0.0,0.0,0.026729196,-0.013496335,0.9996422,-0.9394531,0.01763916,-0.31958008,0.034179688,-0.0078125,0.0107421875,1.0586939,0.5533768,-0.27941597,20.695692,-1.0027466,0.023803711,-0.0014038086,-0.0126953125,0.045898438,0.013671875,1.5304625,-0.50075114,-57.261303,19.30777,0.4989624,0.11212158,0.84417725,0.013671875,0.016601562,-0.033203125,58.74694,0.5180168,-129.21744,16.556835,0.0,0.0,0.0,0.0,0.0,0.0,0.0,20.163013,-128.88727,12.811115,0.0,0.0,0.0,0.0,0.0,0.0,0.0,-0.026729196,0.013496335,-0.9996422,-0.9692993,0.061584473,-0.22595215,0.10058594,-0.12109375,-0.11230469,1.7343807,-0.5533768,0.27941597,-20.695692,-0.99957275,-0.128479,-0.07299805,-0.037109375,0.01953125,0.037109375,3.1889913,-2.545957,-56.68665,-19.693785,0.48516846,0.051757812,0.8845215,0.013671875,9.765625E-4,-0.016601562,16.585672,-3.6843867,-128.48022,-14.199018,0.0,0.0,0.0,0.0,0.0,0.0,0.0,14.868355,-129.49576,-6.793069,-1.00531,-0.064208984,-0.0016479492,-0.19335938,0.28027344,0.20117188,0.0,1.4746642,44.976326,0.5678021,
1.7968749732244762,92,-0.7819214,-0.26757812,0.54681396,0.020507812,-0.068359375,-0.036132812,0.0,0.0,0.0,0.0,0.0,0.0,0.0,0.0,0.0,0.0,0.0,0.023866534,-0.014877756,0.99968463,-0.9204712,0.011352539,-0.31799316,-0.00390625,-0.025390625,0.047851562,0.9553158,0.4941119,-0.30801567,20.696571,-0.98864746,-0.0072631836,-0.0065307617,-0.0126953125,0.0087890625,-0.0048828125,1.5429424,-0.61661243,-57.28775,19.295835,0.5194092,0.13128662,0.8474121,0.033203125,-0.0029296875,-0.033203125,58.667526,0.36702824,-129.24194,16.538805,0.0,0.0,0.0,0.0,0.0,0.0,0.0,20.015339,-128.9082,12.808682,0.0,0.0,0.0,0.0,0.0,0.0,0.0,-0.023866534,0.014877756,-0.99968463,-0.9631958,0.05255127,-0.20245361,0.033203125,-0.11328125,-0.12207031,1.8240259,-0.4941119,0.30801567,-20.696571,-0.98638916,-0.12683105,-0.0579834,-0.017578125,9.765625E-4,0.037109375,3.1659484,-2.4866645,-56.65689,-19.691109,0.48120117,0.08270264,0.8803711,0.032226562,9.765625E-4,0.0029296875,16.475367,-3.6119628,-128.44937,-14.225115,0.0,0.0,0.0,0.0,0.0,0.0,0.0,14.955175,-129.46082,-6.855803,-1.0041504,-0.060424805,0.008239746,-0.22949219,0.37695312,0.21875,0.0,1.4607977,44.975418,0.6344691,
1.816406222933438,93,-0.83306885,-0.24591064,0.5283203,0.020507812,-0.049804688,-0.036132812,0.0,0.0,0.0,0.0,0.0,0.0,0.0,0.0,0.0,0.0,0.0,0.017405063,-0.015735941,0.9998697,-0.93341064,0.01928711,-0.2831421,0.015625,0.0107421875,0.047851562,0.8101172,0.36033872,-0.32578275,20.700403,-0.987854,0.019714355,-0.022277832,-0.013671875,0.0087890625,0.013671875,1.5922532,-0.8012198,-57.308483,19.311634,0.51239014,0.13134766,0.8591919,0.013671875,-0.021484375,-0.015625,58.636402,0.15158284,-129.25613,16.509848,0.0,0.0,0.0,0.0,0.0,0.0,0.0,19.800138,-128.92303,12.78206,0.0,0.0,0.0,0.0,0.0,0.0,0.0,-0.017405063,0.015735941,-0.9998697,-0.9793091,0.051574707,-0.18353271,0.03125,-0.111328125,-0.13964844,1.8678124,-0.36033872,0.32578275,-20.700403,-0.98217773,-0.097595215,-0.064331055,9.765625E-4,9.765625E-4,0.037109375,3.187886,-2.3062413,-56.6431,-19.715725,0.50897217,0.054382324,0.8643799,-0.0048828125,-0.018554688,0.0029296875,16.277557,-3.4451141,-128.43576,-14.2366085,0.0,0.0,0.0,0.0,0.0,0.0,0.0,15.153858,-129.45584,-6.946512,-0.9941406,-0.045532227,-0.033569336,-0.17675781,0.125,0.18554688,0.0,1.4012583,44.979515,0.683495,
1.8359374726423996,94,-0.7845459,-0.2982788,0.5197754,-0.0546875,-0.049804688,0.0029296875,0.0,0.0,0.0,0.0,0.0,0.0,0.0,0.0,0.0,0.0,0.0,0.016426712,-0.016672648,0.99985325,-0.9425659,0.007507324,-0.25933838,-0.041992188,-0.04296875,0.047851562,0.8096339,0.34008375,-0.34517547,20.700062,-0.9749756,-0.015930176,0.013305664,-0.013671875,0.0087890625,0.013671875,1.6111908,-0.7686461,-57.323547,19.342463,0.538147,0.109436035,0.84710693,0.033203125,0.016601562,-0.033203125,58.65294,0.21937346,-129.2736,16.515461,0.0,0.0,0.0,0.0,0.0,0.0,0.0,19.869804,-128.94353,12.79916,0.0,0.0,0.0,0.0,0.0,0.0,0.0,-0.016426712,0.016672648,-0.99985325,-0.9833374,0.048706055,-0.1973877,0.08984375,-0.091796875,-0.1015625,1.8802395,-0.34008375,0.34517547,-20.700062,-0.97613525,-0.11230469,-0.060668945,-0.037109375,-0.018554688,0.037109375,3.227132,-2.25883,-56.62189,-19.754848,0.50897217,0.054382324,0.8643799,-0.0048828125,-0.018554688,0.0029296875,16.253122,-3.3992271,-128.41808,-14.27023,0.0,0.0,0.0,0.0,0.0,0.0,0.0,15.199745,-129.43816,-6.980134,-0.9686279,-0.0524292,-0.08441162,-0.34472656,0.22167969,0.24121094,0.0,1.4094985,44.977776,0.7268518,
1.8554687223513613,95,-0.7888794,-0.2529297,0.5114136,-0.0546875,-0.049804688,0.0029296875,0.0,0.0,0.0,0.0,0.0,0.0,0.0,0.0,0.0,0.0,0.0,0.011768699,-0.016645646,0.9999132,-0.9555054,0.012756348,-0.2670288,-0.09863281,-0.024414062,0.08496094,0.7981939,0.24364793,-0.34461647,20.701305,-0.9867554,-0.007751465,0.019226074,-0.013671875,-0.0107421875,0.033203125,1.618704,-0.79317915,-57.32599,19.386194,0.536438,0.1270752,0.84832764,0.033203125,-0.0029296875,-0.033203125,58.695976,0.24307525,-129.27206,16.563335,0.0,0.0,0.0,0.0,0.0,0.0,0.0,19.894102,-128.93797,12.850676,0.0,0.0,0.0,0.0,0.0,0.0,0.0,-0.011768699,0.016645646,-0.9999132,-0.9692993,0.062316895,-0.17547607,0.087890625,-0.10839844,-0.09863281,1.8652959,-0.24364793,0.34461647,-20.701305,-0.9743042,-0.13208008,-0.03918457,-0.037109375,-0.018554688,0.055664062,3.2617679,-2.1933672,-56.620525,-19.786613,0.48449707,0.08331299,0.90234375,0.013671875,-0.018554688,0.0029296875,16.067312,-3.309466,-128.4113,-14.301342,0.0,0.0,0.0,0.0,0.0,0.0,0.0,15.299498,-129.42534,-7.035614,-0.9816284,-0.06317139,-0.057495117,-0.28808594,0.22265625,0.203125,0.0,1.3659883,44.97875,0.73268795,
1.874999972060323,96,-0.81500244,-0.25378418,0.52685547,-0.0546875,-0.049804688,0.0029296875,0.0,0.0,0.0,0.0,0.0,0.0,0.0,0.0,0.0,0.0,0.0,0.007738769,-0.017338952,0.99993193,-0.97265625,0.008239746,-0.2805786,-0.1171875,-0.060546875,0.06640625,0.76923114,0.16021603,-0.35897008,20.70169,-0.982605,-0.0072021484,-0.02142334,0.005859375,0.0078125,0.033203125,1.6675354,-0.8425427,-57.34419,19.437176,0.5185547,0.14416504,0.82684326,0.033203125,-0.0029296875,-0.0146484375,58.63458,0.23152655,-129.29353,16.595783,0.0,0.0,0.0,0.0,0.0,0.0,0.0,19.89079,-128.9474,12.929076,0.0,0.0,0.0,0.0,0.0,0.0,0.0,-0.007738769,0.017338952,-0.99993193,-0.9834595,0.0770874,-0.15332031,0.115234375,-0.1171875,-0.12792969,1.9066994,-0.16021603,0.35897008,-20.70169,-0.9762573,-0.12402344,-0.0579834,-0.017578125,0.0,0.056640625,3.270699,-2.0686069,-56.60914,-19.789688,0.48309326,0.071777344,0.87841797,-0.00390625,0.037109375,0.001953125,15.950392,-3.161655,-128.40051,-14.289016,0.0,0.0,0.0,0.0,0.0,0.0,0.0,15.446672,-129.41145,-7.0227156,-0.97283936,-0.068115234,-0.07244873,-0.21191406,0.2421875,0.14550781,0.0,1.3507121,44.978195,0.76947427,
1.8945312217692847,97,-0.7969971,-0.2341919,0.50683594,-0.0546875,-0.049804688,0.0029296875,0.0,0.0,0.0,0.0,0.0,0.0,0.0,0.0,0.0,0.0,0.0,0.003230065,-0.017904187,0.99998045,-0.94732666,0.029418945,-0.28674316,0.034179688,0.046875,0.029296875,0.7214502,0.06687161,-0.37067217,20.702696,-0.9880371,0.015319824,0.0025024414,0.005859375,0.0078125,-0.0048828125,1.6786474,-0.9233705,-57.3552,19.431507,0.52563477,0.08831787,0.8192749,0.013671875,-0.021484375,-0.015625,58.659473,0.17198563,-129.30354,16.567019,0.0,0.0,0.0,0.0,0.0,0.0,0.0,19.831184,-128.95442,12.89863,0.0,0.0,0.0,0.0,0.0,0.0,0.0,-0.003230065,0.017904187,-0.99998045,-0.97943115,0.0770874,-0.1642456,0.078125,-0.119140625,-0.14941406,1.9524423,-0.06687161,0.37067217,-20.702696,-0.98431396,-0.111328125,-0.0546875,-0.037109375,0.01953125,0.037109375,3.2717762,-1.8793931,-56.598896,-19.780914,0.47631836,0.07446289,0.89245605,-0.0048828125,-0.038085938,0.0029296875,15.8206835,-2.950397,-128.39067,-14.254,0.0,0.0,0.0,0.0,0.0,0.0,0.0,15.670094,-129.40465,-7.0190344,-1.0079956,-0.02508545,-0.09106445,-0.17382812,0.2998047,0.16308594,0.0,1.3111477,44.98033,0.8011167,
1.9140624714782464,98,-0.8139038,-0.24798584,0.50006104,-0.016601562,-0.03125,0.040039062,0.0,0.0,0.0,0.0,0.0,0.0,0.0,0.0,0.0,0.0,0.0,-6.278455E-4,-0.018639067,0.99990493,-0.9522705,0.028320312,-0.25109863,-0.041015625,-0.043945312,0.029296875,0.7154584,-0.012999862,-0.38588646,20.701132,-0.9801636,0.010925293,0.016418457,-0.013671875,-0.009765625,0.0146484375,1.7117792,-0.9478464,-57.37169,19.485815,0.5098877,0.10406494,0.84802246,0.033203125,0.016601562,-0.0146484375,58.738712,0.19507992,-129.31918,16.619694,0.0,0.0,0.0,0.0,0.0,0.0,0.0,19.854273,-128.97084,12.945808,0.0,0.0,0.0,0.0,0.0,0.0,0.0,6.278455E-4,0.018639067,-0.99990493,-0.9784546,0.08300781,-0.16906738,0.08496094,-0.087890625,-0.13671875,2.0419102,0.012999862,0.38588646,-20.701132,-0.9904175,-0.11621094,-0.04876709,-0.037109375,9.765625E-4,0.037109375,3.2593663,-1.7438927,-56.58606,-19.736677,0.49499512,0.05810547,0.87042236,0.013671875,0.0,0.0029296875,15.651798,-2.7877917,-128.3758,-14.164721,0.0,0.0,0.0,0.0,0.0,0.0,0.0,15.83432,-129.39046,-6.9375644,-0.9842529,-0.0435791,-0.055480957,-0.21289062,0.22265625,0.16503906,0.0,1.2867467,44.977318,0.83922297,
1.933593721187208,99,-0.82073975,-0.28338623,0.5227051,-0.016601562,-0.03125,0.040039062,0.0,0.0,0.0,0.0,0.0,0.0,0.0,0.0,0.0,0.0,0.0,-0.0028233826,-0.018753646,0.9999528,-0.9594116,0.020629883,-0.25598145,-0.09765625,0.029296875,0.029296875,0.7805942,-0.058453113,-0.38825864,20.702124,-1.0046387,-0.005065918,0.012268066,-0.013671875,-0.009765625,0.0146484375,1.7397884,-0.9123105,-57.377117,19.53677,0.5070801,0.11682129,0.8491821,-0.005859375,-0.021484375,-0.015625,58.76738,0.27083123,-129.3189,16.644094,0.0,0.0,0.0,0.0,0.0,0.0,0.0,19.929445,-128.96727,12.97216,0.0,0.0,0.0,0.0,0.0,0.0,0.0,0.0028233826,0.018753646,-0.9999528,-0.98651123,0.07922363,-0.18292236,0.09472656,-0.0390625,-0.12597656,2.072921,0.058453113,0.38825864,-20.702124,-0.9863281,-0.105529785,-0.049560547,-0.017578125,0.057617188,0.038085938,3.2605674,-1.7599512,-56.586365,-19.721758,0.47875977,0.07220459,0.8535156,-0.0048828125,0.0,-0.03515625,15.753439,-2.7778482,-128.37831,-14.132157,0.0,0.0,0.0,0.0,0.0,0.0,0.0,15.812814,-129.3846,-6.822894,-0.9723511,-0.049865723,-0.043640137,-0.22949219,0.24316406,0.12695312,0.0,1.282675,44.97971,0.8471951,
1.9531249708961698,100,-0.8065796,-0.30114746,0.52319336,-0.017578125,0.024414062,0.05859375,0.0,0.0,0.0,0.0,0.0,0.0,0.0,0.0,0.0,0.0,0.0,-0.0053436756,-0.018599875,1.000004,-0.9584961,0.018737793,-0.27581787,-0.1171875,-0.024414062,0.047851562,0.88026726,-0.110630274,-0.38507503,20.703184,-0.98669434,-0.006591797,0.008361816,0.025390625,-0.01171875,0.033203125,1.7117792,-0.8553754,-57.375877,19.56472,0.53027344,0.11431885,0.8649292,-0.005859375,-0.001953125,0.00390625,58.851162,0.3649863,-129.32324,16.684502,0.0,0.0,0.0,0.0,0.0,0.0,0.0,20.022512,-128.97511,12.998762,0.0,0.0,0.0,0.0,0.0,0.0,0.0,0.0053436756,0.018599875,-1.000004,-0.9864502,0.07324219,-0.17614746,-0.005859375,-0.1328125,-0.140625,2.081025,0.110630274,0.38507503,-20.703184,-0.98931885,-0.10827637,-0.061584473,-0.017578125,0.057617188,0.018554688,3.251669,-1.7089659,-56.58443,-19.710922,0.5014038,0.06970215,0.8942871,-0.0048828125,-0.018554688,-0.016601562,15.5948105,-2.696539,-128.37427,-14.116203,0.0,0.0,0.0,0.0,0.0,0.0,0.0,15.893198,-129.38115,-6.8047647,-0.9647217,-0.07159424,-0.036743164,-0.34179688,0.31933594,0.18359375,0.0,1.2770749,44.98258,0.8434912,
1.9726562206051315,101,-0.8167114,-0.2814331,0.51763916,-0.017578125,-0.0126953125,0.0029296875,0.0,0.0,0.0,0.0,0.0,0.0,0.0,0.0,0.0,0.0,0.0,-0.0039442778,-0.018371686,0.9999535,-0.94659424,0.00982666,-0.30767822,-0.1171875,-0.024414062,0.06640625,0.88071173,-0.08165729,-0.38035083,20.702137,-0.98968506,0.026428223,-0.0053710938,0.005859375,-0.0107421875,0.033203125,1.6726911,-0.81927466,-57.373035,19.544888,0.5180664,0.10876465,0.8510742,0.013671875,-0.021484375,0.0029296875,58.85796,0.3925451,-129.31787,16.690868,0.0,0.0,0.0,0.0,0.0,0.0,0.0,20.046824,-128.97073,12.992222,0.0,0.0,0.0,0.0,0.0,0.0,0.0,0.0039442778,0.018371686,-0.9999535,-0.9723511,0.066467285,-0.21398926,0.016601562,-0.115234375,-0.123046875,2.0743368,0.08165729,0.38035083,-20.702137,-0.99438477,-0.107177734,-0.070495605,9.765625E-4,0.0390625,0.037109375,3.2424438,-1.6799253,-56.592453,-19.697178,0.48809814,0.10192871,0.86828613,-0.0048828125,-0.018554688,-0.016601562,15.828987,-2.6668358,-128.377,-14.090725,0.0,0.0,0.0,0.0,0.0,0.0,0.0,15.900059,-129.38123,-6.7169905,-0.94976807,-0.07299805,-0.023986816,-0.3232422,0.35742188,0.21972656,0.0,1.2693806,44.980263,0.8314086,
1.9921874703140932,102,-0.8189087,-0.27545166,0.5435791,0.001953125,-0.03125,0.001953125,0.0,0.0,0.0,0.0,0.0,0.0,0.0,0.0,0.0,0.0,0.0,-0.0022512674,-0.018872976,0.9999654,-0.9555054,0.014831543,-0.29467773,-0.15429688,0.030273438,0.047851562,0.9089214,-0.046608567,-0.39072907,20.702385,-0.98291016,0.019836426,0.020446777,0.025390625,0.026367188,0.033203125,1.6836529,-0.80507296,-57.381702,19.538975,0.5149536,0.105895996,0.8510132,0.013671875,-0.021484375,-0.015625,58.802326,0.4065737,-129.32689,16.679483,0.0,0.0,0.0,0.0,0.0,0.0,0.0,20.06604,-128.97826,13.007004,0.0,0.0,0.0,0.0,0.0,0.0,0.0,0.0022512674,0.018872976,-0.9999654,-0.9602051,0.056518555,-0.2043457,0.10253906,-0.10449219,-0.115234375,2.0971384,0.046608567,0.39072907,-20.702385,-0.9812012,-0.1138916,-0.08660889,-0.017578125,0.0390625,0.018554688,3.2355535,-1.760788,-56.58121,-19.700161,0.49713135,0.07598877,0.8763428,-0.0048828125,-0.018554688,-0.03515625,15.86699,-2.7536006,-128.36815,-14.111098,0.0,0.0,0.0,0.0,0.0,0.0,0.0,15.815189,-129.3768,-6.745954,-0.9637451,-0.07867432,-0.012939453,-0.23242188,0.20214844,0.203125,0.0,1.309627,44.97945,0.8518738,
2.011718720023055,103,-0.80474854,-0.29125977,0.53912354,9.765625E-4,-0.0126953125,0.020507812,0.0,0.0,0.0,0.0,0.0,0.0,0.0,0.0,0.0,0.0,0.0,-5.2914023E-4,-0.019293033,0.99993074,-0.92126465,0.02911377,-0.31781006,-0.09863281,-0.07910156,0.047851562,0.88911456,-0.010954708,-0.3994256,20.701668,-0.9805298,0.032470703,0.028442383,0.005859375,0.0078125,0.0146484375,1.7294089,-0.8073189,-57.390625,19.599691,0.5332031,0.11639404,0.8461914,0.013671875,-0.0029296875,-0.0146484375,58.81378,0.3806454,-129.3356,16.762085,0.0,0.0,0.0,0.0,0.0,0.0,0.0,20.035385,-128.99792,13.064392,0.0,0.0,0.0,0.0,0.0,0.0,0.0,5.2914023E-4,0.019293033,-0.99993074,-0.9631958,0.051696777,-0.22619629,0.10058594,-0.12109375,-0.11230469,2.081777,0.010954708,0.3994256,-20.701668,-0.9934082,-0.114868164,-0.074645996,-0.017578125,0.01953125,0.037109375,3.2546177,-1.8030978,-56.574604,-19.73492,0.5070801,0.07122803,0.8703003,0.013671875,9.765625E-4,-0.016601562,16.22612,-2.8096256,-128.36618,-14.168423,0.0,0.0,0.0,0.0,0.0,0.0,0.0,15.732721,-129.37001,-6.7363586,-0.9929199,-0.09075928,-0.0107421875,-0.2705078,0.22070312,0.25878906,0.0,1.3269808,44.97731,0.86851096,
