TOTAL_TIME,0m43s
TOTAL_FRAMES,2195
SELECTED_FRAMES,2195
NO_OF_JOINTS,12
FREQUENCY,51.2
DESCRIPTION,Capture 22
TIME_STAMP,Oct 11, 2010

Time,Frame,Pelvis_accelX_Pelvis,Pelvis_accelY_Pelvis,Pelvis_accelZ_Pelvis,Pelvis_gyroX_Pelvis,Pelvis_gyroY_Pelvis,Pelvis_gyroZ_Pelvis,Pelvis_Joint angle_Pelvis,Pelvis_Relative pos X_Pelvis,Pelvis_Relative pos Y_Pelvis,Pelvis_Relative pos Z_Pelvis,RightPelvis_accelX_RightPelvis,RightPelvis_accelY_RightPelvis,RightPelvis_accelZ_RightPelvis,RightPelvis_gyroX_RightPelvis,RightPelvis_gyroY_RightPelvis,RightPelvis_gyroZ_RightPelvis,RightPelvis_Joint angle_RightPelvis,RightPelvis_Relative pos X_RightPelvis,RightPelvis_Relative pos Y_RightPelvis,RightPelvis_Relative pos Z_RightPelvis,RightUpLeg_accelX_RightUpLeg,RightUpLeg_accelY_RightUpLeg,RightUpLeg_accelZ_RightUpLeg,RightUpLeg_gyroX_RightUpLeg,RightUpLeg_gyroY_RightUpLeg,RightUpLeg_gyroZ_RightUpLeg,RightUpLeg_Joint angle_RightUpLeg,RightUpLeg_Relative pos X_RightUpLeg,RightUpLeg_Relative pos Y_RightUpLeg,RightUpLeg_Relative pos Z_RightUpLeg,RightLeg_accelX_RightLeg,RightLeg_accelY_RightLeg,RightLeg_accelZ_RightLeg,RightLeg_gyroX_RightLeg,RightLeg_gyroY_RightLeg,RightLeg_gyroZ_RightLeg,RightLeg_Joint angle_RightLeg,RightLeg_Relative pos X_RightLeg,RightLeg_Relative pos Y_RightLeg,RightLeg_Relative pos Z_RightLeg,RightFoot_accelX_RightFoot,RightFoot_accelY_RightFoot,RightFoot_accelZ_RightFoot,RightFoot_gyroX_RightFoot,RightFoot_gyroY_RightFoot,RightFoot_gyroZ_RightFoot,RightFoot_Joint angle_RightFoot,RightFoot_Relative pos X_RightFoot,RightFoot_Relative pos Y_RightFoot,RightFoot_Relative pos Z_RightFoot,RightFootEnd_accelX_RightFootEnd,RightFootEnd_accelY_RightFootEnd,RightFootEnd_accelZ_RightFootEnd,RightFootEnd_gyroX_RightFootEnd,RightFootEnd_gyroY_RightFootEnd,RightFootEnd_gyroZ_RightFootEnd,RightFootEnd_Joint angle_RightFootEnd,RightFootEnd_Relative pos X_RightFootEnd,RightFootEnd_Relative pos Y_RightFootEnd,RightFootEnd_Relative pos Z_RightFootEnd,LeftPelvis_accelX_LeftPelvis,LeftPelvis_accelY_LeftPelvis,LeftPelvis_accelZ_LeftPelvis,LeftPelvis_gyroX_LeftPelvis,LeftPelvis_gyroY_LeftPelvis,LeftPelvis_gyroZ_LeftPelvis,LeftPelvis_Joint angle_LeftPelvis,LeftPelvis_Relative pos X_LeftPelvis,LeftPelvis_Relative pos Y_LeftPelvis,LeftPelvis_Relative pos Z_LeftPelvis,LeftUpLeg_accelX_LeftUpLeg,LeftUpLeg_accelY_LeftUpLeg,LeftUpLeg_accelZ_LeftUpLeg,LeftUpLeg_gyroX_LeftUpLeg,LeftUpLeg_gyroY_LeftUpLeg,LeftUpLeg_gyroZ_LeftUpLeg,LeftUpLeg_Joint angle_LeftUpLeg,LeftUpLeg_Relative pos X_LeftUpLeg,LeftUpLeg_Relative pos Y_LeftUpLeg,LeftUpLeg_Relative pos Z_LeftUpLeg,LeftLeg_accelX_LeftLeg,LeftLeg_accelY_LeftLeg,LeftLeg_accelZ_LeftLeg,LeftLeg_gyroX_LeftLeg,LeftLeg_gyroY_LeftLeg,LeftLeg_gyroZ_LeftLeg,LeftLeg_Joint angle_LeftLeg,LeftLeg_Relative pos X_LeftLeg,LeftLeg_Relative pos Y_LeftLeg,LeftLeg_Relative pos Z_LeftLeg,LeftFoot_accelX_LeftFoot,LeftFoot_accelY_LeftFoot,LeftFoot_accelZ_LeftFoot,LeftFoot_gyroX_LeftFoot,LeftFoot_gyroY_LeftFoot,LeftFoot_gyroZ_LeftFoot,LeftFoot_Joint angle_LeftFoot,LeftFoot_Relative pos X_LeftFoot,LeftFoot_Relative pos Y_LeftFoot,LeftFoot_Relative pos Z_LeftFoot,LeftFootEnd_accelX_LeftFootEnd,LeftFootEnd_accelY_LeftFootEnd,LeftFootEnd_accelZ_LeftFootEnd,LeftFootEnd_gyroX_LeftFootEnd,LeftFootEnd_gyroY_LeftFootEnd,LeftFootEnd_gyroZ_LeftFootEnd,LeftFootEnd_Joint angle_LeftFootEnd,LeftFootEnd_Relative pos X_LeftFootEnd,LeftFootEnd_Relative pos Y_LeftFootEnd,LeftFootEnd_Relative pos Z_LeftFootEnd,Spine_accelX_Spine,Spine_accelY_Spine,Spine_accelZ_Spine,Spine_gyroX_Spine,Spine_gyroY_Spine,Spine_gyroZ_Spine,Spine_Joint angle_Spine,Spine_Relative pos X_Spine,Spine_Relative pos Y_Spine,Spine_Relative pos Z_Spine,
0.0,0,0.0,0.0,0.0,0.0,0.0,0.0,0.0,0.0,0.0,0.0,0.0,0.0,0.0,0.0,0.0,0.0,0.0,0.0,0.0,0.0,0.0,0.0,0.0,0.0,0.0,0.0,NaN,0.0,0.0,0.0,0.0,0.0,0.0,0.0,0.0,0.0,NaN,0.0,0.0,0.0,0.0,0.0,0.0,0.0,0.0,0.0,NaN,0.0,0.0,0.0,0.0,0.0,0.0,0.0,0.0,0.0,0.0,0.0,0.0,0.0,0.0,0.0,0.0,0.0,0.0,0.0,0.0,0.0,0.0,0.0,0.0,0.0,0.0,0.0,0.0,0.0,NaN,0.0,0.0,0.0,0.0,0.0,0.0,0.0,0.0,0.0,NaN,0.0,0.0,0.0,0.0,0.0,0.0,0.0,0.0,0.0,NaN,0.0,0.0,0.0,0.0,0.0,0.0,0.0,0.0,0.0,0.0,0.0,0.0,0.0,0.0,0.0,0.0,0.0,0.0,0.0,0.0,0.0,0.0,0.0,
0.0195312497089617,1,0.0,0.0,0.0,0.0,0.0,0.0,0.0,0.0,0.0,0.0,0.0,0.0,0.0,0.0,0.0,0.0,0.0,0.0,0.0,0.0,0.0,0.0,0.0,0.0,0.0,0.0,NaN,0.0,0.0,0.0,0.0,0.0,0.0,0.0,0.0,0.0,NaN,0.0,0.0,0.0,0.0,0.0,0.0,0.0,0.0,0.0,NaN,0.0,0.0,0.0,0.0,0.0,0.0,0.0,0.0,0.0,0.0,0.0,0.0,0.0,0.0,0.0,0.0,0.0,0.0,0.0,0.0,0.0,0.0,0.0,0.0,0.0,0.0,0.0,0.0,0.0,NaN,0.0,0.0,0.0,0.0,0.0,0.0,0.0,0.0,0.0,NaN,0.0,0.0,0.0,0.0,0.0,0.0,0.0,0.0,0.0,NaN,0.0,0.0,0.0,0.0,0.0,0.0,0.0,0.0,0.0,0.0,0.0,0.0,0.0,0.0,0.0,0.0,0.0,0.0,0.0,0.0,0.0,0.0,0.0,
0.0390624994179234,2,0.0,0.0,0.0,0.0,0.0,0.0,0.0,0.0,0.0,0.0,0.0,0.0,0.0,0.0,0.0,0.0,0.0,0.0,0.0,0.0,0.0,0.0,0.0,0.0,0.0,0.0,NaN,0.0,0.0,0.0,0.0,0.0,0.0,0.0,0.0,0.0,NaN,0.0,0.0,0.0,0.0,0.0,0.0,0.0,0.0,0.0,NaN,0.0,0.0,0.0,0.0,0.0,0.0,0.0,0.0,0.0,0.0,0.0,0.0,0.0,0.0,0.0,0.0,0.0,0.0,0.0,0.0,0.0,0.0,0.0,0.0,0.0,0.0,0.0,0.0,0.0,NaN,0.0,0.0,0.0,0.0,0.0,0.0,0.0,0.0,0.0,NaN,0.0,0.0,0.0,0.0,0.0,0.0,0.0,0.0,0.0,NaN,0.0,0.0,0.0,0.0,0.0,0.0,0.0,0.0,0.0,0.0,0.0,0.0,0.0,0.0,0.0,0.0,0.0,0.0,0.0,0.0,0.0,0.0,0.0,
0.0585937491268851,3,-0.8574219,-0.2982788,0.47766113,-0.055664062,0.0068359375,-0.10839844,0.0,0.0,0.0,0.0,0.0,0.0,0.0,0.0,0.0,0.0,0.0,-0.53391623,0.033574708,-0.8449904,-0.9425659,0.0065307617,-0.25738525,-0.00390625,0.0107421875,0.047851562,2.8635485,-11.053721,0.6951005,-17.49392,-0.9951172,0.013305664,0.019348145,0.01171875,0.23242188,-0.0625,1.8295968,-10.71268,-56.30018,-16.60414,0.52630615,0.12634277,0.8335571,0.052734375,-0.0029296875,-0.033203125,50.994576,-8.765923,-128.25461,-14.513776,0.0,0.0,0.0,0.0,0.0,0.0,0.0,-9.2404995,-127.760124,5.476798,0.0,0.0,0.0,0.0,0.0,0.0,0.0,0.53391623,-0.033574708,0.8449904,-0.9985962,0.083618164,-0.06896973,0.095703125,-0.13671875,-0.12792969,5.6353774,11.053721,-0.6951005,17.49392,-0.97210693,-0.16125488,-0.20428467,0.0234375,1.2275391,0.6826172,12.239072,4.348533,-57.272182,15.478622,0.50323486,0.08703613,0.87524414,0.484375,1.1337891,0.6044922,32.77987,10.057804,-128.85155,10.116554,0.0,0.0,0.0,0.0,0.0,0.0,0.0,9.800952,-129.61852,30.102055,0.0,0.0,0.0,0.0,0.0,0.0,0.0,0.8953222,44.97907,1.2214718,
0.0781249988358468,4,-0.854126,-0.3043213,0.42993164,-0.055664062,0.025390625,-0.12695312,0.0,0.0,0.0,0.0,0.0,0.0,0.0,0.0,0.0,0.0,0.0,-0.5377495,0.03621876,-0.8425303,-0.93640137,0.015197754,-0.24456787,0.015625,-0.0078125,0.0107421875,3.0049818,-11.133082,0.7498406,-17.442991,-0.99383545,0.023071289,0.026367188,-0.0126953125,0.0087890625,-0.04296875,1.9954714,-10.834496,-56.250355,-16.539177,0.55133057,0.117004395,0.8521118,0.052734375,-0.041015625,-0.034179688,50.960205,-8.719635,-128.20319,-14.51819,0.0,0.0,0.0,0.0,0.0,0.0,0.0,-9.190805,-127.72031,5.4723682,0.0,0.0,0.0,0.0,0.0,0.0,0.0,0.5377495,-0.03621876,0.8425303,-1.0015869,0.07269287,-0.059265137,0.078125,-0.119140625,-0.14941406,5.5549555,11.133082,-0.7498406,17.442991,-0.9680176,-0.1574707,-0.20123291,-0.015625,0.9248047,0.54589844,13.24076,4.414198,-57.333336,15.664361,0.49139404,0.091552734,0.89227295,0.23046875,0.5859375,0.24609375,32.026054,10.943481,-128.73294,8.926245,0.0,0.0,0.0,0.0,0.0,0.0,0.0,10.457261,-129.3689,28.911856,0.0,0.0,0.0,0.0,0.0,0.0,0.0,0.954089,44.97812,1.3245704,
0.09765624854480849,5,-0.86450195,-0.27172852,0.44537354,-0.055664062,0.025390625,-0.10839844,0.0,0.0,0.0,0.0,0.0,0.0,0.0,0.0,0.0,0.0,0.0,-0.5403521,0.038150735,-0.84071386,-0.9435425,0.005493164,-0.24554443,-0.00390625,0.1015625,0.047851562,3.0824199,-11.186963,0.7898386,-17.405382,-0.99053955,-6.1035156E-4,0.013305664,0.005859375,0.0078125,0.033203125,2.0256472,-10.90826,-56.211136,-16.528408,0.49310303,0.12298584,0.84039307,0.033203125,-0.021484375,0.0029296875,51.098118,-8.777205,-128.16638,-14.564701,0.0,0.0,0.0,0.0,0.0,0.0,0.0,-9.232111,-127.68964,5.4263783,0.0,0.0,0.0,0.0,0.0,0.0,0.0,0.5403521,-0.038150735,0.84071386,-0.99853516,0.07354736,-0.030578613,0.045898438,-0.12597656,-0.13476562,5.529,11.186963,-0.7898386,17.405382,-0.96398926,-0.16430664,-0.20037842,0.001953125,0.4345703,0.27148438,13.90617,4.450391,-57.37749,15.88422,0.49719238,0.09094238,0.8762207,-0.11621094,-0.021484375,9.765625E-4,31.988422,11.437153,-128.65439,8.335533,0.0,0.0,0.0,0.0,0.0,0.0,0.0,10.947413,-129.27469,28.32281,-0.96466064,-0.09509277,0.059570312,-0.53222656,0.5078125,0.48046875,0.0,0.99197364,44.97248,1.4032341,
0.11718749825377019,6,-0.83044434,-0.27764893,0.46044922,-0.055664062,-0.01171875,-0.14648438,0.0,0.0,0.0,0.0,0.0,0.0,0.0,0.0,0.0,0.0,0.0,-0.5444874,0.039511047,-0.83799624,-0.9425659,0.0064086914,-0.24255371,0.015625,0.046875,0.029296875,3.156225,-11.272579,0.8180011,-17.34912,-0.98339844,0.038513184,0.028442383,-0.013671875,0.0087890625,0.033203125,2.019745,-10.9760275,-56.180725,-16.487791,0.53302,0.10668945,0.8312988,0.052734375,-0.0029296875,0.00390625,51.202946,-8.825422,-128.13474,-14.597205,0.0,0.0,0.0,0.0,0.0,0.0,0.0,-9.261605,-127.6724,5.3945093,0.0,0.0,0.0,0.0,0.0,0.0,0.0,0.5444874,-0.039511047,0.83799624,-0.9915161,0.07952881,-0.05029297,0.095703125,-0.1171875,-0.14746094,5.5676417,11.272579,-0.8180011,17.34912,-0.95269775,-0.14294434,-0.20690918,-0.037109375,9.765625E-4,0.037109375,14.088799,4.4927588,-57.40908,16.078997,0.5031738,0.0770874,0.873291,0.013671875,9.765625E-4,-0.016601562,32.03668,11.520143,-128.67117,8.465463,0.0,0.0,0.0,0.0,0.0,0.0,0.0,11.042736,-129.31665,28.452747,-0.9637451,-0.09899902,0.060546875,-0.5332031,0.5263672,0.5175781,0.0,1.014705,44.970806,1.4610441,
0.1367187479627319,7,-0.8442993,-0.28759766,0.4368286,0.020507812,-0.0126953125,0.001953125,0.0,0.0,0.0,0.0,0.0,0.0,0.0,0.0,0.0,0.0,0.0,-0.546394,0.040000573,-0.8367349,-0.94818115,0.03314209,-0.24420166,0.015625,0.028320312,0.029296875,3.1687913,-11.31205,0.82813585,-17.323006,-1.0123901,0.03881836,0.009521484,-0.03125,0.045898438,0.013671875,2.0488951,-11.063195,-56.170586,-16.449305,0.5247803,0.094055176,0.8390503,0.013671875,-0.0029296875,-0.033203125,51.215534,-8.931132,-128.12408,-14.597522,0.0,0.0,0.0,0.0,0.0,0.0,0.0,-9.346266,-127.679085,5.394414,0.0,0.0,0.0,0.0,0.0,0.0,0.0,0.546394,-0.040000573,0.8367349,-0.98950195,0.08148193,-0.049316406,0.24609375,-0.052734375,-0.10546875,5.52148,11.31205,-0.82813585,17.323006,-0.9690552,-0.15942383,-0.19525146,-0.017578125,-0.018554688,0.055664062,14.072207,4.5543036,-57.426888,16.228489,0.51519775,0.08520508,0.8721924,0.032226562,-0.017578125,0.0029296875,32.085194,11.530996,-128.70026,8.695923,0.0,0.0,0.0,0.0,0.0,0.0,0.0,11.06706,-129.35966,28.682222,-0.95843506,-0.08856201,0.0803833,-0.32617188,0.35546875,0.33203125,0.0,1.0506804,44.97003,1.4637152,
0.1562499976716936,8,-0.84936523,-0.2816162,0.4449463,0.01953125,0.005859375,0.001953125,0.0,0.0,0.0,0.0,0.0,0.0,0.0,0.0,0.0,0.0,0.0,-0.54944205,0.039913192,-0.8347584,-0.9315796,-6.713867E-4,-0.2388916,-0.041015625,0.0107421875,0.029296875,3.1453516,-11.3751545,0.8263267,-17.282085,-0.9918823,0.055847168,0.016662598,-0.013671875,0.0087890625,0.051757812,2.0604208,-11.165798,-56.176395,-16.402506,0.50787354,0.10321045,0.83721924,0.013671875,-0.0029296875,-0.0146484375,51.208614,-9.065809,-128.1321,-14.624476,0.0,0.0,0.0,0.0,0.0,0.0,0.0,-9.4525585,-127.69881,5.3694525,0.0,0.0,0.0,0.0,0.0,0.0,0.0,0.54944205,-0.039913192,0.8347584,-0.99768066,0.0982666,-0.045959473,0.08496094,-0.087890625,-0.13671875,5.4885874,11.3751545,-0.8263267,17.282085,-0.95806885,-0.184021,-0.18688965,-0.037109375,-0.018554688,0.037109375,14.049308,4.626047,-57.424644,16.346163,0.5109863,0.091430664,0.8562012,0.013671875,0.0,0.0029296875,32.039253,11.538461,-128.72144,8.902586,0.0,0.0,0.0,0.0,0.0,0.0,0.0,11.078492,-129.3873,28.888573,-0.94470215,-0.089538574,0.04748535,-0.32617188,0.3173828,0.31445312,0.0,1.0850854,44.970776,1.4360269,
0.1757812473806553,9,-0.8452759,-0.28167725,0.4210205,0.01953125,-0.0126953125,-0.03515625,0.0,0.0,0.0,0.0,0.0,0.0,0.0,0.0,0.0,0.0,0.0,-0.5527223,0.040644027,-0.8325111,-0.9436035,0.0056762695,-0.2781372,-0.022460938,-0.0068359375,0.047851562,3.1821082,-11.443064,0.8414574,-17.235561,-1.0065308,0.031982422,-0.009338379,-0.0126953125,0.045898438,0.013671875,2.0709374,-11.244714,-56.159203,-16.3496,0.54125977,0.11932373,0.82263184,0.013671875,0.016601562,-0.0146484375,51.201405,-9.146284,-128.11887,-14.657157,0.0,0.0,0.0,0.0,0.0,0.0,0.0,-9.528066,-127.68958,5.3379736,0.0,0.0,0.0,0.0,0.0,0.0,0.0,0.5527223,-0.040644027,0.8325111,-0.9935303,0.08062744,-0.07598877,0.020507812,-0.0625,-0.14746094,5.3778954,11.443064,-0.8414574,17.235561,-0.96502686,-0.16137695,-0.20129395,-0.017578125,0.0390625,0.018554688,14.021624,4.70992,-57.444622,16.444244,0.4932251,0.067871094,0.88238525,0.032226562,-0.017578125,0.0029296875,32.151398,11.567499,-128.74953,9.097323,0.0,0.0,0.0,0.0,0.0,0.0,0.0,11.151352,-129.42128,29.083569,-0.9573364,-0.08380127,0.08532715,-0.40039062,0.375,0.33203125,0.0,1.1768154,44.967525,1.4140465,
0.19531249708961698,10,-0.8521118,-0.31811523,0.44659424,0.01953125,0.024414062,0.001953125,0.0,0.0,0.0,0.0,0.0,0.0,0.0,0.0,0.0,0.0,0.0,-0.5548187,0.040918272,-0.8311588,-0.9573364,0.02758789,-0.2767334,-0.022460938,0.06542969,0.047851562,3.1584573,-11.486468,0.8471351,-17.207565,-1.001648,0.028442383,0.014465332,-0.0126953125,0.02734375,0.033203125,2.0802724,-11.295227,-56.15621,-16.36202,0.52948,0.137146,0.8248291,0.013671875,0.016601562,-0.0146484375,51.10939,-9.194548,-128.11691,-14.749807,0.0,0.0,0.0,0.0,0.0,0.0,0.0,-9.578288,-127.693565,5.244631,0.0,0.0,0.0,0.0,0.0,0.0,0.0,0.5548187,-0.040918272,0.8311588,-0.99053955,0.07556152,-0.0513916,0.095703125,-0.09863281,-0.16699219,5.255199,11.486468,-0.8471351,17.207565,-0.94873047,-0.1519165,-0.19116211,-0.037109375,0.01953125,0.018554688,13.880128,4.8680296,-57.467297,16.528257,0.5374756,0.10229492,0.87994385,-0.0048828125,0.0,0.001953125,32.113876,11.649343,-128.79102,9.255776,0.0,0.0,0.0,0.0,0.0,0.0,0.0,11.235921,-129.46466,29.24226,-0.95758057,-0.09033203,0.056518555,-0.40039062,0.3173828,0.29589844,0.0,1.2013385,44.969074,1.4119225,
0.21484374679857868,11,-0.85723877,-0.2954712,0.43304443,-0.017578125,-0.0126953125,0.0029296875,0.0,0.0,0.0,0.0,0.0,0.0,0.0,0.0,0.0,0.0,0.0,-0.5571437,0.041227806,-0.8295443,-0.9389038,0.052612305,-0.2432251,-0.022460938,0.046875,0.029296875,3.147405,-11.534603,0.85354346,-17.174139,-0.9975586,0.032226562,0.017456055,-0.032226562,0.0087890625,0.033203125,2.0823412,-11.361756,-56.14862,-16.34953,0.50598145,0.10699463,0.85595703,0.033203125,-0.021484375,-0.015625,51.178757,-9.28391,-128.11719,-14.82461,0.0,0.0,0.0,0.0,0.0,0.0,0.0,-9.6242485,-127.70838,5.1705055,0.0,0.0,0.0,0.0,0.0,0.0,0.0,0.5571437,-0.041227806,0.8295443,-0.99157715,0.08343506,-0.045288086,0.10058594,-0.12109375,-0.11230469,5.2942047,11.534603,-0.85354346,17.174139,-0.9507446,-0.15093994,-0.18914795,-0.037109375,0.01953125,0.018554688,13.9691925,4.8670354,-57.46893,16.722271,0.49993896,0.059265137,0.8634033,0.013671875,9.765625E-4,-0.016601562,32.166187,11.611069,-128.8052,9.517797,0.0,0.0,0.0,0.0,0.0,0.0,0.0,11.2125845,-129.48647,29.504797,-0.97576904,-0.09753418,0.041809082,-0.3642578,0.31640625,0.3515625,0.0,1.2479625,44.966694,1.3966508,
0.23437499650754037,12,-0.85717773,-0.2954712,0.42114258,0.01953125,0.005859375,0.0390625,0.0,0.0,0.0,0.0,0.0,0.0,0.0,0.0,0.0,0.0,0.0,-0.55991983,0.042074107,-0.82757485,-0.94506836,0.041870117,-0.23529053,-0.00390625,0.046875,0.047851562,3.1614928,-11.592077,0.8710644,-17.133366,-0.9611206,0.04510498,0.0028076172,-0.013671875,0.0087890625,0.033203125,2.137624,-11.4832735,-56.130257,-16.305893,0.5362549,0.12036133,0.82855225,0.013671875,-0.021484375,-0.015625,51.142452,-9.41991,-128.09528,-14.848391,0.0,0.0,0.0,0.0,0.0,0.0,0.0,-9.749649,-127.69246,5.147499,0.0,0.0,0.0,0.0,0.0,0.0,0.0,0.55991983,-0.042074107,0.82757485,-0.99053955,0.082458496,-0.053222656,0.08496094,-0.087890625,-0.13671875,5.251245,11.592077,-0.8710644,17.133366,-0.95788574,-0.152771,-0.19616699,-0.056640625,0.038085938,0.018554688,13.993025,4.9191723,-57.490932,16.850103,0.5180664,0.084472656,0.86016846,0.032226562,-0.017578125,0.0029296875,32.245274,11.620016,-128.83542,9.705884,0.0,0.0,0.0,0.0,0.0,0.0,0.0,11.233213,-129.52516,29.692657,-0.9519043,-0.10211182,0.054504395,-0.38378906,0.296875,0.35253906,0.0,1.3221102,44.96266,1.3914007,
0.2539062462165021,13,-0.8414917,-0.27172852,0.4567871,-0.017578125,0.04296875,0.021484375,0.0,0.0,0.0,0.0,0.0,0.0,0.0,0.0,0.0,0.0,0.0,-0.5617861,0.042550948,-0.82637614,-0.9433594,0.02130127,-0.26019287,-0.060546875,0.029296875,0.047851562,3.1536808,-11.630713,0.8809365,-17.10855,-0.9946289,0.06378174,0.020629883,-0.034179688,-0.046875,0.0146484375,2.1215408,-11.538063,-56.120983,-16.312769,0.53430176,0.123291016,0.8364258,0.013671875,-0.021484375,-0.034179688,51.069736,-9.515486,-128.08781,-14.905723,0.0,0.0,0.0,0.0,0.0,0.0,0.0,-9.833621,-127.687096,5.0913363,0.0,0.0,0.0,0.0,0.0,0.0,0.0,0.5617861,-0.042550948,0.82637614,-0.99658203,0.07952881,-0.0423584,0.026367188,-0.14550781,-0.13476562,5.240824,11.630713,-0.8809365,17.10855,-0.95788574,-0.16326904,-0.21234131,-0.037109375,0.01953125,0.018554688,14.052951,4.9380445,-57.49726,17.00075,0.51104736,0.105407715,0.85510254,0.032226562,9.765625E-4,-0.03515625,32.331764,11.6236,-128.84792,9.922641,0.0,0.0,0.0,0.0,0.0,0.0,0.0,11.241969,-129.54292,29.910263,-0.9719238,-0.101501465,0.0368042,-0.38378906,0.3544922,0.38867188,0.0,1.3844997,44.964725,1.3740704,
0.2734374959254638,14,-0.8234863,-0.2697754,0.4564209,9.765625E-4,-0.0126953125,0.001953125,0.0,0.0,0.0,0.0,0.0,0.0,0.0,0.0,0.0,0.0,0.0,-0.56253684,0.042841367,-0.8258241,-0.9454956,0.013549805,-0.26916504,-0.041015625,0.046875,0.029296875,3.1671848,-11.646256,0.8869491,-17.09712,-0.9879761,0.050109863,-0.0072021484,-0.0126953125,0.02734375,0.013671875,2.1346922,-11.55319,-56.117306,-16.304798,0.5163574,0.13543701,0.82476807,-0.005859375,-0.0029296875,-0.0146484375,51.073616,-9.52027,-128.08875,-14.968028,0.0,0.0,0.0,0.0,0.0,0.0,0.0,-9.827106,-127.69015,5.028287,0.0,0.0,0.0,0.0,0.0,0.0,0.0,0.56253684,-0.042841367,0.8258241,-0.996521,0.06976318,-0.06427002,0.06542969,-0.10644531,-0.13574219,5.3059616,11.646256,-0.8869491,17.09712,-0.97003174,-0.15625,-0.21813965,-0.037109375,0.038085938,0.037109375,14.095251,4.946078,-57.50175,17.155706,0.50439453,0.0748291,0.8902588,0.032226562,-0.037109375,0.0029296875,32.33524,11.606874,-128.86035,10.133748,0.0,0.0,0.0,0.0,0.0,0.0,0.0,11.227864,-129.56328,30.119675,-0.9557495,-0.10119629,0.06842041,-0.41992188,0.3935547,0.38867188,0.0,1.3868976,44.96325,1.3878334,
0.2929687456344255,15,-0.84539795,-0.27770996,0.43695068,0.01953125,0.005859375,0.020507812,0.0,0.0,0.0,0.0,0.0,0.0,0.0,0.0,0.0,0.0,0.0,-0.56423444,0.043656975,-0.8245542,-0.92529297,0.022888184,-0.25750732,-0.060546875,0.046875,0.0107421875,3.1919978,-11.681403,0.9038348,-17.07083,-0.98358154,0.064575195,0.0078125,-0.032226562,0.02734375,0.013671875,2.1583982,-11.606102,-56.097576,-16.292599,0.50390625,0.10211182,0.86279297,0.013671875,-0.0029296875,-0.033203125,51.21069,-9.571007,-128.06697,-15.014653,0.0,0.0,0.0,0.0,0.0,0.0,0.0,-9.8287735,-127.68307,4.9819136,0.0,0.0,0.0,0.0,0.0,0.0,0.0,0.56423444,-0.043656975,0.8245542,-0.996521,0.05987549,-0.059509277,0.15429688,-0.07910156,-0.12988281,5.246915,11.681403,-0.9038348,17.07083,-0.9537964,-0.15161133,-0.21203613,-0.017578125,0.0390625,-9.765625E-4,14.052431,5.048269,-57.524197,17.249126,0.49591064,0.099365234,0.8512573,0.013671875,9.765625E-4,-0.016601562,32.314583,11.6871395,-128.89223,10.281927,0.0,0.0,0.0,0.0,0.0,0.0,0.0,11.293365,-129.59943,30.267292,-0.96698,-0.10760498,0.04864502,-0.34570312,0.37402344,0.3876953,0.0,1.4262702,44.958973,1.404422,
0.3124999953433872,16,-0.84143066,-0.2796631,0.45074463,0.020507812,-0.0126953125,0.001953125,0.0,0.0,0.0,0.0,0.0,0.0,0.0,0.0,0.0,0.0,0.0,-0.5662911,0.044226777,-0.82320946,-0.9194946,0.0060424805,-0.25775146,0.015625,0.046875,0.0107421875,3.219175,-11.723981,0.9156315,-17.04299,-0.98376465,0.023864746,0.016479492,-0.051757812,0.028320312,0.013671875,2.143019,-11.640966,-56.08762,-16.276663,0.5352173,0.11126709,0.8707886,0.013671875,-0.0029296875,-0.0146484375,51.099613,-9.617168,-128.05751,-15.026454,0.0,0.0,0.0,0.0,0.0,0.0,0.0,-9.88915,-127.6741,4.970332,0.0,0.0,0.0,0.0,0.0,0.0,0.0,0.5662911,-0.044226777,0.82320946,-1.0006104,0.08251953,-0.05114746,0.043945312,-0.14257812,-0.1328125,5.325057,11.723981,-0.9156315,17.04299,-0.9579468,-0.17480469,-0.22454834,-0.037109375,0.0390625,-9.765625E-4,14.159013,5.048947,-57.535145,17.396095,0.49920654,0.075927734,0.8812866,0.0126953125,-0.037109375,-0.03515625,32.484318,11.7108345,-128.90793,10.501709,0.0,0.0,0.0,0.0,0.0,0.0,0.0,11.329465,-129.62045,30.4876,-0.9475708,-0.08868408,0.06439209,-0.34570312,0.37402344,0.3876953,0.0,1.4553001,44.961323,1.4144284,
0.3320312450523489,17,-0.8373413,-0.29736328,0.46832275,-0.017578125,-0.0126953125,0.0029296875,0.0,0.0,0.0,0.0,0.0,0.0,0.0,0.0,0.0,0.0,0.0,-0.56615907,0.04398037,-0.8233113,-0.93743896,0.014343262,-0.2682495,-0.041015625,0.046875,0.029296875,3.1974516,-11.72125,0.91053003,-17.045095,-1.0043335,0.040527344,0.008605957,-0.0126953125,0.02734375,-0.0048828125,2.1190486,-11.598351,-56.0966,-16.32047,0.54681396,0.15142822,0.8358154,0.013671875,-0.021484375,-0.034179688,51.203476,-9.552169,-128.0653,-15.103297,0.0,0.0,0.0,0.0,0.0,0.0,0.0,-9.809283,-127.690254,4.8940763,0.0,0.0,0.0,0.0,0.0,0.0,0.0,0.56615907,-0.04398037,0.8233113,-0.9885254,0.09051514,-0.07684326,0.0703125,-0.091796875,-0.12011719,5.348227,11.72125,-0.91053003,17.045095,-0.9640503,-0.17303467,-0.20257568,-0.037109375,0.01953125,-9.765625E-4,14.157505,5.053407,-57.52819,17.507582,0.51116943,0.05718994,0.8763428,0.03125,-0.037109375,-0.015625,32.608303,11.693676,-128.90866,10.69523,0.0,0.0,0.0,0.0,0.0,0.0,0.0,11.345475,-129.62816,30.680645,-0.96221924,-0.072631836,0.05657959,-0.34570312,0.37402344,0.3876953,0.0,1.4610802,44.961597,1.3970703,
0.3515624947613106,18,-0.8239746,-0.321167,0.42907715,-0.018554688,0.061523438,0.0029296875,0.0,0.0,0.0,0.0,0.0,0.0,0.0,0.0,0.0,0.0,0.0,-0.56785995,0.04467306,-0.8221376,-0.9384155,0.016235352,-0.24554443,-0.060546875,0.01171875,0.047851562,3.2587655,-11.756462,0.9248709,-17.020798,-0.9621582,0.044189453,-1.8310547E-4,-0.07128906,0.009765625,0.032226562,2.1247673,-11.647094,-56.076706,-16.257038,0.5036011,0.09063721,0.83013916,0.033203125,0.016601562,-0.0146484375,51.24181,-9.629176,-128.0476,-15.109058,0.0,0.0,0.0,0.0,0.0,0.0,0.0,-9.8485155,-127.679794,4.889721,0.0,0.0,0.0,0.0,0.0,0.0,0.0,0.56785995,-0.04467306,0.8221376,-1.0036621,0.085510254,-0.05206299,-0.016601562,-0.064453125,-0.16894531,5.3433514,11.756462,-0.9248709,17.020798,-0.96502686,-0.16815186,-0.20245361,-0.037109375,0.01953125,-9.765625E-4,14.139357,5.123657,-57.541744,17.568007,0.51727295,0.08917236,0.8751221,0.013671875,9.765625E-4,-0.016601562,32.67818,11.76655,-128.93257,10.830942,0.0,0.0,0.0,0.0,0.0,0.0,0.0,11.434492,-129.65852,30.817991,-0.9564209,-0.0836792,0.07141113,-0.3642578,0.3544922,0.3701172,0.0,1.4808786,44.961548,1.420247,
0.37109374447027227,19,-0.83447266,-0.2874756,0.4743042,-0.017578125,-0.0126953125,0.0029296875,0.0,0.0,0.0,0.0,0.0,0.0,0.0,0.0,0.0,0.0,0.0,-0.56948847,0.044864796,-0.8209078,-0.91625977,0.024719238,-0.25567627,-0.041015625,-0.0068359375,0.029296875,3.247994,-11.790176,0.9288403,-16.995337,-0.9771118,0.045776367,-0.004211426,-0.032226562,0.02734375,0.033203125,2.1643746,-11.709111,-56.0762,-16.238903,0.51135254,0.12945557,0.8473511,0.013671875,-0.0029296875,-0.033203125,51.230762,-9.687218,-128.05571,-15.162648,0.0,0.0,0.0,0.0,0.0,0.0,0.0,-9.914301,-127.69184,4.834918,0.0,0.0,0.0,0.0,0.0,0.0,0.0,0.56948847,-0.044864796,0.8209078,-0.9994507,0.048950195,-0.051818848,-0.059570312,-0.15625,-0.14355469,5.4088154,11.790176,-0.9288403,16.995337,-0.95288086,-0.17700195,-0.20965576,-0.037109375,0.01953125,-9.765625E-4,14.203926,5.1344137,-57.54566,17.734953,0.50006104,0.07312012,0.86932373,0.013671875,9.765625E-4,-0.016601562,32.71781,11.754444,-128.94135,11.076628,0.0,0.0,0.0,0.0,0.0,0.0,0.0,11.434981,-129.66487,31.062223,-0.9577637,-0.09613037,0.053588867,-0.43847656,0.41308594,0.38867188,0.0,1.5124063,44.95748,1.4078441,
0.39062499417923396,20,-0.8441162,-0.30926514,0.43066406,-0.017578125,0.005859375,0.0029296875,0.0,0.0,0.0,0.0,0.0,0.0,0.0,0.0,0.0,0.0,0.0,-0.5704632,0.04520163,-0.82028157,-0.9371948,0.031982422,-0.25628662,-0.041015625,0.06542969,0.0107421875,3.267525,-11.810356,0.9358138,-16.982372,-0.99664307,0.02935791,0.010498047,-0.0703125,0.047851562,0.013671875,2.1740286,-11.726418,-56.067417,-16.22571,0.5140991,0.11077881,0.8579712,0.052734375,-0.0029296875,-0.033203125,51.415627,-9.692785,-128.04059,-15.167068,0.0,0.0,0.0,0.0,0.0,0.0,0.0,-9.877527,-127.68079,4.830743,0.0,0.0,0.0,0.0,0.0,0.0,0.0,0.5704632,-0.04520163,0.82028157,-0.9893799,0.036193848,-0.06896973,0.08300781,-0.10449219,-0.13378906,5.442693,11.810356,-0.9358138,16.982372,-0.95788574,-0.16149902,-0.19934082,-0.037109375,0.0390625,-9.765625E-4,14.195448,5.223232,-57.554333,17.888962,0.5292969,0.08135986,0.8740845,0.032226562,-0.017578125,-0.015625,32.75993,11.839542,-128.95956,11.293721,0.0,0.0,0.0,0.0,0.0,0.0,0.0,11.521622,-129.68794,31.279911,-0.94122314,-0.1149292,0.041503906,-0.5136719,0.4892578,0.44335938,0.0,1.511402,44.959488,1.426392,
0.41015624388819566,21,-0.83325195,-0.28759766,0.43066406,0.020507812,-0.0126953125,0.001953125,0.0,0.0,0.0,0.0,0.0,0.0,0.0,0.0,0.0,0.0,0.0,-0.5714807,0.045454714,-0.8195633,-0.9534302,0.020568848,-0.27288818,-0.041015625,0.046875,0.0107421875,3.2379122,-11.831422,0.9410534,-16.967505,-0.99664307,0.02935791,0.010498047,-0.0703125,0.047851562,0.013671875,2.18767,-11.769322,-56.06182,-16.251144,0.5296631,0.14282227,0.8475342,0.013671875,-0.0029296875,-0.0146484375,51.46572,-9.73569,-128.03499,-15.192502,0.0,0.0,0.0,0.0,0.0,0.0,0.0,-9.902648,-127.68094,4.80639,0.0,0.0,0.0,0.0,0.0,0.0,0.0,0.5714807,-0.045454714,0.8195633,-0.9893799,0.036193848,-0.06896973,0.08300781,-0.10449219,-0.13378906,5.4099746,11.831422,-0.9410534,16.967505,-0.95391846,-0.17401123,-0.21057129,-0.017578125,0.01953125,0.018554688,14.193567,5.2442975,-57.55957,17.874092,0.52893066,0.089782715,0.8480835,0.032226562,0.01953125,-0.016601562,32.82776,11.884832,-128.96751,11.329391,0.0,0.0,0.0,0.0,0.0,0.0,0.0,11.557465,-129.70634,31.31429,-0.96588135,-0.112854004,0.080444336,-0.40234375,0.4501953,0.44335938,0.0,1.5380614,44.958923,1.4210277,
0.42968749359715736,22,-0.85235596,-0.2855835,0.440979,0.020507812,-0.03125,0.001953125,0.0,0.0,0.0,0.0,0.0,0.0,0.0,0.0,0.0,0.0,0.0,-0.57197815,0.046090245,-0.81915766,-0.93518066,0.028808594,-0.21875,-0.00390625,0.06542969,0.029296875,3.242806,-11.841722,0.9542109,-16.959105,-0.9777832,0.022827148,0.008544922,-0.032226562,0.045898438,0.033203125,2.2000704,-11.784409,-56.048565,-16.278378,0.50231934,0.1305542,0.8533325,0.033203125,-0.0029296875,-0.033203125,51.455433,-9.740462,-128.02383,-15.268229,0.0,0.0,0.0,0.0,0.0,0.0,0.0,-9.8970785,-127.6686,4.7300377,0.0,0.0,0.0,0.0,0.0,0.0,0.0,0.57197815,-0.046090245,0.81915766,-1.0015869,0.07470703,-0.06121826,0.18457031,-0.10839844,-0.12109375,5.3609986,11.841722,-0.9542109,16.959105,-0.96203613,-0.17480469,-0.22155762,-0.056640625,0.01953125,0.018554688,14.107824,5.417509,-57.593414,18.03688,0.506897,0.09954834,0.84716797,0.032226562,9.765625E-4,-0.016601562,32.850365,12.054595,-129.00652,11.542034,0.0,0.0,0.0,0.0,0.0,0.0,0.0,11.722177,-129.74628,31.527752,-0.9602661,-0.1194458,0.04663086,-0.3828125,0.4501953,0.4248047,0.0,1.5519625,44.9568,1.4458525,
0.44921874330611905,23,-0.8644409,-0.26586914,0.42358398,9.765625E-4,0.024414062,0.0029296875,0.0,0.0,0.0,0.0,0.0,0.0,0.0,0.0,0.0,0.0,0.0,-0.5739153,0.04679719,-0.8176868,-0.9366455,-6.1035156E-4,-0.23480225,-0.022460938,0.06542969,0.0107421875,3.3075438,-11.881826,0.96884686,-16.92865,-0.97491455,0.051757812,-0.011108398,-0.05078125,0.046875,0.013671875,2.231691,-11.840034,-56.034573,-16.207191,0.5292969,0.119262695,0.8619995,0.033203125,-0.021484375,-0.015625,51.456722,-9.794694,-128.01059,-15.243579,0.0,0.0,0.0,0.0,0.0,0.0,0.0,-9.938907,-127.66078,4.754689,0.0,0.0,0.0,0.0,0.0,0.0,0.0,0.5739153,-0.04679719,0.8176868,-0.99658203,0.08166504,-0.07891846,0.068359375,-0.12792969,-0.09863281,5.3598657,11.881826,-0.96884686,16.92865,-0.95996094,-0.1671753,-0.21038818,-0.037109375,-0.018554688,0.017578125,14.122794,5.4413166,-57.60117,18.074474,0.52227783,0.09423828,0.8720703,0.013671875,9.765625E-4,-0.016601562,32.895016,12.062984,-129.01659,11.637658,0.0,0.0,0.0,0.0,0.0,0.0,0.0,11.735207,-129.75887,31.622978,-0.9758301,-0.105651855,0.06561279,-0.49609375,0.46875,0.4814453,0.0,1.6030701,44.952198,1.4475102,
0.46874999301508075,24,-0.83935547,-0.2855835,0.44866943,0.01953125,0.005859375,0.001953125,0.0,0.0,0.0,0.0,0.0,0.0,0.0,0.0,0.0,0.0,0.0,-0.5760585,0.047169264,-0.81617343,-0.9458008,-0.012329102,-0.22296143,0.034179688,0.028320312,0.0107421875,3.334426,-11.926196,0.97655,-16.89732,-0.9934082,0.037902832,0.024475098,-0.0126953125,0.02734375,-0.0048828125,2.267708,-11.920123,-56.028442,-16.144138,0.5269165,0.101989746,0.82336426,0.013671875,-0.0029296875,-0.033203125,51.43299,-9.882081,-128.0061,-15.18093,0.0,0.0,0.0,0.0,0.0,0.0,0.0,-10.019406,-127.66158,4.818639,0.0,0.0,0.0,0.0,0.0,0.0,0.0,0.5760585,-0.047169264,0.81617343,-1.0015259,0.061767578,-0.04559326,-0.005859375,-0.1328125,-0.140625,5.3473105,11.926196,-0.97655,16.89732,-0.96710205,-0.1749878,-0.20159912,-0.037109375,0.0390625,-0.01953125,14.148496,5.503153,-57.60802,18.176788,0.49291992,0.10925293,0.85321045,0.013671875,9.765625E-4,-0.016601562,33.052994,12.128784,-129.02885,11.809677,0.0,0.0,0.0,0.0,0.0,0.0,0.0,11.826075,-129.7625,31.795223,-0.96099854,-0.10668945,0.043640137,-0.42089844,0.43066406,0.44433594,0.0,1.6598545,44.95142,1.426354,
0.48828124272404244,25,-0.82836914,-0.2826538,0.45043945,-0.017578125,0.005859375,0.0029296875,0.0,0.0,0.0,0.0,0.0,0.0,0.0,0.0,0.0,0.0,0.0,-0.5768801,0.047111537,-0.81563723,-0.9293823,0.018066406,-0.260437,-0.022460938,0.046875,0.0107421875,3.3487804,-11.943207,0.9753549,-16.88622,-0.99560547,0.064941406,0.009765625,-0.013671875,-0.009765625,0.0146484375,2.2775261,-11.938435,-56.027405,-16.114424,0.55133057,0.112976074,0.8638916,0.033203125,-0.021484375,-0.015625,51.527714,-9.898053,-128.00519,-15.16586,0.0,0.0,0.0,0.0,0.0,0.0,0.0,-9.995962,-127.66737,4.8333254,0.0,0.0,0.0,0.0,0.0,0.0,0.0,0.5768801,-0.047111537,0.81563723,-0.99749756,0.061706543,-0.03277588,0.076171875,-0.15527344,-0.12695312,5.416527,11.943207,-0.9753549,16.88622,-0.954895,-0.17022705,-0.20251465,-0.037109375,0.01953125,-9.765625E-4,14.230818,5.4770665,-57.600082,18.325027,0.5029297,0.0803833,0.85528564,0.013671875,9.765625E-4,-0.016601562,33.061935,12.082035,-129.02908,12.007905,0.0,0.0,0.0,0.0,0.0,0.0,0.0,11.777925,-129.76405,31.994541,-0.96881104,-0.099731445,0.045715332,-0.3466797,0.46875,0.4794922,0.0,1.6966871,44.952496,1.3964493,
0.5078124924330042,26,-0.82025146,-0.28070068,0.43041992,-0.0546875,-0.0126953125,0.0029296875,0.0,0.0,0.0,0.0,0.0,0.0,0.0,0.0,0.0,0.0,0.0,-0.5779475,0.047247317,-0.81484985,-0.94854736,0.009521484,-0.24243164,-0.060546875,0.047851562,0.047851562,3.3427532,-11.965305,0.9781659,-16.869919,-0.9916382,0.029052734,0.018493652,-0.032226562,0.02734375,-0.0048828125,2.3084254,-11.979414,-56.02717,-16.102863,0.53131104,0.12634277,0.8276367,0.013671875,0.036132812,-0.0146484375,51.427334,-9.932039,-128.00528,-15.19825,0.0,0.0,0.0,0.0,0.0,0.0,0.0,-10.047409,-127.66166,4.80179,0.0,0.0,0.0,0.0,0.0,0.0,0.0,0.5779475,-0.047247317,0.81484985,-0.9874878,0.07861328,-0.07110596,0.19140625,-0.057617188,-0.12792969,5.4489546,11.965305,-0.9781659,16.869919,-0.9579468,-0.16644287,-0.19049072,-0.037109375,0.0390625,-0.01953125,14.251031,5.489628,-57.599575,18.409807,0.50183105,0.06048584,0.85339355,0.032226562,9.765625E-4,0.0029296875,33.03384,12.078426,-129.03864,12.159554,0.0,0.0,0.0,0.0,0.0,0.0,0.0,11.759402,-129.7715,32.146515,-0.9523926,-0.0736084,0.03466797,-0.40234375,0.4501953,0.44335938,0.0,1.7233422,44.950993,1.3840743,
0.5273437421419659,27,-0.8284302,-0.27868652,0.45843506,-0.037109375,0.061523438,0.041015625,0.0,0.0,0.0,0.0,0.0,0.0,0.0,0.0,0.0,0.0,0.0,-0.5794894,0.047318753,-0.81379837,-0.94854736,0.009521484,-0.24243164,-0.060546875,0.047851562,0.047851562,3.3505921,-11.997229,0.97964483,-16.84815,-0.9893799,0.03717041,6.713867E-4,-0.051757812,0.028320312,0.033203125,2.3138454,-12.011337,-56.02569,-16.081095,0.5308838,0.09887695,0.8331909,0.013671875,0.016601562,-0.033203125,51.26827,-9.967571,-128.00407,-15.216268,0.0,0.0,0.0,0.0,0.0,0.0,0.0,-10.101584,-127.66393,4.782815,0.0,0.0,0.0,0.0,0.0,0.0,0.0,0.5794894,-0.047318753,0.81379837,-0.99957275,0.07562256,-0.057250977,0.11328125,0.0,-0.14648438,5.2859817,11.997229,-0.97964483,16.84815,-0.96203613,-0.16540527,-0.19244385,-0.056640625,0.038085938,0.018554688,14.083663,5.6457872,-57.61027,18.368662,0.51257324,0.08898926,0.8282471,0.0126953125,-0.037109375,-0.016601562,33.015865,12.209493,-129.0585,12.197369,0.0,0.0,0.0,0.0,0.0,0.0,0.0,11.887722,-129.79236,32.18256,-0.96624756,-0.07244873,0.048706055,-0.43945312,0.46875,0.48046875,0.0,1.7580317,44.952114,1.361906,
0.5468749918509276,28,-0.8372803,-0.28955078,0.4406128,-0.017578125,-0.03125,0.001953125,0.0,0.0,0.0,0.0,0.0,0.0,0.0,0.0,0.0,0.0,0.0,-0.5805854,0.04717034,-0.81298816,-0.9375,0.009338379,-0.25152588,-0.060546875,0.047851562,0.029296875,3.37748,-12.019917,0.9765723,-16.831375,-0.97454834,0.033203125,0.032409668,-0.032226562,0.02734375,-0.0048828125,2.2502935,-11.974817,-56.02682,-16.076145,0.53326416,0.119262695,0.84820557,0.013671875,0.016601562,-0.0146484375,51.313618,-9.935684,-128.00537,-15.215668,0.0,0.0,0.0,0.0,0.0,0.0,0.0,-10.047508,-127.66782,4.7823772,0.0,0.0,0.0,0.0,0.0,0.0,0.0,0.5805854,-0.04717034,0.81298816,-0.9954834,0.060668945,-0.030822754,0.046875,-0.14550781,-0.115234375,5.294242,12.019917,-0.9765723,16.831375,-0.9539795,-0.18597412,-0.18890381,-0.037109375,0.0390625,0.018554688,14.066686,5.691485,-57.60951,18.460724,0.50720215,0.08911133,0.8712158,0.013671875,9.765625E-4,-0.016601562,33.05623,12.218092,-129.06256,12.353618,0.0,0.0,0.0,0.0,0.0,0.0,0.0,11.911917,-129.80011,32.339184,-0.97576904,-0.09967041,0.058654785,-0.41992188,0.48828125,0.46191406,0.0,1.7800277,44.95063,1.3368931,
0.5664062415598893,29,-0.84729004,-0.27575684,0.42114258,-0.017578125,-0.03125,0.021484375,0.0,0.0,0.0,0.0,0.0,0.0,0.0,0.0,0.0,0.0,0.0,-0.5817877,0.047657717,-0.8121543,-0.947876,-0.016174316,-0.23382568,-0.022460938,0.029296875,0.047851562,3.4366684,-12.04481,0.9866625,-16.814112,-1.0089722,0.018859863,0.010437012,-0.032226562,0.02734375,-0.0048828125,2.2940521,-12.0233965,-56.016796,-15.995487,0.5285034,0.13806152,0.83270264,0.013671875,-0.021484375,-0.034179688,51.27297,-9.986075,-127.99902,-15.154618,0.0,0.0,0.0,0.0,0.0,0.0,0.0,-10.095373,-127.65718,4.844512,0.0,0.0,0.0,0.0,0.0,0.0,0.0,0.5817877,-0.047657717,0.8121543,-0.9954834,0.057800293,-0.040771484,0.045898438,-0.12597656,-0.13476562,5.418878,12.04481,-0.9866625,16.814112,-0.9589844,-0.17010498,-0.20947266,-0.017578125,0.01953125,0.037109375,14.153566,5.6741853,-57.608505,18.611729,0.52716064,0.07543945,0.8671875,0.013671875,-0.018554688,0.0029296875,33.057674,12.183256,-129.0683,12.56289,0.0,0.0,0.0,0.0,0.0,0.0,0.0,11.872175,-129.81503,32.549915,-0.95684814,-0.101989746,0.053527832,-0.40234375,0.4501953,0.44335938,0.0,1.8043944,44.951405,1.3451962,
0.585937491268851,30,-0.8290405,-0.2994995,0.4066162,0.020507812,-0.0126953125,0.001953125,0.0,0.0,0.0,0.0,0.0,0.0,0.0,0.0,0.0,0.0,0.0,-0.58385164,0.048169248,-0.8105945,-0.95080566,-0.015258789,-0.21496582,-0.022460938,0.06542969,0.047851562,3.4941275,-12.087538,0.99725276,-16.781818,-0.989563,0.03112793,0.010559082,-0.0126953125,0.02734375,0.013671875,2.319084,-12.0781145,-56.00697,-15.916979,0.5315552,0.07739258,0.8309326,0.033203125,-0.0029296875,-0.0146484375,51.261837,-10.048804,-127.989914,-15.097693,0.0,0.0,0.0,0.0,0.0,0.0,0.0,-10.155644,-127.65635,4.9015074,0.0,0.0,0.0,0.0,0.0,0.0,0.0,0.58385164,-0.048169248,0.8105945,-0.99139404,0.047973633,-0.059814453,0.0859375,-0.10644531,-0.11621094,5.463178,12.087538,-0.99725276,16.781818,-0.967041,-0.16021729,-0.21221924,-0.037109375,0.01953125,0.037109375,14.192634,5.724704,-57.615013,18.706804,0.49505615,0.10205078,0.8652344,0.013671875,9.765625E-4,-0.03515625,33.116184,12.231791,-129.07866,12.703125,0.0,0.0,0.0,0.0,0.0,0.0,0.0,11.930858,-129.81955,32.68815,-0.96154785,-0.084228516,0.044677734,-0.3828125,0.4501953,0.44335938,0.0,1.840514,44.948215,1.3453517,
0.6054687409778127,31,-0.85302734,-0.32110596,0.4366455,0.01953125,-0.0126953125,-0.016601562,0.0,0.0,0.0,0.0,0.0,0.0,0.0,0.0,0.0,0.0,0.0,-0.5845833,0.049381692,-0.8099308,-0.9243164,0.019897461,-0.2467041,-0.00390625,-0.026367188,0.0107421875,3.5509336,-12.102688,1.0223541,-16.768078,-0.9672241,0.04296875,0.02557373,-0.032226562,0.02734375,0.033203125,2.3325486,-12.125683,-55.979664,-15.89565,0.5352783,0.12133789,0.82855225,0.013671875,-0.0029296875,-0.0146484375,51.239864,-10.120996,-127.95805,-15.073935,0.0,0.0,0.0,0.0,0.0,0.0,0.0,-10.217238,-127.63049,4.925972,0.0,0.0,0.0,0.0,0.0,0.0,0.0,0.5845833,-0.049381692,0.8099308,-0.9954834,0.06378174,-0.051574707,0.15722656,-0.10058594,-0.091796875,5.455353,12.102688,-1.0223541,16.768078,-0.9579468,-0.17016602,-0.20648193,-0.037109375,0.01953125,0.018554688,14.191589,5.7756777,-57.644512,18.769024,0.49127197,0.095825195,0.87927246,0.013671875,9.765625E-4,-0.016601562,33.17121,12.301739,-129.11395,12.817537,0.0,0.0,0.0,0.0,0.0,0.0,0.0,11.996932,-129.85466,32.804535,-0.96203613,-0.105651855,0.03869629,-0.38476562,0.46875,0.49902344,0.0,1.8982813,44.942764,1.3700504,
0.6249999906867744,32,-0.8151245,-0.30340576,0.43408203,0.020507812,-0.0126953125,0.001953125,0.0,0.0,0.0,0.0,0.0,0.0,0.0,0.0,0.0,0.0,0.0,-0.58594847,0.049612805,-0.80895454,-0.9343262,0.021118164,-0.26135254,0.015625,0.06542969,0.047851562,3.560515,-12.130949,1.0271388,-16.747868,-0.9921875,0.043884277,0.01953125,-0.032226562,0.02734375,-0.0048828125,2.3113065,-12.131839,-55.9756,-15.904414,0.54138184,0.12200928,0.85809326,0.013671875,-0.021484375,-0.034179688,51.26291,-10.121647,-127.9559,-15.101919,0.0,0.0,0.0,0.0,0.0,0.0,0.0,-10.207942,-127.62549,4.8979034,0.0,0.0,0.0,0.0,0.0,0.0,0.0,0.58594847,-0.049612805,0.80895454,-0.9924927,0.068725586,-0.064331055,0.13964844,-0.10253906,-0.09375,5.4949746,12.130949,-1.0271388,16.747868,-0.960022,-0.17889404,-0.20568848,-0.037109375,0.038085938,0.037109375,14.237514,5.784849,-57.64032,18.832722,0.5107422,0.08972168,0.84020996,0.013671875,0.0,0.0029296875,33.15837,12.318654,-129.11176,12.929353,0.0,0.0,0.0,0.0,0.0,0.0,0.0,12.010134,-129.84454,32.916363,-0.94781494,-0.0993042,0.057434082,-0.42089844,0.4501953,0.46191406,0.0,1.9260883,44.942757,1.3611988,
0.6445312403957361,33,-0.8685913,-0.26678467,0.45343018,0.01953125,0.005859375,0.020507812,0.0,0.0,0.0,0.0,0.0,0.0,0.0,0.0,0.0,0.0,0.0,-0.5865057,0.04914279,-0.80860204,-0.9466553,0.0026855469,-0.25933838,0.015625,0.028320312,0.047851562,3.5213106,-12.142487,1.0174081,-16.740568,-1.0085449,0.032836914,0.003540039,-0.051757812,0.009765625,0.013671875,2.3325486,-12.164178,-55.983154,-15.8980875,0.5463257,0.12512207,0.8206787,0.013671875,-0.021484375,-0.015625,51.27766,-10.167341,-127.96325,-15.14272,0.0,0.0,0.0,0.0,0.0,0.0,0.0,-10.245105,-127.637566,4.856717,0.0,0.0,0.0,0.0,0.0,0.0,0.0,0.5865057,-0.04914279,0.80860204,-0.9915161,0.07470703,-0.06921387,0.22363281,-0.08886719,-0.10253906,5.4125457,12.142487,-1.0174081,16.740568,-0.9569092,-0.17016602,-0.20550537,-0.017578125,0.020507812,-9.765625E-4,14.145659,5.8676233,-57.641445,18.82317,0.5140381,0.093444824,0.85717773,-0.0048828125,-0.038085938,0.0029296875,33.202316,12.405256,-129.11855,12.994797,0.0,0.0,0.0,0.0,0.0,0.0,0.0,12.096371,-129.8482,32.980865,-0.956604,-0.0791626,0.016784668,-0.47558594,0.4892578,0.4248047,0.0,1.9294207,44.944317,1.3320184,
0.6640624901046978,34,-0.8522339,-0.28466797,0.42315674,0.01953125,0.005859375,0.001953125,0.0,0.0,0.0,0.0,0.0,0.0,0.0,0.0,0.0,0.0,0.0,-0.5872294,0.049055662,-0.80806947,-0.9505005,0.012512207,-0.24139404,-0.060546875,0.047851562,0.047851562,3.5334113,-12.157468,1.0156043,-16.729544,-0.9932251,0.008483887,0.010375977,-0.05078125,0.046875,-0.0048828125,2.3476872,-12.189275,-55.985344,-15.85694,0.5230713,0.10876465,0.84417725,0.052734375,-0.021484375,-0.015625,51.26518,-10.209804,-127.966545,-15.131827,0.0,0.0,0.0,0.0,0.0,0.0,0.0,-10.273261,-127.6476,4.867717,0.0,0.0,0.0,0.0,0.0,0.0,0.0,0.5872294,-0.049055662,0.80806947,-0.98950195,0.072631836,-0.056396484,-0.020507812,-0.13671875,-0.125,5.4571843,12.157468,-1.0156043,16.729544,-0.94573975,-0.16723633,-0.21643066,-0.037109375,0.01953125,-9.765625E-4,14.206362,5.8754444,-57.635147,18.900126,0.49230957,0.1027832,0.880188,0.032226562,9.765625E-4,-0.016601562,33.309357,12.434986,-129.114,13.086407,0.0,0.0,0.0,0.0,0.0,0.0,0.0,12.129868,-129.8429,33.07219,-0.97216797,-0.12432861,0.0715332,-0.53222656,0.5078125,0.48046875,0.0,1.9409672,44.94378,1.3178989,
0.6835937398136595,35,-0.84228516,-0.2915039,0.43676758,0.020507812,-0.0126953125,0.001953125,0.0,0.0,0.0,0.0,0.0,0.0,0.0,0.0,0.0,0.0,0.0,-0.58835125,0.04918293,-0.80726993,-0.9404907,0.010375977,-0.2564087,-0.060546875,0.06542969,0.029296875,3.5657353,-12.180696,1.018239,-16.71299,-0.99108887,0.047851562,0.017578125,-0.051757812,0.028320312,-0.0048828125,2.3523512,-12.186718,-55.982906,-15.837007,0.5354004,0.12915039,0.83551025,0.013671875,-0.021484375,-0.034179688,51.480236,-10.172989,-127.96182,-15.117361,0.0,0.0,0.0,0.0,0.0,0.0,0.0,-10.20802,-127.63659,4.882063,0.0,0.0,0.0,0.0,0.0,0.0,0.0,0.58835125,-0.04918293,0.80726993,-0.9923706,0.042114258,-0.06781006,-0.0078125,-0.13085938,-0.15820312,5.4784374,12.180696,-1.018239,16.71299,-0.9691162,-0.1729126,-0.20953369,-0.017578125,0.01953125,0.018554688,14.221341,5.9379005,-57.636547,19.008408,0.49700928,0.07519531,0.86431885,0.0146484375,0.038085938,0.001953125,33.4264,12.506058,-129.11717,13.250414,0.0,0.0,0.0,0.0,0.0,0.0,0.0,12.225023,-129.84937,33.23819,-0.95562744,-0.08929443,0.049560547,-0.5136719,0.50878906,0.46191406,0.0,1.9708917,44.943844,1.3017867,
0.7031249895226211,36,-0.8422241,-0.28961182,0.42388916,-0.017578125,0.024414062,0.0029296875,0.0,0.0,0.0,0.0,0.0,0.0,0.0,0.0,0.0,0.0,0.0,-0.58897656,0.049848594,-0.8067405,-0.95703125,-0.027709961,-0.25054932,-0.060546875,0.06542969,0.029296875,3.6440036,-12.193643,1.0320204,-16.70203,-1.0021362,0.012756348,0.008422852,-0.051757812,0.028320312,0.033203125,2.3326325,-12.166975,-55.970264,-15.802129,0.5227661,0.1496582,0.86828613,0.013671875,-0.001953125,0.00390625,51.583084,-10.140571,-127.94833,-15.056543,0.0,0.0,0.0,0.0,0.0,0.0,0.0,-10.152388,-127.611145,4.943104,0.0,0.0,0.0,0.0,0.0,0.0,0.0,0.58897656,-0.049848594,0.8067405,-1.0014648,0.04699707,-0.046875,0.17285156,-0.115234375,-0.087890625,5.5495195,12.193643,-1.0320204,16.70203,-0.9609375,-0.16412354,-0.22027588,-0.037109375,0.0390625,0.018554688,14.253,5.9611225,-57.64896,19.104517,0.5112915,0.081970215,0.88220215,0.0126953125,-0.017578125,-0.03515625,33.51595,12.5323715,-129.137,13.388917,0.0,0.0,0.0,0.0,0.0,0.0,0.0,12.258852,-129.87445,33.374958,-0.9796753,-0.10064697,0.06762695,-0.43847656,0.52734375,0.4609375,0.0,1.9930583,44.941105,1.321845,
0.7226562392315828,37,-0.83251953,-0.28155518,0.47039795,-0.036132812,-0.0126953125,0.0029296875,0.0,0.0,0.0,0.0,0.0,0.0,0.0,0.0,0.0,0.0,0.0,-0.5886061,0.04950016,-0.8070245,-0.96173096,-9.765625E-4,-0.25616455,0.052734375,0.13769531,0.029296875,3.6419077,-12.185969,1.0248067,-16.707907,-0.987854,0.020263672,0.005554199,-0.0126953125,0.02734375,0.013671875,2.295587,-12.127869,-55.975403,-15.821453,0.5171509,0.11364746,0.8530884,0.013671875,0.036132812,-0.0146484375,51.655663,-10.1009865,-127.95871,-15.064627,0.0,0.0,0.0,0.0,0.0,0.0,0.0,-10.1047325,-127.626526,4.935095,0.0,0.0,0.0,0.0,0.0,0.0,0.0,0.5886061,-0.04950016,0.8070245,-1.0065918,0.06378174,-0.04949951,0.20703125,-0.091796875,-0.10449219,5.5547085,12.185969,-1.0248067,16.707907,-0.9610596,-0.17596436,-0.20361328,-0.017578125,9.765625E-4,0.017578125,14.250338,5.9705334,-57.640648,19.172596,0.49749756,0.117614746,0.8880615,-0.0048828125,0.0,-0.03515625,33.61683,12.548487,-129.13177,13.517373,0.0,0.0,0.0,0.0,0.0,0.0,0.0,12.287061,-129.85985,33.504128,-0.9564209,-0.07550049,0.040649414,-0.51464844,0.46972656,0.4814453,0.0,2.0007682,44.941193,1.2972741,
0.7421874889405445,38,-0.83740234,-0.27374268,0.4407959,0.01953125,0.024414062,0.001953125,0.0,0.0,0.0,0.0,0.0,0.0,0.0,0.0,0.0,0.0,0.0,-0.5894873,0.04928665,-0.80644035,-0.9135132,0.0028686523,-0.23712158,-0.041015625,0.0107421875,0.0107421875,3.6187696,-12.204216,1.0203863,-16.695816,-0.9899292,0.053649902,0.024597168,-0.0126953125,0.045898438,0.013671875,2.3040974,-12.163785,-55.982544,-15.810904,0.5461426,0.109313965,0.84020996,0.033203125,-0.0029296875,-0.0146484375,51.48303,-10.17112,-127.96432,-15.115801,0.0,0.0,0.0,0.0,0.0,0.0,0.0,-10.190498,-127.64018,4.8839283,0.0,0.0,0.0,0.0,0.0,0.0,0.0,0.5894873,-0.04928665,0.80644035,-0.98950195,0.06878662,-0.07330322,0.125,-0.068359375,-0.1171875,5.5347743,12.204216,-1.0203863,16.695816,-0.9610596,-0.17407227,-0.19958496,-0.017578125,0.020507812,-9.765625E-4,14.224815,5.998541,-57.635403,19.177677,0.49310303,0.08300781,0.8703003,-0.0048828125,0.018554688,-0.016601562,33.720158,12.569805,-129.12993,13.573652,0.0,0.0,0.0,0.0,0.0,0.0,0.0,12.339314,-129.8582,33.561058,-0.954834,-0.098083496,0.046569824,-0.4951172,0.52734375,0.48046875,0.0,2.0099158,44.943027,1.2775543,
0.7617187386495062,39,-0.8274536,-0.28552246,0.46826172,0.01953125,0.024414062,0.020507812,0.0,0.0,0.0,0.0,0.0,0.0,0.0,0.0,0.0,0.0,0.0,-0.5897178,0.049676057,-0.8062031,-0.9454956,0.010498047,-0.25531006,-0.041015625,0.06542969,0.047851562,3.6629758,-12.208986,1.0284483,-16.690905,-0.99975586,0.024780273,-0.007385254,0.0068359375,0.044921875,0.051757812,2.3189154,-12.173003,-55.97177,-15.784148,0.55023193,0.113220215,0.833374,0.013671875,-0.0029296875,-0.0146484375,51.53114,-10.178064,-127.955505,-15.091865,0.0,0.0,0.0,0.0,0.0,0.0,0.0,-10.197369,-127.624115,4.908416,0.0,0.0,0.0,0.0,0.0,0.0,0.0,0.5897178,-0.049676057,0.8062031,-0.98846436,0.072631836,-0.05444336,0.055664062,-0.09667969,-0.10449219,5.452442,12.208986,-1.0284483,16.690905,-0.96209717,-0.18762207,-0.2088623,-0.037109375,0.07714844,0.0,14.169424,6.0551243,-57.64872,19.181044,0.5130615,0.097351074,0.861145,-0.0048828125,-0.018554688,0.0029296875,33.709244,12.618868,-129.14221,13.602018,0.0,0.0,0.0,0.0,0.0,0.0,0.0,12.385136,-129.86455,33.58984,-0.96520996,-0.12042236,0.054626465,-0.4765625,0.52734375,0.48046875,0.0,2.058041,44.939617,1.2636513,
0.7812499883584679,40,-0.8362427,-0.28564453,0.43273926,0.020507812,-0.049804688,0.001953125,0.0,0.0,0.0,0.0,0.0,0.0,0.0,0.0,0.0,0.0,0.0,-0.5896504,0.04918151,-0.8063389,-0.9448242,-0.012145996,-0.26342773,-0.041015625,0.046875,0.0107421875,3.663136,-12.207591,1.0182098,-16.693714,-0.98669434,0.027954102,0.016479492,-0.013671875,0.0087890625,0.013671875,2.3382475,-12.162525,-55.98209,-15.755587,0.5293579,0.13226318,0.8227539,-0.005859375,0.016601562,-0.0146484375,51.469227,-10.1490965,-127.960495,-15.068273,0.0,0.0,0.0,0.0,0.0,0.0,0.0,-10.216514,-127.62299,4.9314394,0.0,0.0,0.0,0.0,0.0,0.0,0.0,0.5896504,-0.04918151,0.8063389,-0.99554443,0.06964111,-0.043518066,0.11816406,-0.13867188,-0.09082031,5.5495906,12.207591,-1.0182098,16.693714,-0.9569702,-0.17327881,-0.19158936,-0.037109375,0.01953125,-9.765625E-4,14.236277,6.0131044,-57.634136,19.28285,0.5093384,0.097961426,0.88012695,-0.0048828125,-0.018554688,-0.016601562,33.7136,12.56567,-129.1323,13.733778,0.0,0.0,0.0,0.0,0.0,0.0,0.0,12.336669,-129.85783,33.722103,-0.9732666,-0.11505127,0.025878906,-0.45898438,0.5449219,0.5546875,0.0,2.0440445,44.942776,1.2464759,
0.8007812380674296,41,-0.8232422,-0.29937744,0.45214844,0.01953125,0.005859375,0.001953125,0.0,0.0,0.0,0.0,0.0,0.0,0.0,0.0,0.0,0.0,0.0,-0.5889856,0.049168136,-0.8067554,-0.94677734,-0.0061035156,-0.2791748,-0.041015625,0.047851562,0.047851562,3.6859426,-12.193827,1.0179329,-16.70234,-0.98669434,0.027954102,0.016479492,-0.013671875,0.0087890625,0.013671875,2.3354836,-12.14006,-55.982082,-15.751181,0.54589844,0.095703125,0.82922363,0.013671875,-0.021484375,-0.015625,51.46619,-10.126632,-127.960495,-15.063867,0.0,0.0,0.0,0.0,0.0,0.0,0.0,-10.195003,-127.625,4.935548,0.0,0.0,0.0,0.0,0.0,0.0,0.0,0.5889856,-0.049168136,0.8067554,-1.0004883,0.057861328,-0.051635742,0.048828125,-0.109375,-0.13769531,5.580299,12.193827,-1.0179329,16.70234,-0.9783325,-0.18450928,-0.20678711,-0.017578125,0.01953125,0.037109375,14.272864,5.9791603,-57.624928,19.363792,0.49719238,0.08795166,0.8742676,-0.005859375,-0.037109375,-0.03515625,33.809547,12.52318,-129.1264,13.847613,0.0,0.0,0.0,0.0,0.0,0.0,0.0,12.314155,-129.85097,33.83583,-0.9779053,-0.105407715,0.047729492,-0.4033203,0.50683594,0.5361328,0.0,2.0690258,44.939583,1.2283394,
0.8203124877763913,42,-0.847229,-0.28759766,0.42895508,0.020507812,-0.049804688,0.001953125,0.0,0.0,0.0,0.0,0.0,0.0,0.0,0.0,0.0,0.0,0.0,-0.5895122,0.04962582,-0.8063835,-0.92041016,0.010925293,-0.24291992,-0.00390625,0.046875,0.029296875,3.7142017,-12.204731,1.0274084,-16.694637,-0.9906616,0.06109619,-0.005126953,-0.0126953125,0.02734375,0.033203125,2.3594131,-12.132814,-55.973835,-15.75851,0.5109253,0.10900879,0.83428955,0.013671875,-0.021484375,-0.015625,51.613747,-10.074436,-127.95763,-15.113822,0.0,0.0,0.0,0.0,0.0,0.0,0.0,-10.141297,-127.621765,4.886285,0.0,0.0,0.0,0.0,0.0,0.0,0.0,0.5895122,-0.04962582,0.8063835,-0.99346924,0.051940918,-0.06072998,0.14257812,-0.08496094,-0.095703125,5.542912,12.204731,-1.0274084,16.694637,-0.95892334,-0.17095947,-0.2164917,-0.037109375,0.057617188,0.0,14.210187,6.052183,-57.6379,19.353989,0.51934814,0.092163086,0.8781128,-0.0048828125,-0.018554688,0.0029296875,33.832207,12.601944,-129.1412,13.867659,0.0,0.0,0.0,0.0,0.0,0.0,0.0,12.395484,-129.868,33.85589,-0.95306396,-0.11193848,0.059509277,-0.5341797,0.50683594,0.5371094,0.0,2.0818624,44.940052,1.2437057,
0.839843737485353,43,-0.828125,-0.2935791,0.41955566,-0.036132812,0.024414062,0.0029296875,0.0,0.0,0.0,0.0,0.0,0.0,0.0,0.0,0.0,0.0,0.0,-0.5900532,0.0500591,-0.8059823,-0.9283447,0.015991211,-0.23876953,-0.041015625,0.0107421875,0.047851562,3.7168894,-12.21593,1.0363785,-16.68633,-1.0040283,0.014953613,-0.0014648438,-0.0126953125,0.02734375,-0.0048828125,2.3911376,-12.165375,-55.96591,-15.76237,0.54522705,0.11218262,0.8510742,0.013671875,-0.0029296875,-0.033203125,51.67831,-10.077727,-127.94242,-15.10491,0.0,0.0,0.0,0.0,0.0,0.0,0.0,-10.162933,-127.604485,4.8933086,0.0,0.0,0.0,0.0,0.0,0.0,0.0,0.5900532,-0.0500591,0.8059823,-0.99853516,0.060791016,-0.047607422,0.20898438,-0.07421875,-0.10644531,5.451831,12.21593,-1.0363785,16.68633,-0.96813965,-0.17102051,-0.20452881,-0.017578125,0.01953125,0.018554688,14.097242,6.178293,-57.66381,19.33728,0.49725342,0.09490967,0.8762207,0.03125,-0.017578125,-0.03515625,33.86329,12.742631,-129.16818,13.896014,0.0,0.0,0.0,0.0,0.0,0.0,0.0,12.528862,-129.8942,33.88376,-0.9489746,-0.109069824,0.05847168,-0.47753906,0.46875,0.5185547,0.0,2.103825,44.939606,1.2509799,
0.8593749871943147,44,-0.83135986,-0.27770996,0.4406128,0.01953125,0.024414062,0.020507812,0.0,0.0,0.0,0.0,0.0,0.0,0.0,0.0,0.0,0.0,0.0,-0.5910398,0.050245635,-0.8052244,-0.94555664,0.0043945312,-0.22576904,-0.00390625,0.046875,0.029296875,3.7229958,-12.236357,1.0402403,-16.67064,-0.99194336,0.018981934,0.029296875,-0.0126953125,0.045898438,0.013671875,2.3943279,-12.199572,-55.962147,-15.740331,0.5342407,0.123413086,0.8157959,0.013671875,0.016601562,0.00390625,51.71331,-10.130579,-127.94116,-15.088482,0.0,0.0,0.0,0.0,0.0,0.0,0.0,-10.201406,-127.5974,4.910864,0.0,0.0,0.0,0.0,0.0,0.0,0.0,0.5910398,-0.050245635,0.8052244,-0.98950195,0.06866455,-0.05053711,0.024414062,-0.16210938,-0.1328125,5.541639,12.236357,-1.0402403,16.67064,-0.94976807,-0.1605835,-0.19732666,-0.037109375,0.0390625,0.018554688,14.173191,6.1375437,-57.65747,19.402275,0.5192261,0.10626221,0.8670654,0.013671875,0.0,0.0029296875,33.85398,12.696389,-129.16702,13.997868,0.0,0.0,0.0,0.0,0.0,0.0,0.0,12.471749,-129.89261,33.98577,-0.9649048,-0.110839844,0.07147217,-0.51464844,0.5263672,0.5175781,0.0,2.1178014,44.93815,1.2496405,
0.8789062369032764,45,-0.8453369,-0.2855835,0.44281006,0.020507812,-0.0126953125,0.001953125,0.0,0.0,0.0,0.0,0.0,0.0,0.0,0.0,0.0,0.0,0.0,-0.5910961,0.050703887,-0.8051444,-0.92962646,3.6621094E-4,-0.25769043,-0.07910156,0.047851562,0.047851562,3.7866697,-12.237521,1.0497277,-16.668985,-0.994812,0.02331543,0.014465332,-0.0126953125,0.02734375,-0.0234375,2.3650475,-12.17653,-55.94969,-15.726325,0.51556396,0.1451416,0.83081055,0.013671875,0.016601562,-0.0146484375,51.731884,-10.123821,-127.92897,-15.072933,0.0,0.0,0.0,0.0,0.0,0.0,0.0,-10.175609,-127.583405,4.9267845,0.0,0.0,0.0,0.0,0.0,0.0,0.0,0.5910961,-0.050703887,0.8051444,-0.99957275,0.06964111,-0.03656006,0.016601562,-0.115234375,-0.123046875,5.6088495,12.237521,-1.0497277,16.668985,-0.9743042,-0.18182373,-0.19177246,-0.056640625,0.038085938,0.038085938,14.265799,6.0690103,-57.652607,19.492624,0.5109863,0.117492676,0.85009766,0.032226562,9.765625E-4,0.0029296875,33.917007,12.629868,-129.1635,14.131676,0.0,0.0,0.0,0.0,0.0,0.0,0.0,12.404455,-129.88466,34.11915,-0.94610596,-0.1048584,0.02166748,-0.62597656,0.52734375,0.5,0.0,2.1670253,44.93574,1.2389038,
0.8984374866122381,46,-0.8414917,-0.26586914,0.44293213,0.020507812,-0.0126953125,0.001953125,0.0,0.0,0.0,0.0,0.0,0.0,0.0,0.0,0.0,0.0,0.0,-0.59101415,0.050554477,-0.80519634,-0.9415283,0.008300781,-0.22479248,-0.022460938,0.0107421875,0.047851562,3.7898226,-12.235824,1.0466343,-16.670061,-0.98223877,0.008178711,0.003479004,-0.013671875,0.0087890625,0.013671875,2.375699,-12.184956,-55.953117,-15.697314,0.51690674,0.10406494,0.8312988,0.033203125,-0.021484375,-0.015625,51.697853,-10.147577,-127.9324,-15.04413,0.0,0.0,0.0,0.0,0.0,0.0,0.0,-10.1860075,-127.59026,4.9558563,0.0,0.0,0.0,0.0,0.0,0.0,0.0,0.59101415,-0.050554477,0.80519634,-0.99346924,0.060668945,-0.03186035,0.09375,-0.17285156,-0.10546875,5.7871966,12.235824,-1.0466343,16.670061,-0.9630127,-0.16906738,-0.20947266,-0.017578125,0.0390625,0.037109375,14.40814,5.9672236,-57.63201,19.634403,0.49719238,0.077941895,0.8782959,-0.0048828125,0.0,-0.016601562,33.9451,12.516124,-129.14438,14.300147,0.0,0.0,0.0,0.0,0.0,0.0,0.0,12.3156185,-129.86945,34.287178,-0.9744873,-0.08502197,0.05670166,-0.5332031,0.5263672,0.5371094,0.0,2.1589692,44.935555,1.2366079,
0.9179687363211998,47,-0.8363037,-0.27191162,0.4130249,0.01953125,0.005859375,0.001953125,0.0,0.0,0.0,0.0,0.0,0.0,0.0,0.0,0.0,0.0,0.0,-0.5916537,0.051692985,-0.80470145,-0.930542,0.008300781,-0.2664795,0.034179688,0.046875,0.047851562,3.866195,-12.2490635,1.070205,-16.659813,-0.9797363,0.023986816,0.0015869141,-0.0126953125,0.045898438,0.013671875,2.40257,-12.203201,-55.931503,-15.689483,0.5183716,0.12426758,0.8689575,0.033203125,-0.001953125,0.00390625,51.85035,-10.134209,-127.91052,-15.037634,0.0,0.0,0.0,0.0,0.0,0.0,0.0,-10.157179,-127.565674,4.9609356,0.0,0.0,0.0,0.0,0.0,0.0,0.0,0.5916537,-0.051692985,0.80470145,-0.996521,0.0657959,-0.06732178,0.19238281,-0.095703125,-0.08886719,5.7687426,12.2490635,-1.070205,16.659813,-0.9559326,-0.1673584,-0.19848633,-0.037109375,-0.018554688,0.017578125,14.421982,5.9799294,-57.65201,19.689304,0.49395752,0.109191895,0.8562012,-0.0048828125,0.0,0.001953125,33.89701,12.503855,-129.17233,14.366126,0.0,0.0,0.0,0.0,0.0,0.0,0.0,12.299388,-129.89647,34.354286,-0.9555054,-0.08453369,0.06048584,-0.43945312,0.48828125,0.49902344,0.0,2.2473528,44.933,1.2340806,
0.9374999860301615,48,-0.85321045,-0.28863525,0.4171753,0.01953125,0.005859375,-0.03515625,0.0,0.0,0.0,0.0,0.0,0.0,0.0,0.0,0.0,0.0,0.0,-0.5924829,0.051771164,-0.80403024,-0.96173096,-0.0029907227,-0.2571411,-0.07910156,0.047851562,0.0107421875,3.878382,-12.2662325,1.0718236,-16.645918,-0.99853516,0.03338623,0.0115356445,-0.032226562,0.02734375,0.033203125,2.3826094,-12.208829,-55.928444,-15.671007,0.51849365,0.137146,0.852417,0.013671875,0.016601562,0.00390625,51.790867,-10.149044,-127.91235,-15.005532,0.0,0.0,0.0,0.0,0.0,0.0,0.0,-10.179039,-127.567726,4.993663,0.0,0.0,0.0,0.0,0.0,0.0,0.0,0.5924829,-0.051771164,0.80403024,-0.98950195,0.07366943,-0.06329346,0.11035156,-0.091796875,-0.08203125,5.7729545,12.2662325,-1.0718236,16.645918,-0.960022,-0.17602539,-0.199646,-0.037109375,0.0390625,0.018554688,14.39217,6.0039024,-57.655643,19.669868,0.49023438,0.103759766,0.87823486,0.032226562,0.01953125,-0.016601562,33.921955,12.516628,-129.18057,14.376646,0.0,0.0,0.0,0.0,0.0,0.0,0.0,12.324116,-129.90794,34.364914,-0.97302246,-0.107299805,0.033813477,-0.53222656,0.52734375,0.49902344,0.0,2.240775,44.93109,1.2418861,
0.9570312357391232,49,-0.8694458,-0.2756958,0.4414673,0.01953125,0.024414062,0.001953125,0.0,0.0,0.0,0.0,0.0,0.0,0.0,0.0,0.0,0.0,0.0,-0.59332305,0.052296907,-0.80344206,-0.9286499,-0.0026855469,-0.24188232,0.015625,0.0107421875,0.029296875,3.9031441,-12.283627,1.0827082,-16.633741,-0.9824219,0.03918457,0.04534912,-0.0126953125,0.0087890625,-0.0048828125,2.3794036,-12.243254,-55.91701,-15.649251,0.5310669,0.10760498,0.8441162,0.033203125,-0.001953125,0.00390625,51.724213,-10.224081,-127.89519,-15.002818,0.0,0.0,0.0,0.0,0.0,0.0,0.0,-10.242922,-127.55822,4.9974566,0.0,0.0,0.0,0.0,0.0,0.0,0.0,0.59332305,-0.052296907,0.80344206,-0.9894409,0.057922363,-0.070495605,-9.765625E-4,-0.13671875,-0.10546875,5.732957,12.283627,-1.0827082,16.633741,-0.9651489,-0.18572998,-0.1998291,-0.055664062,0.057617188,-0.01953125,14.3486185,6.063155,-57.66911,19.647041,0.49700928,0.06518555,0.8673706,-0.005859375,-0.037109375,-0.016601562,33.946682,12.5821085,-129.19145,14.370412,0.0,0.0,0.0,0.0,0.0,0.0,0.0,12.395016,-129.92572,34.358734,-0.9567871,-0.09509277,0.04559326,-0.5332031,0.46875,0.5,0.0,2.2639787,44.932003,1.2527773,
0.9765624854480849,50,-0.85406494,-0.31713867,0.43475342,0.01953125,0.005859375,0.001953125,0.0,0.0,0.0,0.0,0.0,0.0,0.0,0.0,0.0,0.0,0.0,-0.5945474,0.05250837,-0.8025792,-0.93133545,0.019042969,-0.25152588,-0.022460938,-0.025390625,0.047851562,3.9324346,-12.308973,1.087086,-16.61588,-0.9968872,0.018798828,-0.011352539,0.025390625,0.0078125,0.0146484375,2.388599,-12.258164,-55.910496,-15.621347,0.5553589,0.117004395,0.8373413,0.013671875,-0.021484375,-0.015625,51.659634,-10.230204,-127.89232,-14.998688,0.0,0.0,0.0,0.0,0.0,0.0,0.0,-10.273466,-127.55681,5.0001755,0.0,0.0,0.0,0.0,0.0,0.0,0.0,0.5945474,-0.05250837,0.8025792,-0.99346924,0.05279541,-0.034973145,0.043945312,-0.14257812,-0.1328125,5.820765,12.308973,-1.087086,16.61588,-0.94885254,-0.1694336,-0.19256592,-0.056640625,0.038085938,0.018554688,14.426574,6.053128,-57.662693,19.734732,0.5092163,0.103149414,0.8691406,0.013671875,-0.018554688,0.0029296875,34.018097,12.595296,-129.18536,14.518372,0.0,0.0,0.0,0.0,0.0,0.0,0.0,12.40249,-129.91711,34.50544,-0.9645386,-0.088256836,0.060546875,-0.4404297,0.5644531,0.55371094,0.0,2.283648,44.933186,1.2480156,
0.9960937351570466,51,-0.8493042,-0.2826538,0.434021,-0.037109375,0.061523438,0.022460938,0.0,0.0,0.0,0.0,0.0,0.0,0.0,0.0,0.0,0.0,0.0,-0.5945283,0.053007893,-0.8025361,-0.9324951,0.009277344,-0.25750732,-0.041015625,0.029296875,0.047851562,3.9816747,-12.3085785,1.0974277,-16.614985,-0.9831543,0.045776367,0.0076904297,0.005859375,0.0078125,0.051757812,2.3921196,-12.255865,-55.902992,-15.602363,0.5281372,0.11566162,0.82354736,0.033203125,-0.021484375,-0.015625,51.57979,-10.226938,-127.886536,-14.96962,0.0,0.0,0.0,0.0,0.0,0.0,0.0,-10.308109,-127.54926,5.029911,0.0,0.0,0.0,0.0,0.0,0.0,0.0,0.5945283,-0.053007893,0.8025361,-1.0005493,0.06665039,-0.03466797,0.08203125,-0.16015625,-0.091796875,5.9243364,12.3085785,-1.0974277,16.614985,-0.947876,-0.18005371,-0.20275879,-0.037109375,0.057617188,0.018554688,14.543202,5.981213,-57.663445,19.841326,0.4991455,0.07299805,0.8763428,0.013671875,0.0,0.0029296875,34.08311,12.542227,-129.19086,14.659701,0.0,0.0,0.0,0.0,0.0,0.0,0.0,12.359693,-129.92686,34.646767,-0.9526367,-0.09033203,0.049560547,-0.45898438,0.5449219,0.5361328,0.0,2.3203773,44.930397,1.2487112,
1.0156249848660084,52,-0.86138916,-0.27575684,0.42938232,0.01953125,0.024414062,0.001953125,0.0,0.0,0.0,0.0,0.0,0.0,0.0,0.0,0.0,0.0,0.0,-0.59539914,0.053332757,-0.80184907,-0.92541504,0.010925293,-0.22302246,-0.041015625,0.01171875,0.06640625,4.0257936,-12.326607,1.1041535,-16.600761,-0.9827881,0.056762695,7.9345703E-4,-0.051757812,0.009765625,0.051757812,2.429144,-12.276837,-55.89381,-15.54477,0.5229492,0.10284424,0.84503174,0.013671875,-0.001953125,0.00390625,51.525436,-10.239161,-127.87404,-14.936356,0.0,0.0,0.0,0.0,0.0,0.0,0.0,-10.338416,-127.53656,5.0630894,0.0,0.0,0.0,0.0,0.0,0.0,0.0,0.59539914,-0.053332757,0.80184907,-0.99853516,0.06866455,-0.03857422,0.09863281,-0.15722656,-0.09082031,6.024703,12.326607,-1.1041535,16.600761,-0.9782715,-0.17474365,-0.21154785,-0.037109375,0.057617188,0.056640625,14.611956,5.972801,-57.660164,19.928144,0.5092163,0.10211182,0.87213135,0.0126953125,-0.037109375,-0.016601562,34.107327,12.536287,-129.18762,14.7724,0.0,0.0,0.0,0.0,0.0,0.0,0.0,12.349703,-129.92198,34.75972,-0.96759033,-0.0859375,0.036743164,-0.5332031,0.5263672,0.5371094,0.0,2.331027,44.92889,1.2574567,
1.03515623457497,53,-0.8479004,-0.31530762,0.4048462,0.01953125,0.005859375,0.001953125,0.0,0.0,0.0,0.0,0.0,0.0,0.0,0.0,0.0,0.0,0.0,-0.59620404,0.05406633,-0.8011739,-0.96539307,0.025817871,-0.28448486,-0.022460938,0.047851562,0.06640625,4.088734,-12.343272,1.1193407,-16.586784,-0.98583984,0.022827148,0.023376465,-0.013671875,0.0087890625,0.013671875,2.4053385,-12.266464,-55.876686,-15.548664,0.5432129,0.11431885,0.8363037,0.013671875,-0.0029296875,-0.0146484375,51.610107,-10.218543,-127.860695,-14.943253,0.0,0.0,0.0,0.0,0.0,0.0,0.0,-10.314486,-127.527596,5.0557003,0.0,0.0,0.0,0.0,0.0,0.0,0.0,0.59620404,-0.05406633,0.8011739,-0.9873657,0.050964355,-0.06274414,0.22851562,-0.07421875,-0.087890625,5.9985185,12.343272,-1.1193407,16.586784,-0.9528198,-0.1642456,-0.21533203,-0.037109375,0.076171875,0.018554688,14.622416,6.024812,-57.675518,19.966362,0.51916504,0.103393555,0.86309814,0.013671875,0.0,0.0029296875,34.22051,12.617117,-129.20467,14.827667,0.0,0.0,0.0,0.0,0.0,0.0,0.0,12.430226,-129.93849,34.816357,-0.96795654,-0.111694336,0.0715332,-0.5888672,0.5654297,0.5361328,0.0,2.3919437,44.92486,1.2517074,
1.0546874842839318,54,-0.8623047,-0.30718994,0.46081543,0.01953125,0.005859375,0.001953125,0.0,0.0,0.0,0.0,0.0,0.0,0.0,0.0,0.0,0.0,0.0,-0.59586066,0.053645,-0.80145144,-0.93444824,0.014221191,-0.25054932,-0.00390625,0.0107421875,0.06640625,4.060618,-12.336163,1.1106176,-16.592527,-0.9614258,0.034240723,0.0037231445,0.005859375,0.0078125,0.0146484375,2.4057453,-12.271573,-55.88796,-15.548328,0.5352173,0.12243652,0.817749,0.013671875,-0.001953125,0.00390625,51.49837,-10.240955,-127.8656,-14.940149,0.0,0.0,0.0,0.0,0.0,0.0,0.0,-10.373396,-127.52318,5.059723,0.0,0.0,0.0,0.0,0.0,0.0,0.0,0.59586066,-0.053645,0.80145144,-0.9894409,0.058898926,-0.07147217,0.21289062,-0.040039062,-0.111328125,5.8607,12.336163,-1.1106176,16.592527,-0.94470215,-0.16339111,-0.21533203,-0.037109375,0.038085938,0.037109375,14.522258,6.1373987,-57.684982,19.898174,0.5169678,0.07556152,0.8562622,0.013671875,-0.018554688,0.0029296875,34.25094,12.780949,-129.20456,14.7417755,0.0,0.0,0.0,0.0,0.0,0.0,0.0,12.5906,-129.94437,34.729424,-0.97387695,-0.10455322,0.05267334,-0.5888672,0.52734375,0.5,0.0,2.3813353,44.92561,1.2366194,
1.0742187339928935,55,-0.852478,-0.2609253,0.43530273,-0.037109375,0.061523438,0.0029296875,0.0,0.0,0.0,0.0,0.0,0.0,0.0,0.0,0.0,0.0,0.0,-0.5946221,0.05337193,-0.80241996,-0.9354248,0.018310547,-0.27520752,-0.00390625,-0.0078125,0.047851562,4.02263,-12.310519,1.1049643,-16.612581,-0.97473145,0.026489258,0.018493652,0.005859375,-0.029296875,-0.0048828125,2.3691816,-12.231396,-55.895344,-15.615818,0.52923584,0.121398926,0.8364258,0.013671875,-0.021484375,0.0029296875,51.421986,-10.202588,-127.87421,-15.005443,0.0,0.0,0.0,0.0,0.0,0.0,0.0,-10.340571,-127.53149,4.9924116,0.0,0.0,0.0,0.0,0.0,0.0,0.0,0.5946221,-0.05337193,0.80241996,-0.99554443,0.06768799,-0.051513672,0.08300781,-0.10449219,-0.13378906,5.8660154,12.310519,-1.1049643,16.612581,-0.9630127,-0.1729126,-0.21551514,-0.037109375,0.095703125,0.01953125,14.540565,6.118096,-57.680725,19.908125,0.50897217,0.07739258,0.8612671,-0.0048828125,0.0,-0.016601562,34.253197,12.794231,-129.19785,14.734373,0.0,0.0,0.0,0.0,0.0,0.0,0.0,12.603195,-129.94077,34.721317,-0.95880127,-0.098083496,0.05255127,-0.5332031,0.5263672,0.5371094,0.0,2.360431,44.927765,1.2391479,
1.0937499837018552,56,-0.8430176,-0.31524658,0.42462158,0.020507812,-0.0126953125,0.001953125,0.0,0.0,0.0,0.0,0.0,0.0,0.0,0.0,0.0,0.0,0.0,-0.5938017,0.053565316,-0.80299896,-0.95025635,0.032226562,-0.24914551,-0.022460938,0.06542969,0.047851562,3.9920876,-12.293535,1.108968,-16.624569,-0.98114014,0.046569824,0.016601562,0.005859375,0.0078125,0.033203125,2.3682728,-12.224517,-55.89275,-15.67552,0.5283203,0.12731934,0.83258057,0.051757812,0.016601562,0.00390625,51.4981,-10.180354,-127.87164,-15.064938,0.0,0.0,0.0,0.0,0.0,0.0,0.0,-10.316828,-127.52856,4.9336147,0.0,0.0,0.0,0.0,0.0,0.0,0.0,0.5938017,-0.053565316,0.80299896,-0.9945679,0.083496094,-0.050231934,0.0859375,-0.12597656,-0.09667969,5.928669,12.293535,-1.108968,16.624569,-0.97106934,-0.16119385,-0.20928955,-0.037109375,0.01953125,0.056640625,14.600959,6.0608053,-57.677036,19.941917,0.51104736,0.09637451,0.8581543,0.013671875,9.765625E-4,-0.016601562,34.303497,12.761253,-129.18773,14.774804,0.0,0.0,0.0,0.0,0.0,0.0,0.0,12.565062,-129.93274,34.763172,-0.97094727,-0.11260986,0.06756592,-0.5341797,0.5263672,0.55566406,0.0,2.3547387,44.927044,1.2556472,
1.1132812334108169,57,-0.8383179,-0.2855835,0.43670654,0.01953125,0.024414062,0.020507812,0.0,0.0,0.0,0.0,0.0,0.0,0.0,0.0,0.0,0.0,0.0,-0.594109,0.0547474,-0.802672,-0.9302368,0.026855469,-0.24261475,-0.07910156,0.047851562,0.06640625,4.041765,-12.299897,1.1334409,-16.6178,-0.99176025,0.0234375,-0.002380371,0.0068359375,0.026367188,0.033203125,2.4178371,-12.278011,-55.86621,-15.65389,0.5205078,0.1361084,0.85235596,0.013671875,0.016601562,0.00390625,51.441452,-10.239435,-127.85044,-15.057206,0.0,0.0,0.0,0.0,0.0,0.0,0.0,-10.382379,-127.50923,4.9423475,0.0,0.0,0.0,0.0,0.0,0.0,0.0,0.594109,-0.0547474,0.802672,-0.989563,0.08935547,-0.0491333,0.08105469,-0.12207031,-0.13183594,5.9360046,12.299897,-1.1334409,16.6178,-0.9537964,-0.15655518,-0.20916748,-0.037109375,0.038085938,0.056640625,14.653944,6.024131,-57.698185,19.941105,0.5071411,0.09716797,0.8671875,-0.0048828125,0.0,0.001953125,34.336292,12.741621,-129.2127,14.767609,0.0,0.0,0.0,0.0,0.0,0.0,0.0,12.5317,-129.95946,34.75494,-0.94207764,-0.11315918,0.06036377,-0.79589844,0.7558594,0.74121094,0.0,2.4158754,44.922512,1.2758603,
1.1328124831197786,58,-0.84143066,-0.2894287,0.4664917,0.020507812,-0.03125,0.020507812,0.0,0.0,0.0,0.0,0.0,0.0,0.0,0.0,0.0,0.0,0.0,-0.59422207,0.054612022,-0.8025991,-0.95080566,-0.012145996,-0.23864746,-0.07910156,0.01171875,0.06640625,4.031335,-12.302238,1.1306381,-16.61629,-0.9987793,0.059020996,0.01763916,-0.0126953125,0.02734375,0.013671875,2.469975,-12.3205185,-55.86769,-15.612847,0.51123047,0.12365723,0.8394165,0.033203125,-0.021484375,-0.015625,51.392754,-10.292762,-127.84714,-15.034353,0.0,0.0,0.0,0.0,0.0,0.0,0.0,-10.434658,-127.51646,4.9654293,0.0,0.0,0.0,0.0,0.0,0.0,0.0,0.59422207,-0.054612022,0.8025991,-0.9924927,0.07067871,-0.056396484,0.052734375,-0.09375,-0.12207031,5.93214,12.302238,-1.1306381,16.61629,-0.9467163,-0.16436768,-0.21038818,-0.056640625,0.038085938,0.056640625,14.655144,6.014394,-57.69475,19.942936,0.522522,0.09692383,0.89001465,-0.0048828125,0.0,-0.016601562,34.349762,12.717509,-129.21092,14.772431,0.0,0.0,0.0,0.0,0.0,0.0,0.0,12.50482,-129.96054,34.759434,-0.94207764,-0.11315918,0.06036377,-0.79589844,0.7558594,0.74121094,0.0,2.419209,44.922672,1.265602,
1.1523437328287403,59,-0.84924316,-0.29937744,0.44476318,0.01953125,-0.0126953125,-0.03515625,0.0,0.0,0.0,0.0,0.0,0.0,0.0,0.0,0.0,0.0,0.0,-0.5940133,0.054220226,-0.80275816,-0.92852783,0.0072021484,-0.25665283,-0.041015625,-0.0068359375,0.047851562,4.025696,-12.297917,1.1225268,-16.619583,-0.97979736,0.054992676,-0.019042969,0.0068359375,0.026367188,0.033203125,2.5127923,-12.309247,-55.877464,-15.604261,0.54956055,0.12774658,0.85717773,0.032226562,0.0546875,-0.0146484375,51.507206,-10.252359,-127.85439,-15.090311,0.0,0.0,0.0,0.0,0.0,0.0,0.0,-10.385816,-127.51589,4.9091663,0.0,0.0,0.0,0.0,0.0,0.0,0.0,0.5940133,-0.054220226,0.80275816,-1.0005493,0.066833496,-0.06335449,0.055664062,-0.07714844,-0.12402344,5.885098,12.297917,-1.1225268,16.619583,-0.96398926,-0.16235352,-0.20233154,-0.037109375,0.01953125,0.037109375,14.613268,6.0480514,-57.691547,19.938107,0.50598145,0.06237793,0.8623657,0.013671875,0.01953125,-0.016601562,34.36716,12.746736,-129.20712,14.773595,0.0,0.0,0.0,0.0,0.0,0.0,0.0,12.545603,-129.96552,34.76002,-0.9710083,-0.11956787,0.08050537,-0.6826172,0.6220703,0.6113281,0.0,2.4166281,44.922573,1.245958,
1.171874982537702,60,-0.8644409,-0.2786255,0.4453125,-0.017578125,0.024414062,0.0029296875,0.0,0.0,0.0,0.0,0.0,0.0,0.0,0.0,0.0,0.0,0.0,-0.59570074,0.05499201,-0.80145067,-0.93640137,0.017211914,-0.25738525,-0.041015625,0.0107421875,0.047851562,4.0937123,-12.332851,1.1385051,-16.592512,-0.9785156,-2.4414062E-4,0.030212402,-0.032226562,0.0087890625,0.013671875,2.4867182,-12.320686,-55.860325,-15.56287,0.51330566,0.13348389,0.8257446,-0.005859375,0.016601562,-0.0146484375,51.40709,-10.283413,-127.8407,-15.054097,0.0,0.0,0.0,0.0,0.0,0.0,0.0,-10.415916,-127.50018,4.9456835,0.0,0.0,0.0,0.0,0.0,0.0,0.0,0.59570074,-0.05499201,0.80145067,-0.9995117,0.062683105,-0.035705566,0.045898438,-0.12597656,-0.13476562,5.9429026,12.332851,-1.1385051,16.592512,-0.95996094,-0.16986084,-0.22943115,-0.037109375,0.01953125,0.037109375,14.6303425,6.0976887,-57.70662,19.975658,0.49597168,0.059143066,0.8694458,-0.0048828125,0.0,-0.016601562,34.381332,12.800644,-129.22101,14.832428,0.0,0.0,0.0,0.0,0.0,0.0,0.0,12.596347,-129.98102,34.819008,-0.9602051,-0.11651611,0.045654297,-0.6269531,0.5449219,0.57421875,0.0,2.43799,44.920616,1.27015,
1.1914062322466636,61,-0.8441162,-0.30926514,0.43164062,-0.0546875,0.005859375,0.0029296875,0.0,0.0,0.0,0.0,0.0,0.0,0.0,0.0,0.0,0.0,0.0,-0.59565175,0.055538815,-0.80146444,-0.9375,0.0072631836,-0.2387085,-0.022460938,0.029296875,0.047851562,4.111041,-12.331838,1.1498257,-16.5928,-0.9783325,0.04034424,0.028503418,-0.0126953125,0.0087890625,-0.0048828125,2.5088944,-12.332277,-55.85059,-15.570885,0.54437256,0.11907959,0.8501587,0.033203125,-0.0029296875,-0.0146484375,51.52036,-10.282909,-127.83145,-15.079149,0.0,0.0,0.0,0.0,0.0,0.0,0.0,-10.401199,-127.490456,4.9203644,0.0,0.0,0.0,0.0,0.0,0.0,0.0,0.59565175,-0.055538815,0.80146444,-0.98638916,0.05871582,-0.043823242,0.046875,-0.14550781,-0.115234375,6.066306,12.331838,-1.1498257,16.5928,-0.9538574,-0.16827393,-0.20245361,-0.017578125,0.01953125,0.037109375,14.745474,6.041335,-57.70035,20.07812,0.5111084,0.05822754,0.87335205,0.013671875,0.0,0.0029296875,34.508553,12.76985,-129.2115,14.950185,0.0,0.0,0.0,0.0,0.0,0.0,0.0,12.591321,-129.98055,34.93761,-0.956604,-0.09033203,0.058532715,-0.5341797,0.5644531,0.5732422,0.0,2.4565551,44.919666,1.287061,
1.2109374819556253,62,-0.8242798,-0.29052734,0.45025635,-0.017578125,0.024414062,0.040039062,0.0,0.0,0.0,0.0,0.0,0.0,0.0,0.0,0.0,0.0,0.0,-0.59502554,0.055164784,-0.8019298,-0.92041016,0.01184082,-0.22808838,-0.041015625,0.01171875,0.06640625,4.0670753,-12.318874,1.1420822,-16.602432,-0.9906006,0.031799316,0.032348633,-0.0126953125,0.02734375,-0.0048828125,2.4930856,-12.329101,-55.85803,-15.588047,0.5220947,0.11779785,0.8117676,0.051757812,0.016601562,-0.033203125,51.47604,-10.309626,-127.83795,-15.097141,0.0,0.0,0.0,0.0,0.0,0.0,0.0,-10.427452,-127.48605,4.9028263,0.0,0.0,0.0,0.0,0.0,0.0,0.0,0.59502554,-0.055164784,0.8019298,-0.9915161,0.0715332,-0.03857422,0.21386719,-0.059570312,-0.091796875,6.1858,12.318874,-1.1420822,16.602432,-0.967041,-0.16418457,-0.20935059,-0.017578125,9.765625E-4,0.037109375,14.81487,5.9755554,-57.68712,20.144043,0.48931885,0.099609375,0.88623047,0.032226562,9.765625E-4,0.0029296875,34.537033,12.70907,-129.20343,15.0363455,0.0,0.0,0.0,0.0,0.0,0.0,0.0,12.529368,-129.9736,35.022667,-0.9626465,-0.09411621,0.057556152,-0.5332031,0.5263672,0.5371094,0.0,2.4130049,44.92074,1.2996691,
1.230468731664587,63,-0.8540039,-0.30737305,0.40905762,0.020507812,-0.0126953125,0.001953125,0.0,0.0,0.0,0.0,0.0,0.0,0.0,0.0,0.0,0.0,0.0,-0.595344,0.05597639,-0.8017328,-0.9254761,0.006958008,-0.21911621,-0.07910156,0.0107421875,0.0107421875,4.0607624,-12.325465,1.1588849,-16.598352,-0.98620605,0.043762207,0.016601562,-0.013671875,0.0087890625,0.013671875,2.5187054,-12.380327,-55.83912,-15.608919,0.5359497,0.099731445,0.84106445,0.052734375,-0.021484375,-0.034179688,51.554394,-10.356612,-127.81827,-15.102531,0.0,0.0,0.0,0.0,0.0,0.0,0.0,-10.434065,-127.47108,4.897337,0.0,0.0,0.0,0.0,0.0,0.0,0.0,0.595344,-0.05597639,0.8017328,-0.9954834,0.0647583,-0.051513672,0.26757812,-0.036132812,-0.08886719,6.109392,12.325465,-1.1588849,16.598352,-0.9580078,-0.17889404,-0.2086792,-0.037109375,0.01953125,0.07519531,14.700336,6.0575695,-57.71474,20.073921,0.50305176,0.10925293,0.8581543,-0.0048828125,0.0,0.001953125,34.553272,12.768529,-129.23003,14.963576,0.0,0.0,0.0,0.0,0.0,0.0,0.0,12.603357,-129.99417,34.951126,-0.94763184,-0.087524414,0.047546387,-0.57128906,0.6220703,0.61035156,0.0,2.4317966,44.92227,1.3306572,
1.2499999813735487,64,-0.85723877,-0.29742432,0.43304443,0.01953125,0.005859375,0.001953125,0.0,0.0,0.0,0.0,0.0,0.0,0.0,0.0,0.0,0.0,0.0,-0.59628856,0.0563465,-0.8009332,-0.9365845,0.003479004,-0.2584839,-0.041015625,0.047851562,0.047851562,4.097251,-12.345022,1.1665473,-16.5818,-0.98028564,0.007873535,0.018371582,-0.032226562,0.02734375,0.013671875,2.4867182,-12.389006,-55.831593,-15.581727,0.5309448,0.10076904,0.8430786,0.033203125,-0.0029296875,-0.0146484375,51.442528,-10.406848,-127.81506,-15.081465,0.0,0.0,0.0,0.0,0.0,0.0,0.0,-10.480985,-127.46692,4.918371,0.0,0.0,0.0,0.0,0.0,0.0,0.0,0.59628856,-0.0563465,0.8009332,-0.99560547,0.08251953,-0.05517578,0.10546875,-0.10644531,-0.09765625,6.1108356,12.345022,-1.1665473,16.5818,-0.960022,-0.17224121,-0.19458008,-0.037109375,0.01953125,0.037109375,14.6806755,6.0833406,-57.727142,20.065907,0.49700928,0.06817627,0.86639404,0.013671875,-0.018554688,0.0029296875,34.570786,12.776071,-129.24321,14.969868,0.0,0.0,0.0,0.0,0.0,0.0,0.0,12.627104,-130.00714,34.95757,-0.9730835,-0.113342285,0.05267334,-0.57128906,0.5644531,0.57421875,0.0,2.4471326,44.91864,1.3382027,
1.2695312310825104,65,-0.8502197,-0.29937744,0.44476318,0.01953125,0.005859375,0.001953125,0.0,0.0,0.0,0.0,0.0,0.0,0.0,0.0,0.0,0.0,0.0,-0.59763813,0.0564851,-0.7998904,-0.94836426,0.0234375,-0.2670288,-0.00390625,0.046875,0.047851562,4.117372,-12.372962,1.1694165,-16.560211,-0.98895264,0.052856445,0.011657715,-0.013671875,0.0087890625,0.033203125,2.4767807,-12.398411,-55.83168,-15.570034,0.52819824,0.122558594,0.81677246,0.033203125,-0.021484375,-0.034179688,51.515118,-10.407439,-127.81375,-15.082295,0.0,0.0,0.0,0.0,0.0,0.0,0.0,-10.477962,-127.459114,4.9165564,0.0,0.0,0.0,0.0,0.0,0.0,0.0,0.59763813,-0.0564851,0.7998904,-0.99957275,0.070617676,-0.04345703,0.018554688,-0.09863281,-0.12597656,6.1017823,12.372962,-1.1694165,16.560211,-0.9710083,-0.15148926,-0.21002197,-0.037109375,0.038085938,0.037109375,14.69541,6.1185303,-57.72506,20.072678,0.5128784,0.07556152,0.8522949,-0.0048828125,0.0,-0.016601562,34.574425,12.819501,-129.2468,14.97791,0.0,0.0,0.0,0.0,0.0,0.0,0.0,12.663823,-130.01758,34.963856,-0.9511719,-0.114746094,0.046569824,-0.5527344,0.60253906,0.61035156,0.0,2.4714289,44.91674,1.3253145,
1.2890624807914721,66,-0.8258667,-0.3330078,0.42803955,9.765625E-4,0.005859375,0.001953125,0.0,0.0,0.0,0.0,0.0,0.0,0.0,0.0,0.0,0.0,0.0,-0.5979633,0.057168335,-0.7996048,-0.94555664,0.0075683594,-0.2553711,-0.00390625,0.046875,0.047851562,4.143733,-12.379694,1.1835618,-16.554298,-0.99176025,0.025939941,0.027404785,0.0068359375,0.026367188,0.033203125,2.477887,-12.424753,-55.815277,-15.561924,0.52612305,0.111572266,0.84716797,0.013671875,-0.021484375,-0.034179688,51.61661,-10.44107,-127.798744,-15.040926,0.0,0.0,0.0,0.0,0.0,0.0,0.0,-10.479193,-127.44574,4.9585648,0.0,0.0,0.0,0.0,0.0,0.0,0.0,0.5979633,-0.057168335,0.7996048,-0.9915161,0.0715332,-0.029663086,0.13085938,-0.15136719,-0.10449219,6.192642,12.379694,-1.1835618,16.554298,-0.954895,-0.16729736,-0.20544434,-0.037109375,0.0390625,0.018554688,14.760399,6.072877,-57.728687,20.134161,0.5272217,0.091430664,0.86608887,-0.0048828125,0.0,0.001953125,34.527786,12.749416,-129.25078,15.0414,0.0,0.0,0.0,0.0,0.0,0.0,0.0,12.584129,-130.02757,35.02834,-0.96069336,-0.09210205,0.047607422,-0.51464844,0.64160156,0.5908203,0.0,2.4959028,44.91502,1.3447378,
1.3085937305004338,67,-0.8551636,-0.3013916,0.42895508,0.01953125,0.005859375,0.001953125,0.0,0.0,0.0,0.0,0.0,0.0,0.0,0.0,0.0,0.0,0.0,-0.5980295,0.05725877,-0.7996579,-0.9602661,0.030395508,-0.23712158,-0.00390625,0.029296875,0.06640625,4.1311426,-12.3810625,1.1854339,-16.555397,-1.0004883,0.035095215,0.030395508,-0.013671875,0.0087890625,0.051757812,2.4892356,-12.460122,-55.813198,-15.552356,0.5352783,0.11932373,0.83935547,0.013671875,-0.0029296875,-0.033203125,51.55569,-10.502041,-127.795074,-15.016624,0.0,0.0,0.0,0.0,0.0,0.0,0.0,-10.532028,-127.44513,4.9830303,0.0,0.0,0.0,0.0,0.0,0.0,0.0,0.5980295,-0.05725877,0.7996579,-0.9945679,0.082458496,-0.044311523,0.13769531,-0.119140625,-0.091796875,6.2604346,12.3810625,-1.1854339,16.555397,-0.9630127,-0.17010498,-0.20349121,-0.037109375,0.057617188,0.018554688,14.82172,6.0170755,-57.72011,20.184225,0.50128174,0.09686279,0.880188,-0.0048828125,0.0,0.001953125,34.542732,12.686036,-129.24402,15.112086,0.0,0.0,0.0,0.0,0.0,0.0,0.0,12.535185,-130.01407,35.09937,-0.9723511,-0.080200195,0.056640625,-0.5332031,0.5839844,0.5732422,0.0,2.502727,44.918575,1.3446722,
1.3281249802093955,68,-0.8411865,-0.31414795,0.45629883,0.01953125,0.005859375,0.001953125,0.0,0.0,0.0,0.0,0.0,0.0,0.0,0.0,0.0,0.0,0.0,-0.5978711,0.057385385,-0.79970944,-0.930603,0.0012207031,-0.23687744,0.015625,0.046875,0.047851562,4.1350756,-12.377786,1.1880553,-16.556465,-0.9848633,0.053771973,0.006713867,-0.0126953125,0.02734375,0.033203125,2.5217342,-12.494731,-55.809544,-15.515595,0.53411865,0.11352539,0.83044434,0.013671875,-0.021484375,-0.015625,51.402588,-10.564691,-127.79018,-14.984062,0.0,0.0,0.0,0.0,0.0,0.0,0.0,-10.606693,-127.441795,5.0146084,0.0,0.0,0.0,0.0,0.0,0.0,0.0,0.5978711,-0.057385385,0.79970944,-1.0026245,0.07562256,-0.052246094,-0.020507812,-0.13671875,-0.125,6.2890873,12.377786,-1.1880553,16.556465,-0.95996094,-0.16821289,-0.20544434,-0.037109375,0.038085938,0.056640625,14.838625,5.9875546,-57.7216,20.197655,0.5175781,0.08477783,0.89611816,0.0126953125,-0.017578125,-0.03515625,34.451534,12.639612,-129.24463,15.12759,0.0,0.0,0.0,0.0,0.0,0.0,0.0,12.490845,-130.01492,35.114487,-0.9499512,-0.10412598,0.053527832,-0.58984375,0.5839844,0.59277344,0.0,2.5051033,44.916195,1.3502457,
1.3476562299183572,69,-0.84228516,-0.2915039,0.44073486,0.01953125,0.005859375,0.001953125,0.0,0.0,0.0,0.0,0.0,0.0,0.0,0.0,0.0,0.0,0.0,-0.5978353,0.057826526,-0.79977244,-0.9332886,0.023071289,-0.26135254,-0.07910156,0.029296875,0.047851562,4.1211753,-12.377046,1.1971885,-16.557768,-0.99676514,0.02368164,-0.0053710938,0.0068359375,0.06347656,0.033203125,2.5281684,-12.524502,-55.800785,-15.551586,0.50909424,0.12084961,0.82855225,0.013671875,-0.0029296875,-0.0146484375,51.351913,-10.608061,-127.78537,-15.033633,0.0,0.0,0.0,0.0,0.0,0.0,0.0,-10.644286,-127.439,4.965535,0.0,0.0,0.0,0.0,0.0,0.0,0.0,0.5978353,-0.057826526,0.79977244,-0.9924927,0.0637207,-0.045654297,0.053710938,-0.11328125,-0.10253906,6.3065834,12.377046,-1.1971885,16.557768,-0.95080566,-0.16436768,-0.20739746,-0.037109375,9.765625E-4,0.017578125,14.890118,5.9415283,-57.72309,20.220737,0.49829102,0.11584473,0.87609863,0.013671875,9.765625E-4,-0.016601562,34.43048,12.60235,-129.24854,15.161606,0.0,0.0,0.0,0.0,0.0,0.0,0.0,12.441741,-130.01442,35.147903,-0.95684814,-0.101989746,0.053527832,-0.60839844,0.5644531,0.57421875,0.0,2.5405781,44.916702,1.348546,
1.367187479627319,70,-0.8441162,-0.3013916,0.4237671,0.01953125,0.061523438,0.001953125,0.0,0.0,0.0,0.0,0.0,0.0,0.0,0.0,0.0,0.0,0.0,-0.5977549,0.05775916,-0.79974705,-0.9293213,0.020019531,-0.25750732,-0.00390625,0.06542969,0.047851562,4.111184,-12.37538,1.1957935,-16.557243,-0.9957886,0.024169922,0.024353027,-0.032226562,0.02734375,-0.0048828125,2.5106103,-12.511962,-55.80486,-15.566251,0.49316406,0.12585449,0.8522339,-0.0068359375,0.0546875,-0.0146484375,51.34291,-10.593154,-127.78735,-15.041116,0.0,0.0,0.0,0.0,0.0,0.0,0.0,-10.622355,-127.44076,4.957429,0.0,0.0,0.0,0.0,0.0,0.0,0.0,0.5977549,-0.05775916,0.79974705,-0.9873657,0.046813965,-0.032165527,0.1875,-0.11035156,-0.103515625,6.3534474,12.37538,-1.1957935,16.557243,-0.94677734,-0.1739502,-0.2255249,-0.017578125,0.01953125,0.018554688,14.923837,5.9600334,-57.720806,20.264053,0.5130615,0.105407715,0.8560791,-0.0048828125,0.0,0.001953125,34.459625,12.650877,-129.24239,15.1912565,0.0,0.0,0.0,0.0,0.0,0.0,0.0,12.471583,-130.00699,35.17827,-0.96813965,-0.10626221,0.019836426,-0.58984375,0.60253906,0.5917969,0.0,2.5246835,44.914093,1.3567518,
1.3867187293362806,71,-0.8551636,-0.30529785,0.43292236,0.01953125,0.005859375,0.001953125,0.0,0.0,0.0,0.0,0.0,0.0,0.0,0.0,0.0,0.0,0.0,-0.5985353,0.05774709,-0.7991278,-0.9298096,-0.014465332,-0.2518921,-0.041015625,0.0107421875,0.047851562,4.127111,-12.391535,1.1955436,-16.544424,-0.9707031,0.059448242,-0.009033203,-0.0126953125,0.02734375,0.013671875,2.4967728,-12.4984865,-55.804726,-15.564088,0.5253296,0.11920166,0.8787842,0.013671875,-0.021484375,-0.034179688,51.54645,-10.565313,-127.78936,-15.058953,0.0,0.0,0.0,0.0,0.0,0.0,0.0,-10.56498,-127.44509,4.939769,0.0,0.0,0.0,0.0,0.0,0.0,0.0,0.5985353,-0.05774709,0.7991278,-0.996521,0.07159424,-0.034606934,0.125,-0.087890625,-0.09765625,6.4076557,12.391535,-1.1955436,16.544424,-0.9700928,-0.16394043,-0.22528076,-0.055664062,0.057617188,0.038085938,15.017397,5.959633,-57.71408,20.318369,0.5032959,0.09692383,0.8781738,-0.00390625,0.0,0.021484375,34.482155,12.699282,-129.2272,15.224994,0.0,0.0,0.0,0.0,0.0,0.0,0.0,12.529284,-129.99208,35.211205,-0.94873047,-0.09442139,0.059448242,-0.5527344,0.5830078,0.5917969,0.0,2.5317087,44.91262,1.3492911,
1.4062499790452423,72,-0.85046387,-0.2756958,0.4529419,0.057617188,-0.0126953125,0.01953125,0.0,0.0,0.0,0.0,0.0,0.0,0.0,0.0,0.0,0.0,0.0,-0.5996741,0.05772961,-0.79839134,-0.9203491,0.018859863,-0.25170898,-0.041015625,0.047851562,0.047851562,4.1358333,-12.415112,1.1951818,-16.529177,-1.0056763,0.02947998,0.022399902,-0.0126953125,0.02734375,0.013671875,2.4867182,-12.513119,-55.80183,-15.551745,0.53479004,0.15161133,0.8407593,0.013671875,-0.0029296875,-0.0146484375,51.5154,-10.600243,-127.78621,-15.083437,0.0,0.0,0.0,0.0,0.0,0.0,0.0,-10.607489,-127.44052,4.915518,0.0,0.0,0.0,0.0,0.0,0.0,0.0,0.5996741,-0.05772961,0.79839134,-0.99053955,0.08148193,-0.04827881,0.115234375,-0.1171875,-0.12792969,6.419976,12.415112,-1.1951818,16.529177,-0.960022,-0.1749878,-0.20758057,-0.017578125,0.0390625,0.037109375,15.077578,5.9284444,-57.70551,20.321438,0.51086426,0.095581055,0.84716797,-0.0048828125,0.0,0.001953125,34.42308,12.670719,-129.22359,15.222368,0.0,0.0,0.0,0.0,0.0,0.0,0.0,12.480468,-129.98706,35.20868,-0.9489746,-0.10406494,0.047546387,-0.5332031,0.60253906,0.5917969,0.0,2.5511758,44.916237,1.3315812,
1.425781228754204,73,-0.84552,-0.27270508,0.45288086,0.01953125,0.005859375,0.001953125,0.0,0.0,0.0,0.0,0.0,0.0,0.0,0.0,0.0,0.0,0.0,-0.59905356,0.05738137,-0.7988122,-0.9436035,0.0015258789,-0.23962402,-0.00390625,0.046875,0.029296875,4.101264,-12.4022665,1.1879724,-16.537891,-0.99102783,0.048095703,0.0026855469,-0.0126953125,0.045898438,0.013671875,2.5099087,-12.515774,-55.812748,-15.568247,0.53778076,0.14147949,0.87609863,0.013671875,-0.0029296875,-0.033203125,51.505516,-10.592297,-127.79526,-15.115964,0.0,0.0,0.0,0.0,0.0,0.0,0.0,-10.599543,-127.44957,4.882991,0.0,0.0,0.0,0.0,0.0,0.0,0.0,0.59905356,-0.05738137,0.7988122,-0.99560547,0.08355713,-0.060058594,0.16992188,-0.13183594,-0.0859375,6.4470406,12.4022665,-1.1879724,16.537891,-0.96099854,-0.17382812,-0.22149658,-0.037109375,0.01953125,0.018554688,15.121877,5.8827868,-57.696144,20.352879,0.52301025,0.0725708,0.8591919,0.032226562,9.765625E-4,0.0029296875,34.387985,12.643709,-129.21136,15.272108,0.0,0.0,0.0,0.0,0.0,0.0,0.0,12.440603,-129.97491,35.259865,-0.9777832,-0.1015625,0.052734375,-0.6640625,0.64160156,0.61035156,0.0,2.54395,44.914513,1.3185757,
1.4453124784631657,74,-0.8491211,-0.3013916,0.428833,0.01953125,0.024414062,0.001953125,0.0,0.0,0.0,0.0,0.0,0.0,0.0,0.0,0.0,0.0,0.0,-0.59905744,0.05722472,-0.7987699,-0.9381714,0.032836914,-0.22363281,-0.060546875,0.047851562,0.047851562,4.0554543,-12.402347,1.1847291,-16.537012,-0.99328613,0.040222168,0.004638672,-0.0126953125,0.02734375,0.051757812,2.5099087,-12.523322,-55.814297,-15.601613,0.5275879,0.14099121,0.8376465,-0.005859375,-0.021484375,0.0029296875,51.626095,-10.5891,-127.79677,-15.153566,0.0,0.0,0.0,0.0,0.0,0.0,0.0,-10.573041,-127.45167,4.8455315,0.0,0.0,0.0,0.0,0.0,0.0,0.0,0.59905744,-0.05722472,0.7987699,-0.9985962,0.07574463,-0.07800293,0.107421875,-0.0703125,-0.119140625,6.4515104,12.402347,-1.1847291,16.537012,-0.9589844,-0.17767334,-0.22558594,-0.037109375,0.057617188,0.038085938,15.1211815,5.8881083,-57.693268,20.31868,0.49951172,0.09655762,0.8961792,0.013671875,0.0,0.0029296875,34.403793,12.674744,-129.20703,15.225954,0.0,0.0,0.0,0.0,0.0,0.0,0.0,12.461168,-129.97144,35.213394,-0.9483032,-0.12774658,0.06939697,-0.58984375,0.5830078,0.6113281,0.0,2.5132468,44.913998,1.3328143,
1.4648437281721274,75,-0.8284302,-0.27868652,0.45147705,-0.017578125,0.024414062,0.0029296875,0.0,0.0,0.0,0.0,0.0,0.0,0.0,0.0,0.0,0.0,0.0,-0.5992154,0.057015594,-0.7987955,-0.9352417,0.024963379,-0.23760986,0.015625,0.046875,0.029296875,4.0270576,-12.405615,1.1803995,-16.537544,-1.0003662,0.0037231445,0.010375977,-0.032226562,0.02734375,0.033203125,2.5249147,-12.551495,-55.82308,-15.603563,0.51330566,0.11932373,0.8895874,0.013671875,0.016601562,0.00390625,51.732025,-10.60013,-127.80594,-15.10231,0.0,0.0,0.0,0.0,0.0,0.0,0.0,-10.568903,-127.458374,4.8967686,0.0,0.0,0.0,0.0,0.0,0.0,0.0,0.5992154,-0.057015594,0.7987955,-0.99554443,0.068603516,-0.03265381,-0.005859375,-0.1328125,-0.140625,6.3858924,12.405615,-1.1803995,16.537544,-0.9619751,-0.16790771,-0.2253418,-0.017578125,0.020507812,-9.765625E-4,15.076659,5.943791,-57.697617,20.299673,0.5072632,0.090026855,0.8762207,-0.0048828125,-0.018554688,0.0029296875,34.387356,12.738529,-129.2063,15.196019,0.0,0.0,0.0,0.0,0.0,0.0,0.0,12.514394,-129.97083,35.182262,-0.9697876,-0.101745605,0.056640625,-0.4794922,0.63964844,0.68359375,0.0,2.518678,44.91882,1.3167855,
1.484374977881089,76,-0.8413086,-0.29937744,0.45648193,0.020507812,-0.03125,0.001953125,0.0,0.0,0.0,0.0,0.0,0.0,0.0,0.0,0.0,0.0,0.0,-0.5984104,0.056518223,-0.79943603,-0.9365845,0.0014648438,-0.2515869,-0.09765625,0.030273438,0.06640625,3.9745371,-12.38895,1.1701024,-16.550804,-1.0036011,0.030517578,0.0134887695,0.026367188,0.044921875,0.033203125,2.4988103,-12.520441,-55.834484,-15.660375,0.5319824,0.16033936,0.857605,0.0126953125,0.036132812,-0.033203125,51.686283,-10.564913,-127.81888,-15.16544,0.0,0.0,0.0,0.0,0.0,0.0,0.0,-10.541265,-127.469894,4.8338833,0.0,0.0,0.0,0.0,0.0,0.0,0.0,0.5984104,-0.056518223,0.79943603,-0.9874878,0.07342529,-0.024719238,0.029296875,-0.16601562,-0.09765625,6.5654273,12.38895,-1.1701024,16.550804,-0.95184326,-0.1720581,-0.2164917,-0.037109375,0.01953125,0.037109375,15.244135,5.815918,-57.664204,20.420166,0.4973755,0.0847168,0.8882446,0.013671875,9.765625E-4,-0.016601562,34.385414,12.624453,-129.17148,15.30822,0.0,0.0,0.0,0.0,0.0,0.0,0.0,12.3939,-129.9385,35.2939,-0.9480591,-0.06317139,0.05645752,-0.4970703,0.5830078,0.61035156,0.0,2.4806352,44.920944,1.3189471,
1.5039062275900508,77,-0.8312378,-0.29351807,0.4364624,0.01953125,0.024414062,0.020507812,0.0,0.0,0.0,0.0,0.0,0.0,0.0,0.0,0.0,0.0,0.0,-0.5980654,0.056817558,-0.7995952,-0.95269775,-0.001159668,-0.25732422,-0.041015625,0.029296875,0.029296875,4.013321,-12.381806,1.1762995,-16.554098,-0.98724365,0.042541504,0.031433105,-0.013671875,0.0087890625,0.033203125,2.4908862,-12.495587,-55.823303,-15.640458,0.54125977,0.11621094,0.8442383,0.033203125,-0.0029296875,-0.0146484375,51.6471,-10.544752,-127.80785,-15.1498575,0.0,0.0,0.0,0.0,0.0,0.0,0.0,-10.528684,-127.45744,4.8497057,0.0,0.0,0.0,0.0,0.0,0.0,0.0,0.5980654,-0.056817558,0.7995952,-0.99450684,0.06964111,-0.048461914,0.26757812,-0.016601562,-0.10839844,6.5823407,12.381806,-1.1762995,16.554098,-0.9569702,-0.17120361,-0.20153809,-0.037109375,0.01953125,0.018554688,15.188328,5.854871,-57.67857,20.427147,0.5282593,0.107421875,0.8659668,0.032226562,-0.017578125,0.0029296875,34.393486,12.6420355,-129.18494,15.32551,0.0,0.0,0.0,0.0,0.0,0.0,0.0,12.417105,-129.94695,35.312737,-0.944397,-0.073913574,0.04650879,-0.6074219,0.6611328,0.609375,0.0,2.4672532,44.918056,1.3463761,
1.5234374772990125,78,-0.85601807,-0.30932617,0.40905762,0.01953125,0.005859375,0.001953125,0.0,0.0,0.0,0.0,0.0,0.0,0.0,0.0,0.0,0.0,0.0,-0.5985811,0.05748796,-0.79923,-0.942688,-0.002319336,-0.26635742,-0.022460938,0.046875,0.029296875,4.0382757,-12.392485,1.1901791,-16.54654,-0.98583984,0.05480957,0.0037841797,0.0068359375,0.044921875,0.013671875,2.4737759,-12.504084,-55.810715,-15.643858,0.5261841,0.121520996,0.82562256,0.013671875,-0.021484375,-0.034179688,51.55808,-10.574333,-127.792984,-15.166543,0.0,0.0,0.0,0.0,0.0,0.0,0.0,-10.594372,-127.44019,4.8330126,0.0,0.0,0.0,0.0,0.0,0.0,0.0,0.5985811,-0.05748796,0.79923,-1.0127563,0.09631348,-0.037902832,0.13769531,-0.10058594,-0.111328125,6.575455,12.392485,-1.1901791,16.54654,-0.96099854,-0.17016602,-0.20050049,-0.037109375,0.0390625,0.018554688,15.158149,5.8814945,-57.69597,20.374193,0.5210571,0.091552734,0.8571167,0.032226562,9.765625E-4,0.0029296875,34.33789,12.681252,-129.20499,15.2698555,0.0,0.0,0.0,0.0,0.0,0.0,0.0,12.4499035,-129.9695,35.256516,-0.9547119,-0.097351074,0.06744385,-0.6269531,0.6220703,0.6298828,0.0,2.4668012,44.919437,1.3835146,
1.5429687270079742,79,-0.855896,-0.3182373,0.4050293,-0.017578125,0.024414062,0.0029296875,0.0,0.0,0.0,0.0,0.0,0.0,0.0,0.0,0.0,0.0,0.0,-0.5997876,0.059140343,-0.79813766,-0.9395752,0.0034179688,-0.23968506,-0.060546875,0.047851562,0.029296875,4.1248326,-12.417464,1.2243884,-16.523922,-0.9694214,0.036254883,0.017578125,-0.032226562,0.02734375,0.033203125,2.4943416,-12.544957,-55.777966,-15.630238,0.5413208,0.11810303,0.85217285,0.013671875,-0.021484375,0.0029296875,51.55032,-10.610189,-127.75873,-15.171541,0.0,0.0,0.0,0.0,0.0,0.0,0.0,-10.635356,-127.412796,4.8283157,0.0,0.0,0.0,0.0,0.0,0.0,0.0,0.5997876,-0.059140343,0.79813766,-0.99853516,0.071777344,-0.06817627,-0.020507812,-0.13671875,-0.125,6.5600486,12.417464,-1.2243884,16.523922,-0.9588623,-0.1572876,-0.2241211,-0.037109375,0.0390625,0.018554688,15.228943,5.856237,-57.725277,20.335796,0.54003906,0.081848145,0.8530884,-0.0234375,-0.01953125,-0.016601562,34.32853,12.683016,-129.22694,15.188623,0.0,0.0,0.0,0.0,0.0,0.0,0.0,12.4445715,-129.99707,35.174007,-0.94677734,-0.09637451,0.05444336,-0.55371094,0.5830078,0.6298828,0.0,2.5525577,44.911434,1.409638,
1.5624999767169359,80,-0.8741455,-0.29937744,0.42443848,0.01953125,0.005859375,0.001953125,0.0,0.0,0.0,0.0,0.0,0.0,0.0,0.0,0.0,0.0,0.0,-0.60101503,0.059625216,-0.797175,-0.93426514,0.024963379,-0.2366333,-0.041015625,0.12011719,0.047851562,4.1319957,-12.442876,1.234427,-16.503994,-0.99365234,0.029968262,0.028381348,-0.0146484375,-0.029296875,0.051757812,2.455032,-12.558086,-55.764324,-15.64946,0.5371704,0.107421875,0.8569336,0.013671875,-0.001953125,0.00390625,51.40745,-10.651069,-127.74948,-15.217352,0.0,0.0,0.0,0.0,0.0,0.0,0.0,-10.683987,-127.40748,4.7813187,0.0,0.0,0.0,0.0,0.0,0.0,0.0,0.60101503,-0.059625216,0.797175,-0.9914551,0.057800293,-0.045776367,0.033203125,-0.11328125,-0.12207031,6.577364,12.442876,-1.234427,16.503994,-0.9760742,-0.15118408,-0.23095703,-0.037109375,0.0390625,0.018554688,15.230997,5.9044485,-57.734707,20.330526,0.52075195,0.08892822,0.8352051,0.015625,0.09472656,0.001953125,34.28399,12.736265,-129.23254,15.164108,0.0,0.0,0.0,0.0,0.0,0.0,0.0,12.479533,-130.00269,35.14969,-0.96588135,-0.103759766,0.055603027,-0.5908203,0.6591797,0.703125,0.0,2.5601995,44.910294,1.4288803,
1.5820312264258976,81,-0.8682251,-0.2915039,0.4194336,0.01953125,0.024414062,0.001953125,0.0,0.0,0.0,0.0,0.0,0.0,0.0,0.0,0.0,0.0,0.0,-0.60190934,0.059906334,-0.79642826,-0.95617676,0.038391113,-0.27270508,-0.041015625,0.06542969,0.029296875,4.141795,-12.461389,1.2402468,-16.488533,-0.9888916,0.05407715,-0.006164551,-0.01171875,0.064453125,-0.0048828125,2.4363852,-12.568592,-55.764366,-15.66257,0.5352173,0.11639404,0.8383179,0.033203125,-0.0029296875,-0.0146484375,51.43387,-10.670082,-127.75373,-15.250895,0.0,0.0,0.0,0.0,0.0,0.0,0.0,-10.695419,-127.41315,4.7475433,0.0,0.0,0.0,0.0,0.0,0.0,0.0,0.60190934,-0.059906334,0.79642826,-0.9873657,0.04876709,-0.020263672,0.15527344,-0.09765625,-0.109375,6.609574,12.461389,-1.2402468,16.488533,-0.95892334,-0.16516113,-0.21734619,-0.037109375,0.038085938,0.037109375,15.274926,5.9159555,-57.737667,20.379166,0.5071411,0.08013916,0.87127686,0.013671875,9.765625E-4,-0.016601562,34.37773,12.745462,-129.24307,15.203375,0.0,0.0,0.0,0.0,0.0,0.0,0.0,12.521231,-130.01344,35.190197,-0.9710083,-0.11248779,0.06060791,-0.5722656,0.6015625,0.6484375,0.0,2.5890925,44.90707,1.4211185,
1.6015624761348592,82,-0.8381958,-0.30334473,0.444458,0.020507812,-0.0126953125,0.001953125,0.0,0.0,0.0,0.0,0.0,0.0,0.0,0.0,0.0,0.0,0.0,-0.60314846,0.060287423,-0.7955138,-0.93029785,0.024902344,-0.2475586,-0.00390625,0.06542969,0.047851562,4.155532,-12.487044,1.2481366,-16.469603,-0.9819946,0.01776123,0.025390625,-0.032226562,0.02734375,0.033203125,2.3933468,-12.593354,-55.75163,-15.661553,0.5357666,0.14654541,0.8574219,0.013671875,-0.0029296875,-0.033203125,51.436028,-10.72021,-127.73912,-15.201451,0.0,0.0,0.0,0.0,0.0,0.0,0.0,-10.734079,-127.39002,4.7980413,0.0,0.0,0.0,0.0,0.0,0.0,0.0,0.60314846,-0.060287423,0.7955138,-1.0056152,0.070617676,-0.02960205,0.16796875,-0.14941406,-0.08300781,6.667122,12.487044,-1.2481366,16.469603,-0.95983887,-0.1505127,-0.21899414,-0.037109375,-0.017578125,-9.765625E-4,15.3478155,5.8941574,-57.7348,20.415382,0.5161743,0.09729004,0.868103,-0.0048828125,0.0,0.001953125,34.406715,12.725468,-129.23587,15.239305,0.0,0.0,0.0,0.0,0.0,0.0,0.0,12.506482,-130.00485,35.225594,-0.9558716,-0.107177734,0.07537842,-0.5888672,0.69921875,0.6279297,0.0,2.6135964,44.90751,1.4216864,
1.621093725843821,83,-0.85809326,-0.2935791,0.4033203,0.01953125,0.024414062,0.001953125,0.0,0.0,0.0,0.0,0.0,0.0,0.0,0.0,0.0,0.0,0.0,-0.6036925,0.061339956,-0.79503715,-0.9316406,-0.0037841797,-0.21911621,-0.022460938,0.0107421875,0.029296875,4.2043533,-12.498306,1.2699273,-16.459734,-0.99090576,0.052246094,-0.009155273,-0.0126953125,0.045898438,0.033203125,2.4246278,-12.627381,-55.733376,-15.642308,0.5100708,0.10974121,0.869812,0.013671875,-0.021484375,-0.034179688,51.525734,-10.754839,-127.71971,-15.203443,0.0,0.0,0.0,0.0,0.0,0.0,0.0,-10.746032,-127.37682,4.7952566,0.0,0.0,0.0,0.0,0.0,0.0,0.0,0.6036925,-0.061339956,0.79503715,-1.0026855,0.09338379,-0.049926758,0.07714844,-0.17480469,-0.107421875,6.7472687,12.498306,-1.2699273,16.459734,-0.9589844,-0.17211914,-0.20153809,-0.037109375,0.057617188,0.018554688,15.431025,5.8399158,-57.747597,20.44706,0.49505615,0.08306885,0.86828613,0.032226562,-0.017578125,0.0029296875,34.39894,12.670029,-129.24857,15.258001,0.0,0.0,0.0,0.0,0.0,0.0,0.0,12.454299,-130.01666,35.245018,-0.94903564,-0.10095215,0.026672363,-0.6074219,0.6611328,0.609375,0.0,2.6499352,44.90499,1.4524152,
1.6406249755527826,84,-0.8444824,-0.2845459,0.46759033,-0.017578125,0.024414062,0.0029296875,0.0,0.0,0.0,0.0,0.0,0.0,0.0,0.0,0.0,0.0,0.0,-0.6030112,0.060893506,-0.79558885,-0.95196533,-0.021972656,-0.2387085,-0.00390625,0.028320312,0.029296875,4.203701,-12.4842005,1.2606844,-16.471157,-0.9904785,0.034057617,0.0115356445,-0.03125,0.045898438,0.013671875,2.4358227,-12.613415,-55.74206,-15.602903,0.5333252,0.1161499,0.8777466,0.013671875,0.016601562,-0.0146484375,51.4618,-10.752512,-127.72864,-15.158051,0.0,0.0,0.0,0.0,0.0,0.0,0.0,-10.759559,-127.38677,4.842638,0.0,0.0,0.0,0.0,0.0,0.0,0.0,0.6030112,-0.060893506,0.79558885,-0.9875488,0.08746338,-0.060058594,0.08984375,-0.07324219,-0.12109375,6.728494,12.4842005,-1.2606844,16.471157,-0.95684814,-0.15063477,-0.21105957,-0.037109375,0.038085938,0.037109375,15.4050255,5.8360825,-57.746853,20.407616,0.51690674,0.081604004,0.8522339,-0.0048828125,-0.018554688,0.0029296875,34.422085,12.668112,-129.2423,15.195351,0.0,0.0,0.0,0.0,0.0,0.0,0.0,12.452988,-130.01804,35.181076,-0.9793091,-0.07409668,0.046813965,-0.5888672,0.6982422,0.6464844,0.0,2.6107845,44.90711,1.458315,
1.6601562252617443,85,-0.86535645,-0.2796631,0.4274292,-0.017578125,0.005859375,0.0029296875,0.0,0.0,0.0,0.0,0.0,0.0,0.0,0.0,0.0,0.0,0.0,-0.60392934,0.061018247,-0.7949081,-0.94415283,0.038024902,-0.24816895,-0.00390625,0.06542969,0.047851562,4.2225275,-12.503209,1.2632668,-16.457064,-0.97229004,0.040283203,0.020568848,-0.032226562,0.02734375,0.033203125,2.4272902,-12.614107,-55.735565,-15.598056,0.48718262,0.13000488,0.83361816,0.033203125,-0.0029296875,-0.033203125,51.529575,-10.737331,-127.71835,-15.154277,0.0,0.0,0.0,0.0,0.0,0.0,0.0,-10.738299,-127.372955,4.8459444,0.0,0.0,0.0,0.0,0.0,0.0,0.0,0.60392934,-0.061018247,0.7949081,-0.9995117,0.06378174,-0.051513672,0.16992188,-0.09375,-0.125,6.587165,12.503209,-1.2632668,16.457064,-0.9579468,-0.17675781,-0.22161865,-0.056640625,0.01953125,0.037109375,15.272656,5.9548235,-57.763382,20.313852,0.5048218,0.11260986,0.8411255,0.013671875,9.765625E-4,-0.016601562,34.409443,12.780106,-129.26578,15.098194,0.0,0.0,0.0,0.0,0.0,0.0,0.0,12.561428,-130.02849,35.084293,-0.95562744,-0.09136963,0.057495117,-0.70214844,0.5839844,0.6123047,0.0,2.6293023,44.90723,1.4495358,
1.679687474970706,86,-0.8293457,-0.28753662,0.45635986,0.01953125,0.005859375,-0.016601562,0.0,0.0,0.0,0.0,0.0,0.0,0.0,0.0,0.0,0.0,0.0,-0.6042922,0.060540404,-0.79467857,-0.9530029,0.047912598,-0.22918701,-0.022460938,0.06542969,0.047851562,4.147229,-12.510723,1.2533741,-16.452309,-0.9923706,0.038024902,0.016540527,-0.0126953125,0.02734375,0.033203125,2.4363852,-12.656438,-55.75219,-15.628565,0.51708984,0.11175537,0.8510742,0.013671875,-0.021484375,-0.015625,51.540146,-10.785702,-127.734856,-15.176196,0.0,0.0,0.0,0.0,0.0,0.0,0.0,-10.770163,-127.39199,4.8232985,0.0,0.0,0.0,0.0,0.0,0.0,0.0,0.6042922,-0.060540404,0.79467857,-0.99346924,0.06365967,-0.03869629,-0.041992188,-0.17285156,-0.12207031,6.63646,12.510723,-1.2533741,16.452309,-0.9588623,-0.1517334,-0.20111084,-0.037109375,0.01953125,0.018554688,15.352343,5.920358,-57.742737,20.361767,0.505188,0.098083496,0.8711548,-0.0048828125,-0.018554688,-0.03515625,34.426506,12.755625,-129.23868,15.130537,0.0,0.0,0.0,0.0,0.0,0.0,0.0,12.541305,-129.99675,35.116196,-0.9608154,-0.09991455,0.04864502,-0.6455078,0.6796875,0.64746094,0.0,2.6209848,44.90875,1.4281917,
1.6992187246796677,87,-0.8543091,-0.28753662,0.43707275,0.020507812,-0.0126953125,0.001953125,0.0,0.0,0.0,0.0,0.0,0.0,0.0,0.0,0.0,0.0,0.0,-0.6044924,0.060429744,-0.794466,-0.9375,0.011352539,-0.25543213,-0.022460938,0.12011719,0.029296875,4.145623,-12.514865,1.251083,-16.44791,-1.0102539,0.04260254,0.01550293,-0.032226562,0.02734375,0.033203125,2.3959622,-12.627326,-55.749043,-15.669789,0.49743652,0.14050293,0.84558105,0.033203125,-0.0029296875,-0.033203125,51.529556,-10.758163,-127.735855,-15.248164,0.0,0.0,0.0,0.0,0.0,0.0,0.0,-10.748779,-127.38399,4.7518625,0.0,0.0,0.0,0.0,0.0,0.0,0.0,0.6044924,-0.060429744,0.794466,-0.9915161,0.068481445,-0.0178833,-0.03515625,-0.14160156,-0.10839844,6.7121515,12.514865,-1.251083,16.44791,-0.9538574,-0.16430664,-0.21032715,-0.037109375,0.0390625,0.018554688,15.451675,5.8671374,-57.727623,20.447605,0.4981079,0.10809326,0.8641968,-0.0048828125,0.0,-0.03515625,34.491398,12.719877,-129.22543,15.24267,0.0,0.0,0.0,0.0,0.0,0.0,0.0,12.512558,-129.98372,35.23017,-0.9638672,-0.09674072,0.03277588,-0.5908203,0.60253906,0.6298828,0.0,2.6379225,44.90592,1.4085548,
1.7187499743886294,88,-0.85754395,-0.2658081,0.44525146,0.057617188,0.005859375,0.020507812,0.0,0.0,0.0,0.0,0.0,0.0,0.0,0.0,0.0,0.0,0.0,-0.60544217,0.060270976,-0.7937639,-0.942749,-0.0073242188,-0.24267578,-0.060546875,0.047851562,0.029296875,4.141606,-12.534529,1.2477962,-16.433372,-0.9885254,0.033935547,0.016540527,-0.013671875,0.0087890625,0.013671875,2.3953905,-12.641087,-55.75598,-15.664281,0.526001,0.10882568,0.82244873,0.033203125,-0.021484375,-0.015625,51.447243,-10.756018,-127.74191,-15.233118,0.0,0.0,0.0,0.0,0.0,0.0,0.0,-10.768992,-127.39276,4.766592,0.0,0.0,0.0,0.0,0.0,0.0,0.0,0.60544217,-0.060270976,0.7937639,-0.9924927,0.06854248,-0.024780273,0.2734375,-0.099609375,-0.095703125,6.7585373,12.534529,-1.2477962,16.433372,-0.9691162,-0.16809082,-0.2074585,-0.037109375,0.057617188,0.018554688,15.524864,5.833394,-57.7155,20.492088,0.49926758,0.089904785,0.880249,-0.0048828125,0.0,-0.016601562,34.46392,12.667345,-129.21254,15.270802,0.0,0.0,0.0,0.0,0.0,0.0,0.0,12.47712,-129.97383,35.258373,-0.9578247,-0.09692383,0.03765869,-0.5722656,0.62109375,0.6660156,0.0,2.6515872,44.906105,1.3872545,
1.7382812240975911,89,-0.8201294,-0.30145264,0.42822266,0.020507812,-0.0126953125,0.001953125,0.0,0.0,0.0,0.0,0.0,0.0,0.0,0.0,0.0,0.0,0.0,-0.60438335,0.059845608,-0.7946599,-0.95184326,-0.012939453,-0.2662964,-0.07910156,0.047851562,0.047851562,4.128961,-12.5126095,1.2389895,-16.451925,-0.98583984,0.056518555,0.021606445,-0.0126953125,0.02734375,0.033203125,2.3689337,-12.604898,-55.76625,-15.684118,0.52978516,0.09210205,0.8320923,0.013671875,0.016601562,-0.033203125,51.36084,-10.740004,-127.75266,-15.257316,0.0,0.0,0.0,0.0,0.0,0.0,0.0,-10.75164,-127.4085,4.7416773,0.0,0.0,0.0,0.0,0.0,0.0,0.0,0.60438335,-0.059845608,0.7946599,-0.9875488,0.091430664,-0.06695557,0.23535156,-0.00390625,-0.11425781,6.678261,12.5126095,-1.2389895,16.451925,-0.96398926,-0.16119385,-0.215271,-0.037109375,0.038085938,0.056640625,15.454278,5.8539124,-57.71522,20.446623,0.5073242,0.08190918,0.88323975,-0.0048828125,-0.018554688,-0.016601562,34.530113,12.687311,-129.21251,15.220047,0.0,0.0,0.0,0.0,0.0,0.0,0.0,12.506383,-129.97408,35.206818,-0.95495605,-0.101867676,0.03466797,-0.6279297,0.6591797,0.6660156,0.0,2.6372082,44.90935,1.3763652,
1.7578124738065528,90,-0.8531494,-0.28271484,0.4013672,-0.017578125,-0.0126953125,0.0029296875,0.0,0.0,0.0,0.0,0.0,0.0,0.0,0.0,0.0,0.0,0.0,-0.6050346,0.05999074,-0.79413825,-0.94451904,0.010498047,-0.25927734,0.015625,-0.0078125,0.029296875,4.1470404,-12.526092,1.2419944,-16.441124,-0.9829712,0.018737793,0.02734375,-0.032226562,0.02734375,0.033203125,2.3473537,-12.621947,-55.75777,-15.644872,0.50982666,0.10418701,0.83032227,0.013671875,0.016601562,-0.0146484375,51.361668,-10.781338,-127.74394,-15.159584,0.0,0.0,0.0,0.0,0.0,0.0,0.0,-10.791082,-127.40641,4.839081,0.0,0.0,0.0,0.0,0.0,0.0,0.0,0.6050346,-0.05999074,0.79413825,-0.9925537,0.07751465,-0.04736328,0.013671875,-0.09472656,-0.16113281,6.564979,12.526092,-1.2419944,16.441124,-0.9588623,-0.15447998,-0.21313477,-0.037109375,0.057617188,0.038085938,15.301284,5.969755,-57.734715,20.347885,0.5261841,0.08538818,0.8690796,0.013671875,-0.018554688,-0.016601562,34.57007,12.796181,-129.23425,15.149574,0.0,0.0,0.0,0.0,0.0,0.0,0.0,12.620285,-130.00143,35.13688,-0.9520874,-0.110839844,0.047546387,-0.6279297,0.6591797,0.6660156,0.0,2.6319191,44.908787,1.3873017,
1.7773437235155145,91,-0.85632324,-0.29144287,0.4489746,0.020507812,-0.0126953125,0.001953125,0.0,0.0,0.0,0.0,0.0,0.0,0.0,0.0,0.0,0.0,0.0,-0.60544634,0.060029928,-0.7937986,-0.9263916,0.015991211,-0.2467041,-0.00390625,0.06542969,0.029296875,4.1451983,-12.534616,1.2428056,-16.434093,-0.97454834,0.03161621,0.0095825195,-0.032226562,0.02734375,0.013671875,2.338917,-12.634072,-55.76097,-15.635938,0.5313721,0.1251831,0.8463135,0.013671875,-0.0029296875,-0.033203125,51.404903,-10.803627,-127.74545,-15.13574,0.0,0.0,0.0,0.0,0.0,0.0,0.0,-10.794167,-127.40612,4.8642197,0.0,0.0,0.0,0.0,0.0,0.0,0.0,0.60544634,-0.060029928,0.7937986,-0.996521,0.066589355,-0.023803711,0.03125,-0.111328125,-0.13964844,6.645467,12.534616,-1.2428056,16.434093,-0.9639282,-0.1486206,-0.20800781,-0.037109375,0.057617188,0.018554688,15.344059,5.965809,-57.735462,20.419132,0.5172119,0.08123779,0.87420654,0.013671875,0.0,0.021484375,34.497658,12.772842,-129.23866,15.217752,0.0,0.0,0.0,0.0,0.0,0.0,0.0,12.59755,-130.01347,35.203766,-0.9556885,-0.09222412,0.048583984,-0.60839844,0.640625,0.62890625,0.0,2.6287131,44.90804,1.3911356,
1.7968749732244762,92,-0.83721924,-0.31414795,0.46118164,-0.055664062,0.024414062,0.00390625,0.0,0.0,0.0,0.0,0.0,0.0,0.0,0.0,0.0,0.0,0.0,-0.60581934,0.06024821,-0.7934198,-0.9293823,0.016174316,-0.26739502,-0.041015625,0.029296875,0.047851562,4.1566157,-12.542339,1.2473248,-16.426249,-0.9874878,0.034118652,0.004638672,-0.03125,0.045898438,0.013671875,2.3238056,-12.626801,-55.75279,-15.642677,0.53741455,0.121032715,0.8630371,0.013671875,0.016601562,-0.0146484375,51.401714,-10.78647,-127.740265,-15.134441,0.0,0.0,0.0,0.0,0.0,0.0,0.0,-10.785709,-127.401535,4.8645077,0.0,0.0,0.0,0.0,0.0,0.0,0.0,0.60581934,-0.06024821,0.7934198,-0.9924927,0.06365967,-0.030822754,0.12011719,-0.10253906,-0.11328125,6.719744,12.542339,-1.2473248,16.426249,-0.94677734,-0.17785645,-0.22363281,-0.056640625,0.038085938,0.038085938,15.381777,5.958352,-57.728474,20.468658,0.5211792,0.084350586,0.86712646,-0.0048828125,0.0,-0.016601562,34.517323,12.76709,-129.22856,15.289913,0.0,0.0,0.0,0.0,0.0,0.0,0.0,12.599311,-130.0105,35.27559,-0.9706421,-0.09490967,0.056640625,-0.5908203,0.6591797,0.6660156,0.0,2.6268685,44.904964,1.4040941,
1.816406222933438,93,-0.8438721,-0.32513428,0.41259766,0.01953125,0.005859375,-0.03515625,0.0,0.0,0.0,0.0,0.0,0.0,0.0,0.0,0.0,0.0,0.0,-0.60607517,0.061073817,-0.7932258,-0.94525146,0.028198242,-0.25616455,-0.022460938,0.029296875,0.047851562,4.1681433,-12.547635,1.2644174,-16.422234,-0.99108887,0.049621582,0.02947998,-0.013671875,0.0087890625,0.013671875,2.3237212,-12.667408,-55.737377,-15.644128,0.5282593,0.11230469,0.8757324,0.013671875,-0.001953125,0.00390625,51.389774,-10.861015,-127.72551,-15.119567,0.0,0.0,0.0,0.0,0.0,0.0,0.0,-10.832523,-127.38972,4.880265,0.0,0.0,0.0,0.0,0.0,0.0,0.0,0.60607517,-0.061073817,0.7932258,-0.9954834,0.06359863,-0.024841309,0.15234375,-0.115234375,-0.107421875,6.808728,12.547635,-1.2644174,16.422234,-0.9437256,-0.17224121,-0.20654297,-0.037109375,0.0390625,0.018554688,15.450021,5.9255533,-57.740826,20.512518,0.50231934,0.1048584,0.88116455,0.032226562,-0.017578125,0.0029296875,34.569893,12.746229,-129.24086,15.330136,0.0,0.0,0.0,0.0,0.0,0.0,0.0,12.586063,-130.01727,35.316086,-0.9498291,-0.0993042,0.05847168,-0.60839844,0.640625,0.64746094,0.0,2.6425414,44.905273,1.4383769,
1.8359374726423996,94,-0.84033203,-0.27972412,0.4338379,9.765625E-4,0.061523438,0.0029296875,0.0,0.0,0.0,0.0,0.0,0.0,0.0,0.0,0.0,0.0,0.0,-0.60728365,0.061185908,-0.7922944,-0.95544434,0.016662598,-0.26202393,-0.041015625,0.1015625,0.0107421875,4.2073336,-12.572654,1.266738,-16.40295,-0.99108887,0.049621582,0.02947998,-0.013671875,0.0087890625,0.013671875,2.2960134,-12.659768,-55.737835,-15.618359,0.5180054,0.110839844,0.8363037,-0.005859375,0.016601562,-0.0146484375,51.431377,-10.853376,-127.72597,-15.093798,0.0,0.0,0.0,0.0,0.0,0.0,0.0,-10.810283,-127.39139,4.905155,0.0,0.0,0.0,0.0,0.0,0.0,0.0,0.60728365,-0.061185908,0.7922944,-0.9985962,0.078552246,-0.045288086,0.13964844,-0.08300781,-0.11328125,6.820672,12.572654,-1.266738,16.40295,-0.95892334,-0.16625977,-0.20343018,-0.037109375,0.057617188,0.018554688,15.4782505,5.929369,-57.73676,20.516788,0.493042,0.08203125,0.86932373,0.032226562,9.765625E-4,-0.016601562,34.55433,12.754441,-129.24155,15.346982,0.0,0.0,0.0,0.0,0.0,0.0,0.0,12.597533,-130.01707,35.333652,-0.956604,-0.09136963,0.061523438,-0.64746094,0.62109375,0.6855469,0.0,2.658874,44.90465,1.4298239,
1.8554687223513613,95,-0.87042236,-0.2756958,0.4335327,0.01953125,0.024414062,0.001953125,0.0,0.0,0.0,0.0,0.0,0.0,0.0,0.0,0.0,0.0,0.0,-0.6066954,0.061455086,-0.7927576,-0.96191406,-0.017944336,-0.22271729,-0.00390625,0.046875,0.047851562,4.2478228,-12.560474,1.2723109,-16.412539,-1.0045166,-0.0010375977,0.010314941,-0.013671875,0.0087890625,0.033203125,2.3092732,-12.659159,-55.73346,-15.58622,0.50994873,0.10900879,0.8372803,0.052734375,-0.041015625,-0.034179688,51.293274,-10.874279,-127.72043,-15.064697,0.0,0.0,0.0,0.0,0.0,0.0,0.0,-10.81908,-127.391525,4.9356194,0.0,0.0,0.0,0.0,0.0,0.0,0.0,0.6066954,-0.061455086,0.7927576,-0.9915161,0.07366943,-0.06427002,0.14160156,-0.06640625,-0.11621094,6.6651797,12.560474,-1.2723109,16.412539,-0.9498291,-0.17010498,-0.21746826,-0.037109375,0.057617188,0.018554688,15.347958,5.998204,-57.757557,20.419905,0.5093384,0.09094238,0.8831787,0.032226562,0.01953125,-0.016601562,34.52019,12.826345,-129.26108,15.258425,0.0,0.0,0.0,0.0,0.0,0.0,0.0,12.654827,-130.0351,35.244175,-0.9588623,-0.09887695,0.03967285,-0.6455078,0.64160156,0.61035156,0.0,2.6860693,44.90437,1.425374,
1.874999972060323,96,-0.85388184,-0.32513428,0.40686035,9.765625E-4,0.024414062,0.0029296875,0.0,0.0,0.0,0.0,0.0,0.0,0.0,0.0,0.0,0.0,0.0,-0.60624254,0.061167154,-0.7931114,-0.94177246,-0.011230469,-0.25164795,-0.00390625,0.064453125,0.0107421875,4.248376,-12.551099,1.2663497,-16.419865,-1.0092163,0.044433594,0.020507812,-0.032226562,0.045898438,0.033203125,2.3225417,-12.627661,-55.73693,-15.592263,0.5421753,0.11340332,0.8314209,0.013671875,-0.0029296875,-0.051757812,51.24831,-10.816094,-127.72373,-15.110359,0.0,0.0,0.0,0.0,0.0,0.0,0.0,-10.790138,-127.39224,4.888399,0.0,0.0,0.0,0.0,0.0,0.0,0.0,0.60624254,-0.061167154,0.7931114,-0.9954834,0.06463623,-0.029785156,0.16894531,-0.07421875,-0.14550781,6.6135783,12.551099,-1.2663497,16.419865,-0.954895,-0.16900635,-0.22039795,-0.037109375,0.038085938,0.037109375,15.293063,6.073039,-57.766163,20.411766,0.5114136,0.10498047,0.8811035,0.0146484375,0.038085938,0.001953125,34.6178,12.943113,-129.26707,15.256056,0.0,0.0,0.0,0.0,0.0,0.0,0.0,12.771197,-130.03983,35.242294,-0.9525757,-0.08850098,0.059509277,-0.6269531,0.6982422,0.66503906,0.0,2.6720474,44.90483,1.4207233,
1.8945312217692847,97,-0.8522949,-0.28363037,0.42510986,0.01953125,0.005859375,0.001953125,0.0,0.0,0.0,0.0,0.0,0.0,0.0,0.0,0.0,0.0,0.0,-0.6053641,0.060861927,-0.7938324,-0.94104004,0.044799805,-0.24523926,-0.022460938,0.046875,0.029296875,4.201557,-12.532915,1.2600305,-16.434793,-0.9972534,0.043884277,0.033447266,-0.032226562,0.02734375,0.013671875,2.323974,-12.622689,-55.74458,-15.633179,0.5302124,0.113342285,0.8678589,0.013671875,0.016601562,-0.0146484375,51.292774,-10.813495,-127.73337,-15.158488,0.0,0.0,0.0,0.0,0.0,0.0,0.0,-10.782155,-127.40222,4.8413153,0.0,0.0,0.0,0.0,0.0,0.0,0.0,0.6053641,-0.060861927,0.7938324,-0.99560547,0.083496094,-0.04724121,0.08300781,-0.12402344,-0.11425781,6.6715913,12.532915,-1.2600305,16.434793,-0.9588623,-0.15826416,-0.22216797,-0.017578125,9.765625E-4,0.017578125,15.369761,5.9936957,-57.749535,20.44511,0.47613525,0.10974121,0.87231445,0.013671875,0.0,0.0029296875,34.72136,12.881889,-129.2438,15.2839155,0.0,0.0,0.0,0.0,0.0,0.0,0.0,12.719269,-130.01682,35.269352,-0.9607544,-0.09399414,0.043640137,-0.57128906,0.6591797,0.6660156,0.0,2.6521988,44.906975,1.4204241,
1.9140624714782464,98,-0.8623657,-0.2993164,0.4638672,0.020507812,-0.03125,-0.016601562,0.0,0.0,0.0,0.0,0.0,0.0,0.0,0.0,0.0,0.0,0.0,-0.6049637,0.060454644,-0.7941196,-0.94818115,0.037109375,-0.24713135,-0.041015625,0.047851562,0.047851562,4.1510997,-12.524624,1.2515985,-16.440739,-0.9674072,0.036315918,0.0076904297,-0.03125,0.045898438,0.013671875,2.3652127,-12.645522,-55.748432,-15.643943,0.52142334,0.12713623,0.8709717,0.013671875,-0.021484375,-0.015625,51.44987,-10.811482,-127.73636,-15.160658,0.0,0.0,0.0,0.0,0.0,0.0,0.0,-10.76278,-127.40384,4.837839,0.0,0.0,0.0,0.0,0.0,0.0,0.0,0.6049637,-0.060454644,0.7941196,-0.9924927,0.0736084,-0.054382324,0.033203125,-0.11328125,-0.12207031,6.678261,12.524624,-1.2515985,16.440739,-0.9519043,-0.17993164,-0.20874023,-0.037109375,0.0390625,0.018554688,15.406196,5.9481826,-57.737503,20.442411,0.5001831,0.10809326,0.86712646,0.013671875,-0.018554688,0.0029296875,34.78814,12.857069,-129.23422,15.288586,0.0,0.0,0.0,0.0,0.0,0.0,0.0,12.703233,-130.0006,35.27539,-0.9529419,-0.103027344,0.05053711,-0.66308594,0.71875,0.609375,0.0,2.6380897,44.90641,1.4089218,
1.933593721187208,99,-0.8720093,-0.32696533,0.43603516,0.020507812,-0.03125,0.020507812,0.0,0.0,0.0,0.0,0.0,0.0,0.0,0.0,0.0,0.0,0.0,-0.6044366,0.060121782,-0.79458505,-0.95770264,-0.0041503906,-0.23553467,-0.022460938,0.029296875,0.047851562,4.1454344,-12.513714,1.2447073,-16.450375,-0.9859619,0.051879883,0.0037231445,-0.0126953125,0.045898438,0.013671875,2.380555,-12.626493,-55.75688,-15.638595,0.536438,0.12902832,0.8434448,0.033203125,-0.0029296875,-0.0146484375,51.579723,-10.769551,-127.742584,-15.154994,0.0,0.0,0.0,0.0,0.0,0.0,0.0,-10.715086,-127.41739,4.8435163,0.0,0.0,0.0,0.0,0.0,0.0,0.0,0.6044366,-0.060121782,0.79458505,-0.99957275,0.070617676,-0.03955078,0.0703125,-0.091796875,-0.12011719,6.671356,12.513714,-1.2447073,16.450375,-0.9609375,-0.1630249,-0.22723389,-0.037109375,0.038085938,0.037109375,15.393257,5.959095,-57.733578,20.44769,0.51293945,0.07849121,0.8552246,0.013671875,-0.018554688,0.0029296875,34.79661,12.8798485,-129.22742,15.294647,0.0,0.0,0.0,0.0,0.0,0.0,0.0,12.711189,-129.99928,35.281612,-0.973999,-0.11743164,0.0715332,-0.70214844,0.6982422,0.6845703,0.0,2.619453,44.909004,1.405408,
1.9531249708961698,100,-0.82336426,-0.2718506,0.43652344,0.01953125,0.024414062,0.001953125,0.0,0.0,0.0,0.0,0.0,0.0,0.0,0.0,0.0,0.0,0.0,-0.6057311,0.059748087,-0.7936458,-0.9378052,-0.016357422,-0.2290039,-0.060546875,0.029296875,0.029296875,4.1377263,-12.540512,1.2369705,-16.43093,-0.98535156,0.039733887,0.020507812,-0.0126953125,0.02734375,0.051757812,2.3671155,-12.646585,-55.765186,-15.621675,0.5411377,0.10736084,0.85595703,0.013671875,-0.001953125,0.00390625,51.53844,-10.798022,-127.752884,-15.136676,0.0,0.0,0.0,0.0,0.0,0.0,0.0,-10.755313,-127.43112,4.862689,0.0,0.0,0.0,0.0,0.0,0.0,0.0,0.6057311,-0.059748087,0.7936458,-0.9975586,0.07354736,-0.039489746,0.087890625,-0.08984375,-0.119140625,6.6364303,12.540512,-1.2369705,16.43093,-0.95184326,-0.16430664,-0.21032715,-0.037109375,0.038085938,0.037109375,15.402865,5.9787803,-57.723648,20.446405,0.50097656,0.07324219,0.86431885,-0.0048828125,0.0,0.001953125,34.781647,12.898899,-129.22194,15.306629,0.0,0.0,0.0,0.0,0.0,0.0,0.0,12.724316,-129.99829,35.293434,-0.95703125,-0.11077881,0.051574707,-0.5908203,0.67871094,0.6845703,0.0,2.6386144,44.90974,1.3670839,
1.9726562206051315,101,-0.8543091,-0.29736328,0.45581055,-0.017578125,-0.0126953125,0.0029296875,0.0,0.0,0.0,0.0,0.0,0.0,0.0,0.0,0.0,0.0,0.0,-0.60455596,0.059778925,-0.79450256,-0.9314575,0.013305664,-0.27630615,-0.00390625,0.06542969,0.029296875,4.1463323,-12.516184,1.2376091,-16.448666,-0.99694824,0.017578125,0.0064697266,-0.013671875,0.0087890625,0.013671875,2.3550954,-12.611717,-55.7636,-15.642628,0.5292969,0.12036133,0.847229,0.0126953125,0.0546875,-0.0146484375,51.4072,-10.7736,-127.75012,-15.176273,0.0,0.0,0.0,0.0,0.0,0.0,0.0,-10.7545805,-127.42607,4.8235188,0.0,0.0,0.0,0.0,0.0,0.0,0.0,0.60455596,-0.059778925,0.79450256,-0.98742676,0.061828613,-0.0635376,0.14355469,-0.048828125,-0.11816406,6.5534387,12.516184,-1.2376091,16.448666,-0.94970703,-0.14971924,-0.21398926,-0.037109375,0.01953125,0.018554688,15.303146,6.047616,-57.73638,20.412704,0.5062866,0.099975586,0.87615967,-0.0048828125,0.0,0.001953125,34.773994,12.977111,-129.23267,15.270649,0.0,0.0,0.0,0.0,0.0,0.0,0.0,12.797705,-130.00977,35.256123,-0.9684448,-0.084228516,0.056640625,-0.5332031,0.67871094,0.6464844,0.0,2.6360736,44.908405,1.373088,
1.9921874703140932,102,-0.83721924,-0.2915039,0.4366455,0.020507812,-0.0126953125,0.001953125,0.0,0.0,0.0,0.0,0.0,0.0,0.0,0.0,0.0,0.0,0.0,-0.60532,0.05987167,-0.7938301,-0.944397,0.019348145,-0.25427246,-0.060546875,0.06542969,0.029296875,4.1510997,-12.532001,1.2395291,-16.434744,-0.9958496,0.05621338,0.0017700195,-0.032226562,0.0087890625,0.013671875,2.3614032,-12.601255,-55.762398,-15.653329,0.52526855,0.12438965,0.8364868,0.013671875,-0.0029296875,-0.0146484375,51.395546,-10.714214,-127.75273,-15.203242,0.0,0.0,0.0,0.0,0.0,0.0,0.0,-10.717933,-127.42441,4.797263,0.0,0.0,0.0,0.0,0.0,0.0,0.0,0.60532,-0.05987167,0.7938301,-0.9874878,0.0803833,-0.036499023,0.08984375,-0.07324219,-0.12109375,6.4790187,12.532001,-1.2395291,16.434744,-0.96203613,-0.17663574,-0.22753906,-0.056640625,0.01953125,0.037109375,15.221557,6.139637,-57.75479,20.336374,0.49224854,0.09680176,0.880249,-0.0048828125,0.0,0.001953125,34.787846,13.095388,-129.24644,15.192139,0.0,0.0,0.0,0.0,0.0,0.0,0.0,12.909847,-130.02167,35.17825,-0.9605713,-0.08117676,0.032714844,-0.6464844,0.640625,0.6484375,0.0,2.6262863,44.905643,1.3842162,
2.011718720023055,103,-0.8685303,-0.26385498,0.44354248,9.765625E-4,-0.0126953125,0.001953125,0.0,0.0,0.0,0.0,0.0,0.0,0.0,0.0,0.0,0.0,0.0,-0.6048734,0.059689343,-0.79424316,-0.95977783,-0.0029907227,-0.26116943,-0.07910156,0.047851562,0.0107421875,4.1157546,-12.522755,1.2357545,-16.443296,-1.0134888,0.034729004,0.017456055,-0.030273438,0.083984375,-0.0048828125,2.3676114,-12.608001,-55.768536,-15.679442,0.53985596,0.15551758,0.8309326,0.013671875,-0.0029296875,-0.033203125,51.373344,-10.725255,-127.75554,-15.234799,0.0,0.0,0.0,0.0,0.0,0.0,0.0,-10.723537,-127.41482,4.764451,0.0,0.0,0.0,0.0,0.0,0.0,0.0,0.6048734,-0.059689343,0.79424316,-0.9985962,0.08831787,-0.026306152,0.06347656,-0.14257812,-0.11328125,6.5858555,12.522755,-1.2357545,16.443296,-0.9609375,-0.16333008,-0.20532227,-0.037109375,9.765625E-4,0.037109375,15.334816,6.0463533,-57.733612,20.413067,0.50531006,0.091918945,0.88220215,-0.00390625,0.018554688,0.001953125,34.714523,13.010232,-129.22716,15.272076,0.0,0.0,0.0,0.0,0.0,0.0,0.0,12.815395,-130.00212,35.258987,-0.95861816,-0.0791626,0.020812988,-0.7402344,0.7167969,0.72265625,0.0,2.6157448,44.908413,1.3829005,
2.0312499697320168,104,-0.868103,-0.307312,0.42523193,0.020507812,-0.03125,0.020507812,0.0,0.0,0.0,0.0,0.0,0.0,0.0,0.0,0.0,0.0,0.0,-0.60460675,0.059708826,-0.794403,-0.9649658,-0.018798828,-0.22961426,-0.041015625,0.029296875,0.029296875,4.1279655,-12.517234,1.2361579,-16.446606,-0.9990845,0.048034668,0.023498535,-0.0126953125,0.02734375,0.033203125,2.4012663,-12.610965,-55.769836,-15.639674,0.52783203,0.095947266,0.8390503,0.033203125,0.016601562,0.00390625,51.34042,-10.721301,-127.75679,-15.20535,0.0,0.0,0.0,0.0,0.0,0.0,0.0,-10.730793,-127.42645,4.7946615,0.0,0.0,0.0,0.0,0.0,0.0,0.0,0.60460675,-0.059708826,0.794403,-1.0056152,0.07171631,-0.05230713,0.06542969,-0.10644531,-0.13574219,6.617343,12.517234,-1.2361579,16.446606,-0.9619751,-0.1708374,-0.22741699,-0.07519531,0.01953125,0.037109375,15.31855,6.047325,-57.73769,20.414518,0.49017334,0.101867676,0.8722534,-0.0048828125,0.0,-0.016601562,34.677395,12.999259,-129.2312,15.277112,0.0,0.0,0.0,0.0,0.0,0.0,0.0,12.802057,-130.0103,35.263203,-0.944458,-0.12554932,0.0345459,-0.7216797,0.66015625,0.6855469,0.0,2.5919847,44.90768,1.4026304,
