TOTAL_TIME,0m40s
TOTAL_FRAMES,2067
SELECTED_FRAMES,2067
NO_OF_JOINTS,12
FREQUENCY,51.2
DESCRIPTION,Capture 23
TIME_STAMP,Oct 11, 2010

Time,Frame,Pelvis_accelX_Pelvis,Pelvis_accelY_Pelvis,Pelvis_accelZ_Pelvis,Pelvis_gyroX_Pelvis,Pelvis_gyroY_Pelvis,Pelvis_gyroZ_Pelvis,Pelvis_Joint angle_Pelvis,Pelvis_Relative pos X_Pelvis,Pelvis_Relative pos Y_Pelvis,Pelvis_Relative pos Z_Pelvis,RightPelvis_accelX_RightPelvis,RightPelvis_accelY_RightPelvis,RightPelvis_accelZ_RightPelvis,RightPelvis_gyroX_RightPelvis,RightPelvis_gyroY_RightPelvis,RightPelvis_gyroZ_RightPelvis,RightPelvis_Joint angle_RightPelvis,RightPelvis_Relative pos X_RightPelvis,RightPelvis_Relative pos Y_RightPelvis,RightPelvis_Relative pos Z_RightPelvis,RightUpLeg_accelX_RightUpLeg,RightUpLeg_accelY_RightUpLeg,RightUpLeg_accelZ_RightUpLeg,RightUpLeg_gyroX_RightUpLeg,RightUpLeg_gyroY_RightUpLeg,RightUpLeg_gyroZ_RightUpLeg,RightUpLeg_Joint angle_RightUpLeg,RightUpLeg_Relative pos X_RightUpLeg,RightUpLeg_Relative pos Y_RightUpLeg,RightUpLeg_Relative pos Z_RightUpLeg,RightLeg_accelX_RightLeg,RightLeg_accelY_RightLeg,RightLeg_accelZ_RightLeg,RightLeg_gyroX_RightLeg,RightLeg_gyroY_RightLeg,RightLeg_gyroZ_RightLeg,RightLeg_Joint angle_RightLeg,RightLeg_Relative pos X_RightLeg,RightLeg_Relative pos Y_RightLeg,RightLeg_Relative pos Z_RightLeg,RightFoot_accelX_RightFoot,RightFoot_accelY_RightFoot,RightFoot_accelZ_RightFoot,RightFoot_gyroX_RightFoot,RightFoot_gyroY_RightFoot,RightFoot_gyroZ_RightFoot,RightFoot_Joint angle_RightFoot,RightFoot_Relative pos X_RightFoot,RightFoot_Relative pos Y_RightFoot,RightFoot_Relative pos Z_RightFoot,RightFootEnd_accelX_RightFootEnd,RightFootEnd_accelY_RightFootEnd,RightFootEnd_accelZ_RightFootEnd,RightFootEnd_gyroX_RightFootEnd,RightFootEnd_gyroY_RightFootEnd,RightFootEnd_gyroZ_RightFootEnd,RightFootEnd_Joint angle_RightFootEnd,RightFootEnd_Relative pos X_RightFootEnd,RightFootEnd_Relative pos Y_RightFootEnd,RightFootEnd_Relative pos Z_RightFootEnd,LeftPelvis_accelX_LeftPelvis,LeftPelvis_accelY_LeftPelvis,LeftPelvis_accelZ_LeftPelvis,LeftPelvis_gyroX_LeftPelvis,LeftPelvis_gyroY_LeftPelvis,LeftPelvis_gyroZ_LeftPelvis,LeftPelvis_Joint angle_LeftPelvis,LeftPelvis_Relative pos X_LeftPelvis,LeftPelvis_Relative pos Y_LeftPelvis,LeftPelvis_Relative pos Z_LeftPelvis,LeftUpLeg_accelX_LeftUpLeg,LeftUpLeg_accelY_LeftUpLeg,LeftUpLeg_accelZ_LeftUpLeg,LeftUpLeg_gyroX_LeftUpLeg,LeftUpLeg_gyroY_LeftUpLeg,LeftUpLeg_gyroZ_LeftUpLeg,LeftUpLeg_Joint angle_LeftUpLeg,LeftUpLeg_Relative pos X_LeftUpLeg,LeftUpLeg_Relative pos Y_LeftUpLeg,LeftUpLeg_Relative pos Z_LeftUpLeg,LeftLeg_accelX_LeftLeg,LeftLeg_accelY_LeftLeg,LeftLeg_accelZ_LeftLeg,LeftLeg_gyroX_LeftLeg,LeftLeg_gyroY_LeftLeg,LeftLeg_gyroZ_LeftLeg,LeftLeg_Joint angle_LeftLeg,LeftLeg_Relative pos X_LeftLeg,LeftLeg_Relative pos Y_LeftLeg,LeftLeg_Relative pos Z_LeftLeg,LeftFoot_accelX_LeftFoot,LeftFoot_accelY_LeftFoot,LeftFoot_accelZ_LeftFoot,LeftFoot_gyroX_LeftFoot,LeftFoot_gyroY_LeftFoot,LeftFoot_gyroZ_LeftFoot,LeftFoot_Joint angle_LeftFoot,LeftFoot_Relative pos X_LeftFoot,LeftFoot_Relative pos Y_LeftFoot,LeftFoot_Relative pos Z_LeftFoot,LeftFootEnd_accelX_LeftFootEnd,LeftFootEnd_accelY_LeftFootEnd,LeftFootEnd_accelZ_LeftFootEnd,LeftFootEnd_gyroX_LeftFootEnd,LeftFootEnd_gyroY_LeftFootEnd,LeftFootEnd_gyroZ_LeftFootEnd,LeftFootEnd_Joint angle_LeftFootEnd,LeftFootEnd_Relative pos X_LeftFootEnd,LeftFootEnd_Relative pos Y_LeftFootEnd,LeftFootEnd_Relative pos Z_LeftFootEnd,Spine_accelX_Spine,Spine_accelY_Spine,Spine_accelZ_Spine,Spine_gyroX_Spine,Spine_gyroY_Spine,Spine_gyroZ_Spine,Spine_Joint angle_Spine,Spine_Relative pos X_Spine,Spine_Relative pos Y_Spine,Spine_Relative pos Z_Spine,
0.0,0,0.0,0.0,0.0,0.0,0.0,0.0,0.0,0.0,0.0,0.0,0.0,0.0,0.0,0.0,0.0,0.0,0.0,0.0,0.0,0.0,0.0,0.0,0.0,0.0,0.0,0.0,NaN,0.0,0.0,0.0,0.0,0.0,0.0,0.0,0.0,0.0,NaN,0.0,0.0,0.0,0.0,0.0,0.0,0.0,0.0,0.0,NaN,0.0,0.0,0.0,0.0,0.0,0.0,0.0,0.0,0.0,0.0,0.0,0.0,0.0,0.0,0.0,0.0,0.0,0.0,0.0,0.0,0.0,0.0,0.0,0.0,0.0,0.0,0.0,0.0,0.0,NaN,0.0,0.0,0.0,0.0,0.0,0.0,0.0,0.0,0.0,NaN,0.0,0.0,0.0,0.0,0.0,0.0,0.0,0.0,0.0,NaN,0.0,0.0,0.0,0.0,0.0,0.0,0.0,0.0,0.0,0.0,0.0,0.0,0.0,0.0,0.0,0.0,0.0,0.0,0.0,0.0,0.0,0.0,0.0,
0.0195312497089617,1,0.0,0.0,0.0,0.0,0.0,0.0,0.0,0.0,0.0,0.0,0.0,0.0,0.0,0.0,0.0,0.0,0.0,0.0,0.0,0.0,0.0,0.0,0.0,0.0,0.0,0.0,NaN,0.0,0.0,0.0,0.0,0.0,0.0,0.0,0.0,0.0,NaN,0.0,0.0,0.0,0.0,0.0,0.0,0.0,0.0,0.0,NaN,0.0,0.0,0.0,0.0,0.0,0.0,0.0,0.0,0.0,0.0,0.0,0.0,0.0,0.0,0.0,0.0,0.0,0.0,0.0,0.0,0.0,0.0,0.0,0.0,0.0,0.0,0.0,0.0,0.0,NaN,0.0,0.0,0.0,0.0,0.0,0.0,0.0,0.0,0.0,NaN,0.0,0.0,0.0,0.0,0.0,0.0,0.0,0.0,0.0,NaN,0.0,0.0,0.0,0.0,0.0,0.0,0.0,0.0,0.0,0.0,0.0,0.0,0.0,0.0,0.0,0.0,0.0,0.0,0.0,0.0,0.0,0.0,0.0,
0.0390624994179234,2,0.0,0.0,0.0,0.0,0.0,0.0,0.0,0.0,0.0,0.0,0.0,0.0,0.0,0.0,0.0,0.0,0.0,0.0,0.0,0.0,0.0,0.0,0.0,0.0,0.0,0.0,NaN,0.0,0.0,0.0,0.0,0.0,0.0,0.0,0.0,0.0,NaN,0.0,0.0,0.0,0.0,0.0,0.0,0.0,0.0,0.0,NaN,0.0,0.0,0.0,0.0,0.0,0.0,0.0,0.0,0.0,0.0,0.0,0.0,0.0,0.0,0.0,0.0,0.0,0.0,0.0,0.0,0.0,0.0,0.0,0.0,0.0,0.0,0.0,0.0,0.0,NaN,0.0,0.0,0.0,0.0,0.0,0.0,0.0,0.0,0.0,NaN,0.0,0.0,0.0,0.0,0.0,0.0,0.0,0.0,0.0,NaN,0.0,0.0,0.0,0.0,0.0,0.0,0.0,0.0,0.0,0.0,0.0,0.0,0.0,0.0,0.0,0.0,0.0,0.0,0.0,0.0,0.0,0.0,0.0,
0.0585937491268851,3,-0.8317871,-0.29614258,0.54260254,-0.0546875,-0.03125,-0.109375,0.0,0.0,0.0,0.0,0.0,0.0,0.0,0.0,0.0,0.0,0.0,0.27973574,-0.0165246,0.9600387,-0.92840576,0.01727295,-0.28912354,0.015625,0.046875,0.029296875,0.97638613,5.7913976,-0.34211046,19.875776,-0.979187,0.075927734,-0.030822754,0.032226562,0.28710938,-0.024414062,2.9832096,4.110344,-57.321762,19.228962,0.56292725,0.09350586,0.8203125,0.013671875,-0.021484375,0.0029296875,65.13975,-0.41365862,-129.15106,16.9342,0.0,0.0,0.0,0.0,0.0,0.0,0.0,16.559963,-129.28975,6.354063,0.0,0.0,0.0,0.0,0.0,0.0,0.0,-0.27973574,0.0165246,-0.9600387,0.0,0.0,0.0,0.0,0.0,0.0,NaN,-5.7913976,0.34211046,-19.875776,-0.98223877,-0.13653564,-0.14489746,0.041992188,1.2275391,0.6826172,NaN,-5.7913976,0.34211046,-19.875776,0.5064697,0.066711426,0.899292,0.484375,1.1523438,0.6230469,2.679565,-10.318447,-71.49245,-17.827345,0.0,0.0,0.0,0.0,0.0,0.0,0.0,9.647451,-72.58729,-18.285606,-0.9657593,-0.11114502,-0.07849121,-0.6142578,0.3876953,0.7089844,0.0,2.021118,44.9587,0.18493587,
0.0781249988358468,4,-0.84680176,-0.31378174,0.56951904,-0.055664062,0.025390625,-0.12695312,0.0,0.0,0.0,0.0,0.0,0.0,0.0,0.0,0.0,0.0,0.0,0.2787954,-0.014662478,0.9604048,-0.9208374,0.061523438,-0.3076172,-0.13574219,0.06640625,0.0107421875,0.9905132,5.7719283,-0.30355877,19.883356,-0.99768066,0.095825195,9.765625E-4,0.064453125,0.025390625,-0.0048828125,3.0861013,4.0437193,-57.282795,19.352364,0.55670166,0.07885742,0.8329468,-0.005859375,0.016601562,0.022460938,65.23806,-0.55479145,-129.10747,16.945183,0.0,0.0,0.0,0.0,0.0,0.0,0.0,16.419308,-129.25914,6.363799,0.0,0.0,0.0,0.0,0.0,0.0,0.0,-0.2787954,0.014662478,-0.9604048,0.0,0.0,0.0,0.0,0.0,0.0,NaN,-5.7719283,0.30355877,-19.883356,-0.97424316,-0.1104126,0.020080566,-0.015625,0.90527344,0.5830078,NaN,-5.7719283,0.30355877,-19.883356,0.49041748,0.054748535,0.83154297,0.2685547,0.60546875,0.30371094,4.0107827,-11.884681,-71.401764,-17.557371,0.0,0.0,0.0,0.0,0.0,0.0,0.0,8.090219,-72.36357,-17.92183,-0.9590454,-0.121032715,-0.08453369,-0.7246094,0.44726562,0.67089844,0.0,2.0670986,44.959606,0.08634043,
0.09765624854480849,5,-0.774292,-0.29840088,0.47094727,-0.055664062,0.024414062,-0.07128906,0.0,0.0,0.0,0.0,0.0,0.0,0.0,0.0,0.0,0.0,0.0,0.2759566,-0.012900028,0.9612053,-0.92492676,0.049621582,-0.27508545,-0.07910156,0.17480469,0.01171875,0.81781,5.7131567,-0.26707056,19.89993,-0.9834595,0.03564453,0.021484375,0.044921875,0.043945312,0.07128906,2.846132,3.7730172,-57.2373,19.467113,0.5588989,0.085510254,0.85272217,-0.005859375,-0.021484375,0.021484375,65.389786,-0.7354653,-129.07205,17.164114,0.0,0.0,0.0,0.0,0.0,0.0,0.0,16.241829,-129.22964,6.589797,0.0,0.0,0.0,0.0,0.0,0.0,0.0,-0.2759566,0.012900028,-0.9612053,-0.97717285,0.008178711,-0.18933105,0.17089844,0.24804688,-0.22753906,1.9753624,-5.7131567,0.26707056,-19.89993,-0.9659424,-0.12145996,-0.11767578,0.001953125,0.4345703,0.32910156,2.960947,-9.110476,-56.61062,-18.098125,0.48706055,0.06390381,0.87646484,-0.07910156,-0.020507812,-0.017578125,3.9590359,-16.100414,-128.23187,-15.410128,0.0,0.0,0.0,0.0,0.0,0.0,0.0,3.8649788,-129.222,-16.116348,-0.954895,-0.12243652,-0.05279541,-0.5361328,0.27539062,0.48535156,0.0,2.0795393,44.957195,0.00633204,
0.11718749825377019,6,-0.7850342,-0.3466797,0.49346924,-0.017578125,-0.049804688,-0.109375,0.0,0.0,0.0,0.0,0.0,0.0,0.0,0.0,0.0,0.0,0.0,0.27398235,-0.011194175,0.96183443,-0.9347534,0.06341553,-0.25305176,-0.15429688,0.13964844,0.048828125,0.7449358,5.672285,-0.23175415,19.912952,-0.9684448,0.06793213,0.013793945,0.044921875,0.043945312,0.08984375,2.718078,3.5958173,-57.204533,19.571384,0.57299805,0.09124756,0.8399658,-0.005859375,-0.021484375,0.021484375,65.562965,-0.9244268,-129.0437,17.436365,0.0,0.0,0.0,0.0,0.0,0.0,0.0,16.058014,-129.20525,6.868103,0.0,0.0,0.0,0.0,0.0,0.0,0.0,-0.27398235,0.011194175,-0.96183443,-0.9963379,0.025939941,-0.17694092,0.2578125,0.125,-0.19824219,1.7477567,-5.672285,0.23175415,-19.912952,-0.9762573,-0.15338135,-0.12640381,-0.018554688,-0.056640625,0.036132812,2.7824893,-9.264925,-56.64068,-18.340836,0.4902954,0.09069824,0.88427734,0.05078125,9.765625E-4,0.0029296875,3.74617,-16.236902,-128.2656,-15.659904,0.0,0.0,0.0,0.0,0.0,0.0,0.0,3.7235317,-129.27971,-16.457722,-0.9465332,-0.10205078,-0.059753418,-0.44433594,0.23632812,0.52246094,0.0,2.109925,44.957584,-0.077787995,
0.1367187479627319,7,-0.77923584,-0.31610107,0.49072266,0.09472656,-0.0126953125,9.765625E-4,0.0,0.0,0.0,0.0,0.0,0.0,0.0,0.0,0.0,0.0,0.0,0.27214274,-0.010491639,0.9623394,-0.92926025,0.030090332,-0.2979126,-0.2109375,0.06738281,0.048828125,0.6795497,5.634198,-0.21720944,19.92341,-0.9748535,0.05444336,0.0037841797,0.06542969,0.061523438,0.07128906,2.613518,3.5020533,-57.185303,19.660711,0.55163574,0.07507324,0.8319092,0.013671875,-0.041015625,0.0029296875,65.73143,-0.95035934,-129.03098,17.65786,0.0,0.0,0.0,0.0,0.0,0.0,0.0,16.037857,-129.19785,7.09923,0.0,0.0,0.0,0.0,0.0,0.0,0.0,-0.27214274,0.010491639,-0.9623394,-0.9701538,0.016967773,-0.18920898,0.6699219,0.20117188,-0.09375,1.6522084,-5.634198,0.21720944,-19.92341,-0.99450684,-0.14459229,-0.11517334,9.765625E-4,-0.056640625,0.055664062,2.5493705,-9.362492,-56.652317,-18.525032,0.50128174,0.07281494,0.8862915,0.032226562,9.765625E-4,-0.016601562,3.5736337,-16.169188,-128.293,-15.897547,0.0,0.0,0.0,0.0,0.0,0.0,0.0,3.791256,-129.30453,-16.687626,-0.9451904,-0.08343506,-0.066711426,-0.36816406,0.25585938,0.4658203,0.0,2.1137803,44.956257,-0.107638955,
0.1562499976716936,8,-0.74920654,-0.32495117,0.5078125,0.13183594,-0.0126953125,-0.037109375,0.0,0.0,0.0,0.0,0.0,0.0,0.0,0.0,0.0,0.0,0.0,0.27149943,-0.011053709,0.9625094,-0.9525757,0.009887695,-0.30163574,-0.24902344,0.103515625,0.01171875,0.5760729,5.620881,-0.22884607,19.92693,-0.9666748,0.059265137,-0.0040893555,0.06542969,0.061523438,0.07128906,2.544452,3.4148772,-57.19832,19.715353,0.55877686,0.07672119,0.8555298,-0.005859375,-0.021484375,0.0029296875,65.79857,-1.0583317,-129.04427,17.831177,0.0,0.0,0.0,0.0,0.0,0.0,0.0,15.942828,-129.21779,7.295246,0.0,0.0,0.0,0.0,0.0,0.0,0.0,-0.27149943,0.011053709,-0.9625094,-0.9692993,0.05834961,-0.17852783,1.0361328,0.39746094,-0.07910156,1.8991917,-5.620881,0.22884607,-19.92693,-0.97003174,-0.17590332,-0.28430176,0.020507812,-0.055664062,0.036132812,2.1270688,-9.719275,-56.619728,-18.5733,0.49188232,0.10784912,0.70843506,0.03125,-0.017578125,-0.03515625,3.615305,-16.434029,-128.24326,-15.999643,0.0,0.0,0.0,0.0,0.0,0.0,0.0,3.5267296,-129.26262,-16.801964,-0.9393921,-0.09240723,-0.059814453,-0.5371094,0.31347656,0.5410156,0.0,2.1194015,44.955807,-0.081544906,
0.1757812473806553,9,-0.7994385,-0.28948975,0.4794922,0.16992188,-0.0126953125,-9.765625E-4,0.0,0.0,0.0,0.0,0.0,0.0,0.0,0.0,0.0,0.0,0.0,0.27243719,-0.012181023,0.96216327,-0.90753174,0.0029907227,-0.27575684,-0.060546875,0.12011719,0.06640625,0.56613684,5.6402946,-0.252185,19.919764,-0.9975586,0.09906006,-0.014831543,0.026367188,0.06347656,0.08984375,2.5049906,3.4280615,-57.216885,19.646748,0.5778198,0.08050537,0.82507324,-0.005859375,-0.041015625,0.021484375,65.7798,-1.0584297,-129.06291,17.793503,0.0,0.0,0.0,0.0,0.0,0.0,0.0,15.952127,-129.23941,7.2725544,0.0,0.0,0.0,0.0,0.0,0.0,0.0,-0.27243719,0.012181023,-0.96216327,-0.99975586,0.123535156,-0.15325928,0.35351562,0.032226562,-0.13964844,2.0681949,-5.6402946,0.252185,-19.919764,-1.0462646,-0.11834717,-0.06573486,-0.018554688,-0.11328125,0.03515625,1.8113214,-9.883574,-56.580193,-18.546064,0.5,0.07421875,0.86431885,-0.0048828125,0.0,0.001953125,3.33425,-16.332626,-128.2431,-15.871361,0.0,0.0,0.0,0.0,0.0,0.0,0.0,3.632761,-129.25769,-16.57222,-0.9324341,-0.097595215,-0.045959473,-0.6298828,0.3330078,0.5410156,0.0,2.116936,44.953064,-0.030304372,
0.19531249708961698,10,-0.7805786,-0.2952881,0.5256958,0.16894531,0.04296875,-0.018554688,0.0,0.0,0.0,0.0,0.0,0.0,0.0,0.0,0.0,0.0,0.0,0.2701211,-0.013573727,0.9628511,-0.92456055,0.005432129,-0.3060913,-0.041015625,0.13867188,0.06640625,0.46267125,5.5923448,-0.28101823,19.934004,-0.98217773,0.07659912,-0.005004883,0.026367188,0.06347656,0.08984375,2.3451014,3.2849083,-57.2412,19.563105,0.559021,0.097473145,0.8262329,0.013671875,-0.059570312,0.0029296875,65.860466,-1.221384,-129.08917,17.814714,0.0,0.0,0.0,0.0,0.0,0.0,0.0,15.800516,-129.26358,7.3107157,0.0,0.0,0.0,0.0,0.0,0.0,0.0,-0.2701211,0.013573727,-0.9628511,-0.9846802,0.1295166,-0.18890381,0.3720703,0.111328125,-0.09863281,2.2106311,-5.5923448,0.28101823,-19.934004,-0.97509766,-0.12438965,-0.11175537,-0.056640625,-0.09472656,0.0546875,1.6488886,-9.836951,-56.554214,-18.486853,0.5029907,0.0703125,0.8633423,0.032226562,9.765625E-4,0.0029296875,3.057999,-16.063854,-128.24007,-15.71529,0.0,0.0,0.0,0.0,0.0,0.0,0.0,3.8991814,-129.26062,-16.470123,-0.94207764,-0.12854004,-0.05883789,-0.63183594,0.2939453,0.57910156,0.0,2.0895379,44.95666,0.047568202,
0.21484374679857868,11,-0.79260254,-0.3012085,0.5248413,0.16894531,0.04296875,0.0,0.0,0.0,0.0,0.0,0.0,0.0,0.0,0.0,0.0,0.0,0.0,0.2708494,-0.014857283,0.9626289,-0.9343262,0.02319336,-0.27319336,0.09082031,0.10058594,0.06640625,0.3134116,5.6074224,-0.30759186,19.929403,-0.9830322,0.08154297,-0.0020141602,0.0068359375,0.044921875,0.07128906,2.1963308,3.1765676,-57.266552,19.556509,0.5515137,0.06915283,0.83380127,-0.025390625,-0.001953125,0.041015625,65.95506,-1.3309655,-129.11745,17.912935,0.0,0.0,0.0,0.0,0.0,0.0,0.0,15.694757,-129.30222,7.4166203,0.0,0.0,0.0,0.0,0.0,0.0,0.0,-0.2708494,0.014857283,-0.9626289,-0.97546387,0.093933105,-0.17681885,0.3642578,0.09765625,-0.13085938,2.3733087,-5.6074224,0.30759186,-19.929403,-0.97320557,-0.13824463,-0.094177246,-0.037109375,-0.056640625,0.055664062,1.4144387,-9.981969,-56.51263,-18.476482,0.47698975,0.0748291,0.8724365,0.013671875,9.765625E-4,-0.016601562,2.8744652,-16.032173,-128.2153,-15.682699,0.0,0.0,0.0,0.0,0.0,0.0,0.0,3.9321098,-129.2341,-16.39645,-0.9421387,-0.12945557,-0.062805176,-0.6113281,0.38964844,0.5966797,0.0,2.079635,44.95707,0.10873562,
0.23437499650754037,12,-0.80877686,-0.28533936,0.5352783,0.13183594,0.005859375,-0.037109375,0.0,0.0,0.0,0.0,0.0,0.0,0.0,0.0,0.0,0.0,0.0,0.27200925,-0.0166042,0.96228427,-0.9417114,0.071777344,-0.30621338,0.052734375,0.046875,0.06640625,0.22555353,5.6314344,-0.3437584,19.922268,-0.97125244,0.10797119,-0.0067749023,0.026367188,0.044921875,0.051757812,2.150313,3.1647458,-57.298714,19.579346,0.5404053,0.06652832,0.822937,0.013671875,-0.041015625,0.021484375,65.965294,-1.3405356,-129.1492,18.00712,0.0,0.0,0.0,0.0,0.0,0.0,0.0,15.692551,-129.34595,7.522313,0.0,0.0,0.0,0.0,0.0,0.0,0.0,-0.27200925,0.0166042,-0.96228427,-0.9755249,0.107788086,-0.18249512,0.111328125,-0.017578125,-0.14355469,2.4280157,-5.6314344,0.3437584,-19.922268,-0.9871826,-0.06719971,0.0021362305,-0.017578125,0.01953125,0.037109375,1.2979965,-10.002283,-56.479687,-18.45086,0.5409546,0.031311035,1.0010986,-0.00390625,0.037109375,0.001953125,2.586718,-15.8177395,-128.18974,-15.553057,0.0,0.0,0.0,0.0,0.0,0.0,0.0,4.1430435,-129.21179,-16.319809,-0.91656494,-0.1586914,-0.028259277,-0.5546875,0.390625,0.55859375,0.0,2.1006026,44.95634,0.18194276,
0.2539062462165021,13,-0.7977295,-0.27557373,0.51135254,0.09472656,0.024414062,9.765625E-4,0.0,0.0,0.0,0.0,0.0,0.0,0.0,0.0,0.0,0.0,0.0,0.27034384,-0.017097002,0.9627175,-0.9244385,0.08917236,-0.3112793,-0.060546875,0.06542969,0.047851562,0.17804115,5.596955,-0.35396093,19.931234,-0.9840698,0.08129883,0.014831543,0.025390625,0.0068359375,0.07128906,2.1353338,3.1067374,-57.306168,19.729088,0.5566406,0.07702637,0.8190918,0.013671875,-0.021484375,0.021484375,66.03997,-1.3584516,-129.16547,18.246418,0.0,0.0,0.0,0.0,0.0,0.0,0.0,15.684647,-129.37096,7.779791,0.0,0.0,0.0,0.0,0.0,0.0,0.0,-0.27034384,0.017097002,-0.9627175,-0.9642334,0.0635376,-0.22497559,0.29296875,0.091796875,-0.15527344,2.4659302,-5.596955,0.35396093,-19.931234,-0.9904785,-0.14178467,-0.11016846,-0.037109375,-0.07519531,0.036132812,1.2448981,-10.005899,-56.46818,-18.484373,0.5064087,0.06781006,0.89227295,-0.0048828125,-0.018554688,-0.03515625,2.4988885,-15.71228,-128.19147,-15.53434,0.0,0.0,0.0,0.0,0.0,0.0,0.0,4.2456646,-129.2206,-16.370327,-0.92523193,-0.13787842,-0.042053223,-0.53515625,0.4296875,0.5390625,0.0,2.0969012,44.9552,0.2095266,
0.2734374959254638,14,-0.7967529,-0.27160645,0.5133667,0.056640625,0.024414062,0.001953125,0.0,0.0,0.0,0.0,0.0,0.0,0.0,0.0,0.0,0.0,0.0,0.2699201,-0.018155748,0.96281236,-0.93084717,0.064819336,-0.33117676,-0.041015625,0.06542969,0.06640625,0.25640866,5.5881834,-0.37588027,19.9332,-0.97857666,0.062805176,-0.015991211,0.026367188,0.044921875,0.07128906,2.0940566,3.0418496,-57.330452,19.826958,0.52526855,0.06188965,0.82580566,-0.005859375,-0.001953125,0.022460938,66.15384,-1.3639684,-129.1915,18.354546,0.0,0.0,0.0,0.0,0.0,0.0,0.0,15.687763,-129.40837,7.9001064,0.0,0.0,0.0,0.0,0.0,0.0,0.0,-0.2699201,0.018155748,-0.96281236,-0.9793701,0.06347656,-0.19812012,0.16503906,0.025390625,-0.16113281,2.4848285,-5.5881834,0.37588027,-19.9332,-0.9914551,-0.13677979,-0.11602783,-0.037109375,-0.09472656,0.036132812,1.1803488,-10.083036,-56.443268,-18.581722,0.4841919,0.06976318,0.8824463,-0.00390625,0.056640625,-0.017578125,2.411109,-15.639708,-128.1818,-15.629699,0.0,0.0,0.0,0.0,0.0,0.0,0.0,4.3180714,-129.21101,-16.499205,-0.9415283,-0.15710449,-0.03503418,-0.49902344,0.4091797,0.5761719,0.0,2.1155813,44.953896,0.25460172,
0.2929687456344255,15,-0.83807373,-0.2664795,0.55596924,0.095703125,-0.049804688,-0.037109375,0.0,0.0,0.0,0.0,0.0,0.0,0.0,0.0,0.0,0.0,0.0,0.26756525,-0.018619705,0.9634572,-0.914978,0.044433594,-0.26739502,-0.1171875,0.047851562,0.047851562,0.32020557,5.53943,-0.38548556,19.94655,-0.9661865,0.0769043,0.0068969727,0.005859375,0.026367188,0.051757812,2.0712209,2.9646497,-57.3344,19.891584,0.5769043,0.084350586,0.8399048,0.013671875,-0.021484375,0.040039062,66.20969,-1.4053531,-129.19875,18.43195,0.0,0.0,0.0,0.0,0.0,0.0,0.0,15.650881,-129.42078,7.9851627,0.0,0.0,0.0,0.0,0.0,0.0,0.0,-0.26756525,0.018619705,-0.9634572,-0.9804077,0.0736084,-0.2444458,0.10058594,0.03125,-0.15234375,2.4988885,-5.53943,0.38548556,-19.94655,-0.98431396,-0.122680664,-0.08380127,-0.018554688,-0.07519531,0.055664062,1.1735319,-10.065208,-56.42697,-18.64798,0.5255127,0.063964844,0.8961792,0.0146484375,0.01953125,0.001953125,2.3568401,-15.461497,-128.17346,-15.646597,0.0,0.0,0.0,0.0,0.0,0.0,0.0,4.49154,-129.20677,-16.605343,-0.9532471,-0.15216064,-0.013061523,-0.5185547,0.42773438,0.63183594,0.0,2.1124704,44.95373,0.2821105,
0.3124999953433872,16,-0.79156494,-0.3237915,0.55340576,0.020507812,-0.049804688,-0.07324219,0.0,0.0,0.0,0.0,0.0,0.0,0.0,0.0,0.0,0.0,0.0,0.26821664,-0.0190324,0.96329606,-0.9226074,0.0045776367,-0.3269043,-0.060546875,0.06542969,0.047851562,0.34548426,5.5529165,-0.39402968,19.943216,-0.97753906,0.099975586,0.010009766,0.005859375,0.026367188,0.07128906,2.07141,2.9842825,-57.342255,19.888617,0.572876,0.07739258,0.8585205,0.013671875,-0.021484375,0.0029296875,66.18999,-1.3861666,-129.20847,18.441994,0.0,0.0,0.0,0.0,0.0,0.0,0.0,15.677783,-129.4364,8.009014,0.0,0.0,0.0,0.0,0.0,0.0,0.0,-0.26821664,0.0190324,-0.96329606,-0.9612427,0.068359375,-0.2140503,0.20410156,0.17871094,-0.16210938,2.5979686,-5.5529165,0.39402968,-19.943216,-0.9334717,-0.15948486,-0.222229,-0.018554688,-0.056640625,0.09375,1.1343594,-10.234088,-56.40722,-18.668886,0.5132446,0.024230957,0.605896,0.049804688,-0.036132812,-0.03515625,2.2665858,-15.546762,-128.13995,-15.641197,0.0,0.0,0.0,0.0,0.0,0.0,0.0,4.4034424,-129.18028,-16.653458,-0.927063,-0.14318848,0.0026245117,-0.46191406,0.44726562,0.59375,0.0,2.1281738,44.95412,0.29562378,
0.3320312450523489,17,-0.8053589,-0.32684326,0.5149536,0.095703125,-0.08691406,-0.055664062,0.0,0.0,0.0,0.0,0.0,0.0,0.0,0.0,0.0,0.0,0.0,0.26709512,-0.019309416,0.963613,-0.9124756,0.009216309,-0.3102417,-0.041015625,0.1015625,0.047851562,0.3019647,5.529697,-0.39976484,19.949776,-0.99035645,0.07019043,-0.020935059,0.005859375,0.026367188,0.051757812,1.913564,2.7869453,-57.343998,19.858706,0.5415039,0.064208984,0.8682251,0.033203125,-0.021484375,0.0029296875,66.231125,-1.5901055,-129.20543,18.407797,0.0,0.0,0.0,0.0,0.0,0.0,0.0,15.469841,-129.45197,7.969098,0.0,0.0,0.0,0.0,0.0,0.0,0.0,-0.26709512,0.019309416,-0.963613,-0.9804077,0.07727051,-0.19091797,0.25390625,0.034179688,-0.13476562,2.6723232,-5.529697,0.39976484,-19.949776,-0.9782715,-0.12683105,-0.067993164,-0.018554688,-0.056640625,0.036132812,1.1253533,-10.325527,-56.395416,-18.698212,0.5132446,0.024230957,0.605896,0.049804688,-0.036132812,-0.03515625,2.2841337,-15.491416,-128.1566,-15.654203,0.0,0.0,0.0,0.0,0.0,0.0,0.0,4.458789,-129.19693,-16.666466,-0.9304199,-0.11090088,0.0036621094,-0.4794922,0.46679688,0.59375,0.0,2.1391225,44.953983,0.3078894,
0.3515624947613106,18,-0.8045654,-0.31884766,0.5467529,0.1328125,-0.03125,-0.07519531,0.0,0.0,0.0,0.0,0.0,0.0,0.0,0.0,0.0,0.0,0.0,0.26707098,-0.019558934,0.96360487,-0.93896484,-0.021972656,-0.28637695,-0.09765625,0.06640625,0.06640625,0.26906916,5.529197,-0.40493056,19.949608,-0.97546387,0.06665039,-0.014953613,0.0068359375,0.026367188,0.033203125,1.8415378,2.7264497,-57.3417,19.8155,0.55352783,0.07116699,0.8249512,0.013671875,-0.001953125,0.00390625,66.27221,-1.6536291,-129.20384,18.365067,0.0,0.0,0.0,0.0,0.0,0.0,0.0,15.408806,-129.46454,7.9305525,0.0,0.0,0.0,0.0,0.0,0.0,0.0,-0.26707098,0.019558934,-0.96360487,-0.98742676,0.05883789,-0.2446289,0.125,-0.068359375,-0.1171875,2.5864913,-5.529197,0.40493056,-19.949608,-0.9935303,-0.14007568,-0.08721924,9.765625E-4,-0.09375,0.0546875,1.1733651,-10.283525,-56.391323,-18.747486,0.48236084,0.083496094,0.8933716,-0.0048828125,-0.038085938,0.021484375,2.6284542,-15.30867,-128.15955,-15.69953,0.0,0.0,0.0,0.0,0.0,0.0,0.0,4.6301537,-129.20837,-16.880426,-0.93237305,-0.10681152,-0.0072631836,-0.49804688,0.52441406,0.6113281,0.0,2.1650262,44.952293,0.31237203,
0.37109374447027227,19,-0.8026123,-0.2972412,0.52612305,0.057617188,0.005859375,-0.036132812,0.0,0.0,0.0,0.0,0.0,0.0,0.0,0.0,0.0,0.0,0.0,0.26919937,-0.020032112,0.96305263,-0.9312744,0.02722168,-0.30578613,0.0146484375,0.029296875,0.06640625,0.29475057,5.573262,-0.4147268,19.938173,-0.977417,0.10058594,-0.027648926,0.005859375,0.0078125,0.033203125,1.8682313,2.8137999,-57.357307,19.81875,0.5533447,0.059509277,0.8149414,0.013671875,0.016601562,-0.0146484375,66.40795,-1.56006,-129.2239,18.398535,0.0,0.0,0.0,0.0,0.0,0.0,0.0,15.484777,-129.50052,7.933031,0.0,0.0,0.0,0.0,0.0,0.0,0.0,-0.26919937,0.020032112,-0.96305263,-0.96624756,0.05859375,-0.22406006,0.3671875,0.115234375,-0.13378906,2.6571178,-5.573262,0.4147268,-19.938173,-0.979126,-0.1126709,-0.11053467,0.020507812,-0.09472656,0.07421875,1.289071,-10.473087,-56.373566,-18.799362,0.48223877,0.05255127,0.89349365,-0.00390625,0.018554688,0.021484375,2.5914812,-15.328013,-128.15651,-15.725371,0.0,0.0,0.0,0.0,0.0,0.0,0.0,4.6129885,-129.20805,-16.899033,-0.9364624,-0.10961914,-0.011169434,-0.62890625,0.6015625,0.6669922,0.0,2.1821413,44.953545,0.32509458,
0.39062499417923396,20,-0.79870605,-0.27752686,0.5153198,0.11328125,-0.0126953125,-0.07421875,0.0,0.0,0.0,0.0,0.0,0.0,0.0,0.0,0.0,0.0,0.0,0.26898637,-0.020610906,0.96306884,-0.93603516,0.04901123,-0.305542,-0.022460938,0.029296875,0.103515625,0.38257298,5.5688515,-0.42670965,19.938509,-1.0062256,0.076293945,0.0038452148,-0.013671875,0.0087890625,0.033203125,1.8696972,2.8338194,-57.369587,19.874056,0.5507202,0.079833984,0.8467407,0.013671875,-0.021484375,-0.015625,66.405205,-1.5021305,-129.23975,18.5122,0.0,0.0,0.0,0.0,0.0,0.0,0.0,15.555918,-129.52452,8.068485,0.0,0.0,0.0,0.0,0.0,0.0,0.0,-0.26898637,0.020610906,-0.96306884,-0.96533203,0.07330322,-0.2109375,0.4345703,0.068359375,-0.08496094,2.6474497,-5.5688515,0.42670965,-19.938509,-0.98114014,-0.10992432,-0.09649658,0.020507812,-0.09472656,0.07421875,1.4242278,-10.4975395,-56.35697,-18.869333,0.5020752,0.076171875,0.86932373,-0.022460938,0.037109375,0.020507812,2.607069,-15.246435,-128.1431,-15.744021,0.0,0.0,0.0,0.0,0.0,0.0,0.0,4.6921825,-129.19965,-16.952896,-0.9378052,-0.13116455,7.324219E-4,-0.59277344,0.5625,0.68652344,0.0,2.1927962,44.951492,0.34956867,
0.41015624388819566,21,-0.833374,-0.31695557,0.50372314,0.13183594,0.005859375,-0.11230469,0.0,0.0,0.0,0.0,0.0,0.0,0.0,0.0,0.0,0.0,0.0,0.26892674,-0.020251628,0.9631162,-0.9239502,0.049621582,-0.28198242,0.07128906,0.028320312,0.103515625,0.4861804,5.5676165,-0.41927147,19.939491,-1.0062256,0.076293945,0.0038452148,-0.013671875,0.0087890625,0.033203125,1.9505366,2.8391097,-57.360588,19.995783,0.5606079,0.07299805,0.8220215,-0.005859375,-0.001953125,0.00390625,66.30781,-1.4968402,-129.23074,18.633926,0.0,0.0,0.0,0.0,0.0,0.0,0.0,15.578317,-129.51982,8.219334,0.0,0.0,0.0,0.0,0.0,0.0,0.0,-0.26892674,0.020251628,-0.9631162,-0.9683838,0.08532715,-0.23736572,0.17480469,0.036132812,-0.11035156,2.7089887,-5.5676165,0.41927147,-19.939491,-0.97302246,-0.11175537,-0.11248779,0.0390625,-0.11328125,0.0546875,1.677831,-10.54657,-56.362885,-18.83973,0.5015869,0.07147217,0.9072876,-0.022460938,0.055664062,0.020507812,3.630492,-14.958182,-128.15916,-15.485612,0.0,0.0,0.0,0.0,0.0,0.0,0.0,4.9612665,-129.24059,-16.936779,-0.93499756,-0.13696289,-0.015197754,-0.5732422,0.6201172,0.6855469,0.0,2.1811574,44.953163,0.33620363,
0.42968749359715736,22,-0.80114746,-0.32696533,0.48114014,0.13183594,-0.0126953125,-0.09375,0.0,0.0,0.0,0.0,0.0,0.0,0.0,0.0,0.0,0.0,0.0,0.26596346,-0.019825347,0.9639361,-0.92352295,0.08203125,-0.2718506,0.034179688,0.046875,0.08496094,0.61833966,5.5062685,-0.41044614,19.956467,-0.9819946,0.08355713,-0.006958008,0.0068359375,0.044921875,0.033203125,1.9583472,2.7908514,-57.35141,20.164577,0.54589844,0.093688965,0.83703613,0.013671875,-0.001953125,0.00390625,66.4892,-1.423279,-129.22737,18.862938,0.0,0.0,0.0,0.0,0.0,0.0,0.0,15.665365,-129.52748,8.471752,0.0,0.0,0.0,0.0,0.0,0.0,0.0,-0.26596346,0.019825347,-0.9639361,-0.98236084,0.059692383,-0.2288208,0.005859375,-0.06640625,-0.13183594,2.7391686,-5.5062685,0.41044614,-19.956467,-0.9473877,-0.08972168,-0.18377686,0.01953125,-0.15136719,0.053710938,1.9124386,-10.537008,-56.362213,-18.831274,0.48095703,0.11004639,0.8562622,0.013671875,9.765625E-4,-0.016601562,3.4338758,-14.820782,-128.14787,-15.208246,0.0,0.0,0.0,0.0,0.0,0.0,0.0,5.104002,-129.223,-16.603176,-0.94989014,-0.13470459,-0.009094238,-0.53515625,0.63964844,0.703125,0.0,2.1956341,44.952084,0.31872684,
0.44921874330611905,23,-0.78552246,-0.28948975,0.4940796,0.09472656,0.024414062,-0.07421875,0.0,0.0,0.0,0.0,0.0,0.0,0.0,0.0,0.0,0.0,0.0,0.26097795,-0.020525929,0.9652459,-0.9291992,0.030822754,-0.24951172,-0.07910156,0.047851562,0.08496094,0.8040559,5.4030523,-0.4249504,19.983583,-0.99005127,0.08441162,0.01977539,0.025390625,0.026367188,0.033203125,2.0436347,2.7557657,-57.36838,20.308266,0.5482788,0.055541992,0.8326416,-0.005859375,0.016601562,0.00390625,66.6646,-1.3968141,-129.24826,19.030071,0.0,0.0,0.0,0.0,0.0,0.0,0.0,15.68297,-129.56789,8.623259,0.0,0.0,0.0,0.0,0.0,0.0,0.0,-0.26097795,0.020525929,-0.9652459,-0.958313,0.08325195,-0.22857666,0.16601562,-0.032226562,-0.1015625,2.844825,-5.4030523,0.4249504,-19.983583,-0.9813843,-0.15179443,-0.09442139,0.020507812,-0.09375,0.0546875,1.9690114,-10.457017,-56.34536,-18.834173,0.49725342,0.081848145,0.8812866,-0.005859375,-0.076171875,0.021484375,3.5454705,-14.556165,-128.15219,-15.215161,0.0,0.0,0.0,0.0,0.0,0.0,0.0,5.366233,-129.22656,-16.628555,-0.94732666,-0.10949707,0.0037841797,-0.51464844,0.67871094,0.6464844,0.0,2.162494,44.951664,0.37121278,
0.46874999301508075,24,-0.8123169,-0.30426025,0.47766113,0.09375,0.08105469,-0.0546875,0.0,0.0,0.0,0.0,0.0,0.0,0.0,0.0,0.0,0.0,0.0,0.25846577,-0.021505658,0.96594757,-0.9555054,0.01373291,-0.2699585,-0.060546875,-0.0068359375,0.06640625,0.94398284,5.351043,-0.44523385,19.998108,-0.9902954,0.07397461,-0.009033203,0.044921875,0.043945312,0.07128906,2.0943367,2.753806,-57.395443,20.381897,0.53430176,0.062683105,0.8248291,0.013671875,-0.001953125,0.00390625,66.923,-1.3453956,-129.27835,19.10381,0.0,0.0,0.0,0.0,0.0,0.0,0.0,15.708754,-129.61356,8.658058,0.0,0.0,0.0,0.0,0.0,0.0,0.0,-0.25846577,0.021505658,-0.96594757,-0.97143555,0.10192871,-0.20141602,0.23925781,0.029296875,-0.119140625,2.9928403,-5.351043,0.44523385,-19.998108,-1.0511475,-0.07104492,-0.025756836,0.0390625,0.01953125,0.056640625,2.088535,-10.42897,-56.328575,-18.802351,0.54211426,0.07946777,0.92993164,-0.059570312,0.03515625,0.0390625,3.539944,-14.379057,-128.13312,-15.0580845,0.0,0.0,0.0,0.0,0.0,0.0,0.0,5.5444393,-129.20659,-16.474155,-0.9519043,-0.087890625,8.544922E-4,-0.56933594,0.71875,0.60839844,0.0,2.11064,44.955605,0.43612272,
0.48828124272404244,25,-0.77679443,-0.27453613,0.534729,0.057617188,0.005859375,9.765625E-4,0.0,0.0,0.0,0.0,0.0,0.0,0.0,0.0,0.0,0.0,0.0,0.25818917,-0.022045735,0.96595585,-0.9359741,0.054138184,-0.34002686,0.034179688,0.06542969,0.08496094,1.0649595,5.345317,-0.4564151,19.99828,-0.9942627,0.10723877,-0.039611816,0.005859375,0.0078125,0.051757812,2.1389968,2.7289033,-57.402103,20.459738,0.5482788,0.05657959,0.8286743,-0.005859375,0.016601562,0.041015625,66.90807,-1.3493862,-129.2842,19.161068,0.0,0.0,0.0,0.0,0.0,0.0,0.0,15.712158,-129.6275,8.728519,0.0,0.0,0.0,0.0,0.0,0.0,0.0,-0.25818917,0.022045735,-0.96595585,-0.9683838,0.09509277,-0.2154541,0.17285156,0.018554688,-0.10839844,3.103623,-5.345317,0.4564151,-19.99828,-0.984375,-0.12579346,-0.064941406,9.765625E-4,-0.09375,0.0546875,2.2696064,-10.454383,-56.30799,-18.770784,0.48651123,0.086364746,0.9022827,-0.00390625,0.0,0.021484375,3.571277,-14.165613,-128.12201,-14.9044075,0.0,0.0,0.0,0.0,0.0,0.0,0.0,5.7595387,-129.18994,-16.283081,-0.96990967,-0.088378906,-0.00793457,-0.7578125,0.6796875,0.6484375,0.0,2.0725083,44.95469,0.47202986,
0.5078124924330042,26,-0.7838135,-0.27355957,0.5349121,0.095703125,-0.068359375,-0.055664062,0.0,0.0,0.0,0.0,0.0,0.0,0.0,0.0,0.0,0.0,0.0,0.25355756,-0.0230935,0.96717364,-0.9290161,0.047912598,-0.31652832,-0.060546875,0.083984375,0.047851562,1.1909118,5.2494283,-0.478107,20.023495,-0.9962158,0.077941895,0.00390625,0.025390625,0.025390625,0.07128906,2.0805545,2.516019,-57.416924,20.522144,0.53686523,0.095825195,0.83807373,-0.005859375,-0.07910156,0.021484375,66.928825,-1.5332787,-129.30038,19.21946,0.0,0.0,0.0,0.0,0.0,0.0,0.0,15.538255,-129.64598,8.801592,0.0,0.0,0.0,0.0,0.0,0.0,0.0,-0.25355756,0.0230935,-0.96717364,-0.9673462,0.07757568,-0.2652588,0.22851562,0.078125,-0.12695312,3.2713573,-5.2494283,0.478107,-20.023495,-0.98443604,-0.13671875,-0.04626465,9.765625E-4,-0.09472656,0.07421875,2.499672,-10.462832,-56.280945,-18.773739,0.5233154,0.060180664,0.8842163,-0.00390625,0.018554688,0.021484375,3.9091098,-13.933523,-128.09906,-14.8153105,0.0,0.0,0.0,0.0,0.0,0.0,0.0,5.9911766,-129.16798,-16.225271,-0.9660034,-0.09851074,0.016845703,-0.75878906,0.6982422,0.70410156,0.0,2.0510874,44.955658,0.53569996,
0.5273437421419659,27,-0.815979,-0.26757812,0.5475464,0.09472656,-0.0126953125,9.765625E-4,0.0,0.0,0.0,0.0,0.0,0.0,0.0,0.0,0.0,0.0,0.0,0.25132108,-0.023637645,0.9677969,-0.9078369,0.05432129,-0.30096436,-0.00390625,-0.0068359375,0.06640625,1.2797774,5.203125,-0.48937252,20.036396,-0.9918823,0.08782959,-0.005004883,-0.0126953125,0.045898438,0.051757812,2.1332247,2.4878879,-57.429535,20.583124,0.55773926,0.08294678,0.81225586,0.013671875,-0.0029296875,-0.0146484375,66.88766,-1.5538154,-129.31183,19.27075,0.0,0.0,0.0,0.0,0.0,0.0,0.0,15.538338,-129.66463,8.888447,0.0,0.0,0.0,0.0,0.0,0.0,0.0,-0.25132108,0.023637645,-0.9677969,-0.98150635,0.10076904,-0.1618042,0.21386719,0.07421875,-0.111328125,3.3976505,-5.203125,0.48937252,-20.036396,-0.98431396,-0.10852051,-0.047607422,0.020507812,-0.055664062,0.055664062,2.7271369,-10.520673,-56.252354,-18.779446,0.48510742,0.042785645,0.8835449,-0.0234375,-9.765625E-4,0.001953125,4.2747555,-13.807192,-128.07535,-14.717891,0.0,0.0,0.0,0.0,0.0,0.0,0.0,6.1142387,-129.14821,-16.154516,-0.9606323,-0.12677002,0.0029296875,-0.6669922,0.6386719,0.7421875,0.0,2.03971,44.95808,0.56838477,
0.5468749918509276,28,-0.8231201,-0.2694702,0.56951904,0.057617188,-0.0126953125,9.765625E-4,0.0,0.0,0.0,0.0,0.0,0.0,0.0,0.0,0.0,0.0,0.0,0.25030532,-0.024422457,0.9679789,-0.9307251,0.06744385,-0.27282715,0.034179688,0.0107421875,0.06640625,1.4417078,5.182096,-0.50562066,20.040165,-0.9974365,0.06903076,0.0048217773,0.005859375,0.026367188,0.051757812,2.2340577,2.4836636,-57.442886,20.702099,0.553833,0.09283447,0.8074951,-0.005859375,-0.001953125,0.022460938,66.92032,-1.579135,-129.32646,19.409433,0.0,0.0,0.0,0.0,0.0,0.0,0.0,15.5236025,-129.6867,9.043808,0.0,0.0,0.0,0.0,0.0,0.0,0.0,-0.25030532,0.024422457,-0.9679789,-0.9845581,0.09680176,-0.1529541,0.29785156,-0.06542969,-0.08105469,3.3720846,-5.182096,0.50562066,-20.040165,-1.0803833,-0.117370605,0.2901001,0.23144531,0.34375,0.041015625,2.9066331,-10.412175,-56.245106,-18.753878,0.5654907,0.08831787,0.73205566,0.06933594,0.001953125,0.0029296875,4.951872,-13.663225,-128.04016,-14.267428,0.0,0.0,0.0,0.0,0.0,0.0,0.0,6.228018,-129.1469,-15.923705,-0.9383545,-0.107666016,-0.004211426,-0.64746094,0.7167969,0.7402344,0.0,2.0409827,44.954834,0.6064582,
0.5664062415598893,29,-0.79071045,-0.28344727,0.52301025,-0.017578125,-0.03125,0.001953125,0.0,0.0,0.0,0.0,0.0,0.0,0.0,0.0,0.0,0.0,0.0,0.24951491,-0.024516542,0.96822375,-0.9290161,0.045898438,-0.3007202,-0.07910156,-0.0068359375,0.06640625,1.5079199,5.165732,-0.50756836,20.045233,-0.96984863,0.08905029,-0.001953125,-0.013671875,0.0087890625,0.033203125,2.2859323,2.4628189,-57.44315,20.768616,0.5540161,0.038879395,0.82647705,-0.025390625,0.016601562,0.022460938,66.888824,-1.6168921,-129.33232,19.481373,0.0,0.0,0.0,0.0,0.0,0.0,0.0,15.494795,-129.70224,9.129893,0.0,0.0,0.0,0.0,0.0,0.0,0.0,-0.24951491,0.024516542,-0.96822375,-0.9714966,0.111816406,-0.21313477,0.17871094,-0.044921875,-0.11425781,3.3519359,-5.165732,0.50756836,-20.045233,-1.019043,-0.13800049,0.008544922,-0.037109375,0.01953125,0.056640625,2.960418,-10.342251,-56.250076,-18.7154,0.4888916,0.04711914,0.8665161,-0.022460938,0.017578125,0.020507812,5.1688833,-13.481475,-128.0434,-14.118052,0.0,0.0,0.0,0.0,0.0,0.0,0.0,6.418334,-129.15231,-15.803725,-0.972229,-0.10797119,0.005004883,-0.6845703,0.7158203,0.75878906,0.0,2.0489225,44.956306,0.61033034,
0.585937491268851,30,-0.7764282,-0.30718994,0.51257324,-0.0546875,-0.0126953125,0.0029296875,0.0,0.0,0.0,0.0,0.0,0.0,0.0,0.0,0.0,0.0,0.0,0.24789175,-0.02342014,0.96858966,-0.9277344,0.06750488,-0.29858398,-0.17382812,0.06738281,0.048828125,1.5570828,5.132128,-0.48486948,20.052809,-0.98413086,0.07965088,-0.005004883,0.005859375,-0.0107421875,0.033203125,2.3203497,2.4101942,-57.419525,20.891771,0.5314331,0.06958008,0.8308716,-0.005859375,0.036132812,0.00390625,66.95602,-1.6505053,-129.30698,19.67001,0.0,0.0,0.0,0.0,0.0,0.0,0.0,15.459486,-129.68748,9.314112,0.0,0.0,0.0,0.0,0.0,0.0,0.0,-0.24789175,0.02342014,-0.96858966,-0.97753906,0.11883545,-0.22479248,0.059570312,-0.0625,-0.109375,3.3789868,-5.132128,0.48486948,-20.052809,-0.99243164,-0.105651855,-0.034606934,0.020507812,-0.017578125,0.037109375,3.0058937,-10.348795,-56.27073,-18.634495,0.47869873,0.04522705,0.85461426,0.013671875,0.0,0.0029296875,5.8109236,-13.346156,-128.07443,-14.017107,0.0,0.0,0.0,0.0,0.0,0.0,0.0,6.5461817,-129.18611,-15.781277,-0.96875,-0.13446045,0.00592041,-0.8330078,0.67871094,0.7050781,0.0,2.0671687,44.95274,0.5578889,
0.6054687409778127,31,-0.7915039,-0.3012085,0.51690674,0.01953125,0.061523438,0.040039062,0.0,0.0,0.0,0.0,0.0,0.0,0.0,0.0,0.0,0.0,0.0,0.24536547,-0.02160175,0.969356,-0.92370605,0.070251465,-0.28082275,-0.13574219,0.01171875,0.047851562,1.5929905,5.079827,-0.44722316,20.068676,-0.97216797,0.110961914,-0.008728027,-0.013671875,0.02734375,0.07128906,2.3345616,2.324679,-57.38572,21.001146,0.5786133,0.064819336,0.82684326,-0.025390625,-0.001953125,0.00390625,66.97654,-1.7302828,-129.2717,19.84962,0.0,0.0,0.0,0.0,0.0,0.0,0.0,15.379371,-129.65573,9.495665,0.0,0.0,0.0,0.0,0.0,0.0,0.0,-0.24536547,0.02160175,-0.969356,-0.9755249,0.10687256,-0.20031738,0.15234375,-0.095703125,-0.12695312,3.3932106,-5.079827,0.44722316,-20.068676,-0.9863281,-0.11303711,-0.072631836,-0.037109375,0.038085938,0.056640625,2.992186,-10.224001,-56.308838,-18.598719,0.4901123,0.077941895,0.87335205,-0.0234375,-0.01953125,0.001953125,5.694228,-13.133942,-128.10889,-13.931213,0.0,0.0,0.0,0.0,0.0,0.0,0.0,6.766945,-129.21681,-15.619579,-0.9546509,-0.12390137,-0.008056641,-0.8515625,0.69921875,0.68652344,0.0,1.9824315,44.960785,0.5001374,
0.6249999906867744,32,-0.7928467,-0.28240967,0.5449219,-0.0546875,0.005859375,0.0029296875,0.0,0.0,0.0,0.0,0.0,0.0,0.0,0.0,0.0,0.0,0.0,0.24517208,-0.020956453,0.9693804,-0.9053955,0.085632324,-0.27404785,-0.09765625,-0.025390625,0.029296875,1.6582383,5.0758224,-0.43386352,20.06918,-1.0030518,0.08300781,0.010803223,-0.0146484375,-0.047851562,0.051757812,2.422932,2.3716002,-57.3652,21.118868,0.5272827,0.058776855,0.8395996,0.052734375,-0.021484375,-0.015625,66.94397,-1.6516991,-129.2564,20.008257,0.0,0.0,0.0,0.0,0.0,0.0,0.0,15.479176,-129.64632,9.6883545,0.0,0.0,0.0,0.0,0.0,0.0,0.0,-0.24517208,0.020956453,-0.9693804,-0.9594116,0.11279297,-0.22210693,-0.203125,-0.20800781,-0.15234375,3.2812767,-5.0758224,0.43386352,-20.06918,-0.9923706,-0.11206055,-0.06964111,-0.017578125,0.01953125,0.056640625,2.8988104,-10.084138,-56.332733,-18.541021,0.49926758,0.071899414,0.8833008,-0.0234375,0.018554688,-0.016601562,5.828101,-12.947594,-128.13138,-13.836789,0.0,0.0,0.0,0.0,0.0,0.0,0.0,6.9443436,-129.2456,-15.607911,-0.98028564,-0.10461426,-0.018798828,-0.72265625,0.6591797,0.7236328,0.0,1.9988372,44.95873,0.46639717,
0.6445312403957361,33,-0.7928467,-0.28240967,0.5449219,-0.0546875,0.005859375,0.0029296875,0.0,0.0,0.0,0.0,0.0,0.0,0.0,0.0,0.0,0.0,0.0,0.24517208,-0.020956453,0.9693804,-0.92004395,0.0446167,-0.28607178,-0.07910156,0.06640625,0.047851562,1.7023787,5.0758224,-0.43386352,20.06918,-1.001709,0.0947876,0.014892578,0.0068359375,0.026367188,0.033203125,2.4580598,2.4010105,-57.372078,21.166172,0.574646,0.06982422,0.82592773,-0.025390625,-0.021484375,0.021484375,67.01455,-1.639389,-129.2626,20.100824,0.0,0.0,0.0,0.0,0.0,0.0,0.0,15.47818,-129.6643,9.76169,0.0,0.0,0.0,0.0,0.0,0.0,0.0,-0.24517208,0.020956453,-0.9693804,-0.9512329,0.078430176,-0.25250244,0.087890625,-0.0703125,-0.13867188,3.2411153,-5.0758224,0.43386352,-20.06918,-0.986145,-0.09625244,-0.095214844,9.765625E-4,0.01953125,0.037109375,2.872626,-10.004312,-56.34208,-18.50971,0.484375,0.07147217,0.89538574,-0.022460938,0.037109375,0.020507812,6.016856,-12.829915,-128.13962,-13.748173,0.0,0.0,0.0,0.0,0.0,0.0,0.0,7.0522604,-129.26155,-15.622634,-0.9650879,-0.095336914,-0.006958008,-0.7216797,0.7167969,0.74121094,0.0,1.9988372,44.95873,0.46639717,
0.6640624901046978,34,-0.80462646,-0.2824707,0.5074463,-0.017578125,-0.0126953125,0.040039062,0.0,0.0,0.0,0.0,0.0,0.0,0.0,0.0,0.0,0.0,0.0,0.23893556,-0.02034304,0.9709865,-0.9534302,0.02154541,-0.27191162,0.015625,0.046875,0.047851562,1.6631875,4.946706,-0.421164,20.10243,-0.9906616,0.060302734,-0.018066406,-0.013671875,-0.0107421875,0.051757812,2.389254,2.2073689,-57.35366,21.177753,0.5855713,0.05871582,0.84350586,0.013671875,-0.021484375,0.0029296875,67.051636,-1.8194957,-129.24857,20.127035,0.0,0.0,0.0,0.0,0.0,0.0,0.0,15.297977,-129.65924,9.787237,0.0,0.0,0.0,0.0,0.0,0.0,0.0,-0.23893556,0.02034304,-0.9709865,-0.9623413,0.08642578,-0.26611328,0.08984375,-0.07324219,-0.12109375,3.291999,-4.946706,0.421164,-20.10243,-0.98931885,-0.10614014,-0.07745361,-0.017578125,0.01953125,0.056640625,2.987013,-9.9599495,-56.348045,-18.527851,0.5031128,0.061157227,0.87335205,-0.0048828125,0.0,0.001953125,5.9920774,-12.716373,-128.14569,-13.71784,0.0,0.0,0.0,0.0,0.0,0.0,0.0,7.1671486,-129.2694,-15.590295,-0.960022,-0.10266113,0.028747559,-0.8339844,0.6591797,0.7246094,0.0,2.0071323,44.960163,0.44805068,
0.6835937398136595,35,-0.81536865,-0.31695557,0.5073242,-0.016601562,-0.03125,0.040039062,0.0,0.0,0.0,0.0,0.0,0.0,0.0,0.0,0.0,0.0,0.0,0.23627654,-0.01910406,0.97164,-0.9289551,0.051696777,-0.28686523,-0.1171875,0.01171875,0.06640625,1.6746789,4.8916574,-0.39551333,20.115961,-0.9977417,0.09387207,9.765625E-4,0.005859375,0.0078125,0.033203125,2.4166226,2.1836698,-57.327316,21.22464,0.5569458,0.08947754,0.8527832,0.013671875,-0.0029296875,-0.0146484375,67.037766,-1.8323376,-129.22269,20.196018,0.0,0.0,0.0,0.0,0.0,0.0,0.0,15.298621,-129.6392,9.878738,0.0,0.0,0.0,0.0,0.0,0.0,0.0,-0.23627654,0.01910406,-0.97164,-0.9703369,0.076416016,-0.22564697,-0.14355469,-0.03515625,-0.15429688,3.419363,-4.8916574,0.39551333,-20.115961,-0.9781494,-0.11779785,-0.08972168,0.020507812,0.0390625,0.037109375,3.0573585,-9.96842,-56.362644,-18.535778,0.4899292,0.061157227,0.8654785,-0.0048828125,0.0,0.001953125,5.7896347,-12.670395,-128.16132,-13.722555,0.0,0.0,0.0,0.0,0.0,0.0,0.0,7.2170105,-129.28194,-15.542973,-0.9614258,-0.117004395,0.00390625,-0.91015625,0.6777344,0.78027344,0.0,1.9085681,44.963757,0.41995037,
0.7031249895226211,36,-0.7966919,-0.2962036,0.5349121,-0.0546875,-0.05078125,0.05859375,0.0,0.0,0.0,0.0,0.0,0.0,0.0,0.0,0.0,0.0,0.0,0.23400551,-0.018032353,0.9721793,-0.923645,0.07336426,-0.30749512,-0.022460938,-0.0078125,0.0107421875,1.6895704,4.84464,-0.37332556,20.127125,-0.9873047,0.107299805,0.0060424805,-0.0126953125,0.02734375,0.033203125,2.4797819,2.1567175,-57.303204,21.309341,0.5585327,0.06817627,0.822937,0.013671875,-0.021484375,0.0029296875,67.11825,-1.8711407,-129.19534,20.304644,0.0,0.0,0.0,0.0,0.0,0.0,0.0,15.243604,-129.62462,9.961107,0.0,0.0,0.0,0.0,0.0,0.0,0.0,-0.23400551,0.018032353,-0.9721793,-0.95410156,0.049865723,-0.2678833,0.10058594,-0.10253906,-0.13183594,3.313753,-4.84464,0.37332556,-20.127125,-0.9884033,-0.1361084,-0.0970459,-0.017578125,9.765625E-4,0.037109375,3.108098,-9.877434,-56.3942,-18.611458,0.48901367,0.057006836,0.87145996,-0.0048828125,-0.018554688,0.0029296875,5.7269363,-12.534119,-128.19316,-13.776622,0.0,0.0,0.0,0.0,0.0,0.0,0.0,7.3507423,-129.31348,-15.627999,-0.9714966,-0.11663818,-0.010925293,-0.85253906,0.7363281,0.7607422,0.0,1.9043696,44.96299,0.375605,
0.7226562392315828,37,-0.8156738,-0.29327393,0.5234375,-0.0546875,-0.0126953125,0.021484375,0.0,0.0,0.0,0.0,0.0,0.0,0.0,0.0,0.0,0.0,0.0,0.23364699,-0.017820965,0.9723222,-0.90966797,0.06604004,-0.2781372,-0.13574219,0.030273438,0.029296875,1.7326874,4.837217,-0.36894923,20.130087,-1.0100098,0.08428955,0.007873535,-0.0126953125,0.02734375,0.013671875,2.479624,2.1267292,-57.303165,21.362598,0.5563965,0.060302734,0.83270264,0.033203125,0.016601562,0.00390625,67.037,-1.9269292,-129.19127,20.41955,0.0,0.0,0.0,0.0,0.0,0.0,0.0,15.199997,-129.62573,10.095255,0.0,0.0,0.0,0.0,0.0,0.0,0.0,-0.23364699,0.017820965,-0.9723222,-0.95825195,0.07946777,-0.26135254,0.23925781,0.029296875,-0.119140625,3.399494,-4.837217,0.36894923,-20.130087,-0.99139404,-0.11395264,-0.072631836,-0.017578125,9.765625E-4,0.037109375,3.221303,-9.980907,-56.38743,-18.614277,0.494812,0.070373535,0.85339355,0.013671875,9.765625E-4,-0.016601562,5.751934,-12.590586,-128.19148,-13.7717495,0.0,0.0,0.0,0.0,0.0,0.0,0.0,7.293789,-129.31366,-15.628997,-0.95526123,-0.113464355,0.022766113,-0.796875,0.7167969,0.7597656,0.0,1.9023217,44.965458,0.36701435,
0.7421874889405445,38,-0.80474854,-0.28533936,0.53125,-0.0546875,-0.0126953125,0.0029296875,0.0,0.0,0.0,0.0,0.0,0.0,0.0,0.0,0.0,0.0,0.0,0.22864655,-0.017880766,0.97351366,-0.9239502,0.051635742,-0.28985596,-0.19238281,0.06738281,0.048828125,1.8292757,4.7336917,-0.3701873,20.154753,-0.9793701,0.103393555,-0.01574707,-0.032226562,0.0087890625,0.033203125,2.51287,2.0233035,-57.300613,21.459356,0.5563965,0.060302734,0.83270264,0.033203125,0.016601562,0.00390625,67.04395,-2.0337682,-129.19418,20.563189,0.0,0.0,0.0,0.0,0.0,0.0,0.0,15.093159,-129.62865,10.2388935,0.0,0.0,0.0,0.0,0.0,0.0,0.0,-0.22864655,0.017880766,-0.97351366,-0.9694214,0.09313965,-0.21844482,0.09765625,-0.10058594,-0.14941406,3.404846,-4.7336917,0.3701873,-20.154753,-0.9833374,-0.12298584,-0.058898926,9.765625E-4,9.765625E-4,0.017578125,3.2905116,-9.870087,-56.39118,-18.674246,0.48895264,0.049072266,0.87054443,0.013671875,-0.018554688,-0.016601562,5.7364426,-12.429144,-128.19464,-13.791746,0.0,0.0,0.0,0.0,0.0,0.0,0.0,7.4556866,-129.3175,-15.636339,-0.9384155,-0.11566162,0.011657715,-0.81347656,0.7373047,0.70410156,0.0,1.8830674,44.966335,0.38363677,
0.7617187386495062,39,-0.79852295,-0.30810547,0.52093506,-0.09277344,0.024414062,0.041015625,0.0,0.0,0.0,0.0,0.0,0.0,0.0,0.0,0.0,0.0,0.0,0.22802955,-0.017632328,0.9735778,-0.9180298,0.041625977,-0.2861328,-0.13574219,0.06640625,0.048828125,1.8655057,4.720918,-0.36504385,20.156078,-0.9711304,0.11279297,1.8310547E-4,-0.0126953125,0.02734375,0.013671875,2.535204,2.0088825,-57.29483,21.508198,0.5505371,0.068115234,0.8446045,0.013671875,0.016601562,0.00390625,67.15446,-2.0677824,-129.18555,20.65172,0.0,0.0,0.0,0.0,0.0,0.0,0.0,15.03634,-129.65135,10.291766,0.0,0.0,0.0,0.0,0.0,0.0,0.0,-0.22802955,0.017632328,-0.9735778,-0.9674072,0.09716797,-0.23718262,0.078125,-0.119140625,-0.14941406,3.33378,-4.720918,0.36504385,-20.156078,-1.2677612,-0.65802,-1.0541382,0.13574219,0.34277344,0.060546875,3.52031,-9.747774,-56.405006,-18.638845,0.4855957,0.020141602,0.9246216,-0.0048828125,-0.018554688,0.0029296875,5.8650794,-12.180662,-128.16551,-13.299263,0.0,0.0,0.0,0.0,0.0,0.0,0.0,7.705858,-129.2948,-15.134666,-0.96258545,-0.122802734,9.1552734E-4,-0.8154297,0.7167969,0.7607422,0.0,1.8794776,44.96283,0.37410766,
0.7812499883584679,40,-0.80407715,-0.3505249,0.50671387,9.765625E-4,-0.0126953125,0.001953125,0.0,0.0,0.0,0.0,0.0,0.0,0.0,0.0,0.0,0.0,0.0,0.22561806,-0.016523879,0.97422725,-0.93603516,0.046813965,-0.2640381,-0.1171875,0.01171875,0.047851562,1.841219,4.670993,-0.34209555,20.169525,-0.9992676,0.074279785,-0.007080078,-0.0126953125,0.02734375,0.013671875,2.5646038,2.0210323,-57.273933,21.562471,0.5725708,0.06286621,0.8435669,-0.005859375,0.016601562,0.00390625,67.23802,-2.0462112,-129.1681,20.761143,0.0,0.0,0.0,0.0,0.0,0.0,0.0,15.056572,-129.63776,10.397673,0.0,0.0,0.0,0.0,0.0,0.0,0.0,-0.22561806,0.016523879,-0.97422725,-0.9723511,0.06744385,-0.21691895,0.15039062,-0.13183594,-0.10546875,3.2322843,-4.670993,0.34209555,-20.169525,-0.96307373,-0.112976074,-0.016845703,-0.07519531,0.17089844,0.0390625,3.3715622,-9.604926,-56.434532,-18.654213,0.5054321,0.045715332,0.89941406,-0.0234375,-0.01953125,-0.016601562,5.4905505,-12.163042,-128.19554,-13.353024,0.0,0.0,0.0,0.0,0.0,0.0,0.0,7.722418,-129.32007,-15.182736,-0.9376831,-0.12536621,0.0057373047,-0.7792969,0.7158203,0.79785156,0.0,1.8710434,44.96653,0.329369,
0.8007812380674296,41,-0.772583,-0.30316162,0.5303955,0.020507812,-0.0126953125,0.001953125,0.0,0.0,0.0,0.0,0.0,0.0,0.0,0.0,0.0,0.0,0.0,0.22481602,-0.015962519,0.97440976,-0.92071533,0.06530762,-0.28588867,-0.041015625,0.0107421875,0.029296875,1.8205895,4.6543884,-0.3304736,20.173304,-0.9852295,0.07556152,0.0068969727,0.005859375,0.0078125,0.0146484375,2.5746586,2.0291593,-57.257744,21.581448,0.5665283,0.05999756,0.8484497,0.013671875,-0.021484375,0.0029296875,67.331726,-1.9947388,-129.15198,20.777752,0.0,0.0,0.0,0.0,0.0,0.0,0.0,15.106973,-129.62895,10.413563,0.0,0.0,0.0,0.0,0.0,0.0,0.0,-0.22481602,0.015962519,-0.97440976,-0.9612427,0.061706543,-0.258667,0.040039062,-0.0625,-0.12890625,3.1642165,-4.6543884,0.3304736,-20.173304,-1.0025635,-0.10266113,-0.03253174,-0.017578125,0.076171875,0.038085938,3.349365,-9.540405,-56.445747,-18.670637,0.5111084,0.047180176,0.8773804,0.013671875,0.0,0.0029296875,5.732683,-12.054084,-128.2221,-13.407761,0.0,0.0,0.0,0.0,0.0,0.0,0.0,7.8287916,-129.35197,-15.267373,-0.96173096,-0.12768555,-0.005004883,-0.68652344,0.71484375,0.8339844,0.0,1.874048,44.96604,0.30424082,
0.8203124877763913,42,-0.7744751,-0.3071289,0.5204468,9.765625E-4,-0.0126953125,0.001953125,0.0,0.0,0.0,0.0,0.0,0.0,0.0,0.0,0.0,0.0,0.0,0.2253544,-0.015518417,0.9742837,-0.91589355,0.0524292,-0.28607178,-0.060546875,0.01171875,0.06640625,1.7939509,4.6655345,-0.32127935,20.170692,-0.9678345,0.088134766,-0.01184082,-0.03125,0.045898438,-0.0048828125,2.5567305,2.0678308,-57.256,21.598751,0.56781006,0.081604004,0.83099365,0.013671875,-0.021484375,-0.015625,67.37362,-1.920819,-129.15611,20.847864,0.0,0.0,0.0,0.0,0.0,0.0,0.0,15.188975,-129.6309,10.495868,0.0,0.0,0.0,0.0,0.0,0.0,0.0,-0.2253544,0.015518417,-0.9742837,-0.9592285,0.0635376,-0.23095703,0.03125,-0.12988281,-0.119140625,3.0878768,-4.6655345,0.32127935,-20.170692,-0.99645996,-0.11199951,-0.07159424,-0.037109375,-0.018554688,0.055664062,3.4169,-9.5511465,-56.460583,-18.69609,0.5091553,0.05517578,0.8763428,-0.0048828125,-0.018554688,-0.016601562,5.802485,-12.022727,-128.23648,-13.390278,0.0,0.0,0.0,0.0,0.0,0.0,0.0,7.859185,-129.36858,-15.260791,-0.95251465,-0.11920166,0.0048217773,-0.703125,0.7734375,0.79589844,0.0,1.9094281,44.964355,0.27453762,
0.839843737485353,43,-0.7966919,-0.2913208,0.53100586,0.01953125,0.024414062,0.020507812,0.0,0.0,0.0,0.0,0.0,0.0,0.0,0.0,0.0,0.0,0.0,0.22529745,-0.0142712565,0.97427624,-0.9528198,0.065979004,-0.28930664,-0.022460938,0.08300781,0.029296875,1.7283901,4.664356,-0.29545927,20.170538,-0.96795654,0.12023926,0.022094727,-0.032226562,0.0087890625,0.033203125,2.5298712,2.0583792,-57.22791,21.600683,0.54052734,0.066223145,0.85839844,0.033203125,-0.0029296875,-0.0146484375,67.43689,-1.9413967,-129.1253,20.892982,0.0,0.0,0.0,0.0,0.0,0.0,0.0,15.157963,-129.61353,10.5247555,0.0,0.0,0.0,0.0,0.0,0.0,0.0,-0.22529745,0.0142712565,-0.97427624,-0.9602661,0.07952881,-0.2652588,0.12890625,-0.034179688,-0.12207031,3.0622847,-4.664356,0.29545927,-20.170538,-0.979126,-0.103393555,-0.07244873,-0.037109375,0.01953125,0.018554688,3.4517894,-9.554373,-56.483265,-18.691874,0.5109253,0.06048584,0.859375,-0.0048828125,0.018554688,-0.016601562,6.0727334,-11.983817,-128.25804,-13.363182,0.0,0.0,0.0,0.0,0.0,0.0,0.0,7.888467,-129.39716,-15.339357,-0.94732666,-0.107543945,8.544922E-4,-0.77734375,0.7548828,0.7597656,0.0,1.9002086,44.96331,0.21920967,
0.8593749871943147,44,-0.79937744,-0.32977295,0.53063965,0.01953125,0.061523438,0.040039062,0.0,0.0,0.0,0.0,0.0,0.0,0.0,0.0,0.0,0.0,0.0,0.22484475,-0.0132882735,0.9744003,-0.90844727,0.08074951,-0.27008057,-0.060546875,-0.0068359375,0.047851562,1.7222651,4.654984,-0.27510843,20.173105,-0.96984863,0.08728027,-0.017822266,-0.032226562,0.02734375,0.033203125,2.6097708,2.1010885,-57.204815,21.661654,0.54919434,0.051635742,0.82666016,0.013671875,-0.0029296875,-0.033203125,67.52129,-1.9021554,-129.10384,20.95457,0.0,0.0,0.0,0.0,0.0,0.0,0.0,15.191975,-129.60103,10.578115,0.0,0.0,0.0,0.0,0.0,0.0,0.0,-0.22484475,0.0132882735,-0.9744003,-0.9805298,0.101135254,-0.22808838,0.234375,-0.119140625,-0.11425781,3.0684156,-4.654984,0.27510843,-20.173105,-1.0004883,-0.10620117,-0.0625,-0.037109375,9.765625E-4,0.037109375,3.4920535,-9.587588,-56.499275,-18.673286,0.50079346,0.066467285,0.852417,0.013671875,-0.037109375,0.0029296875,6.1291904,-11.964147,-128.27502,-13.343401,0.0,0.0,0.0,0.0,0.0,0.0,0.0,7.9094877,-129.41698,-15.309952,-0.9304199,-0.114868164,0.009643555,-0.8701172,0.83203125,0.79589844,0.0,1.9076926,44.963436,0.17298007,
0.8789062369032764,45,-0.80462646,-0.31097412,0.5488281,0.01953125,0.024414062,0.001953125,0.0,0.0,0.0,0.0,0.0,0.0,0.0,0.0,0.0,0.0,0.0,0.22614393,-0.01249647,0.9741929,-0.9211426,0.0368042,-0.28515625,-0.022460938,0.046875,0.029296875,1.6615393,4.681882,-0.2587157,20.168814,-0.97906494,0.08148193,-0.00793457,-0.0126953125,0.045898438,0.013671875,2.6008298,2.1492383,-57.193764,21.640068,0.5599365,0.09259033,0.82128906,0.013671875,0.036132812,-0.0146484375,67.30249,-1.8687718,-129.09131,20.951385,0.0,0.0,0.0,0.0,0.0,0.0,0.0,15.259234,-129.58574,10.633574,0.0,0.0,0.0,0.0,0.0,0.0,0.0,-0.22614393,0.01249647,-0.9741929,-0.9674072,0.105163574,-0.2607422,0.109375,-0.1875,-0.1015625,3.0008748,-4.681882,0.2587157,-20.168814,-0.9822998,-0.1161499,-0.059753418,-0.056640625,0.01953125,0.018554688,3.3940184,-9.49435,-56.522247,-18.60728,0.5091553,0.07519531,0.87127686,-0.0048828125,0.0,-0.016601562,5.932173,-11.812155,-128.30183,-13.281266,0.0,0.0,0.0,0.0,0.0,0.0,0.0,8.065851,-129.44376,-15.183722,-0.9517822,-0.13696289,0.020690918,-0.7597656,0.8310547,0.8515625,0.0,1.8875834,44.968037,0.13865441,
0.8984374866122381,46,-0.8074341,-0.3071289,0.5032959,9.765625E-4,-0.0126953125,-0.016601562,0.0,0.0,0.0,0.0,0.0,0.0,0.0,0.0,0.0,0.0,0.0,0.22352242,-0.011942278,0.974714,-0.93310547,0.041931152,-0.2878418,-0.022460938,0.029296875,0.047851562,1.6345844,4.6276064,-0.2472422,20.179602,-0.98931885,0.10736084,0.0060424805,-0.0126953125,0.045898438,-0.0048828125,2.521579,2.0131066,-57.17913,21.638256,0.5550537,0.03881836,0.8294678,0.033203125,-0.0029296875,-0.0146484375,67.4231,-2.0282862,-129.07782,20.99681,0.0,0.0,0.0,0.0,0.0,0.0,0.0,15.076977,-129.59398,10.642639,0.0,0.0,0.0,0.0,0.0,0.0,0.0,-0.22352242,0.011942278,-0.974714,-0.9622803,0.07446289,-0.24157715,0.009765625,-0.14746094,-0.13671875,2.9451034,-4.6276064,0.2472422,-20.179602,-0.9984131,-0.107910156,-0.083496094,-0.037109375,0.01953125,0.056640625,3.3461483,-9.356856,-56.54478,-18.581861,0.5008545,0.07342529,0.8553467,-0.0048828125,0.0,0.001953125,5.837678,-11.638487,-128.31943,-13.230342,0.0,0.0,0.0,0.0,0.0,0.0,0.0,8.243071,-129.46458,-15.110015,-0.9515991,-0.123046875,-1.2207031E-4,-0.64746094,0.81152344,0.81347656,0.0,1.882126,44.96434,0.119295925,
0.9179687363211998,47,-0.77459717,-0.2894287,0.5126953,0.057617188,0.005859375,9.765625E-4,0.0,0.0,0.0,0.0,0.0,0.0,0.0,0.0,0.0,0.0,0.0,0.22315279,-0.010978108,0.97486126,-0.9328003,0.06262207,-0.284729,-0.00390625,-0.0078125,0.029296875,1.5874528,4.6199546,-0.22728086,20.182652,-0.9803467,0.07232666,0.010803223,-0.0126953125,0.045898438,-0.0048828125,2.5192494,2.037765,-57.160698,21.649363,0.588562,0.05871582,0.83361816,0.033203125,0.016601562,-0.0146484375,67.577965,-1.9740825,-129.06042,21.030315,0.0,0.0,0.0,0.0,0.0,0.0,0.0,15.111004,-129.5932,10.642626,0.0,0.0,0.0,0.0,0.0,0.0,0.0,-0.22315279,0.010978108,-0.97486126,-0.9631958,0.049743652,-0.22723389,0.22363281,-0.22265625,-0.08300781,2.7827706,-4.6199546,0.22728086,-20.182652,-0.9781494,-0.111083984,-0.081604004,-0.037109375,0.01953125,0.037109375,3.256482,-9.189056,-56.580402,-18.603174,0.5010376,0.08117676,0.8673096,0.013671875,9.765625E-4,-0.016601562,5.6080103,-11.450928,-128.35909,-13.269362,0.0,0.0,0.0,0.0,0.0,0.0,0.0,8.438368,-129.49747,-15.072454,-0.94226074,-0.109802246,0.020629883,-0.79589844,0.85058594,0.8330078,0.0,1.872607,44.967083,0.07773006,
0.9374999860301615,48,-0.8096924,-0.2854004,0.52142334,0.01953125,0.005859375,0.001953125,0.0,0.0,0.0,0.0,0.0,0.0,0.0,0.0,0.0,0.0,0.0,0.22187814,-0.010562618,0.9752187,-0.9225464,0.08215332,-0.28961182,0.015625,0.046875,0.029296875,1.6125263,4.5935664,-0.21867897,20.19005,-0.97369385,0.09301758,0.0020141602,-0.0126953125,0.0087890625,-0.0048828125,2.5638404,2.027769,-57.15178,21.705885,0.55358887,0.07006836,0.83673096,0.033203125,-0.0029296875,-0.033203125,67.60326,-1.9803672,-129.05353,21.091705,0.0,0.0,0.0,0.0,0.0,0.0,0.0,15.107302,-129.59148,10.708974,0.0,0.0,0.0,0.0,0.0,0.0,0.0,-0.22187814,0.010562618,-0.9752187,-0.9571533,0.056762695,-0.2538452,0.33203125,-0.17578125,-0.07714844,2.6602836,-4.5935664,0.21867897,-20.19005,-1.0015869,-0.12652588,-0.07196045,-0.056640625,0.038085938,0.038085938,3.1846294,-9.008625,-56.59508,-18.588694,0.4831543,0.072753906,0.8814087,0.013671875,0.0,0.0029296875,5.662751,-11.2230625,-128.37354,-13.233989,0.0,0.0,0.0,0.0,0.0,0.0,0.0,8.663347,-129.51344,-15.050722,-0.9673462,-0.12207031,0.030761719,-0.796875,0.79296875,0.8339844,0.0,1.8740016,44.96977,0.0607028,
0.9570312357391232,49,-0.7967529,-0.27947998,0.5311279,-0.018554688,0.061523438,0.0029296875,0.0,0.0,0.0,0.0,0.0,0.0,0.0,0.0,0.0,0.0,0.0,0.22238788,-0.010158204,0.9750642,-0.928833,0.06060791,-0.291687,-0.09765625,0.06640625,0.029296875,1.65753,4.6041183,-0.21030635,20.186852,-0.9859619,0.08642578,0.006958008,-0.03125,0.045898438,0.013671875,2.6063933,2.040241,-57.13784,21.770863,0.56762695,0.07086182,0.83477783,0.051757812,0.03515625,-0.033203125,67.75393,-1.9541214,-129.04016,21.171305,0.0,0.0,0.0,0.0,0.0,0.0,0.0,15.115052,-129.58284,10.756851,0.0,0.0,0.0,0.0,0.0,0.0,0.0,-0.22238788,0.010158204,-0.9750642,-0.96032715,0.09124756,-0.25219727,0.08300781,-0.10449219,-0.13378906,2.6451569,-4.6041183,0.21030635,-20.186852,-0.979187,-0.11199951,-0.08660889,-0.037109375,9.765625E-4,0.037109375,3.1497676,-8.991224,-56.606647,-18.55774,0.49017334,0.09185791,0.8742676,-0.0048828125,-0.018554688,0.0029296875,5.584477,-11.180135,-128.38458,-13.2196045,0.0,0.0,0.0,0.0,0.0,0.0,0.0,8.710582,-129.52037,-15.0067625,-0.93084717,-0.13439941,0.01361084,-0.72265625,0.81152344,0.8330078,0.0,1.8697536,44.968094,0.04203269,
0.9765624854480849,50,-0.81762695,-0.3050537,0.5333252,0.01953125,0.024414062,0.001953125,0.0,0.0,0.0,0.0,0.0,0.0,0.0,0.0,0.0,0.0,0.0,0.21971124,-0.009903172,0.9756789,-0.9316406,0.07446289,-0.29644775,-0.041015625,0.029296875,0.029296875,1.653274,4.5487046,-0.20502637,20.19958,-0.98187256,0.08850098,-0.0049438477,0.0068359375,0.044921875,0.013671875,2.600002,1.9906516,-57.131615,21.783117,0.5463867,0.0625,0.8267822,0.07128906,0.016601562,-0.033203125,67.71526,-1.9992895,-129.0304,21.195255,0.0,0.0,0.0,0.0,0.0,0.0,0.0,15.078639,-129.57152,10.795225,0.0,0.0,0.0,0.0,0.0,0.0,0.0,-0.21971124,0.009903172,-0.9756789,-0.9785156,0.09716797,-0.22619629,0.1328125,-0.115234375,-0.12695312,2.6293478,-4.5487046,0.20502637,-20.19958,-0.9923706,-0.105163574,-0.07543945,-0.056640625,0.01953125,-9.765625E-4,3.1214225,-8.88694,-56.61444,-18.549238,0.48736572,0.07659912,0.892334,0.013671875,9.765625E-4,-0.016601562,5.7083573,-11.014931,-128.39813,-13.225908,0.0,0.0,0.0,0.0,0.0,0.0,0.0,8.873375,-129.54129,-15.033126,-0.95880127,-0.08886719,0.012817383,-0.6845703,0.8496094,0.85058594,0.0,1.8581314,44.96882,0.038005948,
0.9960937351570466,51,-0.83758545,-0.29522705,0.50805664,9.765625E-4,-0.0126953125,0.001953125,0.0,0.0,0.0,0.0,0.0,0.0,0.0,0.0,0.0,0.0,0.0,0.2180092,-0.009674532,0.97606176,-0.9157715,0.061340332,-0.2958374,-0.060546875,0.029296875,0.0107421875,1.6613038,4.513466,-0.20029281,20.207502,-0.98565674,0.09375,-0.015808105,-0.03125,0.046875,-0.024414062,2.615315,1.9656994,-57.128555,21.79555,0.56500244,0.09436035,0.83703613,0.051757812,0.016601562,-0.033203125,67.67236,-2.0539043,-129.02911,21.217632,0.0,0.0,0.0,0.0,0.0,0.0,0.0,15.031781,-129.57027,10.829147,0.0,0.0,0.0,0.0,0.0,0.0,0.0,-0.2180092,0.009674532,-0.97606176,-0.96643066,0.101135254,-0.24499512,0.013671875,-0.1328125,-0.12109375,2.6498146,-4.513466,0.20029281,-20.207502,-0.9883423,-0.11212158,-0.06463623,-0.037109375,9.765625E-4,0.017578125,3.0880036,-8.796277,-56.62326,-18.507845,0.47009277,0.051635742,0.88360596,0.032226562,-0.017578125,0.0029296875,5.5171485,-10.874938,-128.40755,-13.159492,0.0,0.0,0.0,0.0,0.0,0.0,0.0,9.0176,-129.55148,-14.907736,-0.9564209,-0.11920166,0.015808105,-0.72265625,0.81152344,0.8515625,0.0,1.8265967,44.970062,0.037753195,
1.0156249848660084,52,-0.8085327,-0.28741455,0.4975586,0.057617188,0.024414062,0.020507812,0.0,0.0,0.0,0.0,0.0,0.0,0.0,0.0,0.0,0.0,0.0,0.21537003,-0.009478977,0.97664744,-0.9547119,0.07269287,-0.25463867,-0.041015625,0.06542969,0.047851562,1.6598896,4.4588275,-0.19624421,20.219633,-1.0048828,0.054626465,-0.004211426,-0.032226562,0.02734375,0.013671875,2.652694,1.9692235,-57.130436,21.817781,0.56030273,0.052490234,0.8227539,0.052734375,-0.0029296875,-0.033203125,67.81803,-2.02425,-129.03098,21.230545,0.0,0.0,0.0,0.0,0.0,0.0,0.0,15.045477,-129.58266,10.816494,0.0,0.0,0.0,0.0,0.0,0.0,0.0,-0.21537003,0.009478977,-0.97664744,-0.95928955,0.088256836,-0.24133301,-0.07519531,-0.14160156,-0.14746094,2.6240568,-4.4588275,0.19624421,-20.219633,-0.9761963,-0.12384033,-0.0758667,-0.037109375,9.765625E-4,0.017578125,3.0801325,-8.690714,-56.62682,-18.500826,0.49127197,0.06970215,0.8883667,0.0126953125,-0.017578125,-0.03515625,5.629497,-10.733251,-128.40643,-13.11688,0.0,0.0,0.0,0.0,0.0,0.0,0.0,9.155747,-129.55148,-14.901855,-0.9644165,-0.11706543,0.0119018555,-0.83496094,0.8496094,0.8886719,0.0,1.8242288,44.970078,0.034184426,
1.03515623457497,53,-0.7975464,-0.30413818,0.5249634,0.01953125,0.061523438,0.001953125,0.0,0.0,0.0,0.0,0.0,0.0,0.0,0.0,0.0,0.0,0.0,0.2156536,-0.008268427,0.97660565,-0.9289551,0.049743652,-0.28588867,0.015625,0.064453125,0.029296875,1.5917615,4.464698,-0.17118208,20.218765,-0.9977417,0.09210205,-0.012878418,-0.032226562,0.02734375,-0.0048828125,2.6504796,1.9982171,-57.105232,21.809042,0.55578613,0.08483887,0.8231201,0.033203125,0.016601562,-0.0146484375,67.85132,-1.9961295,-129.00807,21.234898,0.0,0.0,0.0,0.0,0.0,0.0,0.0,15.071686,-129.5604,10.819311,0.0,0.0,0.0,0.0,0.0,0.0,0.0,-0.2156536,0.008268427,-0.97660565,-0.9562378,0.07739258,-0.24359131,0.12207031,-0.06640625,-0.13476562,2.639082,-4.464698,0.17118208,-20.218765,-0.98431396,-0.11706543,-0.06573486,-0.056640625,0.038085938,0.018554688,3.1177201,-8.715329,-56.651142,-18.481674,0.49713135,0.0670166,0.8753662,0.013671875,-0.018554688,-0.016601562,5.7201905,-10.689399,-128.43353,-13.086836,0.0,0.0,0.0,0.0,0.0,0.0,0.0,9.200364,-129.57689,-14.863975,-0.9696045,-0.122558594,-0.006958008,-0.796875,0.8310547,0.8330078,0.0,1.7922328,44.9718,-0.015006483,
1.0546874842839318,54,-0.80462646,-0.28546143,0.5054321,0.01953125,0.024414062,0.001953125,0.0,0.0,0.0,0.0,0.0,0.0,0.0,0.0,0.0,0.0,0.0,0.2136719,-0.008477451,0.9770463,-0.92126465,0.024963379,-0.28027344,-0.022460938,0.08300781,0.0107421875,1.560974,4.423671,-0.1755095,20.227888,-0.97595215,0.08685303,0.021850586,-0.03125,0.06542969,-0.0048828125,2.59133,1.9464171,-57.111668,21.774607,0.5500488,0.101501465,0.8331909,0.051757812,0.016601562,-0.033203125,67.77352,-2.0121918,-129.017,21.201017,0.0,0.0,0.0,0.0,0.0,0.0,0.0,15.080536,-129.56847,10.825188,0.0,0.0,0.0,0.0,0.0,0.0,0.0,-0.2136719,0.008477451,-0.9770463,-0.9764404,0.08123779,-0.20275879,0.15917969,-0.044921875,-0.13378906,2.6465623,-4.423671,0.1755095,-20.227888,-0.9801636,-0.10345459,-0.066467285,-0.056640625,0.0390625,-9.765625E-4,3.1904027,-8.711304,-56.649395,-18.516373,0.5130615,0.047302246,0.8723755,-0.0048828125,0.0,-0.016601562,6.0721846,-10.640388,-128.4362,-13.107557,0.0,0.0,0.0,0.0,0.0,0.0,0.0,9.239993,-129.58444,-14.9770355,-0.9454956,-0.11834717,0.0017700195,-0.8339844,0.8125,0.8339844,0.0,1.8051212,44.971592,-0.0045639575,
1.0742187339928935,55,-0.7937012,-0.27459717,0.5142822,-0.017578125,0.005859375,0.021484375,0.0,0.0,0.0,0.0,0.0,0.0,0.0,0.0,0.0,0.0,0.0,0.2126632,-0.0082796505,0.97723055,-0.92285156,0.05444336,-0.27404785,0.015625,-0.026367188,-0.0078125,1.5511645,4.4027877,-0.17141442,20.2317,-0.9782715,0.07519531,0.0138549805,-0.032226562,0.02734375,-0.024414062,2.599475,1.9835687,-57.109657,21.771177,0.5588379,0.0836792,0.8378906,0.09082031,-0.0029296875,-0.033203125,67.764565,-1.9623063,-129.01402,21.219818,0.0,0.0,0.0,0.0,0.0,0.0,0.0,15.126327,-129.55939,10.839525,0.0,0.0,0.0,0.0,0.0,0.0,0.0,-0.2126632,0.0082796505,-0.97723055,-0.9854126,0.059509277,-0.19122314,0.0546875,-0.17285156,-0.14453125,2.5389073,-4.4027877,0.17141442,-20.2317,-0.9842529,-0.109069824,-0.08050537,-0.07519531,0.01953125,0.037109375,3.1685443,-8.546104,-56.659607,-18.56382,0.48913574,0.068847656,0.87939453,0.032226562,9.765625E-4,-0.016601562,5.8434505,-10.450852,-128.44249,-13.117874,0.0,0.0,0.0,0.0,0.0,0.0,0.0,9.438415,-129.58331,-14.910146,-0.9380493,-0.09814453,0.016662598,-0.9863281,1.0585938,1.1298828,0.0,1.7728128,44.97123,-0.0047748685,
1.0937499837018552,56,-0.81677246,-0.26470947,0.506897,0.01953125,0.061523438,0.001953125,0.0,0.0,0.0,0.0,0.0,0.0,0.0,0.0,0.0,0.0,0.0,0.21092299,-0.008312108,0.9775845,-0.91467285,0.06817627,-0.29187012,0.015625,0.028320312,0.0107421875,1.5913926,4.3667603,-0.17208642,20.239033,-0.99432373,0.07299805,-0.0010986328,-0.05078125,0.046875,-0.0048828125,2.616961,1.9306479,-57.103313,21.799614,0.56066895,0.06781006,0.8613281,0.032226562,0.036132812,-0.033203125,67.73805,-2.0085058,-129.00507,21.22626,0.0,0.0,0.0,0.0,0.0,0.0,0.0,15.088519,-129.5511,10.859755,0.0,0.0,0.0,0.0,0.0,0.0,0.0,-0.21092299,0.008312108,-0.9775845,-0.9692383,0.0546875,-0.23101807,0.16601562,-0.16601562,-0.08105469,2.4432843,-4.3667603,0.17208642,-20.239033,-0.9833374,-0.12866211,-0.07299805,-0.07519531,0.01953125,0.018554688,3.189789,-8.395199,-56.67374,-18.63335,0.5114136,0.07989502,0.8881836,0.05078125,-0.017578125,-0.015625,6.1063747,-10.250075,-128.45326,-13.163887,0.0,0.0,0.0,0.0,0.0,0.0,0.0,9.633803,-129.59729,-15.0141115,-0.94873047,-0.13006592,0.009765625,-0.8359375,0.90625,0.9628906,0.0,1.7472689,44.971222,0.005387336,
1.1132812334108169,57,-0.8095703,-0.27960205,0.48181152,-0.018554688,0.061523438,0.040039062,0.0,0.0,0.0,0.0,0.0,0.0,0.0,0.0,0.0,0.0,0.0,0.20729381,-0.007906213,0.97836727,-0.91693115,0.04736328,-0.2574463,-0.059570312,0.12011719,0.0107421875,1.5997329,4.291625,-0.16368316,20.255234,-0.9927368,0.05999756,0.0057373047,-0.051757812,0.028320312,-0.0048828125,2.5375962,1.7387955,-57.09318,21.791044,0.55615234,0.042663574,0.8324585,0.07128906,0.016601562,-0.0146484375,67.808,-2.1842818,-128.99648,21.19867,0.0,0.0,0.0,0.0,0.0,0.0,0.0,14.91083,-129.54189,10.828032,0.0,0.0,0.0,0.0,0.0,0.0,0.0,-0.20729381,0.007906213,-0.97836727,-0.95928955,0.07446289,-0.24456787,0.15917969,-0.064453125,-0.11425781,2.4633892,-4.291625,0.16368316,-20.255234,-0.9834595,-0.15093994,-0.082458496,-0.056640625,0.038085938,0.018554688,3.1721258,-8.30295,-56.68043,-18.666645,0.48937988,0.080566406,0.89331055,-0.0048828125,0.018554688,-0.016601562,6.028118,-10.111328,-128.46773,-13.264473,0.0,0.0,0.0,0.0,0.0,0.0,0.0,9.776886,-129.60692,-15.056787,-0.96551514,-0.12689209,0.022827148,-0.76171875,0.7910156,0.88964844,0.0,1.6994972,44.9732,0.0033449233,
1.1328124831197786,58,-0.7937622,-0.28533936,0.5409546,0.01953125,0.024414062,0.001953125,0.0,0.0,0.0,0.0,0.0,0.0,0.0,0.0,0.0,0.0,0.0,0.2047745,-0.007891805,0.9788813,-0.93408203,0.04284668,-0.27398682,-0.07910156,0.047851562,0.0107421875,1.6099758,4.239467,-0.16338485,20.265879,-0.97558594,0.06274414,-0.018981934,-0.032226562,0.02734375,0.013671875,2.5005329,1.6639273,-57.09607,21.796846,0.5488281,0.08770752,0.84680176,0.052734375,-0.060546875,-0.034179688,67.83418,-2.2100742,-129.00021,21.207348,0.0,0.0,0.0,0.0,0.0,0.0,0.0,14.888614,-129.54791,10.841957,0.0,0.0,0.0,0.0,0.0,0.0,0.0,-0.2047745,0.007891805,-0.9788813,-0.9764404,0.082336426,-0.23046875,0.06347656,-0.10449219,-0.15332031,2.4897075,-4.239467,0.16338485,-20.265879,-0.9761963,-0.12475586,-0.07788086,-0.037109375,0.0390625,-0.01953125,3.197268,-8.286743,-56.677746,-18.697746,0.51293945,0.078552246,0.8532715,0.013671875,-0.037109375,0.0029296875,6.123399,-10.064561,-128.47032,-13.337171,0.0,0.0,0.0,0.0,0.0,0.0,0.0,9.821551,-129.60696,-15.157896,-0.96551514,-0.12689209,0.022827148,-0.76171875,0.7910156,0.88964844,0.0,1.6918695,44.972767,0.008647263,
1.1523437328287403,59,-0.79974365,-0.28930664,0.54003906,0.01953125,0.005859375,0.001953125,0.0,0.0,0.0,0.0,0.0,0.0,0.0,0.0,0.0,0.0,0.0,0.20305586,-0.008126865,0.97926795,-0.9373779,0.017089844,-0.23266602,-0.00390625,0.028320312,0.029296875,1.5717186,4.203885,-0.16825134,20.27388,-0.98046875,0.06677246,-0.012023926,-0.05078125,0.046875,-0.0048828125,2.5340457,1.7273116,-57.09979,21.758274,0.5666504,0.071899414,0.8249512,0.051757812,0.016601562,-0.0146484375,67.91602,-2.1022508,-129.00874,21.113852,0.0,0.0,0.0,0.0,0.0,0.0,0.0,14.994883,-129.55484,10.747554,0.0,0.0,0.0,0.0,0.0,0.0,0.0,-0.20305586,0.008126865,-0.97926795,-0.9703369,0.07342529,-0.22570801,0.056640625,-0.17480469,-0.12695312,2.4692616,-4.203885,0.16825134,-20.27388,-0.98931885,-0.11077881,-0.09649658,-0.07519531,0.01953125,0.037109375,3.14392,-8.161969,-56.683033,-18.694954,0.494812,0.066345215,0.8564453,0.013671875,9.765625E-4,-0.016601562,5.8055916,-9.923644,-128.47142,-13.332238,0.0,0.0,0.0,0.0,0.0,0.0,0.0,9.97178,-129.59598,-15.056771,-0.9663086,-0.11303711,0.00793457,-0.8154297,0.8886719,0.8886719,0.0,1.6656789,44.975082,0.027858168,
1.171874982537702,60,-0.8065796,-0.30511475,0.5231323,0.01953125,0.005859375,0.001953125,0.0,0.0,0.0,0.0,0.0,0.0,0.0,0.0,0.0,0.0,0.0,0.20184141,-0.007948738,0.97949183,-0.92907715,0.043823242,-0.28985596,-0.022460938,0.046875,-0.0078125,1.5119377,4.178742,-0.16456352,20.278517,-0.99664307,0.06225586,-0.005126953,-0.03125,0.045898438,0.013671875,2.5321913,1.7576509,-57.104076,21.723896,0.5686035,0.06890869,0.82788086,0.052734375,-0.0029296875,-0.033203125,67.98257,-2.0247703,-129.01286,21.050055,0.0,0.0,0.0,0.0,0.0,0.0,0.0,15.078491,-129.55545,10.690409,0.0,0.0,0.0,0.0,0.0,0.0,0.0,-0.20184141,0.007948738,-0.97949183,-0.9592285,0.059692383,-0.24682617,0.013671875,-0.1328125,-0.12109375,2.4100535,-4.178742,0.16456352,-20.278517,-0.984375,-0.12872314,-0.06402588,-0.037109375,0.01953125,0.018554688,3.1251833,-8.087431,-56.692596,-18.719734,0.47717285,0.09161377,0.88134766,0.032226562,9.765625E-4,-0.016601562,5.8473067,-9.829135,-128.48566,-13.381981,0.0,0.0,0.0,0.0,0.0,0.0,0.0,10.066579,-129.60887,-15.103707,-0.95129395,-0.11450195,0.022705078,-0.85253906,0.85058594,0.8515625,0.0,1.6684337,44.973717,0.021159291,
1.1914062322466636,61,-0.7885742,-0.27960205,0.49920654,0.01953125,0.005859375,0.020507812,0.0,0.0,0.0,0.0,0.0,0.0,0.0,0.0,0.0,0.0,0.0,0.20084521,-0.0076332325,0.9797447,-0.9381714,0.03717041,-0.29766846,-0.041015625,0.06542969,0.0107421875,1.4546802,4.1581187,-0.15803155,20.283752,-0.9838257,0.08929443,0.008911133,-0.032226562,0.045898438,0.033203125,2.469341,1.7412157,-57.097057,21.679815,0.5571289,0.09820557,0.85876465,0.033203125,-0.0029296875,-0.033203125,67.954666,-1.9912522,-129.01077,21.00843,0.0,0.0,0.0,0.0,0.0,0.0,0.0,15.128629,-129.5396,10.67823,0.0,0.0,0.0,0.0,0.0,0.0,0.0,-0.20084521,0.0076332325,-0.9797447,-0.9682617,0.052734375,-0.22912598,0.15039062,-0.13183594,-0.10546875,2.3653781,-4.1581187,0.15803155,-20.283752,-0.9884033,-0.12872314,-0.06304932,-0.056640625,0.01953125,-9.765625E-4,3.1642165,-8.036491,-56.6968,-18.767889,0.47924805,0.068603516,0.88842773,0.013671875,-0.018554688,-0.016601562,5.774346,-9.72654,-128.49281,-13.433162,0.0,0.0,0.0,0.0,0.0,0.0,0.0,10.17337,-129.60867,-15.103733,-0.9523926,-0.11126709,-0.005126953,-0.8339844,0.85058594,0.8330078,0.0,1.6534472,44.976295,0.011459649,
1.2109374819556253,62,-0.81451416,-0.30511475,0.5093994,0.020507812,-0.0126953125,0.001953125,0.0,0.0,0.0,0.0,0.0,0.0,0.0,0.0,0.0,0.0,0.0,0.1976749,-0.007757673,0.9803676,-0.93078613,0.064453125,-0.26794434,0.052734375,0.045898438,0.029296875,1.458308,4.092484,-0.16060787,20.296648,-0.9815674,0.09765625,-0.022766113,-0.03125,0.045898438,-0.0048828125,2.4745672,1.7181573,-57.104343,21.677153,0.5404663,0.06329346,0.8623047,0.033203125,-0.021484375,-0.034179688,67.98485,-2.0071151,-129.01826,21.010015,0.0,0.0,0.0,0.0,0.0,0.0,0.0,15.103745,-129.55157,10.666143,0.0,0.0,0.0,0.0,0.0,0.0,0.0,-0.1976749,0.007757673,-0.9803676,-0.9743042,0.06072998,-0.24572754,0.17871094,-0.044921875,-0.11425781,2.4000432,-4.092484,0.16060787,-20.296648,-0.9883423,-0.12072754,-0.08178711,-0.07519531,0.038085938,-9.765625E-4,3.2658467,-8.0172,-56.698082,-18.8464,0.48132324,0.085510254,0.8903198,0.03125,-0.07421875,-0.015625,5.9653225,-9.666876,-128.49213,-13.510337,0.0,0.0,0.0,0.0,0.0,0.0,0.0,10.229685,-129.60852,-15.237774,-0.9602051,-0.10839844,0.017822266,-0.7783203,0.85058594,0.8515625,0.0,1.6253293,44.976395,0.028178573,
1.230468731664587,63,-0.7938843,-0.27355957,0.5371094,0.056640625,0.024414062,0.001953125,0.0,0.0,0.0,0.0,0.0,0.0,0.0,0.0,0.0,0.0,0.0,0.19599444,-0.008052172,0.9807255,-0.9397583,0.068725586,-0.30133057,0.052734375,-0.0087890625,0.009765625,1.4871423,4.0576925,-0.1667049,20.30406,-0.986084,0.08154297,0.0029296875,-0.05078125,0.046875,0.032226562,2.4839618,1.7048287,-57.10784,21.688812,0.54974365,0.08898926,0.80841064,0.013671875,-0.0029296875,-0.0146484375,68.06511,-1.9730401,-129.01988,20.999186,0.0,0.0,0.0,0.0,0.0,0.0,0.0,15.133085,-129.5452,10.646005,0.0,0.0,0.0,0.0,0.0,0.0,0.0,-0.19599444,0.008052172,-0.9807255,-0.9713135,0.06536865,-0.19519043,0.10253906,-0.0859375,-0.13476562,2.434215,-4.0576925,0.1667049,-20.30406,-0.9915161,-0.13647461,-0.06121826,-0.056640625,0.01953125,-0.01953125,3.3445683,-8.025816,-56.689083,-18.907415,0.5061035,0.086242676,0.86621094,0.013671875,9.765625E-4,-0.016601562,6.1074343,-9.624275,-128.48398,-13.590752,0.0,0.0,0.0,0.0,0.0,0.0,0.0,10.272045,-129.59448,-15.317159,-0.9506836,-0.13110352,0.019714355,-0.7783203,0.8691406,0.85058594,0.0,1.6082847,44.97801,0.047878534,
1.2499999813735487,64,-0.80981445,-0.26275635,0.51171875,0.01953125,0.061523438,0.001953125,0.0,0.0,0.0,0.0,0.0,0.0,0.0,0.0,0.0,0.0,0.0,0.19494224,-0.008108322,0.9808658,-0.9206543,0.06817627,-0.26409912,-0.060546875,0.083984375,0.029296875,1.5124553,4.0359087,-0.16786739,20.306963,-0.99853516,0.06707764,0.0067749023,-0.03125,0.045898438,0.013671875,2.4733803,1.6336527,-57.111145,21.704317,0.53356934,0.08129883,0.8231201,0.013671875,-0.001953125,0.00390625,68.07531,-2.0280309,-129.02492,20.995848,0.0,0.0,0.0,0.0,0.0,0.0,0.0,15.087862,-129.54514,10.656178,0.0,0.0,0.0,0.0,0.0,0.0,0.0,-0.19494224,0.008108322,-0.9808658,-0.9784546,0.082092285,-0.17895508,0.111328125,-0.13183594,-0.14355469,2.2823336,-4.0359087,0.16786739,-20.306963,-0.9752197,-0.1317749,-0.06512451,-0.056640625,0.038085938,0.018554688,3.350417,-7.8695655,-56.69536,-18.97579,0.50823975,0.06506348,0.88031006,0.013671875,9.765625E-4,-0.016601562,6.2028284,-9.414552,-128.4945,-13.647718,0.0,0.0,0.0,0.0,0.0,0.0,0.0,10.48113,-129.60587,-15.382226,-0.9581909,-0.10333252,-0.0040283203,-0.8720703,0.90722656,0.90722656,0.0,1.6148887,44.97472,0.050832152,
1.2695312310825104,65,-0.7999878,-0.26361084,0.5472412,0.01953125,0.005859375,0.020507812,0.0,0.0,0.0,0.0,0.0,0.0,0.0,0.0,0.0,0.0,0.0,0.19351897,-0.008323006,0.9812291,-0.9463501,0.026367188,-0.27789307,-0.041015625,0.046875,0.029296875,1.5309738,4.006443,-0.17231205,20.314486,-0.9818115,0.08782959,-0.024780273,-0.051757812,0.028320312,-0.0048828125,2.4705298,1.5992668,-57.110737,21.69917,0.5484619,0.06536865,0.83081055,0.033203125,-0.021484375,-0.015625,68.23815,-2.073766,-129.0259,20.98149,0.0,0.0,0.0,0.0,0.0,0.0,0.0,15.004619,-129.55377,10.582935,0.0,0.0,0.0,0.0,0.0,0.0,0.0,-0.19351897,0.008323006,-0.9812291,-0.97540283,0.080200195,-0.19781494,0.15917969,-0.17871094,-0.11425781,2.2122242,-4.006443,0.17231205,-20.314486,-0.9854126,-0.1315918,-0.0680542,-0.037109375,0.0390625,0.018554688,3.2572632,-7.679033,-56.703648,-18.957994,0.5128174,0.06561279,0.85131836,0.0126953125,-0.017578125,-0.03515625,6.5140924,-9.171747,-128.50111,-13.636967,0.0,0.0,0.0,0.0,0.0,0.0,0.0,10.718033,-129.6154,-15.445153,-0.9520874,-0.14648438,8.544922E-4,-0.96484375,0.9277344,0.90722656,0.0,1.589284,44.979294,0.06808436,
1.2890624807914721,66,-0.8258667,-0.27746582,0.5307617,0.020507812,-0.0126953125,0.020507812,0.0,0.0,0.0,0.0,0.0,0.0,0.0,0.0,0.0,0.0,0.0,0.19164273,-0.008954112,0.9815918,-0.9368286,0.064697266,-0.29351807,-0.07910156,0.047851562,0.0107421875,1.5814006,3.9675994,-0.18537788,20.321993,-1.0008545,0.053588867,-0.011169434,-0.032226562,0.02734375,-0.0048828125,2.4579802,1.5397162,-57.126945,21.712769,0.5343628,0.06463623,0.8258667,0.033203125,-0.0029296875,-0.0146484375,68.38446,-2.0939693,-129.04251,20.981575,0.0,0.0,0.0,0.0,0.0,0.0,0.0,14.975012,-129.57587,10.566141,0.0,0.0,0.0,0.0,0.0,0.0,0.0,-0.19164273,0.008954112,-0.9815918,-0.97528076,0.054748535,-0.23095703,0.13476562,-0.09765625,-0.12890625,2.1724076,-3.9675994,0.18537788,-20.321993,-0.9802246,-0.11413574,-0.07067871,-0.037109375,0.057617188,0.0,3.2425044,-7.559065,-56.69806,-18.974838,0.49224854,0.06774902,0.885376,0.013671875,-0.018554688,-0.016601562,6.3925214,-9.014501,-128.50256,-13.647596,0.0,0.0,0.0,0.0,0.0,0.0,0.0,10.879884,-129.61127,-15.407557,-0.95758057,-0.12597656,0.00982666,-0.87109375,0.8886719,0.8701172,0.0,1.5892427,44.97924,0.10002357,
1.3085937305004338,67,-0.80493164,-0.27545166,0.54919434,-0.017578125,-0.0126953125,0.021484375,0.0,0.0,0.0,0.0,0.0,0.0,0.0,0.0,0.0,0.0,0.0,0.19116965,-0.010079175,0.98162127,-0.9281616,0.035888672,-0.27416992,-0.060546875,0.047851562,0.029296875,1.5994881,3.9578047,-0.20867017,20.322603,-0.99365234,0.09564209,0.005004883,-0.0126953125,0.02734375,0.013671875,2.4789135,1.599364,-57.14963,21.67757,0.5274658,0.07458496,0.82299805,0.033203125,-0.0029296875,-0.033203125,68.27955,-2.0410588,-129.0664,20.929008,0.0,0.0,0.0,0.0,0.0,0.0,0.0,15.043868,-129.59372,10.538901,0.0,0.0,0.0,0.0,0.0,0.0,0.0,-0.19116965,0.010079175,-0.98162127,-0.9732666,0.05670166,-0.23394775,0.0029296875,-0.19824219,-0.12988281,2.150677,-3.9578047,0.20867017,-20.322603,-0.99243164,-0.122680664,-0.0758667,-0.037109375,0.0390625,0.018554688,3.2241578,-7.472369,-56.68038,-19.007725,0.48120117,0.0847168,0.8803711,-0.0048828125,-0.018554688,-0.016601562,6.5474515,-8.899914,-128.48694,-13.707165,0.0,0.0,0.0,0.0,0.0,0.0,0.0,10.992565,-129.59256,-15.492465,-0.95928955,-0.11230469,0.014831543,-0.81640625,0.8496094,0.90722656,0.0,1.5795574,44.97713,0.15420309,
1.3281249802093955,68,-0.8067627,-0.27947998,0.5274048,-0.017578125,0.005859375,0.021484375,0.0,0.0,0.0,0.0,0.0,0.0,0.0,0.0,0.0,0.0,0.0,0.18866047,-0.011036203,0.9821217,-0.9281006,0.039916992,-0.29388428,-0.060546875,0.06542969,0.029296875,1.6153153,3.905856,-0.22848363,20.332966,-0.989563,0.06500244,-0.007080078,-0.03125,0.045898438,-0.0048828125,2.493792,1.5660188,-57.17461,21.653711,0.5756836,0.070739746,0.8288574,0.033203125,-0.021484375,-0.015625,68.37898,-2.0429854,-129.0916,20.835611,0.0,0.0,0.0,0.0,0.0,0.0,0.0,15.030994,-129.61375,10.42816,0.0,0.0,0.0,0.0,0.0,0.0,0.0,-0.18866047,0.011036203,-0.9821217,-0.9552002,0.06060791,-0.2399292,0.08105469,-0.12207031,-0.13183594,2.1048703,-3.905856,0.22848363,-20.332966,-0.9822998,-0.1237793,-0.07287598,-0.055664062,0.057617188,0.018554688,3.1757033,-7.3326435,-56.661358,-19.040884,0.52001953,0.06347656,0.8642578,0.013671875,-0.018554688,0.0029296875,6.575634,-8.764254,-128.46959,-13.774893,0.0,0.0,0.0,0.0,0.0,0.0,0.0,11.124159,-129.5761,-15.589444,-0.96307373,-0.10144043,0.014831543,-0.83496094,0.8691406,0.8886719,0.0,1.5912405,44.97766,0.19974965,
1.3476562299183572,69,-0.80566406,-0.29327393,0.5272217,0.020507812,-0.0126953125,0.020507812,0.0,0.0,0.0,0.0,0.0,0.0,0.0,0.0,0.0,0.0,0.0,0.18841094,-0.011343901,0.9821399,-0.9248047,0.05847168,-0.27301025,-0.022460938,0.08300781,0.029296875,1.5954455,3.9006908,-0.2348539,20.33334,-0.96203613,0.081970215,-0.008911133,-0.032226562,0.02734375,-0.0048828125,2.4355817,1.5441322,-57.17881,21.605417,0.5726929,0.06866455,0.852478,0.033203125,-0.021484375,0.0029296875,68.39698,-2.050226,-129.0942,20.789007,0.0,0.0,0.0,0.0,0.0,0.0,0.0,15.024103,-129.6141,10.382191,0.0,0.0,0.0,0.0,0.0,0.0,0.0,-0.18841094,0.011343901,-0.9821399,-0.9682617,0.061462402,-0.20916748,0.22558594,-0.052734375,-0.125,2.1504948,-3.9006908,0.2348539,-20.33334,-0.98431396,-0.12451172,-0.093811035,-0.037109375,0.076171875,0.018554688,3.217715,-7.382145,-56.65061,-19.065952,0.49798584,0.064208984,0.86639404,-0.0048828125,0.0,0.001953125,6.7120056,-8.819006,-128.45685,-13.808809,0.0,0.0,0.0,0.0,0.0,0.0,0.0,11.061768,-129.56912,-15.700206,-0.9525757,-0.12713623,0.019714355,-0.9472656,0.90722656,0.9453125,0.0,1.5791655,44.976852,0.2165485,
1.367187479627319,70,-0.81170654,-0.29125977,0.5293579,0.020507812,-0.03125,0.001953125,0.0,0.0,0.0,0.0,0.0,0.0,0.0,0.0,0.0,0.0,0.0,0.1888583,-0.011129207,0.98214155,-0.91296387,0.046569824,-0.29803467,-0.060546875,0.06542969,0.047851562,1.5483866,3.909952,-0.23040909,20.333376,-0.98461914,0.09741211,-0.001953125,-0.032226562,0.02734375,0.013671875,2.4456863,1.5739362,-57.17871,21.586052,0.5667114,0.068725586,0.86035156,0.033203125,0.016601562,-0.051757812,68.346436,-2.0093884,-129.09528,20.739647,0.0,0.0,0.0,0.0,0.0,0.0,0.0,15.078627,-129.60751,10.356208,0.0,0.0,0.0,0.0,0.0,0.0,0.0,-0.1888583,0.011129207,-0.98214155,-0.9753418,0.06945801,-0.21484375,0.0625,-0.0859375,-0.17285156,2.0905957,-3.909952,0.23040909,-20.333376,-0.98132324,-0.12957764,-0.07702637,-0.037109375,0.0390625,0.018554688,3.2411153,-7.3943186,-56.65946,-19.109013,0.4859619,0.041992188,0.8755493,0.013671875,0.0,0.0029296875,6.8675275,-8.818276,-128.46864,-13.878932,0.0,0.0,0.0,0.0,0.0,0.0,0.0,11.0591135,-129.58371,-15.809974,-0.9472656,-0.10961914,0.011779785,-0.9091797,0.8691406,0.88964844,0.0,1.5992317,44.979977,0.20217389,
1.3867187293362806,71,-0.8387451,-0.28729248,0.5239868,-0.017578125,-0.0126953125,0.0029296875,0.0,0.0,0.0,0.0,0.0,0.0,0.0,0.0,0.0,0.0,0.0,0.18639779,-0.01125838,0.9825737,-0.9483032,0.028381348,-0.26898193,-0.07910156,0.047851562,0.047851562,1.5568314,3.8590128,-0.23308334,20.342323,-0.9684448,0.06903076,0.007873535,-0.03125,0.045898438,-0.0048828125,2.4262416,1.5079093,-57.179604,21.583134,0.54785156,0.09283447,0.8222656,0.033203125,0.016601562,-0.0146484375,68.4015,-2.04583,-129.09625,20.720242,0.0,0.0,0.0,0.0,0.0,0.0,0.0,15.040968,-129.6034,10.333931,0.0,0.0,0.0,0.0,0.0,0.0,0.0,-0.18639779,0.01125838,-0.9825737,-0.96728516,0.06060791,-0.22497559,0.043945312,-0.14257812,-0.1328125,2.0425808,-3.8590128,0.23308334,-20.342323,-0.99035645,-0.11956787,-0.093688965,-0.07519531,0.038085938,0.038085938,3.1907096,-7.266079,-56.660908,-19.135675,0.49316406,0.047851562,0.88446045,0.013671875,0.0,0.0029296875,6.8886304,-8.695194,-128.47527,-13.941853,0.0,0.0,0.0,0.0,0.0,0.0,0.0,11.182419,-129.58566,-15.871715,-0.96154785,-0.12188721,0.0048828125,-0.94628906,0.9267578,0.90722656,0.0,1.5898876,44.978645,0.21376002,
1.4062499790452423,72,-0.78552246,-0.3012085,0.5187378,-0.017578125,-0.03125,0.001953125,0.0,0.0,0.0,0.0,0.0,0.0,0.0,0.0,0.0,0.0,0.0,0.18615395,-0.01109626,0.9825638,-0.92541504,0.017089844,-0.27337646,-0.060546875,-0.0068359375,0.029296875,1.4863526,3.8539634,-0.22972699,20.342117,-0.9879761,0.08483887,-0.010925293,-0.0126953125,0.0087890625,-0.0048828125,2.3897457,1.5362911,-57.176357,21.535204,0.5487671,0.089904785,0.8133545,0.013671875,0.016601562,-0.051757812,68.42884,-2.0055053,-129.09767,20.687817,0.0,0.0,0.0,0.0,0.0,0.0,0.0,15.078391,-129.60127,10.294722,0.0,0.0,0.0,0.0,0.0,0.0,0.0,-0.18615395,0.01109626,-0.9825638,-0.9642334,0.060668945,-0.24182129,0.12207031,-0.046875,-0.15527344,2.0408556,-3.8539634,0.22972699,-20.342117,-0.98638916,-0.12756348,-0.079956055,-0.07519531,0.01953125,0.018554688,3.2434099,-7.333746,-56.66511,-19.176315,0.5043335,0.068847656,0.8873291,0.013671875,9.765625E-4,-0.016601562,7.004571,-8.751949,-128.48016,-14.01668,0.0,0.0,0.0,0.0,0.0,0.0,0.0,11.122353,-129.58846,-15.992367,-0.9525757,-0.12310791,0.0048217773,-0.9472656,0.90722656,0.9453125,0.0,1.6057695,44.975563,0.20369181,
1.425781228754204,73,-0.82073975,-0.2814331,0.5217285,0.01953125,0.024414062,0.020507812,0.0,0.0,0.0,0.0,0.0,0.0,0.0,0.0,0.0,0.0,0.0,0.18641508,-0.011327275,0.9825256,-0.93273926,0.068481445,-0.2826538,-0.022460938,0.046875,0.0107421875,1.4960636,3.8593688,-0.23450972,20.341324,-0.993103,0.08154297,0.018798828,-0.0126953125,0.045898438,-0.0048828125,2.3908103,1.5753989,-57.187115,21.540653,0.5418091,0.08380127,0.8664551,0.013671875,-0.0029296875,-0.0146484375,68.48948,-1.9167833,-129.10558,20.696505,0.0,0.0,0.0,0.0,0.0,0.0,0.0,15.164573,-129.61047,10.302214,0.0,0.0,0.0,0.0,0.0,0.0,0.0,-0.18641508,0.011327275,-0.9825256,-0.97332764,0.068603516,-0.2376709,0.029296875,-0.12792969,-0.13671875,2.0543327,-3.8593688,0.23450972,-20.341324,-0.9873657,-0.128479,-0.08294678,-0.017578125,0.0390625,0.018554688,3.2330718,-7.3581977,-56.6595,-19.17864,0.50531006,0.04284668,0.892395,-0.0048828125,-0.018554688,0.0029296875,7.018196,-8.766701,-128.47705,-14.058175,0.0,0.0,0.0,0.0,0.0,0.0,0.0,11.105228,-129.58578,-16.046764,-0.9595337,-0.12506104,0.018798828,-0.9091797,0.9082031,0.90722656,0.0,1.612304,44.975903,0.21261188,
1.4453124784631657,74,-0.81188965,-0.26367188,0.51971436,9.765625E-4,-0.0126953125,0.001953125,0.0,0.0,0.0,0.0,0.0,0.0,0.0,0.0,0.0,0.0,0.0,0.18513706,-0.012316686,0.9827446,-0.9460449,0.048217773,-0.3083496,-0.060546875,0.029296875,0.047851562,1.5187821,3.8329117,-0.25499356,20.345861,-0.973938,0.08459473,-0.027770996,-0.03125,0.045898438,0.013671875,2.3869596,1.5570464,-57.205685,21.517347,0.5437622,0.09100342,0.8104248,0.013671875,-0.0029296875,-0.0146484375,68.47563,-1.9484568,-129.13112,20.657782,0.0,0.0,0.0,0.0,0.0,0.0,0.0,15.129594,-129.63533,10.257281,0.0,0.0,0.0,0.0,0.0,0.0,0.0,-0.18513706,0.012316686,-0.9827446,-0.9702759,0.06359863,-0.2298584,9.765625E-4,-0.10058594,-0.12792969,2.0388408,-3.8329117,0.25499356,-20.345861,-0.9772339,-0.12384033,-0.07489014,-0.037109375,0.057617188,0.038085938,3.2282844,-7.2968855,-56.638565,-19.202837,0.5154419,0.06689453,0.8932495,0.013671875,-0.037109375,0.0029296875,7.1710215,-8.681544,-128.45496,-14.102543,0.0,0.0,0.0,0.0,0.0,0.0,0.0,11.186044,-129.56433,-16.12773,-0.9459839,-0.14385986,0.01373291,-0.98339844,0.984375,0.94433594,0.0,1.6310368,44.974525,0.256396,
1.4648437281721274,75,-0.79382324,-0.26965332,0.5252075,-0.017578125,-0.0126953125,0.040039062,0.0,0.0,0.0,0.0,0.0,0.0,0.0,0.0,0.0,0.0,0.0,0.18519959,-0.01278363,0.9827745,-0.9161377,0.03277588,-0.29315186,-0.041015625,0.029296875,0.029296875,1.5303345,3.8342073,-0.26466075,20.34648,-0.980896,0.05291748,-0.012084961,-0.032226562,0.02734375,0.013671875,2.3747926,1.5534894,-57.2151,21.510609,0.5501709,0.11126709,0.833313,0.0126953125,0.09375,-0.0146484375,68.46056,-1.9383924,-129.13684,20.646568,0.0,0.0,0.0,0.0,0.0,0.0,0.0,15.150429,-129.63889,10.262207,0.0,0.0,0.0,0.0,0.0,0.0,0.0,-0.18519959,0.01278363,-0.9827745,-0.97021484,0.039794922,-0.20458984,0.15039062,-0.13183594,-0.10546875,1.9361355,-3.8342073,0.26466075,-20.34648,-0.98431396,-0.12554932,-0.08685303,-0.056640625,0.01953125,0.018554688,3.2502837,-7.224613,-56.63209,-19.27134,0.5014038,0.075683594,0.8942871,0.013671875,0.01953125,-0.016601562,6.9155707,-8.589672,-128.45128,-14.181616,0.0,0.0,0.0,0.0,0.0,0.0,0.0,11.286108,-129.55554,-16.140522,-0.9463501,-0.10443115,-0.016052246,-1.0009766,1.0234375,0.9248047,0.0,1.6520789,44.975765,0.27370384,
1.484374977881089,76,-0.8216553,-0.28637695,0.5117798,-0.037109375,0.061523438,0.041015625,0.0,0.0,0.0,0.0,0.0,0.0,0.0,0.0,0.0,0.0,0.0,0.1843929,-0.012219965,0.982939,-0.94903564,0.050109863,-0.2786255,-0.1171875,0.030273438,0.029296875,1.5180088,3.817505,-0.25299117,20.349882,-0.99676514,0.093566895,0.018859863,-0.013671875,0.0087890625,0.033203125,2.3849084,1.5173275,-57.200226,21.53145,0.5501709,0.11126709,0.833313,0.0126953125,0.09375,-0.0146484375,68.48087,-1.9755871,-129.1199,20.661219,0.0,0.0,0.0,0.0,0.0,0.0,0.0,15.1132345,-129.62195,10.276857,0.0,0.0,0.0,0.0,0.0,0.0,0.0,-0.1843929,0.012219965,-0.982939,-0.9793701,0.05670166,-0.22003174,0.13476562,-0.09765625,-0.12890625,1.8097,-3.817505,0.25299117,-20.349882,-0.9904175,-0.12670898,-0.06695557,-0.056640625,0.01953125,0.037109375,3.2605073,-7.1244187,-56.65067,-19.33273,0.48388672,0.078125,0.85943604,-0.0048828125,-0.018554688,0.0029296875,6.834662,-8.460863,-128.47478,-14.260404,0.0,0.0,0.0,0.0,0.0,0.0,0.0,11.419527,-129.56938,-16.167591,-0.96258545,-0.12786865,0.014831543,-0.96484375,0.94628906,0.90722656,0.0,1.6556578,44.976032,0.2485545,
1.5039062275900508,77,-0.79364014,-0.30700684,0.54663086,0.020507812,-0.0126953125,0.020507812,0.0,0.0,0.0,0.0,0.0,0.0,0.0,0.0,0.0,0.0,0.0,0.18427089,-0.012138604,0.9829342,-0.9539795,0.05718994,-0.3012085,-0.041015625,0.0107421875,0.029296875,1.4814732,3.8149796,-0.25130677,20.349787,-0.9907837,0.057128906,-0.0051879883,-0.0126953125,0.02734375,0.051757812,2.3709984,1.5324216,-57.204617,21.504854,0.5482178,0.053649902,0.82769775,0.033203125,-0.0029296875,-0.033203125,68.70992,-1.9313409,-129.12827,20.618233,0.0,0.0,0.0,0.0,0.0,0.0,0.0,15.12158,-129.63968,10.176132,0.0,0.0,0.0,0.0,0.0,0.0,0.0,-0.18427089,0.012138604,-0.9829342,-0.9783325,0.051635742,-0.20428467,0.16308594,-0.14453125,-0.11816406,1.7066268,-3.8149796,0.25130677,-20.349787,-0.9863281,-0.1217041,-0.08380127,-0.056640625,0.038085938,0.018554688,3.244617,-7.0216265,-56.66176,-19.365309,0.51452637,0.07678223,0.8961792,-0.0048828125,-0.018554688,-0.016601562,6.877117,-8.338124,-128.48334,-14.303273,0.0,0.0,0.0,0.0,0.0,0.0,0.0,11.5448065,-129.57393,-16.188753,-0.9656372,-0.12872314,0.010864258,-0.94628906,0.94628906,0.90722656,0.0,1.6636004,44.97449,0.24353048,
1.5234374772990125,78,-0.80584717,-0.26763916,0.522522,0.020507812,-0.03125,0.001953125,0.0,0.0,0.0,0.0,0.0,0.0,0.0,0.0,0.0,0.0,0.0,0.1842601,-0.012691614,0.9828878,-0.927063,0.044799805,-0.29187012,0.015625,-0.0078125,0.029296875,1.4780347,3.814757,-0.26275578,20.348824,-0.9859619,0.086242676,0.018859863,-0.032226562,0.0087890625,0.033203125,2.3573382,1.554548,-57.215614,21.47365,0.5626831,0.07385254,0.836792,0.033203125,0.016601562,-0.033203125,68.73776,-1.9101174,-129.13522,20.587547,0.0,0.0,0.0,0.0,0.0,0.0,0.0,15.132417,-129.65176,10.131115,0.0,0.0,0.0,0.0,0.0,0.0,0.0,-0.1842601,0.012691614,-0.9828878,-0.97229004,0.06060791,-0.22692871,0.21972656,-0.123046875,-0.09863281,1.6649514,-3.814757,0.26275578,-20.348824,-0.99645996,-0.115722656,-0.08465576,-0.037109375,0.057617188,0.0,3.2501633,-6.9486904,-56.652187,-19.380959,0.47839355,0.08441162,0.89434814,-0.0048828125,0.0,0.001953125,6.877973,-8.24655,-128.47453,-14.300454,0.0,0.0,0.0,0.0,0.0,0.0,0.0,11.637554,-129.56592,-16.186155,-0.9614258,-0.11193848,-0.011962891,-0.9658203,0.9453125,0.9824219,0.0,1.6712115,44.972244,0.26740864,
1.5429687270079742,79,-0.8128662,-0.2548828,0.5029907,-0.07421875,0.061523438,0.041015625,0.0,0.0,0.0,0.0,0.0,0.0,0.0,0.0,0.0,0.0,0.0,0.18391135,-0.01311771,0.9829388,-0.8989868,0.04034424,-0.29437256,-0.00390625,0.06542969,0.029296875,1.4570997,3.8075352,-0.27157724,20.349882,-0.9844971,0.064208984,-0.029907227,-0.032226562,0.02734375,0.013671875,2.3101206,1.5054502,-57.22089,21.421318,0.5775757,0.06585693,0.82385254,0.013671875,-0.0029296875,-0.033203125,68.79355,-1.9632483,-129.14717,20.503555,0.0,0.0,0.0,0.0,0.0,0.0,0.0,15.069562,-129.66634,10.028651,0.0,0.0,0.0,0.0,0.0,0.0,0.0,-0.18391135,0.01311771,-0.9829388,-0.9703369,0.07537842,-0.21679688,0.09277344,-0.07519531,-0.103515625,1.7132648,-3.8075352,0.27157724,-20.349882,-0.98339844,-0.1459961,-0.08734131,-0.037109375,0.038085938,0.037109375,3.1986759,-6.939623,-56.639984,-19.351791,0.5001221,0.066101074,0.87335205,-0.0048828125,0.0,0.001953125,6.977017,-8.222326,-128.46619,-14.311935,0.0,0.0,0.0,0.0,0.0,0.0,0.0,11.657808,-129.55795,-16.223812,-0.9456787,-0.12615967,0.0017700195,-0.9267578,0.98535156,0.9248047,0.0,1.6663414,44.971912,0.28838962,
1.5624999767169359,80,-0.8329468,-0.27148438,0.53796387,0.020507812,-0.0126953125,0.001953125,0.0,0.0,0.0,0.0,0.0,0.0,0.0,0.0,0.0,0.0,0.0,0.18323621,-0.01329007,0.9831613,-0.9291992,0.029907227,-0.2564087,-0.041015625,0.06542969,0.047851562,1.4430647,3.7935572,-0.27514565,20.354486,-0.9822998,0.0736084,-0.0010986328,-0.0126953125,0.02734375,0.013671875,2.2538567,1.4308124,-57.225597,21.39104,0.56481934,0.0826416,0.8300171,0.051757812,0.016601562,-0.0146484375,68.82123,-2.0477853,-129.15138,20.47014,0.0,0.0,0.0,0.0,0.0,0.0,0.0,14.971748,-129.66702,9.973161,0.0,0.0,0.0,0.0,0.0,0.0,0.0,-0.18323621,0.01329007,-0.9831613,-0.9724121,0.08026123,-0.20776367,-0.020507812,-0.11816406,-0.14453125,1.716004,-3.7935572,0.27514565,-20.354486,-0.97314453,-0.12286377,-0.07885742,-0.037109375,0.0390625,0.018554688,3.171632,-6.9077406,-56.638542,-19.350864,0.48718262,0.08081055,0.87835693,-0.0048828125,0.0,0.001953125,7.035309,-8.174085,-128.46758,-14.336214,0.0,0.0,0.0,0.0,0.0,0.0,0.0,11.708186,-129.56104,-16.243141,-0.95544434,-0.11920166,0.013793945,-0.94628906,1.0039062,0.96191406,0.0,1.6663817,44.976215,0.29740345,
1.5820312264258976,81,-0.79681396,-0.27160645,0.5272217,-0.017578125,-0.0126953125,0.0029296875,0.0,0.0,0.0,0.0,0.0,0.0,0.0,0.0,0.0,0.0,0.0,0.1840339,-0.013412154,0.9829574,-0.9312134,0.03314209,-0.30871582,-0.07910156,0.06640625,0.047851562,1.4298501,3.8100724,-0.27767316,20.350267,-0.9813843,0.105285645,-0.0028686523,-0.032226562,0.0087890625,0.033203125,2.2376466,1.4419374,-57.22742,21.369225,0.5269165,0.099853516,0.8430786,0.033203125,-0.0029296875,-0.0146484375,68.806305,-2.0436993,-129.1511,20.450804,0.0,0.0,0.0,0.0,0.0,0.0,0.0,14.974258,-129.66388,9.950323,0.0,0.0,0.0,0.0,0.0,0.0,0.0,-0.1840339,0.013412154,-0.9829574,-0.9702759,0.060546875,-0.21411133,0.11816406,-0.13867188,-0.09082031,1.6833041,-3.8100724,0.27767316,-20.350267,-0.99035645,-0.122558594,-0.08782959,-0.037109375,0.057617188,0.018554688,3.1429856,-6.8574476,-56.643368,-19.339758,0.4850464,0.09991455,0.8673096,0.032226562,-0.017578125,-0.015625,6.6293344,-8.104801,-128.47357,-14.324065,0.0,0.0,0.0,0.0,0.0,0.0,0.0,11.791927,-129.55711,-16.08107,-0.9626465,-0.12976074,0.012878418,-0.890625,0.984375,0.96191406,0.0,1.6709025,44.97367,0.30081788,
1.6015624761348592,82,-0.8106079,-0.31097412,0.5380249,-0.017578125,-0.0126953125,0.0029296875,0.0,0.0,0.0,0.0,0.0,0.0,0.0,0.0,0.0,0.0,0.0,0.18582934,-0.012968251,0.98258984,-0.9371338,0.039001465,-0.27301025,-0.041015625,0.029296875,0.047851562,1.3900163,3.8472435,-0.26848298,20.342655,-0.9989624,0.05230713,0.004699707,-0.032226562,0.0087890625,0.013671875,2.236159,1.5021996,-57.21676,21.367954,0.56085205,0.089660645,0.82025146,0.013671875,-0.001953125,0.00390625,68.76015,-1.9178033,-129.14136,20.440845,0.0,0.0,0.0,0.0,0.0,0.0,0.0,15.119715,-129.64192,9.972524,0.0,0.0,0.0,0.0,0.0,0.0,0.0,-0.18582934,0.012968251,-0.98258984,-0.97125244,0.055603027,-0.21514893,0.2109375,-0.057617188,-0.109375,1.6474638,-3.8472435,0.26848298,-20.342655,-0.99749756,-0.12145996,-0.09075928,-0.037109375,0.01953125,0.018554688,3.1571553,-6.948756,-56.646595,-19.349941,0.48394775,0.057006836,0.8704834,0.013671875,-0.018554688,0.0029296875,6.55658,-8.210825,-128.47731,-14.362601,0.0,0.0,0.0,0.0,0.0,0.0,0.0,11.685686,-129.55527,-16.115257,-0.9788208,-0.1350708,-0.0048828125,-0.9267578,0.98535156,0.90625,0.0,1.7009141,44.971153,0.27185047,
1.621093725843821,83,-0.7935791,-0.3031006,0.5327759,-0.016601562,-0.049804688,0.001953125,0.0,0.0,0.0,0.0,0.0,0.0,0.0,0.0,0.0,0.0,0.0,0.18704623,-0.013360324,0.98238915,-0.9260254,0.042785645,-0.28204346,0.034179688,0.064453125,0.0107421875,1.3653005,3.8724368,-0.27660012,20.338501,-0.98620605,0.075683594,-6.1035156E-5,-0.0126953125,0.045898438,0.07128906,2.20948,1.5575914,-57.23083,21.326561,0.55963135,0.07598877,0.8190918,0.013671875,0.016601562,-0.033203125,68.77828,-1.8514946,-129.15802,20.408792,0.0,0.0,0.0,0.0,0.0,0.0,0.0,15.187018,-129.65245,9.943569,0.0,0.0,0.0,0.0,0.0,0.0,0.0,-0.18704623,0.013360324,-0.98238915,-0.9793091,0.051757812,-0.22113037,0.08984375,-0.20703125,-0.10058594,1.5653557,-3.8724368,0.27660012,-20.338501,-0.98931885,-0.118652344,-0.08868408,-0.056640625,0.038085938,0.018554688,3.1678646,-6.890348,-56.644894,-19.396824,0.49414062,0.061950684,0.87841797,0.0146484375,0.01953125,0.001953125,6.342297,-8.160329,-128.47084,-14.408228,0.0,0.0,0.0,0.0,0.0,0.0,0.0,11.738339,-129.54614,-16.141981,-0.9484253,-0.11541748,0.009765625,-0.96484375,0.9658203,0.92578125,0.0,1.7107562,44.972263,0.28588825,
1.6406249755527826,84,-0.79248047,-0.29925537,0.51000977,0.020507812,-0.0126953125,0.001953125,0.0,0.0,0.0,0.0,0.0,0.0,0.0,0.0,0.0,0.0,0.0,0.18480808,-0.012784729,0.98288494,-0.9208374,0.05432129,-0.25238037,-0.07910156,0.01171875,0.047851562,1.3161123,3.8261015,-0.26468349,20.348766,-0.9769287,0.051513672,0.0057373047,-0.030273438,0.12109375,-0.0048828125,2.2495975,1.5832732,-57.22015,21.322056,0.5471802,0.04675293,0.8374634,0.051757812,0.016601562,-0.033203125,68.857635,-1.8166122,-129.14908,20.381393,0.0,0.0,0.0,0.0,0.0,0.0,0.0,15.220625,-129.64352,9.914274,0.0,0.0,0.0,0.0,0.0,0.0,0.0,-0.18480808,0.012784729,-0.98288494,-0.97528076,0.050048828,-0.27264404,-0.041992188,-0.17285156,-0.12207031,1.5536858,-3.8261015,0.26468349,-20.348766,-0.9954834,-0.12731934,-0.09185791,-0.037109375,-0.018554688,0.017578125,3.101225,-6.8038363,-56.654835,-19.368734,0.5194092,0.0670166,0.8892212,0.013671875,-0.018554688,-0.016601562,6.4285526,-8.107943,-128.47998,-14.39197,0.0,0.0,0.0,0.0,0.0,0.0,0.0,11.783606,-129.55844,-16.19157,-0.963501,-0.120910645,0.00592041,-0.890625,0.9267578,0.90722656,0.0,1.7090793,44.975323,0.26365805,
1.6601562252617443,85,-0.8015747,-0.3012085,0.519104,0.01953125,0.024414062,0.001953125,0.0,0.0,0.0,0.0,0.0,0.0,0.0,0.0,0.0,0.0,0.0,0.1860938,-0.012631608,0.98258615,-0.92626953,0.024047852,-0.27624512,0.0146484375,-0.0078125,0.047851562,1.2693372,3.8527188,-0.2615134,20.34258,-0.97766113,0.09515381,0.0010375977,-0.013671875,0.0087890625,0.033203125,2.2485533,1.6528788,-57.220184,21.288935,0.5376587,0.08215332,0.8319702,0.013671875,-0.021484375,-0.034179688,68.846725,-1.7455277,-129.14731,20.35443,0.0,0.0,0.0,0.0,0.0,0.0,0.0,15.29171,-129.64175,9.88731,0.0,0.0,0.0,0.0,0.0,0.0,0.0,-0.1860938,0.012631608,-0.98258615,-0.96417236,0.042785645,-0.22039795,0.17480469,-0.09765625,-0.09082031,1.5243125,-3.8527188,0.2615134,-20.34258,-0.97924805,-0.12475586,-0.07891846,-0.037109375,0.01953125,0.018554688,3.090665,-6.841481,-56.66303,-19.367357,0.4940796,0.06097412,0.87542725,0.013671875,0.0,0.0029296875,6.409186,-8.1392765,-128.4915,-14.421131,0.0,0.0,0.0,0.0,0.0,0.0,0.0,11.753559,-129.56844,-16.220356,-0.9616699,-0.1307373,0.008850098,-0.87109375,0.94628906,0.90625,0.0,1.7329216,44.971916,0.24993393,
1.679687474970706,86,-0.7885742,-0.29925537,0.520813,0.020507812,-0.0126953125,0.001953125,0.0,0.0,0.0,0.0,0.0,0.0,0.0,0.0,0.0,0.0,0.0,0.1871554,-0.012205046,0.9823636,-0.92401123,0.043701172,-0.27807617,0.034179688,0.08300781,0.06640625,1.2140204,3.8746965,-0.25268227,20.33797,-0.9819336,0.08618164,0.0138549805,-0.03125,0.045898438,0.013671875,2.1946368,1.651272,-57.207287,21.26211,0.5565796,0.06604004,0.85150146,0.033203125,-0.041015625,0.0029296875,68.754845,-1.7111342,-129.13527,20.33538,0.0,0.0,0.0,0.0,0.0,0.0,0.0,15.346891,-129.62524,9.899286,0.0,0.0,0.0,0.0,0.0,0.0,0.0,-0.1871554,0.012205046,-0.9823636,-0.9702759,0.052612305,-0.20239258,0.22363281,-0.08886719,-0.10253906,1.4455036,-3.8746965,0.25268227,-20.33797,-0.97216797,-0.12487793,-0.073913574,-0.037109375,0.01953125,0.018554688,3.121548,-6.860506,-56.67053,-19.401625,0.4902954,0.07366943,0.8883667,-0.0048828125,0.0,-0.016601562,6.402176,-8.151942,-128.50365,-14.465104,0.0,0.0,0.0,0.0,0.0,0.0,0.0,11.741492,-129.57771,-16.242882,-0.9673462,-0.10687256,-0.016906738,-0.94628906,0.94628906,0.92578125,0.0,1.7569062,44.969955,0.2239964,
1.6992187246796677,87,-0.7775879,-0.29138184,0.5147095,0.057617188,-0.0126953125,-0.0546875,0.0,0.0,0.0,0.0,0.0,0.0,0.0,0.0,0.0,0.0,0.0,0.18713045,-0.011908201,0.98238564,-0.9290161,0.047790527,-0.2849121,-0.022460938,0.06542969,0.029296875,1.194685,3.8741803,-0.24653667,20.338427,-0.9659424,0.08331299,-0.025756836,-0.03125,0.083984375,0.032226562,2.2254553,1.6272092,-57.20379,21.259634,0.57684326,0.07940674,0.8417969,0.013671875,-0.0029296875,-0.0146484375,68.80778,-1.7497826,-129.12732,20.272463,0.0,0.0,0.0,0.0,0.0,0.0,0.0,15.292683,-129.61275,9.813545,0.0,0.0,0.0,0.0,0.0,0.0,0.0,-0.18713045,0.011908201,-0.98238564,-0.9743042,0.054504395,-0.19042969,0.16796875,-0.14941406,-0.08300781,1.3876209,-3.8741803,0.24653667,-20.338427,-0.98327637,-0.124572754,-0.09082031,-0.037109375,0.057617188,0.0,3.0498579,-6.7640524,-56.68126,-19.396938,0.4899292,0.056152344,0.8654785,-0.0048828125,0.0,0.001953125,6.4285226,-8.06699,-128.51416,-14.49736,0.0,0.0,0.0,0.0,0.0,0.0,0.0,11.823828,-129.59016,-16.30669,-0.9534302,-0.1081543,-0.020019531,-0.94433594,0.98535156,0.8876953,0.0,1.7550693,44.970695,0.2108064,
1.7187499743886294,88,-0.78985596,-0.26763916,0.5350952,0.057617188,-0.0126953125,9.765625E-4,0.0,0.0,0.0,0.0,0.0,0.0,0.0,0.0,0.0,0.0,0.0,0.18408272,-0.012640224,0.9829574,-0.92907715,0.04083252,-0.28198242,-0.00390625,0.029296875,0.06640625,1.2538259,3.8110826,-0.26169184,20.350266,-1.0036621,0.059753418,-0.018066406,-0.032226562,0.02734375,0.033203125,2.2526405,1.5938139,-57.22058,21.279503,0.5600586,0.092285156,0.8596802,0.033203125,0.016601562,0.00390625,68.72446,-1.7789834,-129.14783,20.28425,0.0,0.0,0.0,0.0,0.0,0.0,0.0,15.281011,-129.62427,9.851775,0.0,0.0,0.0,0.0,0.0,0.0,0.0,-0.18408272,0.012640224,-0.9829574,-0.97735596,0.070495605,-0.22174072,0.18945312,-0.09375,-0.10644531,1.4118075,-3.8110826,0.26169184,-20.350266,-0.9884033,-0.12176514,-0.07385254,-0.056640625,0.0390625,-9.765625E-4,3.012594,-6.6288824,-56.667458,-19.401896,0.4961548,0.064941406,0.87939453,0.032226562,-0.017578125,-0.015625,6.719744,-7.923011,-128.50076,-14.512462,0.0,0.0,0.0,0.0,0.0,0.0,0.0,11.96037,-129.58403,-16.408937,-0.95532227,-0.111328125,0.008850098,-0.94628906,1.0224609,0.98046875,0.0,1.7461274,44.97107,0.25129527,
1.7382812240975911,89,-0.8049927,-0.26361084,0.543396,0.01953125,0.024414062,0.001953125,0.0,0.0,0.0,0.0,0.0,0.0,0.0,0.0,0.0,0.0,0.0,0.18266124,-0.013167456,0.9832645,-0.9399414,0.054992676,-0.30737305,0.015625,0.06542969,0.06640625,1.2711859,3.7816536,-0.27260715,20.356625,-0.97039795,0.06842041,-0.013000488,-0.013671875,0.0087890625,0.051757812,2.2633886,1.5832887,-57.231583,21.266861,0.54992676,0.095703125,0.81933594,0.013671875,-0.0029296875,-0.033203125,68.68067,-1.7807002,-129.15579,20.24271,0.0,0.0,0.0,0.0,0.0,0.0,0.0,15.2831745,-129.62708,9.81494,0.0,0.0,0.0,0.0,0.0,0.0,0.0,-0.18266124,0.013167456,-0.9832645,-0.9713745,0.08416748,-0.20672607,0.10449219,-0.068359375,-0.13671875,1.4764451,-3.7816536,0.27260715,-20.356625,-0.9822998,-0.12188721,-0.068847656,-0.056640625,0.038085938,0.038085938,2.999635,-6.601536,-56.657726,-19.380537,0.48291016,0.054016113,0.8675537,0.013671875,-0.018554688,-0.016601562,6.6296306,-7.8884025,-128.49362,-14.4783535,0.0,0.0,0.0,0.0,0.0,0.0,0.0,11.997854,-129.56828,-16.32875,-0.9545288,-0.11804199,-0.005065918,-0.890625,1.0029297,0.96191406,0.0,1.7353046,44.973484,0.2798977,
1.7578124738065528,90,-0.7909546,-0.2793579,0.560791,-0.017578125,-0.0126953125,-0.03515625,0.0,0.0,0.0,0.0,0.0,0.0,0.0,0.0,0.0,0.0,0.0,0.18374506,-0.014031239,0.9830146,-0.92108154,0.040649414,-0.27423096,-0.060546875,0.029296875,0.06640625,1.2892227,3.8040922,-0.29049015,20.35145,-0.97039795,0.06842041,-0.013000488,-0.013671875,0.0087890625,0.051757812,2.2475085,1.614208,-57.249924,21.237553,0.5574341,0.06335449,0.81500244,0.013671875,0.016601562,-0.0146484375,68.69554,-1.7497809,-129.17413,20.213402,0.0,0.0,0.0,0.0,0.0,0.0,0.0,15.309931,-129.64444,9.782141,0.0,0.0,0.0,0.0,0.0,0.0,0.0,-0.18374506,0.014031239,-0.9830146,-0.9784546,0.08129883,-0.21661377,0.055664062,-0.09667969,-0.10449219,1.5836265,-3.8040922,0.29049015,-20.35145,-0.98535156,-0.11895752,-0.06976318,-0.055664062,0.057617188,0.038085938,2.9395149,-6.6377735,-56.63648,-19.292736,0.51013184,0.07519531,0.87127686,0.013671875,0.0,0.0029296875,6.5862126,-7.9055967,-128.47418,-14.379128,0.0,0.0,0.0,0.0,0.0,0.0,0.0,11.984303,-129.54364,-16.19468,-0.9714966,-0.1227417,0.012939453,-0.89160156,0.90722656,0.94433594,0.0,1.7606678,44.970684,0.31279334,
1.7773437235155145,91,-0.822937,-0.26757812,0.5397339,0.01953125,0.024414062,0.001953125,0.0,0.0,0.0,0.0,0.0,0.0,0.0,0.0,0.0,0.0,0.0,0.18266138,-0.014472641,0.98321,-0.9407959,0.06567383,-0.27764893,-0.022460938,-0.0078125,0.029296875,1.3297211,3.7816565,-0.29962853,20.355495,-0.9677124,0.09124756,-0.021728516,-0.0126953125,0.02734375,0.033203125,2.2443714,1.6042821,-57.258305,21.251293,0.54052734,0.07836914,0.81121826,0.013671875,-0.0029296875,-0.033203125,68.700455,-1.7368965,-129.18317,20.239298,0.0,0.0,0.0,0.0,0.0,0.0,0.0,15.318638,-129.65123,9.801955,0.0,0.0,0.0,0.0,0.0,0.0,0.0,-0.18266138,0.014472641,-0.98321,-0.9803467,0.061645508,-0.22686768,0.025390625,-0.18164062,-0.11230469,1.6307489,-3.7816565,0.29962853,-20.355495,-0.9762573,-0.1305542,-0.08099365,-0.037109375,0.0390625,0.018554688,2.9070373,-6.5691967,-56.633675,-19.263811,0.50335693,0.08483887,0.88720703,0.013671875,-0.018554688,-0.016601562,6.4597416,-7.8176837,-128.46742,-14.335977,0.0,0.0,0.0,0.0,0.0,0.0,0.0,12.077276,-129.53662,-16.097214,-0.9677124,-0.12646484,-0.013916016,-0.91015625,0.92578125,0.9628906,0.0,1.7497895,44.970936,0.33688554,
1.7968749732244762,92,-0.8161621,-0.25372314,0.5576172,0.01953125,0.005859375,0.001953125,0.0,0.0,0.0,0.0,0.0,0.0,0.0,0.0,0.0,0.0,0.0,0.18262035,-0.015838929,0.9832521,-0.9069214,0.04827881,-0.27539062,-0.022460938,0.029296875,0.047851562,1.4061131,3.7808077,-0.3279149,20.356367,-0.9902344,0.07757568,0.015808105,-0.032226562,0.02734375,0.051757812,2.2675357,1.6215012,-57.287518,21.250965,0.5324707,0.072509766,0.8249512,-0.005859375,-0.021484375,-0.034179688,68.843704,-1.685471,-129.21945,20.194666,0.0,0.0,0.0,0.0,0.0,0.0,0.0,15.35512,-129.6901,9.731106,0.0,0.0,0.0,0.0,0.0,0.0,0.0,-0.18262035,0.015838929,-0.9832521,-0.9682617,0.054504395,-0.19049072,0.046875,-0.1640625,-0.095703125,1.6710525,-3.7808077,0.3279149,-20.356367,-1.0026245,-0.13128662,-0.08203125,-0.037109375,0.0390625,0.018554688,2.836901,-6.459902,-56.610588,-19.25658,0.5009155,0.084350586,0.85528564,-0.0048828125,0.0,0.001953125,6.345573,-7.6982965,-128.44852,-14.364512,0.0,0.0,0.0,0.0,0.0,0.0,0.0,12.204368,-129.51083,-16.061874,-0.986145,-0.10668945,0.0040893555,-0.8173828,0.9248047,0.9814453,0.0,1.765042,44.97231,0.39662313,
1.816406222933438,93,-0.8152466,-0.2477417,0.5715332,-0.016601562,-0.049804688,0.001953125,0.0,0.0,0.0,0.0,0.0,0.0,0.0,0.0,0.0,0.0,0.0,0.18396112,-0.017715678,0.98294014,-0.9221802,0.03704834,-0.3305664,-0.07910156,-0.0068359375,0.047851562,1.5090874,3.8085663,-0.3667695,20.349909,-0.9902344,0.07757568,0.015808105,-0.032226562,0.02734375,0.051757812,2.2477698,1.6128871,-57.326614,21.246378,0.57489014,0.082458496,0.8348999,0.033203125,-0.0029296875,-0.033203125,68.91633,-1.6940851,-129.25854,20.190079,0.0,0.0,0.0,0.0,0.0,0.0,0.0,15.332959,-129.71953,9.705655,0.0,0.0,0.0,0.0,0.0,0.0,0.0,-0.18396112,0.017715678,-0.98294014,-0.96325684,0.06427002,-0.18341064,0.10253906,-0.10449219,-0.115234375,1.7222651,-3.8085663,0.3667695,-20.349909,-0.97924805,-0.1161499,-0.0647583,-0.037109375,0.057617188,0.038085938,2.8063064,-6.3954945,-56.574455,-19.271599,0.51348877,0.07281494,0.8942261,0.013671875,-0.018554688,-0.016601562,6.2375937,-7.6217403,-128.41124,-14.408728,0.0,0.0,0.0,0.0,0.0,0.0,0.0,12.283436,-129.46857,-16.06879,-0.98895264,-0.089782715,-0.018737793,-0.78125,0.9433594,1.0556641,0.0,1.7840432,44.96945,0.47660065,
1.8359374726423996,94,-0.8152466,-0.2477417,0.5715332,-0.016601562,-0.049804688,0.001953125,0.0,0.0,0.0,0.0,0.0,0.0,0.0,0.0,0.0,0.0,0.0,0.18396112,-0.017715678,0.98294014,-0.8890991,0.033203125,-0.2876587,-0.09765625,0.06640625,0.029296875,1.4801517,3.8085663,-0.3667695,20.349909,-0.9855957,0.095947266,-0.031677246,-0.032226562,0.0087890625,0.033203125,2.2414918,1.5560162,-57.32442,21.218801,0.5586548,0.071899414,0.84265137,0.013671875,0.016601562,-0.0146484375,68.94105,-1.7519403,-129.25134,20.091097,0.0,0.0,0.0,0.0,0.0,0.0,0.0,15.256937,-129.71103,9.577276,0.0,0.0,0.0,0.0,0.0,0.0,0.0,-0.18396112,0.017715678,-0.98294014,-0.96728516,0.06542969,-0.20611572,0.14355469,-0.14453125,-0.13769531,1.690844,-3.8085663,0.3667695,-20.349909,-0.98223877,-0.118896484,-0.07476807,-0.037109375,0.038085938,0.037109375,2.7921808,-6.3234587,-56.57715,-19.290844,0.4958496,0.08532715,0.8533325,-0.0048828125,0.0,-0.016601562,6.0533338,-7.5404305,-128.41559,-14.445045,0.0,0.0,0.0,0.0,0.0,0.0,0.0,12.373831,-129.46202,-16.00661,-0.97436523,-0.11175537,-0.0049438477,-0.8027344,0.8066406,1.0771484,0.0,1.7840432,44.96945,0.47660065,
1.8554687223513613,95,-0.782959,-0.3604126,0.50219727,-0.0546875,-0.0126953125,0.021484375,0.0,0.0,0.0,0.0,0.0,0.0,0.0,0.0,0.0,0.0,0.0,0.1803638,-0.015895545,0.98362446,-0.93310547,0.040039062,-0.2947998,-0.07910156,0.047851562,0.047851562,1.3562406,3.73409,-0.32908708,20.364075,-0.9771118,0.07922363,0.0068969727,-0.032226562,0.02734375,0.033203125,2.2308137,1.4867761,-57.288242,21.211872,0.5531616,0.10632324,0.8352661,-0.005859375,0.036132812,-0.0146484375,68.77683,-1.818409,-129.2187,20.07659,0.0,0.0,0.0,0.0,0.0,0.0,0.0,15.216534,-129.66623,9.604557,0.0,0.0,0.0,0.0,0.0,0.0,0.0,-0.1803638,0.015895545,-0.98362446,-0.9783325,0.049926758,-0.24591064,0.01171875,-0.13085938,-0.13867188,1.568478,-3.73409,0.32908708,-20.364075,-0.97924805,-0.11804199,-0.07080078,-0.017578125,0.057617188,0.038085938,2.802118,-6.2178507,-56.617607,-19.316593,0.48901367,0.08807373,0.86535645,-0.0048828125,-0.018554688,0.0029296875,5.717757,-7.424232,-128.45782,-14.466648,0.0,0.0,0.0,0.0,0.0,0.0,0.0,12.500019,-129.49068,-15.897912,-0.979126,-0.15368652,0.0010375977,-0.8232422,0.80566406,1.1337891,0.0,1.8064772,44.96876,0.39545578,
1.874999972060323,96,-0.80426025,-0.34851074,0.52960205,0.020507812,-0.03125,0.020507812,0.0,0.0,0.0,0.0,0.0,0.0,0.0,0.0,0.0,0.0,0.0,0.1837179,-0.0151919555,0.9829888,-0.9301758,0.031799316,-0.24157715,-0.041015625,0.083984375,0.029296875,1.2931632,3.80353,-0.3145206,20.350916,-0.97595215,0.08355713,-0.016845703,-0.032226562,0.02734375,-0.0048828125,2.2354589,1.5856328,-57.270523,21.191216,0.53881836,0.085754395,0.86846924,0.013671875,0.016601562,-0.033203125,68.79513,-1.7110009,-129.20132,20.059647,0.0,0.0,0.0,0.0,0.0,0.0,0.0,15.323355,-129.64891,9.586745,0.0,0.0,0.0,0.0,0.0,0.0,0.0,-0.1837179,0.0151919555,-0.9829888,-0.9793091,0.047790527,-0.21917725,0.016601562,-0.13476562,-0.103515625,1.4854306,-3.80353,0.3145206,-20.350916,-0.97924805,-0.1303711,-0.09698486,-0.037109375,0.057617188,0.056640625,2.7947733,-6.2918673,-56.63031,-19.314821,0.48492432,0.046020508,0.8725586,-0.0234375,-0.01953125,0.001953125,5.9272804,-7.506289,-128.47073,-14.48967,0.0,0.0,0.0,0.0,0.0,0.0,0.0,12.411909,-129.50684,-15.994311,-0.98876953,-0.18682861,0.011047363,-0.67578125,0.80371094,1.2070312,0.0,1.8719814,44.96535,0.34506518,
1.8945312217692847,97,-0.8110962,-0.32696533,0.47143555,0.020507812,-0.049804688,-0.0546875,0.0,0.0,0.0,0.0,0.0,0.0,0.0,0.0,0.0,0.0,0.0,0.18628925,-0.0137004275,0.98252386,-0.9182129,0.024719238,-0.25463867,-0.022460938,-0.025390625,0.047851562,1.1552135,3.8567643,-0.28364134,20.341288,-1.0072021,0.0791626,0.013793945,-0.032226562,0.02734375,0.013671875,2.1514049,1.7078946,-57.24853,21.122576,0.5444336,0.06536865,0.8366699,0.013671875,-0.021484375,-0.015625,68.77758,-1.527638,-129.18132,20.062473,0.0,0.0,0.0,0.0,0.0,0.0,0.0,15.528492,-129.62285,9.623461,0.0,0.0,0.0,0.0,0.0,0.0,0.0,-0.18628925,0.0137004275,-0.98252386,-0.9802246,0.01928711,-0.23657227,0.07714844,-0.17480469,-0.107421875,1.3392526,-3.8567643,0.28364134,-20.341288,-0.97717285,-0.12738037,-0.101867676,-0.037109375,0.01953125,0.018554688,2.785653,-6.2416744,-56.666615,-19.343458,0.49432373,0.08868408,0.88726807,-0.0048828125,-0.018554688,0.0029296875,5.6718116,-7.4771495,-128.51077,-14.541036,0.0,0.0,0.0,0.0,0.0,0.0,0.0,12.445559,-129.54129,-16.002787,-0.9507446,-0.1817627,0.004760742,-0.4326172,0.7080078,1.1318359,0.0,1.915163,44.96396,0.2638625,
1.9140624714782464,98,-0.7982178,-0.3151245,0.47125244,0.01953125,0.005859375,-0.072265625,0.0,0.0,0.0,0.0,0.0,0.0,0.0,0.0,0.0,0.0,0.0,0.1849443,-0.01159263,0.98280853,-0.93444824,0.013244629,-0.25842285,0.09082031,0.064453125,0.047851562,1.0484786,3.8289206,-0.2400034,20.347183,-0.9769287,0.0871582,0.005004883,-0.013671875,-0.009765625,0.0146484375,2.1407347,1.7673547,-57.204624,21.108877,0.5462036,0.051696777,0.83062744,0.013671875,0.036132812,0.00390625,68.790016,-1.4497831,-129.1357,20.10828,0.0,0.0,0.0,0.0,0.0,0.0,0.0,15.599613,-129.57501,9.659395,0.0,0.0,0.0,0.0,0.0,0.0,0.0,-0.1849443,0.01159263,-0.98280853,-0.95703125,0.021240234,-0.25549316,0.1875,-0.12988281,-0.083984375,1.2004043,-3.8289206,0.2400034,-20.347183,-0.99542236,-0.11932373,-0.10961914,-0.037109375,0.01953125,0.037109375,2.7866368,-6.250282,-56.7079,-19.367777,0.48101807,0.045837402,0.87957764,-0.0048828125,0.0,-0.016601562,5.654126,-7.545462,-128.55211,-14.593393,0.0,0.0,0.0,0.0,0.0,0.0,0.0,12.369432,-129.59052,-16.142986,-0.90148926,-0.11352539,0.007385254,-0.29882812,0.76660156,1.0361328,0.0,1.9168125,44.964497,0.1696701,
1.933593721187208,99,-0.77716064,-0.33288574,0.4944458,0.14941406,0.099609375,-0.037109375,0.0,0.0,0.0,0.0,0.0,0.0,0.0,0.0,0.0,0.0,0.0,0.18618354,-0.009699543,0.9825512,-0.9480591,0.04498291,-0.2510376,0.034179688,0.06542969,0.06640625,0.9512104,3.8545766,-0.20081061,20.341858,-0.9949951,0.050231934,0.002746582,-0.032226562,0.0087890625,0.033203125,2.1660018,1.8533823,-57.16579,21.108805,0.5305786,0.082336426,0.82214355,-0.005859375,0.016601562,0.00390625,68.80977,-1.3170154,-129.09764,20.099407,0.0,0.0,0.0,0.0,0.0,0.0,0.0,15.744035,-129.53633,9.666515,0.0,0.0,0.0,0.0,0.0,0.0,0.0,-0.18618354,0.009699543,-0.9825512,-0.96417236,0.04486084,-0.24212646,0.20996094,-0.11230469,-0.06738281,1.0932482,-3.8545766,0.20081061,-20.341858,-0.99542236,-0.11645508,-0.10559082,-0.037109375,9.765625E-4,0.037109375,2.8042827,-6.3064394,-56.74648,-19.382074,0.48931885,0.08062744,0.88934326,-0.0048828125,0.0,-0.016601562,5.459518,-7.654271,-128.58748,-14.612809,0.0,0.0,0.0,0.0,0.0,0.0,0.0,12.258,-129.62805,-16.204401,-0.9179077,-0.08886719,0.020446777,-0.35253906,0.9033203,1.0146484,0.0,1.8387716,44.966038,0.0954667,
1.9531249708961698,100,-0.79229736,-0.33569336,0.52648926,0.16796875,0.13671875,-0.07421875,0.0,0.0,0.0,0.0,0.0,0.0,0.0,0.0,0.0,0.0,0.0,0.19026515,-0.008421479,0.98185515,-0.93792725,0.054748535,-0.27581787,0.09082031,0.046875,0.08496094,0.9061184,3.9390788,-0.17435071,20.327448,-0.9700928,0.08081055,0.017822266,-0.032226562,0.02734375,0.013671875,2.200515,1.9590815,-57.14576,21.132242,0.57006836,0.09423828,0.8360596,0.013671875,-0.0029296875,-0.0146484375,68.734,-1.2065257,-129.08215,20.134184,0.0,0.0,0.0,0.0,0.0,0.0,0.0,15.872381,-129.51088,9.730974,0.0,0.0,0.0,0.0,0.0,0.0,0.0,-0.19026515,0.008421479,-0.98185515,-0.9682617,0.053771973,-0.24591064,0.17675781,-0.099609375,-0.07324219,1.1403811,-3.9390788,0.17435071,-20.327448,-0.97509766,-0.11584473,-0.09362793,-0.037109375,9.765625E-4,0.017578125,2.730795,-6.483172,-56.772346,-19.2745,0.5036011,0.070495605,0.90826416,0.032226562,9.765625E-4,0.0029296875,5.4168887,-7.8658,-128.61232,-14.509726,0.0,0.0,0.0,0.0,0.0,0.0,0.0,12.043292,-129.65797,-16.141579,-0.94696045,-0.04107666,-1.2207031E-4,-0.5722656,1.0214844,0.9580078,0.0,1.7933848,44.971245,0.0381988,
1.9726562206051315,101,-0.80877686,-0.27947998,0.52545166,0.16796875,0.11816406,-0.11230469,0.0,0.0,0.0,0.0,0.0,0.0,0.0,0.0,0.0,0.0,0.0,0.19624212,-0.007472314,0.980669,-0.93585205,0.05871582,-0.27874756,0.14746094,0.02734375,0.06542969,0.83743393,4.0628204,-0.1547001,20.302889,-0.9737549,0.091308594,-0.014831543,-0.05078125,0.046875,-0.0048828125,2.2487276,2.1317124,-57.12247,21.099445,0.5578613,0.08557129,0.8477783,0.013671875,-0.021484375,-0.034179688,68.67872,-1.0826378,-129.05394,20.097887,0.0,0.0,0.0,0.0,0.0,0.0,0.0,15.999563,-129.4743,9.701344,0.0,0.0,0.0,0.0,0.0,0.0,0.0,-0.19624212,0.007472314,-0.980669,-0.9763794,0.06854248,-0.22973633,0.19042969,-0.15136719,-0.046875,1.2104691,-4.0628204,0.1547001,-20.302889,-0.9720459,-0.11584473,-0.09466553,-0.037109375,-0.018554688,0.017578125,2.6181574,-6.5435038,-56.787617,-19.1315,0.47607422,0.077697754,0.8774414,0.033203125,0.0390625,-0.016601562,5.4762197,-7.9458866,-128.62582,-14.342983,0.0,0.0,0.0,0.0,0.0,0.0,0.0,11.956396,-129.67097,-16.031912,-0.9815674,-0.07757568,0.010070801,-0.8730469,1.0400391,1.0546875,0.0,1.7267826,44.973125,-0.0028694868,
1.9921874703140932,102,-0.8300171,-0.27929688,0.5615845,0.24316406,0.11816406,-0.09472656,0.0,0.0,0.0,0.0,0.0,0.0,0.0,0.0,0.0,0.0,0.0,0.1980541,-0.0070659686,0.9803243,-0.9289551,0.05279541,-0.30065918,0.09082031,0.045898438,0.06640625,0.79055774,4.100335,-0.14628744,20.295752,-0.98498535,0.08294678,-0.024841309,-0.0703125,0.047851562,0.013671875,2.2492497,2.1823628,-57.11631,21.074726,0.54681396,0.09185791,0.8192749,0.013671875,-0.021484375,-0.015625,68.70335,-1.0301802,-129.04927,20.059437,0.0,0.0,0.0,0.0,0.0,0.0,0.0,16.048128,-129.47224,9.653003,0.0,0.0,0.0,0.0,0.0,0.0,0.0,-0.1980541,0.0070659686,-0.9803243,-0.98443604,0.06365967,-0.22576904,0.17285156,-0.15332031,-0.048828125,1.3333951,-4.100335,0.14628744,-20.295752,-0.9904175,-0.12573242,-0.065979004,-0.056640625,-0.018554688,0.017578125,2.5015504,-6.5436735,-56.799843,-19.001118,0.49127197,0.072753906,0.88635254,0.032226562,9.765625E-4,-0.016601562,5.6435447,-7.9365516,-128.64175,-14.203236,0.0,0.0,0.0,0.0,0.0,0.0,0.0,11.963297,-129.68954,-15.928874,-0.9574585,-0.12017822,0.018798828,-0.8925781,0.9433594,1.0380859,0.0,1.6571999,44.976482,-0.010621846,
2.011718720023055,103,-0.7855835,-0.3012085,0.5286865,0.16894531,0.0625,-0.09375,0.0,0.0,0.0,0.0,0.0,0.0,0.0,0.0,0.0,0.0,0.0,0.2035808,-0.008168333,0.97917104,-0.9246826,0.06939697,-0.29467773,0.18457031,0.08203125,0.046875,0.81565374,4.214753,-0.1691098,20.271877,-0.97387695,0.08709717,0.003967285,-0.0703125,0.047851562,0.013671875,2.2050464,2.2428846,-57.136787,21.030834,0.5446167,0.078186035,0.82110596,0.033203125,-0.021484375,0.0029296875,68.67325,-0.9852562,-129.06726,20.014223,0.0,0.0,0.0,0.0,0.0,0.0,0.0,16.089575,-129.48479,9.6055565,0.0,0.0,0.0,0.0,0.0,0.0,0.0,-0.2035808,0.008168333,-0.97917104,-0.98046875,0.08404541,-0.16906738,0.25,-0.171875,-0.0703125,1.4850354,-4.214753,0.1691098,-20.271877,-0.9711304,-0.1171875,-0.0657959,-0.056640625,0.0,0.037109375,2.3863852,-6.519614,-56.775105,-18.864733,0.48028564,0.078552246,0.8894043,0.0126953125,-0.017578125,-0.03515625,5.7327514,-7.898902,-128.6097,-14.039691,0.0,0.0,0.0,0.0,0.0,0.0,0.0,12.001357,-129.65997,-15.773401,-0.96191406,-0.13946533,0.0018920898,-0.63183594,0.9042969,0.99902344,0.0,1.6206819,44.977264,0.038246185,
2.0312499697320168,104,-0.7890625,-0.25769043,0.55700684,0.09375,0.0625,-0.07324219,0.0,0.0,0.0,0.0,0.0,0.0,0.0,0.0,0.0,0.0,0.0,0.20274293,-0.009857152,0.97932106,-0.9187012,0.070373535,-0.3184204,0.109375,0.028320312,0.06542969,0.93481755,4.197408,-0.20407362,20.274982,-0.97387695,0.08709717,0.003967285,-0.0703125,0.047851562,0.013671875,2.1585796,2.1369905,-57.168026,21.049664,0.55200195,0.09643555,0.84991455,0.033203125,-0.021484375,-0.034179688,68.630135,-1.0911503,-129.0985,20.033052,0.0,0.0,0.0,0.0,0.0,0.0,0.0,15.992128,-129.51154,9.637178,0.0,0.0,0.0,0.0,0.0,0.0,0.0,-0.20274293,0.009857152,-0.97932106,-0.96643066,0.1038208,-0.19055176,0.27246094,-0.15527344,-0.053710938,1.7073147,-4.197408,0.20407362,-20.274982,-0.9782715,-0.12884521,-0.06304932,-0.056640625,-0.018554688,0.017578125,2.2280922,-6.360713,-56.74093,-18.737028,0.5029907,0.07727051,0.86431885,0.032226562,-0.017578125,-0.015625,5.7623177,-7.7391443,-128.5788,-13.920227,0.0,0.0,0.0,0.0,0.0,0.0,0.0,12.159442,-129.6283,-15.662058,-0.9220581,-0.0925293,0.0045776367,-0.38867188,0.9423828,1.0146484,0.0,1.596854,44.977604,0.122125685,
