TOTAL_TIME,0m43s
TOTAL_FRAMES,2219
SELECTED_FRAMES,2219
NO_OF_JOINTS,12
FREQUENCY,51.2
DESCRIPTION,Capture 24
TIME_STAMP,Oct 11, 2010

Time,Frame,Pelvis_accelX_Pelvis,Pelvis_accelY_Pelvis,Pelvis_accelZ_Pelvis,Pelvis_gyroX_Pelvis,Pelvis_gyroY_Pelvis,Pelvis_gyroZ_Pelvis,Pelvis_Joint angle_Pelvis,Pelvis_Relative pos X_Pelvis,Pelvis_Relative pos Y_Pelvis,Pelvis_Relative pos Z_Pelvis,RightPelvis_accelX_RightPelvis,RightPelvis_accelY_RightPelvis,RightPelvis_accelZ_RightPelvis,RightPelvis_gyroX_RightPelvis,RightPelvis_gyroY_RightPelvis,RightPelvis_gyroZ_RightPelvis,RightPelvis_Joint angle_RightPelvis,RightPelvis_Relative pos X_RightPelvis,RightPelvis_Relative pos Y_RightPelvis,RightPelvis_Relative pos Z_RightPelvis,RightUpLeg_accelX_RightUpLeg,RightUpLeg_accelY_RightUpLeg,RightUpLeg_accelZ_RightUpLeg,RightUpLeg_gyroX_RightUpLeg,RightUpLeg_gyroY_RightUpLeg,RightUpLeg_gyroZ_RightUpLeg,RightUpLeg_Joint angle_RightUpLeg,RightUpLeg_Relative pos X_RightUpLeg,RightUpLeg_Relative pos Y_RightUpLeg,RightUpLeg_Relative pos Z_RightUpLeg,RightLeg_accelX_RightLeg,RightLeg_accelY_RightLeg,RightLeg_accelZ_RightLeg,RightLeg_gyroX_RightLeg,RightLeg_gyroY_RightLeg,RightLeg_gyroZ_RightLeg,RightLeg_Joint angle_RightLeg,RightLeg_Relative pos X_RightLeg,RightLeg_Relative pos Y_RightLeg,RightLeg_Relative pos Z_RightLeg,RightFoot_accelX_RightFoot,RightFoot_accelY_RightFoot,RightFoot_accelZ_RightFoot,RightFoot_gyroX_RightFoot,RightFoot_gyroY_RightFoot,RightFoot_gyroZ_RightFoot,RightFoot_Joint angle_RightFoot,RightFoot_Relative pos X_RightFoot,RightFoot_Relative pos Y_RightFoot,RightFoot_Relative pos Z_RightFoot,RightFootEnd_accelX_RightFootEnd,RightFootEnd_accelY_RightFootEnd,RightFootEnd_accelZ_RightFootEnd,RightFootEnd_gyroX_RightFootEnd,RightFootEnd_gyroY_RightFootEnd,RightFootEnd_gyroZ_RightFootEnd,RightFootEnd_Joint angle_RightFootEnd,RightFootEnd_Relative pos X_RightFootEnd,RightFootEnd_Relative pos Y_RightFootEnd,RightFootEnd_Relative pos Z_RightFootEnd,LeftPelvis_accelX_LeftPelvis,LeftPelvis_accelY_LeftPelvis,LeftPelvis_accelZ_LeftPelvis,LeftPelvis_gyroX_LeftPelvis,LeftPelvis_gyroY_LeftPelvis,LeftPelvis_gyroZ_LeftPelvis,LeftPelvis_Joint angle_LeftPelvis,LeftPelvis_Relative pos X_LeftPelvis,LeftPelvis_Relative pos Y_LeftPelvis,LeftPelvis_Relative pos Z_LeftPelvis,LeftUpLeg_accelX_LeftUpLeg,LeftUpLeg_accelY_LeftUpLeg,LeftUpLeg_accelZ_LeftUpLeg,LeftUpLeg_gyroX_LeftUpLeg,LeftUpLeg_gyroY_LeftUpLeg,LeftUpLeg_gyroZ_LeftUpLeg,LeftUpLeg_Joint angle_LeftUpLeg,LeftUpLeg_Relative pos X_LeftUpLeg,LeftUpLeg_Relative pos Y_LeftUpLeg,LeftUpLeg_Relative pos Z_LeftUpLeg,LeftLeg_accelX_LeftLeg,LeftLeg_accelY_LeftLeg,LeftLeg_accelZ_LeftLeg,LeftLeg_gyroX_LeftLeg,LeftLeg_gyroY_LeftLeg,LeftLeg_gyroZ_LeftLeg,LeftLeg_Joint angle_LeftLeg,LeftLeg_Relative pos X_LeftLeg,LeftLeg_Relative pos Y_LeftLeg,LeftLeg_Relative pos Z_LeftLeg,LeftFoot_accelX_LeftFoot,LeftFoot_accelY_LeftFoot,LeftFoot_accelZ_LeftFoot,LeftFoot_gyroX_LeftFoot,LeftFoot_gyroY_LeftFoot,LeftFoot_gyroZ_LeftFoot,LeftFoot_Joint angle_LeftFoot,LeftFoot_Relative pos X_LeftFoot,LeftFoot_Relative pos Y_LeftFoot,LeftFoot_Relative pos Z_LeftFoot,LeftFootEnd_accelX_LeftFootEnd,LeftFootEnd_accelY_LeftFootEnd,LeftFootEnd_accelZ_LeftFootEnd,LeftFootEnd_gyroX_LeftFootEnd,LeftFootEnd_gyroY_LeftFootEnd,LeftFootEnd_gyroZ_LeftFootEnd,LeftFootEnd_Joint angle_LeftFootEnd,LeftFootEnd_Relative pos X_LeftFootEnd,LeftFootEnd_Relative pos Y_LeftFootEnd,LeftFootEnd_Relative pos Z_LeftFootEnd,Spine_accelX_Spine,Spine_accelY_Spine,Spine_accelZ_Spine,Spine_gyroX_Spine,Spine_gyroY_Spine,Spine_gyroZ_Spine,Spine_Joint angle_Spine,Spine_Relative pos X_Spine,Spine_Relative pos Y_Spine,Spine_Relative pos Z_Spine,
0.0,0,0.0,0.0,0.0,0.0,0.0,0.0,0.0,0.0,0.0,0.0,0.0,0.0,0.0,0.0,0.0,0.0,0.0,0.0,0.0,0.0,0.0,0.0,0.0,0.0,0.0,0.0,NaN,0.0,0.0,0.0,0.0,0.0,0.0,0.0,0.0,0.0,NaN,0.0,0.0,0.0,0.0,0.0,0.0,0.0,0.0,0.0,NaN,0.0,0.0,0.0,0.0,0.0,0.0,0.0,0.0,0.0,0.0,0.0,0.0,0.0,0.0,0.0,0.0,0.0,0.0,0.0,0.0,0.0,0.0,0.0,0.0,0.0,0.0,0.0,0.0,0.0,NaN,0.0,0.0,0.0,0.0,0.0,0.0,0.0,0.0,0.0,NaN,0.0,0.0,0.0,0.0,0.0,0.0,0.0,0.0,0.0,NaN,0.0,0.0,0.0,0.0,0.0,0.0,0.0,0.0,0.0,0.0,0.0,0.0,0.0,0.0,0.0,0.0,0.0,0.0,0.0,0.0,0.0,0.0,0.0,
0.0195312497089617,1,0.0,0.0,0.0,0.0,0.0,0.0,0.0,0.0,0.0,0.0,0.0,0.0,0.0,0.0,0.0,0.0,0.0,0.0,0.0,0.0,0.0,0.0,0.0,0.0,0.0,0.0,NaN,0.0,0.0,0.0,0.0,0.0,0.0,0.0,0.0,0.0,NaN,0.0,0.0,0.0,0.0,0.0,0.0,0.0,0.0,0.0,NaN,0.0,0.0,0.0,0.0,0.0,0.0,0.0,0.0,0.0,0.0,0.0,0.0,0.0,0.0,0.0,0.0,0.0,0.0,0.0,0.0,0.0,0.0,0.0,0.0,0.0,0.0,0.0,0.0,0.0,NaN,0.0,0.0,0.0,0.0,0.0,0.0,0.0,0.0,0.0,NaN,0.0,0.0,0.0,0.0,0.0,0.0,0.0,0.0,0.0,NaN,0.0,0.0,0.0,0.0,0.0,0.0,0.0,0.0,0.0,0.0,0.0,0.0,0.0,0.0,0.0,0.0,0.0,0.0,0.0,0.0,0.0,0.0,0.0,
0.0390624994179234,2,0.0,0.0,0.0,0.0,0.0,0.0,0.0,0.0,0.0,0.0,0.0,0.0,0.0,0.0,0.0,0.0,0.0,0.0,0.0,0.0,0.0,0.0,0.0,0.0,0.0,0.0,NaN,0.0,0.0,0.0,0.0,0.0,0.0,0.0,0.0,0.0,NaN,0.0,0.0,0.0,0.0,0.0,0.0,0.0,0.0,0.0,NaN,0.0,0.0,0.0,0.0,0.0,0.0,0.0,0.0,0.0,0.0,0.0,0.0,0.0,0.0,0.0,0.0,0.0,0.0,0.0,0.0,0.0,0.0,0.0,0.0,0.0,0.0,0.0,0.0,0.0,NaN,0.0,0.0,0.0,0.0,0.0,0.0,0.0,0.0,0.0,NaN,0.0,0.0,0.0,0.0,0.0,0.0,0.0,0.0,0.0,NaN,0.0,0.0,0.0,0.0,0.0,0.0,0.0,0.0,0.0,0.0,0.0,0.0,0.0,0.0,0.0,0.0,0.0,0.0,0.0,0.0,0.0,0.0,0.0,
0.0585937491268851,3,-0.85369873,-0.34777832,0.41558838,-0.017578125,-0.0126953125,-0.12792969,0.0,0.0,0.0,0.0,0.0,0.0,0.0,0.0,0.0,0.0,0.0,-0.55636406,0.11012015,-0.8237045,-0.9293213,0.022033691,-0.2584839,-0.09765625,0.029296875,0.029296875,6.3371634,-11.518461,2.2798283,-17.053236,-0.99609375,0.04650879,-0.010192871,-0.005859375,0.30664062,-0.024414062,3.139371,-11.486227,-54.72758,-17.056536,0.5368042,0.089904785,0.84490967,0.013671875,0.016601562,-0.0146484375,56.429893,-8.308088,-126.672745,-16.963419,0.0,0.0,0.0,0.0,0.0,0.0,0.0,-13.186069,-126.92934,2.4345684,0.0,0.0,0.0,0.0,0.0,0.0,0.0,0.55636406,-0.11012015,0.8237045,-0.9986572,0.10021973,-0.03503418,0.037109375,-0.041015625,-0.16601562,5.835327,11.518461,-2.2798283,17.053236,-0.9628906,-0.15777588,-0.2590332,0.061523438,1.2470703,0.68359375,16.631025,2.9910583,-58.594757,14.681954,0.5109253,0.055480957,0.86138916,0.5048828,1.2275391,0.6796875,32.9843,11.429775,-129.64809,6.583911,0.0,0.0,0.0,0.0,0.0,0.0,0.0,12.881811,-131.08365,26.482204,-0.95202637,-0.1303711,-0.04486084,-0.90722656,0.98535156,0.8876953,0.0,2.750417,44.729855,4.12214,
0.0781249988358468,4,-0.84106445,-0.29260254,0.40197754,-0.09277344,0.0068359375,-0.12695312,0.0,0.0,0.0,0.0,0.0,0.0,0.0,0.0,0.0,0.0,0.0,-0.55752003,0.111057006,-0.8228841,-0.93933105,0.025268555,-0.2789917,-0.09765625,0.029296875,0.029296875,6.3717837,-11.542393,2.2992246,-17.036251,-0.98547363,0.03302002,0.004638672,-0.0107421875,0.10253906,-0.08105469,3.278949,-11.525334,-54.712044,-17.052414,0.52319336,0.11755371,0.84033203,0.033203125,0.016601562,-0.0146484375,56.23974,-8.181845,-126.64724,-16.914173,0.0,0.0,0.0,0.0,0.0,0.0,0.0,-13.017525,-126.88564,2.4935513,0.0,0.0,0.0,0.0,0.0,0.0,0.0,0.55752003,-0.111057006,0.8228841,-0.9885864,0.099975586,-0.0034179688,0.20214844,-0.10644531,-0.12011719,5.983827,11.542393,-2.2992246,17.036251,-0.949646,-0.15020752,-0.2548828,0.022460938,1.0009766,0.6035156,17.634289,3.013483,-58.62518,14.874332,0.5050659,0.08526611,0.8642578,0.2705078,0.7167969,0.3779297,32.19035,12.17465,-129.39832,5.21068,0.0,0.0,0.0,0.0,0.0,0.0,0.0,13.355528,-130.66292,25.13796,-0.958313,-0.1529541,-0.021972656,-1.0205078,1.0039062,0.94433594,0.0,2.7451925,44.728382,4.176652,
0.09765624854480849,5,-0.8569946,-0.32507324,0.42877197,-0.055664062,-0.0126953125,-0.109375,0.0,0.0,0.0,0.0,0.0,0.0,0.0,0.0,0.0,0.0,0.0,-0.5588053,0.11148791,-0.8219553,-0.9312744,0.022949219,-0.24359131,-0.09765625,0.030273438,0.047851562,6.3774433,-11.569002,2.3081453,-17.017023,-0.9875488,0.030334473,-0.009277344,-0.051757812,0.009765625,0.033203125,3.264288,-11.576101,-54.699203,-17.041225,0.5070801,0.11791992,0.83148193,0.013671875,0.016601562,-0.0146484375,56.072903,-8.279663,-126.63436,-16.894854,0.0,0.0,0.0,0.0,0.0,0.0,0.0,-13.070978,-126.861534,2.5233498,0.0,0.0,0.0,0.0,0.0,0.0,0.0,0.5588053,-0.11148791,0.8219553,-0.9916992,0.12567139,-0.010864258,0.22167969,-0.08691406,-0.12011719,6.195206,11.569002,-2.3081453,17.017023,-0.9576416,-0.13452148,-0.25250244,0.0029296875,0.5859375,0.31152344,18.398808,2.9734058,-58.62837,15.058747,0.49414062,0.075927734,0.87731934,-0.041015625,0.056640625,-0.055664062,32.120754,12.580965,-129.20007,4.39182,0.0,0.0,0.0,0.0,0.0,0.0,0.0,13.731191,-130.39996,24.324902,-0.9649048,-0.13122559,-0.030822754,-0.7216797,0.67871094,0.72265625,0.0,2.726744,44.72619,4.2127714,
0.11718749825377019,6,-0.8450928,-0.31713867,0.4484253,-0.0546875,-0.049804688,-0.14648438,0.0,0.0,0.0,0.0,0.0,0.0,0.0,0.0,0.0,0.0,0.0,-0.5602097,0.11186294,-0.8208796,-0.9425049,0.010314941,-0.23364258,-0.041015625,0.06542969,0.029296875,6.396753,-11.598077,2.3159096,-16.994753,-0.9824829,0.034729004,0.014587402,-0.032226562,0.02734375,0.033203125,3.2329504,-11.6202345,-54.693314,-17.01438,0.526062,0.11065674,0.84020996,0.013671875,-0.001953125,0.00390625,55.9194,-8.380178,-126.62829,-16.849138,0.0,0.0,0.0,0.0,0.0,0.0,0.0,-13.131891,-126.84683,2.5790672,0.0,0.0,0.0,0.0,0.0,0.0,0.0,0.5602097,-0.11186294,0.8208796,-0.9867554,0.15240479,-0.030151367,0.18945312,-0.09375,-0.10644531,6.401165,11.598077,-2.3159096,16.994753,-0.9659424,-0.15692139,-0.24707031,9.765625E-4,9.765625E-4,0.017578125,18.668577,2.9045458,-58.626575,15.169577,0.5048828,0.061462402,0.85736084,0.033203125,0.01953125,0.021484375,32.211006,12.603789,-129.15456,4.3149405,0.0,0.0,0.0,0.0,0.0,0.0,0.0,13.8035755,-130.374,24.243958,-0.9546509,-0.11981201,-0.022949219,-0.68359375,0.7548828,0.7402344,0.0,2.704091,44.72161,4.2488976,
0.1367187479627319,7,-0.8327637,-0.34283447,0.4281006,0.020507812,-0.0126953125,0.001953125,0.0,0.0,0.0,0.0,0.0,0.0,0.0,0.0,0.0,0.0,0.0,-0.5611972,0.111490756,-0.8202557,-0.9552002,0.03930664,-0.26574707,-0.041015625,0.0107421875,0.0107421875,6.3499904,-11.618523,2.3082042,-16.981834,-0.9735718,0.02960205,0.010559082,-0.0126953125,0.02734375,0.013671875,3.1693473,-11.639097,-54.697983,-17.031364,0.5136719,0.09240723,0.82818604,0.013671875,-0.001953125,0.00390625,55.704742,-8.469938,-126.637596,-16.841412,0.0,0.0,0.0,0.0,0.0,0.0,0.0,-13.17687,-126.84082,2.5981178,0.0,0.0,0.0,0.0,0.0,0.0,0.0,0.5611972,-0.111490756,0.8202557,-0.9857788,0.1583252,-0.032043457,0.087890625,-0.10839844,-0.09863281,6.500864,11.618523,-2.3082042,16.981834,-0.9616089,-0.11413574,-0.24707031,-0.037109375,0.0390625,0.018554688,18.709652,2.8241978,-58.607887,15.249301,0.49975586,0.08459473,0.84332275,-0.0048828125,0.0,0.001953125,32.22971,12.418674,-129.15067,4.4304533,0.0,0.0,0.0,0.0,0.0,0.0,0.0,13.644741,-130.35559,24.35833,-0.94470215,-0.123046875,-0.015075684,-0.7216797,0.7167969,0.7216797,0.0,2.7188148,44.72358,4.218775,
0.1562499976716936,8,-0.8430786,-0.2994995,0.41290283,0.020507812,-0.03125,0.020507812,0.0,0.0,0.0,0.0,0.0,0.0,0.0,0.0,0.0,0.0,0.0,-0.56277525,0.110037,-0.8194154,-0.94989014,0.060791016,-0.25775146,-0.022460938,0.029296875,0.047851562,6.2236853,-11.651193,2.2781072,-16.96444,-0.9803467,0.038757324,0.008666992,-0.032226562,0.02734375,0.033203125,3.1961045,-11.7189,-54.731236,-17.0322,0.49487305,0.10424805,0.8569336,0.033203125,0.016601562,-0.0146484375,55.775764,-8.570575,-126.66997,-16.831621,0.0,0.0,0.0,0.0,0.0,0.0,0.0,-13.201613,-126.85661,2.6263504,0.0,0.0,0.0,0.0,0.0,0.0,0.0,0.56277525,-0.110037,0.8194154,-0.9908447,0.16320801,-0.020996094,0.018554688,-0.09863281,-0.12597656,6.548979,11.651193,-2.2781072,16.96444,-0.9647217,-0.13616943,-0.27246094,-0.037109375,0.01953125,0.018554688,18.718626,2.7799873,-58.566456,15.300469,0.4991455,0.067993164,0.8763428,0.0146484375,0.018554688,0.021484375,32.296093,12.272862,-129.1356,4.523596,0.0,0.0,0.0,0.0,0.0,0.0,0.0,13.56213,-130.33087,24.448229,-0.95617676,-0.13604736,-0.056762695,-0.7949219,0.81347656,0.75878906,0.0,2.71869,44.732635,4.139822,
0.1757812473806553,9,-0.8409424,-0.3348999,0.446167,0.020507812,-0.0126953125,0.020507812,0.0,0.0,0.0,0.0,0.0,0.0,0.0,0.0,0.0,0.0,0.0,-0.56340414,0.109174915,-0.81904227,-0.9160156,0.042419434,-0.2545166,-0.07910156,0.029296875,0.029296875,6.1539936,-11.664213,2.2602594,-16.956713,-0.977478,0.035339355,0.030456543,-0.05078125,0.046875,0.032226562,3.1525633,-11.727098,-54.750355,-17.051455,0.53900146,0.10461426,0.8322754,0.013671875,-0.0029296875,-0.0146484375,55.552208,-8.626287,-126.69354,-16.868454,0.0,0.0,0.0,0.0,0.0,0.0,0.0,-13.230442,-126.86226,2.5949974,0.0,0.0,0.0,0.0,0.0,0.0,0.0,0.56340414,-0.109174915,0.81904227,-0.9807129,0.14733887,-0.018432617,0.10449219,-0.068359375,-0.13671875,6.5792117,11.664213,-2.2602594,16.956713,-0.96276855,-0.13739014,-0.25457764,-0.037109375,9.765625E-4,0.017578125,18.666977,2.7832623,-58.55102,15.367081,0.5152588,0.076171875,0.87719727,-0.0048828125,-0.018554688,-0.016601562,32.29585,12.178055,-129.14272,4.641798,0.0,0.0,0.0,0.0,0.0,0.0,0.0,13.485888,-130.32887,24.565205,-0.9473877,-0.15216064,-0.027038574,-0.8154297,0.7548828,0.796875,0.0,2.7097661,44.734856,4.098971,
0.19531249708961698,10,-0.8377075,-0.33898926,0.4024048,0.01953125,0.005859375,0.001953125,0.0,0.0,0.0,0.0,0.0,0.0,0.0,0.0,0.0,0.0,0.0,-0.5653715,0.10846466,-0.81781465,-0.932251,0.025939941,-0.246521,-0.00390625,0.06542969,0.047851562,6.109585,-11.704944,2.2455547,-16.931297,-0.9849243,0.017456055,-0.012329102,-0.03125,0.045898438,0.013671875,3.156163,-11.784957,-54.762325,-17.017672,0.5362549,0.11431885,0.8530884,0.013671875,-0.0029296875,-0.0146484375,55.633656,-8.699551,-126.70792,-16.818472,0.0,0.0,0.0,0.0,0.0,0.0,0.0,-13.2626,-126.86085,2.6562939,0.0,0.0,0.0,0.0,0.0,0.0,0.0,0.5653715,-0.10846466,0.81781465,-0.97869873,0.15026855,-0.014465332,0.05078125,-0.091796875,-0.13964844,6.601469,11.704944,-2.2455547,16.931297,-0.9536743,-0.13861084,-0.24365234,-0.037109375,9.765625E-4,0.017578125,18.653337,2.793909,-58.53204,15.439383,0.54119873,0.068603516,0.8690796,0.013671875,9.765625E-4,-0.016601562,32.307262,12.1076765,-129.14026,4.779896,0.0,0.0,0.0,0.0,0.0,0.0,0.0,13.432802,-130.32048,24.702429,-0.9592285,-0.14904785,-0.021972656,-0.7402344,0.77441406,0.75878906,0.0,2.7296405,44.739693,4.0466557,
0.21484374679857868,11,-0.8275757,-0.3390503,0.38635254,0.020507812,-0.0126953125,0.001953125,0.0,0.0,0.0,0.0,0.0,0.0,0.0,0.0,0.0,0.0,0.0,-0.56742597,0.10798888,-0.8164492,-0.9425049,0.0134887695,-0.2741089,-0.022460938,0.06542969,0.0107421875,6.088499,-11.747476,2.2357044,-16.903032,-0.994812,0.055541992,-0.023010254,-0.0703125,0.06640625,0.013671875,3.1299405,-11.826884,-54.77086,-16.981672,0.53302,0.10876465,0.81555176,0.013671875,-0.0029296875,-0.0146484375,55.49612,-8.773969,-126.71551,-16.778154,0.0,0.0,0.0,0.0,0.0,0.0,0.0,-13.313478,-126.85789,2.7010098,0.0,0.0,0.0,0.0,0.0,0.0,0.0,0.56742597,-0.10798888,0.8164492,-0.98773193,0.14544678,-0.023376465,-0.00390625,-0.07714844,-0.18261719,6.661089,11.747476,-2.2357044,16.903032,-0.9425049,-0.14465332,-0.2368164,-0.056640625,0.01953125,0.018554688,18.638285,2.7895527,-58.51996,15.535467,0.4979248,0.054260254,0.8654785,-0.0048828125,0.0,-0.03515625,32.34585,11.981969,-129.15045,4.9349422,0.0,0.0,0.0,0.0,0.0,0.0,0.0,13.356169,-130.32314,24.85544,-0.9512329,-0.14215088,-0.043884277,-0.68359375,0.7939453,0.7578125,0.0,2.7496047,44.741882,4.0068984,
0.23437499650754037,12,-0.82562256,-0.32720947,0.37652588,-0.016601562,-0.049804688,0.001953125,0.0,0.0,0.0,0.0,0.0,0.0,0.0,0.0,0.0,0.0,0.0,-0.5686897,0.10743877,-0.81562823,-0.9541626,0.042297363,-0.2805786,-0.041015625,0.047851562,0.047851562,6.015716,-11.77364,2.224316,-16.886032,-0.9975586,0.03137207,0.008544922,-0.032226562,0.045898438,0.033203125,3.1064599,-11.861688,-54.78316,-17.008232,0.52124023,0.12451172,0.83251953,0.052734375,-0.0029296875,-0.0146484375,55.505947,-8.840961,-126.73239,-16.762558,0.0,0.0,0.0,0.0,0.0,0.0,0.0,-13.323379,-126.85908,2.7294598,0.0,0.0,0.0,0.0,0.0,0.0,0.0,0.5686897,-0.10743877,0.81562823,-0.9887085,0.13653564,-0.014587402,-0.020507812,-0.11816406,-0.14453125,6.749303,11.77364,-2.224316,16.886032,-0.9454956,-0.14141846,-0.26068115,-0.017578125,0.020507812,-9.765625E-4,18.674871,2.7686968,-58.501896,15.664129,0.51641846,0.08496094,0.88812256,-0.0048828125,0.0,-0.016601562,32.373234,11.896752,-129.14865,5.124134,0.0,0.0,0.0,0.0,0.0,0.0,0.0,13.292639,-130.31075,25.043142,-0.9482422,-0.14733887,-0.023010254,-0.75878906,0.8125,0.79589844,0.0,2.7577105,44.744064,3.9711301,
0.2539062462165021,13,-0.829895,-0.3330078,0.4281006,-0.017578125,0.005859375,0.0029296875,0.0,0.0,0.0,0.0,0.0,0.0,0.0,0.0,0.0,0.0,0.0,-0.5694107,0.106382065,-0.8152918,-0.92523193,0.028930664,-0.27819824,-0.059570312,0.083984375,0.0107421875,5.937689,-11.7885685,2.2024384,-16.87907,-0.99346924,0.03527832,0.006591797,-0.032226562,0.02734375,0.033203125,3.04459,-11.841631,-54.806877,-17.046808,0.5137329,0.091308594,0.84198,0.013671875,-0.0029296875,-0.0146484375,55.5046,-8.85165,-126.75562,-16.797146,0.0,0.0,0.0,0.0,0.0,0.0,0.0,-13.291912,-126.87662,2.7062721,0.0,0.0,0.0,0.0,0.0,0.0,0.0,0.5694107,-0.106382065,0.8152918,-0.9857178,0.13653564,-0.015625,0.12011719,-0.08300781,-0.1328125,6.880254,11.7885685,-2.2024384,16.87907,-0.95062256,-0.1482544,-0.24987793,-0.037109375,0.0390625,0.018554688,18.738876,2.687273,-58.46727,15.799976,0.52008057,0.082458496,0.861145,0.013671875,-0.018554688,-0.016601562,32.392056,11.723438,-129.13347,5.3102016,0.0,0.0,0.0,0.0,0.0,0.0,0.0,13.151211,-130.28935,25.227253,-0.9520874,-0.13635254,-0.037902832,-0.7392578,0.77441406,0.7402344,0.0,2.7509472,44.750217,3.9178624,
0.2734374959254638,14,-0.838562,-0.3390503,0.37268066,-0.017578125,0.005859375,0.021484375,0.0,0.0,0.0,0.0,0.0,0.0,0.0,0.0,0.0,0.0,0.0,-0.5706316,0.10550622,-0.814568,-0.9251709,0.03277588,-0.2633667,-0.041015625,0.06542969,0.047851562,5.8626394,-11.813844,2.1843057,-16.864082,-0.98236084,0.03942871,0.030456543,-0.051757812,0.028320312,0.033203125,2.998003,-11.847936,-54.82311,-17.076372,0.5267334,0.08917236,0.8380127,0.032226562,0.036132812,0.00390625,55.29859,-8.891888,-126.77254,-16.821495,0.0,0.0,0.0,0.0,0.0,0.0,0.0,-13.3035345,-126.90014,2.687708,0.0,0.0,0.0,0.0,0.0,0.0,0.0,0.5706316,-0.10550622,0.814568,-0.982666,0.13061523,-0.018737793,0.15917969,-0.08300781,-0.09472656,6.964917,11.813844,-2.1843057,16.864082,-0.9465332,-0.1338501,-0.24053955,-0.037109375,9.765625E-4,0.017578125,18.771675,2.6667404,-58.444332,15.923031,0.49780273,0.09246826,0.8482666,-0.0048828125,0.0,-0.016601562,32.457253,11.6397705,-129.1323,5.492838,0.0,0.0,0.0,0.0,0.0,0.0,0.0,13.098939,-130.27444,25.409323,-0.9421997,-0.13946533,-0.04095459,-0.7578125,0.7939453,0.7392578,0.0,2.7496402,44.755005,3.8706403,
0.2929687456344255,15,-0.82385254,-0.31530762,0.40338135,0.01953125,0.005859375,0.020507812,0.0,0.0,0.0,0.0,0.0,0.0,0.0,0.0,0.0,0.0,0.0,-0.5714484,0.105070084,-0.81411684,-0.9304199,0.016113281,-0.2584839,-0.041015625,0.06542969,0.0107421875,5.840901,-11.830752,2.1752765,-16.854742,-0.99938965,0.03656006,-3.6621094E-4,-0.032226562,0.02734375,-0.0048828125,2.9446383,-11.832318,-54.83606,-17.090153,0.5289917,0.099731445,0.8548584,0.033203125,-0.021484375,-0.034179688,55.158665,-8.900705,-126.78531,-16.839025,0.0,0.0,0.0,0.0,0.0,0.0,0.0,-13.294498,-126.9085,2.6745167,0.0,0.0,0.0,0.0,0.0,0.0,0.0,0.5714484,-0.105070084,0.81411684,-0.9837036,0.13458252,-0.018676758,0.15722656,-0.08105469,-0.11230469,6.952317,11.830752,-2.1752765,16.854742,-0.96069336,-0.13354492,-0.25250244,-0.056640625,0.0390625,-9.765625E-4,18.766867,2.676013,-58.438488,16.023235,0.5144043,0.08093262,0.88916016,-0.0048828125,0.0,-0.016601562,32.513985,11.592531,-129.13602,5.6428013,0.0,0.0,0.0,0.0,0.0,0.0,0.0,13.079784,-130.27083,25.556349,-0.96380615,-0.12640381,-0.025878906,-0.8144531,0.83203125,0.8144531,0.0,2.7911463,44.759403,3.8174849,
0.3124999953433872,16,-0.81292725,-0.321167,0.42590332,0.020507812,-0.0126953125,0.020507812,0.0,0.0,0.0,0.0,0.0,0.0,0.0,0.0,0.0,0.0,0.0,-0.57260495,0.10452823,-0.8132756,-0.939209,0.036132812,-0.28778076,-0.041015625,0.046875,0.029296875,5.8168573,-11.854698,2.1640584,-16.837326,-0.9818115,0.023010254,0.0065307617,-0.032226562,0.0087890625,0.013671875,2.9114108,-11.843696,-54.84145,-17.076029,0.5239258,0.10192871,0.8391113,0.051757812,0.016601562,-0.0146484375,55.099743,-8.93694,-126.796036,-16.808437,0.0,0.0,0.0,0.0,0.0,0.0,0.0,-13.302299,-126.907616,2.7125187,0.0,0.0,0.0,0.0,0.0,0.0,0.0,0.57260495,-0.10452823,0.8132756,-0.9927368,0.13458252,-0.019592285,0.15429688,-0.07910156,-0.12988281,7.0433903,11.854698,-2.1640584,16.837326,-0.949646,-0.16082764,-0.26208496,-0.037109375,0.0390625,-9.765625E-4,18.83255,2.6450815,-58.42298,16.149103,0.49206543,0.09106445,0.8652954,0.013671875,9.765625E-4,-0.03515625,32.589268,11.53044,-129.13849,5.8326015,0.0,0.0,0.0,0.0,0.0,0.0,0.0,13.036071,-130.2579,25.74576,-0.9649048,-0.1262207,-0.041748047,-0.83496094,0.7734375,0.8154297,0.0,2.8012528,44.75831,3.7803867,
0.3320312450523489,17,-0.84594727,-0.32904053,0.42852783,9.765625E-4,0.024414062,0.021484375,0.0,0.0,0.0,0.0,0.0,0.0,0.0,0.0,0.0,0.0,0.0,-0.5738491,0.10434785,-0.8124932,-0.92736816,0.017089844,-0.2654419,-0.00390625,0.0107421875,0.029296875,5.8007617,-11.880457,2.160324,-16.821127,-0.98327637,0.039916992,0.004699707,-0.0126953125,0.02734375,0.033203125,2.889815,-11.874179,-54.8491,-17.065823,0.51208496,0.11578369,0.847229,0.013671875,-0.021484375,0.0029296875,54.995956,-8.999892,-126.80359,-16.7835,0.0,0.0,0.0,0.0,0.0,0.0,0.0,-13.337096,-126.90255,2.74193,0.0,0.0,0.0,0.0,0.0,0.0,0.0,0.5738491,-0.10434785,0.8124932,-0.98779297,0.15344238,-0.03704834,0.08300781,-0.10449219,-0.13378906,7.036647,11.880457,-2.160324,16.821127,-0.93847656,-0.15307617,-0.2649536,-0.037109375,0.01953125,-9.765625E-4,18.824984,2.661621,-58.412785,16.185999,0.5088501,0.099609375,0.84417725,0.013671875,-0.018554688,-0.016601562,32.66411,11.508748,-129.13405,5.904621,0.0,0.0,0.0,0.0,0.0,0.0,0.0,13.036189,-130.23781,25.818813,-0.94226074,-0.1373291,-0.053894043,-0.8515625,0.88964844,0.83203125,0.0,2.8262134,44.761723,3.752609,
0.3515624947613106,18,-0.83587646,-0.3388672,0.4321289,0.020507812,-0.0126953125,0.020507812,0.0,0.0,0.0,0.0,0.0,0.0,0.0,0.0,0.0,0.0,0.0,-0.57431084,0.103645235,-0.8121845,-0.928833,0.059387207,-0.25219727,-0.060546875,0.029296875,0.047851562,5.7219377,-11.890016,2.145778,-16.814737,-0.97998047,0.04901123,-0.014099121,-0.032226562,0.02734375,0.033203125,2.8910341,-11.898952,-54.86377,-17.096699,0.52526855,0.12036133,0.85614014,0.033203125,-0.0029296875,-0.0146484375,54.956776,-9.041134,-126.82163,-16.788141,0.0,0.0,0.0,0.0,0.0,0.0,0.0,-13.352865,-126.905556,2.7442875,0.0,0.0,0.0,0.0,0.0,0.0,0.0,0.57431084,-0.103645235,0.8121845,-0.98272705,0.14654541,-0.044128418,0.033203125,-0.07519531,-0.16113281,7.0467315,11.890016,-2.145778,16.814737,-0.9597168,-0.14300537,-0.2736206,-0.037109375,0.0390625,0.018554688,18.7922,2.6857853,-58.40462,16.223373,0.47924805,0.08459473,0.88635254,0.013671875,9.765625E-4,-0.016601562,32.75478,11.507286,-129.14267,5.994913,0.0,0.0,0.0,0.0,0.0,0.0,0.0,13.061891,-130.2436,25.905985,-0.9640503,-0.12896729,-0.061645508,-0.7763672,0.83203125,0.7763672,0.0,2.8097854,44.76237,3.7254052,
0.37109374447027227,19,-0.8720093,-0.3112793,0.4163208,0.01953125,0.024414062,0.001953125,0.0,0.0,0.0,0.0,0.0,0.0,0.0,0.0,0.0,0.0,0.0,-0.575552,0.102936804,-0.81140614,-0.9483032,0.026306152,-0.25512695,-0.07910156,0.06542969,0.0107421875,5.658942,-11.9157095,2.131111,-16.798622,-0.99438477,0.0028686523,-0.008483887,-0.01171875,0.064453125,0.033203125,2.9329815,-11.9572,-54.879818,-17.085005,0.53015137,0.11151123,0.8520508,0.013671875,-0.021484375,-0.015625,54.907223,-9.086607,-126.83479,-16.764309,0.0,0.0,0.0,0.0,0.0,0.0,0.0,-13.3823185,-126.90684,2.77178,0.0,0.0,0.0,0.0,0.0,0.0,0.0,0.575552,-0.102936804,0.81140614,-0.9867554,0.14447021,-0.02142334,0.0546875,-0.057617188,-0.14453125,6.9995284,11.9157095,-2.131111,16.798622,-0.8744507,-0.07092285,-0.5960083,-0.037109375,0.11425781,0.0,19.035961,2.7507696,-58.399136,16.240095,0.5274048,0.074157715,0.88513184,0.013671875,0.01953125,-0.016601562,33.367744,11.917397,-129.01045,6.0040855,0.0,0.0,0.0,0.0,0.0,0.0,0.0,13.496519,-130.11192,25.912624,-0.9517822,-0.11669922,-0.046813965,-0.8144531,0.83203125,0.8144531,0.0,2.8128765,44.766003,3.6838672,
0.39062499417923396,20,-0.85705566,-0.32104492,0.442688,-0.017578125,-0.0126953125,0.021484375,0.0,0.0,0.0,0.0,0.0,0.0,0.0,0.0,0.0,0.0,0.0,-0.5761068,0.102038376,-0.8111358,-0.9324951,0.009277344,-0.26049805,-0.07910156,0.0107421875,0.0107421875,5.58574,-11.9271965,2.1125107,-16.793026,-0.9924927,0.035888672,0.026428223,-0.032226562,0.02734375,0.033203125,2.935383,-11.983477,-54.89704,-17.095943,0.5264282,0.13018799,0.8444214,0.013671875,-0.0029296875,-0.033203125,54.7789,-9.12961,-126.85057,-16.77752,0.0,0.0,0.0,0.0,0.0,0.0,0.0,-13.416019,-126.90555,2.7602673,0.0,0.0,0.0,0.0,0.0,0.0,0.0,0.5761068,-0.102038376,0.8111358,-0.99786377,0.15136719,-0.011291504,0.03125,-0.111328125,-0.13964844,7.1221876,11.9271965,-2.1125107,16.793026,-0.979187,-0.15814209,-0.2121582,-0.037109375,-0.018554688,0.017578125,19.125376,2.6973553,-58.36638,16.375498,0.5070801,0.068237305,0.86828613,0.013671875,-0.037109375,0.0029296875,33.27092,11.83192,-129.05527,6.1335793,0.0,0.0,0.0,0.0,0.0,0.0,0.0,13.431582,-130.14983,26.041729,-0.96624756,-0.14575195,-0.042785645,-0.8515625,0.8701172,0.8330078,0.0,2.798705,44.7705,3.6442184,
0.41015624388819566,21,-0.86932373,-0.28753662,0.43341064,-0.017578125,-0.0126953125,0.021484375,0.0,0.0,0.0,0.0,0.0,0.0,0.0,0.0,0.0,0.0,0.0,-0.5760503,0.10034414,-0.81143314,-0.9324951,0.009277344,-0.26049805,-0.07910156,0.0107421875,0.0107421875,5.491764,-11.926027,2.0774345,-16.799183,-1.0027466,0.024780273,5.493164E-4,-0.05078125,0.046875,0.013671875,2.9119487,-11.982307,-54.932117,-17.1021,0.5264282,0.13018799,0.8444214,0.013671875,-0.0029296875,-0.033203125,54.630466,-9.157751,-126.88823,-16.771381,0.0,0.0,0.0,0.0,0.0,0.0,0.0,-13.44416,-126.94321,2.766405,0.0,0.0,0.0,0.0,0.0,0.0,0.0,0.5760503,-0.10034414,0.81143314,-0.98864746,0.112976074,-0.03186035,0.08691406,-0.051757812,-0.15820312,7.0870647,11.926027,-2.0774345,16.799183,-0.9454346,-0.13238525,-0.27941895,-0.017578125,0.01953125,0.037109375,19.08368,2.7360468,-58.340176,16.466991,0.5037842,0.080566406,0.8463135,0.013671875,0.0,0.0029296875,33.270256,11.818763,-129.04506,6.234894,0.0,0.0,0.0,0.0,0.0,0.0,0.0,13.426952,-130.13496,26.143599,-0.96014404,-0.13708496,-0.043823242,-0.79589844,0.85058594,0.81347656,0.0,2.7878823,44.779762,3.5584273,
0.42968749359715736,22,-0.8366089,-0.3390503,0.38452148,0.020507812,-0.049804688,0.001953125,0.0,0.0,0.0,0.0,0.0,0.0,0.0,0.0,0.0,0.0,0.0,-0.5766212,0.099503376,-0.81105494,-0.92944336,0.013305664,-0.28320312,-0.022460938,0.029296875,0.029296875,5.538491,-11.937848,2.0600283,-16.791351,-0.9798584,0.020019531,0.003540039,-0.0126953125,0.045898438,0.033203125,2.8389013,-11.930337,-54.946724,-17.025938,0.5395508,0.12976074,0.87298584,0.033203125,-0.0029296875,-0.033203125,54.774822,-9.119684,-126.899086,-16.671465,0.0,0.0,0.0,0.0,0.0,0.0,0.0,-13.333909,-126.92298,2.881525,0.0,0.0,0.0,0.0,0.0,0.0,0.0,0.5766212,-0.099503376,0.81105494,-0.9876709,0.12365723,-0.0099487305,0.10644531,-0.051757812,-0.13964844,7.0756516,11.937848,-2.0600283,16.791351,-0.95684814,-0.17053223,-0.25830078,-0.037109375,0.01953125,0.018554688,19.00336,2.8001661,-58.332813,16.53655,0.4951172,0.06896973,0.8763428,-0.0048828125,0.0,-0.016601562,33.3943,11.847091,-129.05368,6.421278,0.0,0.0,0.0,0.0,0.0,0.0,0.0,13.491005,-130.13315,26.326166,-0.96813965,-0.13787842,-0.04272461,-0.77734375,0.9082031,0.8496094,0.0,2.774952,44.780727,3.5210156,
0.44921874330611905,23,-0.85498047,-0.3034668,0.4031372,-0.017578125,0.024414062,0.021484375,0.0,0.0,0.0,0.0,0.0,0.0,0.0,0.0,0.0,0.0,0.0,-0.577369,0.09872097,-0.8107183,-0.9212036,0.026733398,-0.24865723,0.034179688,0.064453125,0.0107421875,5.489551,-11.953327,2.0438302,-16.784382,-0.9835205,0.064819336,-0.008056641,-0.051757812,0.009765625,0.013671875,2.8062365,-11.886675,-54.962994,-17.077503,0.52905273,0.111694336,0.8274536,0.013671875,-0.0029296875,-0.0146484375,54.783348,-9.042521,-126.91603,-16.760803,0.0,0.0,0.0,0.0,0.0,0.0,0.0,-13.250059,-126.93831,2.7938023,0.0,0.0,0.0,0.0,0.0,0.0,0.0,0.577369,-0.09872097,0.8107183,-0.99176025,0.14056396,-0.0234375,0.13671875,-0.08105469,-0.13085938,7.148389,11.953327,-2.0438302,16.784382,-0.9557495,-0.15307617,-0.2539673,9.765625E-4,0.020507812,-9.765625E-4,19.042316,2.7776995,-58.310543,16.655676,0.49401855,0.08709717,0.866272,0.013671875,-0.018554688,-0.016601562,33.41989,11.782841,-129.05052,6.597767,0.0,0.0,0.0,0.0,0.0,0.0,0.0,13.446285,-130.11917,26.501543,-0.9577637,-0.122558594,-0.035827637,-0.81640625,0.8300781,0.88964844,0.0,2.7758107,44.787773,3.4769485,
0.46874999301508075,24,-0.8399048,-0.3133545,0.402771,0.020507812,-0.0126953125,0.001953125,0.0,0.0,0.0,0.0,0.0,0.0,0.0,0.0,0.0,0.0,0.0,-0.57871306,0.09819359,-0.8097487,-0.9260254,0.042663574,-0.25927734,-0.022460938,0.06542969,0.029296875,5.4341173,-11.981154,2.0329118,-16.764309,-0.9945679,0.030456543,-0.0013427734,-0.032226562,0.02734375,0.033203125,2.831168,-11.930551,-54.975296,-17.084112,0.53497314,0.09875488,0.84503174,0.033203125,-0.0029296875,-0.033203125,54.820614,-9.075393,-126.93007,-16.752062,0.0,0.0,0.0,0.0,0.0,0.0,0.0,-13.258776,-126.94489,2.8089294,0.0,0.0,0.0,0.0,0.0,0.0,0.0,0.57871306,-0.09819359,0.8097487,-0.99176025,0.13952637,-0.021484375,0.08496094,-0.087890625,-0.13671875,7.1218014,11.981154,-2.0329118,16.764309,-0.9354248,-0.15808105,-0.25805664,-0.037109375,0.01953125,0.018554688,19.016907,2.8131332,-58.299496,16.694283,0.50006104,0.054138184,0.8734131,0.013671875,-0.018554688,-0.016601562,33.551544,11.780333,-129.04967,6.6846504,0.0,0.0,0.0,0.0,0.0,0.0,0.0,13.487932,-130.11336,26.586246,-0.95758057,-0.11273193,-0.037841797,-0.79785156,0.81152344,0.87109375,0.0,2.7972722,44.787178,3.4319232,
0.48828124272404244,25,-0.85705566,-0.30145264,0.41119385,-0.017578125,-0.0126953125,0.0029296875,0.0,0.0,0.0,0.0,0.0,0.0,0.0,0.0,0.0,0.0,0.0,-0.5792535,0.097529106,-0.8094362,-0.9196167,-7.9345703E-4,-0.26574707,-0.07910156,0.06542969,0.029296875,5.4156585,-11.992342,2.0191548,-16.75784,-0.9869995,0.016174316,0.008483887,-0.03125,0.045898438,0.013671875,2.7816448,-11.898491,-54.989468,-17.096739,0.52697754,0.10180664,0.8430786,0.013671875,-0.0029296875,-0.0146484375,54.84613,-9.052796,-126.945206,-16.745628,0.0,0.0,0.0,0.0,0.0,0.0,0.0,-13.201676,-126.95672,2.8206997,0.0,0.0,0.0,0.0,0.0,0.0,0.0,0.5792535,-0.097529106,0.8094362,-0.9866333,0.118774414,-0.018920898,0.08300781,-0.10449219,-0.13378906,7.153245,11.992342,-2.0191548,16.75784,-0.9678955,-0.15008545,-0.2468872,-0.017578125,0.0390625,0.037109375,19.03084,2.79319,-58.28065,16.766699,0.5037842,0.056518555,0.85339355,0.013671875,-0.037109375,0.0029296875,33.562386,11.719659,-129.03891,6.815584,0.0,0.0,0.0,0.0,0.0,0.0,0.0,13.441041,-130.09676,26.714737,-0.9505005,-0.14678955,-0.066711426,-0.8720703,0.85058594,0.87109375,0.0,2.8058972,44.78969,3.3887444,
0.5078124924330042,26,-0.840271,-0.29345703,0.43963623,0.020507812,-0.0126953125,0.001953125,0.0,0.0,0.0,0.0,0.0,0.0,0.0,0.0,0.0,0.0,0.0,-0.5800089,0.096832424,-0.8090171,-0.96868896,0.004211426,-0.27770996,-0.060546875,0.06542969,0.029296875,5.3951397,-12.007983,2.0047317,-16.749163,-0.9672241,0.041381836,-2.4414062E-4,-0.03125,0.045898438,0.013671875,2.736881,-11.88929,-55.004616,-17.087282,0.5029297,0.1081543,0.8411865,0.033203125,-0.021484375,0.0029296875,54.871582,-9.069789,-126.96229,-16.707611,0.0,0.0,0.0,0.0,0.0,0.0,0.0,-13.182239,-126.96601,2.8667545,0.0,0.0,0.0,0.0,0.0,0.0,0.0,0.5800089,-0.096832424,0.8090171,-0.97961426,0.12573242,-0.029724121,0.10449219,-0.068359375,-0.13671875,7.1653295,12.007983,-2.0047317,16.749163,-0.94451904,-0.14544678,-0.24682617,-0.037109375,0.0390625,0.018554688,18.979645,2.8276958,-58.270725,16.833681,0.51208496,0.08135986,0.8632202,0.013671875,-0.018554688,0.0029296875,33.4966,11.68674,-129.04857,6.9339457,0.0,0.0,0.0,0.0,0.0,0.0,0.0,13.418187,-130.10213,26.83422,-0.93011475,-0.12573242,-0.06982422,-0.87109375,0.8701172,0.8330078,0.0,2.7987494,44.794083,3.3549604,
0.5273437421419659,27,-0.83898926,-0.3250122,0.44030762,-0.017578125,-0.0126953125,0.021484375,0.0,0.0,0.0,0.0,0.0,0.0,0.0,0.0,0.0,0.0,0.0,-0.5792994,0.0958352,-0.8096335,-0.93847656,0.012451172,-0.27716064,-0.041015625,0.06542969,0.029296875,5.3884525,-11.993293,1.984086,-16.761923,-0.98114014,0.043884277,-0.0012207031,-0.033203125,0.0087890625,0.051757812,2.6748123,-11.827247,-55.021782,-17.076435,0.5552368,0.109191895,0.8392334,0.013671875,0.016601562,-0.0146484375,54.83917,-9.026369,-126.97847,-16.66704,0.0,0.0,0.0,0.0,0.0,0.0,0.0,-13.1345005,-126.97248,2.9096336,0.0,0.0,0.0,0.0,0.0,0.0,0.0,0.5792994,-0.0958352,0.8096335,-0.982666,0.13269043,-0.037475586,0.19335938,-0.041015625,-0.13085938,7.109588,11.993293,-1.984086,16.761923,-0.949646,-0.14935303,-0.24487305,-0.017578125,0.0390625,-9.765625E-4,18.870956,2.8871422,-58.261623,16.854118,0.49499512,0.07720947,0.8633423,0.013671875,-0.018554688,0.0029296875,33.513042,11.709963,-129.04704,7.0069847,0.0,0.0,0.0,0.0,0.0,0.0,0.0,13.452405,-130.09196,26.90633,-0.93829346,-0.14239502,-0.046936035,-0.8154297,0.8691406,0.8701172,0.0,2.7722383,44.798016,3.3191204,
0.5468749918509276,28,-0.85009766,-0.31713867,0.44458008,0.01953125,0.005859375,0.020507812,0.0,0.0,0.0,0.0,0.0,0.0,0.0,0.0,0.0,0.0,0.0,-0.57834303,0.09484426,-0.8103762,-0.92907715,0.040771484,-0.26519775,-0.00390625,0.028320312,0.0107421875,5.3333306,-11.973495,1.9635702,-16.777302,-0.9852905,0.041503906,0.033447266,-0.051757812,0.028320312,0.033203125,2.6377466,-11.803737,-55.044838,-17.08979,0.52948,0.1361084,0.8297119,0.013671875,-0.021484375,0.0029296875,54.687904,-9.044375,-126.99854,-16.692822,0.0,0.0,0.0,0.0,0.0,0.0,0.0,-13.129367,-126.97373,2.8881264,0.0,0.0,0.0,0.0,0.0,0.0,0.0,0.57834303,-0.09484426,0.8103762,-0.9957886,0.14257812,-0.02532959,0.13964844,-0.08300781,-0.11328125,7.12885,11.973495,-1.9635702,16.777302,-0.95770264,-0.14709473,-0.25976562,-0.037109375,0.057617188,0.0,18.821005,2.8909426,-58.245636,16.894098,0.5130615,0.086364746,0.8621826,0.032226562,9.765625E-4,-0.016601562,33.58436,11.683061,-129.0438,7.0925484,0.0,0.0,0.0,0.0,0.0,0.0,0.0,13.449354,-130.08109,26.989798,-0.967041,-0.12591553,-0.06854248,-0.79589844,0.9082031,0.85058594,0.0,2.7305915,44.800293,3.2945583,
0.5664062415598893,29,-0.86120605,-0.3013916,0.43310547,-0.017578125,0.005859375,0.0029296875,0.0,0.0,0.0,0.0,0.0,0.0,0.0,0.0,0.0,0.0,0.0,-0.57882375,0.093905136,-0.8102125,-0.94744873,0.018615723,-0.28686523,-0.060546875,0.029296875,0.0107421875,5.2765203,-11.983446,1.9441274,-16.77391,-0.9836426,0.06188965,-0.010070801,-0.032226562,0.02734375,0.013671875,2.5822496,-11.772465,-55.063007,-17.131168,0.5274048,0.13427734,0.81884766,0.013671875,0.016601562,0.00390625,54.57076,-9.034303,-127.0211,-16.740005,0.0,0.0,0.0,0.0,0.0,0.0,0.0,-13.107508,-126.982086,2.844263,0.0,0.0,0.0,0.0,0.0,0.0,0.0,0.57882375,-0.093905136,0.8102125,-0.99176025,0.13372803,-0.039367676,0.033203125,-0.09375,-0.14160156,7.1819296,11.983446,-1.9441274,16.77391,-0.9678955,-0.1459961,-0.26171875,-0.037109375,0.0390625,0.018554688,18.871822,2.8735256,-58.22144,16.957747,0.5462036,0.07165527,0.8670654,0.032226562,-0.037109375,0.0029296875,33.57696,11.672654,-129.0255,7.1810703,0.0,0.0,0.0,0.0,0.0,0.0,0.0,13.439626,-130.06299,27.07808,-0.97125244,-0.14355469,-0.05065918,-0.8720703,0.8886719,0.8886719,0.0,2.7114825,44.806828,3.2560852,
0.585937491268851,30,-0.8360596,-0.3112793,0.43444824,0.020507812,-0.0126953125,0.001953125,0.0,0.0,0.0,0.0,0.0,0.0,0.0,0.0,0.0,0.0,0.0,-0.5788746,0.09271863,-0.8102667,-0.93414307,0.038024902,-0.28289795,-0.1171875,0.029296875,0.0107421875,5.207669,-11.984497,1.919563,-16.775032,-0.96588135,0.017700195,-0.0053100586,-0.032226562,0.0087890625,0.033203125,2.562084,-11.774199,-55.087093,-17.136436,0.5340576,0.105529785,0.8510132,-0.005859375,-0.021484375,-0.015625,54.47463,-9.067211,-127.04349,-16.692852,0.0,0.0,0.0,0.0,0.0,0.0,0.0,-13.123046,-126.997086,2.8933601,0.0,0.0,0.0,0.0,0.0,0.0,0.0,0.5788746,-0.09271863,0.8102667,-0.98773193,0.13861084,-0.035339355,0.028320312,-0.109375,-0.15625,7.2307696,11.984497,-1.919563,16.775032,-0.90808105,-0.1539917,-0.21612549,-0.056640625,-0.037109375,0.017578125,18.835754,2.8502665,-58.19386,17.029942,0.46972656,0.026672363,0.9376221,-0.024414062,-0.038085938,-0.03515625,33.562386,11.5898,-129.01874,7.3859615,0.0,0.0,0.0,0.0,0.0,0.0,0.0,13.389105,-130.05428,27.280334,-0.951355,-0.14300537,-0.055786133,-0.8730469,0.86816406,0.9267578,0.0,2.6883848,44.810074,3.2069578,
0.6054687409778127,31,-0.8109131,-0.31726074,0.42193604,0.001953125,-0.087890625,0.0390625,0.0,0.0,0.0,0.0,0.0,0.0,0.0,0.0,0.0,0.0,0.0,-0.57774734,0.091480546,-0.8112799,-0.9241333,0.035827637,-0.27716064,-0.13574219,0.030273438,0.029296875,5.0628343,-11.961161,1.8939308,-16.79601,-0.96588135,0.017700195,-0.0053100586,-0.032226562,0.0087890625,0.033203125,2.600002,-11.781894,-55.1124,-17.223162,0.52716064,0.11352539,0.85009766,0.013671875,0.016601562,-0.0146484375,54.582462,-9.074905,-127.0688,-16.779577,0.0,0.0,0.0,0.0,0.0,0.0,0.0,-13.094224,-127.01366,2.8137436,0.0,0.0,0.0,0.0,0.0,0.0,0.0,0.57774734,-0.091480546,0.8112799,-0.9916992,0.12286377,-0.03564453,0.10253906,-0.0859375,-0.13476562,7.275806,11.961161,-1.8939308,16.79601,-0.973999,-0.14990234,-0.25683594,-0.017578125,0.0390625,-9.765625E-4,18.804346,2.8549109,-58.169067,17.103277,0.46972656,0.026672363,0.9376221,-0.024414062,-0.038085938,-0.03515625,33.6091,11.590259,-129.00853,7.5334682,0.0,0.0,0.0,0.0,0.0,0.0,0.0,13.389563,-130.04407,27.427841,-0.96136475,-0.14880371,-0.041809082,-0.8154297,0.90722656,0.8876953,0.0,2.6326475,44.817898,3.1788788,
0.6249999906867744,32,-0.81799316,-0.31524658,0.43200684,-0.016601562,-0.049804688,0.020507812,0.0,0.0,0.0,0.0,0.0,0.0,0.0,0.0,0.0,0.0,0.0,-0.5779989,0.09049399,-0.8111889,-0.92626953,0.025024414,-0.27923584,-0.07910156,0.047851562,0.0107421875,5.026989,-11.966369,1.8735062,-16.794125,-0.9831543,0.042236328,-0.019104004,-0.032226562,0.02734375,0.013671875,2.5900455,-11.766403,-55.132973,-17.216827,0.54229736,0.10913086,0.8786011,0.013671875,-0.041015625,-0.015625,54.76803,-9.046424,-127.08947,-16.786757,0.0,0.0,0.0,0.0,0.0,0.0,0.0,-13.039298,-127.02234,2.812252,0.0,0.0,0.0,0.0,0.0,0.0,0.0,0.5779989,-0.09049399,0.8111889,-0.9887085,0.13464355,-0.026550293,0.0703125,-0.07324219,-0.140625,7.282625,11.966369,-1.8735062,16.794125,-0.9527588,-0.16369629,-0.262146,-0.037109375,0.038085938,0.037109375,18.807438,2.8576107,-58.14844,17.136782,0.51293945,0.085510254,0.8552246,0.032226562,-0.017578125,-0.015625,33.697315,11.598858,-128.99472,7.6201887,0.0,0.0,0.0,0.0,0.0,0.0,0.0,13.409201,-130.00581,27.514206,-0.95977783,-0.1194458,-0.045776367,-0.7792969,0.8876953,0.90625,0.0,2.6167438,44.821053,3.1355963,
0.6445312403957361,33,-0.83966064,-0.36157227,0.4329834,-0.017578125,-0.0126953125,0.0029296875,0.0,0.0,0.0,0.0,0.0,0.0,0.0,0.0,0.0,0.0,0.0,-0.57792914,0.089895904,-0.8112764,-0.9283447,0.019104004,-0.26837158,-0.060546875,0.029296875,0.0107421875,5.0585756,-11.964925,1.861124,-16.795935,-0.9840088,0.049926758,-0.0012207031,-0.051757812,0.009765625,0.033203125,2.4752786,-11.679543,-55.144775,-17.211576,0.53515625,0.11352539,0.8284302,0.013671875,0.016601562,0.00390625,54.62868,-8.995091,-127.1036,-16.808872,0.0,0.0,0.0,0.0,0.0,0.0,0.0,-12.979776,-127.0344,2.7935104,0.0,0.0,0.0,0.0,0.0,0.0,0.0,0.57792914,-0.089895904,0.8112764,-0.9916992,0.11883545,-0.025817871,0.12207031,-0.06640625,-0.13476562,7.2418857,11.964925,-1.861124,16.795935,-0.95062256,-0.15106201,-0.26385498,-0.037109375,0.01953125,0.018554688,18.75113,2.9196367,-58.14727,17.153563,0.50390625,0.09844971,0.8502197,0.013671875,-0.018554688,0.0029296875,33.833748,11.676407,-128.99484,7.683264,0.0,0.0,0.0,0.0,0.0,0.0,0.0,13.502078,-129.99492,27.57711,-0.9619751,-0.12915039,-0.04876709,-0.8720703,0.8886719,0.90722656,0.0,2.5993686,44.82245,3.1149726,
0.6640624901046978,34,-0.8518677,-0.31921387,0.39697266,-0.0546875,0.005859375,0.0029296875,0.0,0.0,0.0,0.0,0.0,0.0,0.0,0.0,0.0,0.0,0.0,-0.5780943,0.089852855,-0.8111499,-0.93359375,0.005493164,-0.2783203,-0.00390625,0.046875,0.029296875,5.10818,-11.968345,1.8602326,-16.793318,-0.9734497,0.03314209,-0.028076172,-0.032226562,0.045898438,0.033203125,2.4321234,-11.644929,-55.143642,-17.17027,0.5327759,0.094055176,0.82525635,0.013671875,0.036132812,-0.0146484375,54.638462,-8.961463,-127.10492,-16.794827,0.0,0.0,0.0,0.0,0.0,0.0,0.0,-12.936157,-127.03313,2.8094254,0.0,0.0,0.0,0.0,0.0,0.0,0.0,0.5780943,-0.089852855,0.8111499,-0.98968506,0.11791992,-0.03375244,0.171875,-0.07714844,-0.12792969,7.2417774,11.968345,-1.8602326,16.793318,-0.9546509,-0.14233398,-0.25671387,-0.017578125,0.01953125,0.018554688,18.698801,2.9834127,-58.153667,17.208178,0.5032959,0.081848145,0.8842163,0.032226562,-0.017578125,0.0029296875,33.888233,11.719581,-129.0061,7.762512,0.0,0.0,0.0,0.0,0.0,0.0,0.0,13.565441,-129.99803,27.654156,-0.96539307,-0.14855957,-0.0546875,-0.88964844,0.9082031,0.8886719,0.0,2.5892932,44.82221,3.1197038,
0.6835937398136595,35,-0.836853,-0.3241577,0.41448975,-0.036132812,0.005859375,0.040039062,0.0,0.0,0.0,0.0,0.0,0.0,0.0,0.0,0.0,0.0,0.0,-0.57937217,0.09014301,-0.810238,-0.9254761,0.009216309,-0.27441406,0.034179688,0.009765625,0.029296875,5.131486,-11.994799,1.8662398,-16.774439,-0.99157715,0.032104492,0.014526367,-0.032226562,0.045898438,0.033203125,2.4163797,-11.660562,-55.140987,-17.151642,0.5248413,0.09503174,0.83807373,0.013671875,-0.0029296875,-0.033203125,54.62938,-8.982424,-127.10112,-16.771318,0.0,0.0,0.0,0.0,0.0,0.0,0.0,-12.928644,-127.02979,2.8379192,0.0,0.0,0.0,0.0,0.0,0.0,0.0,0.57937217,-0.09014301,0.810238,-0.994751,0.12194824,-0.045532227,0.09863281,-0.119140625,-0.12988281,7.273595,11.994799,-1.8662398,16.774439,-0.9517212,-0.1550293,-0.25299072,-0.017578125,0.0390625,0.018554688,18.703999,3.0193357,-58.16094,17.25307,0.53326416,0.08746338,0.8690796,0.013671875,0.01953125,-0.016601562,33.95754,11.749051,-129.0195,7.8366776,0.0,0.0,0.0,0.0,0.0,0.0,0.0,13.613322,-130.00432,27.728325,-0.9388428,-0.11987305,-0.049926758,-0.83496094,0.8691406,0.8886719,0.0,2.5967646,44.822254,3.1298463,
0.7031249895226211,36,-0.83984375,-0.3418579,0.43023682,-0.017578125,0.024414062,0.021484375,0.0,0.0,0.0,0.0,0.0,0.0,0.0,0.0,0.0,0.0,0.0,-0.57968116,0.08989242,-0.81003344,-0.9373169,0.029296875,-0.30273438,-0.00390625,0.06542969,0.047851562,5.110213,-12.001196,1.8610516,-16.770203,-0.9793091,0.03881836,7.324219E-4,-0.032226562,0.045898438,0.033203125,2.4013479,-11.639428,-55.142815,-17.17839,0.49884033,0.10021973,0.8647461,0.033203125,0.016601562,-0.033203125,54.71409,-8.946736,-127.10013,-16.823889,0.0,0.0,0.0,0.0,0.0,0.0,0.0,-12.876843,-127.023766,2.7891731,0.0,0.0,0.0,0.0,0.0,0.0,0.0,0.57968116,-0.08989242,0.81003344,-0.9876709,0.12677002,-0.03955078,-0.020507812,-0.11816406,-0.14453125,7.394915,12.001196,-1.8610516,16.770203,-0.95874023,-0.14416504,-0.2626953,-0.037109375,0.038085938,0.037109375,18.759647,2.9873447,-58.14882,17.349688,0.50494385,0.078430176,0.85632324,0.013671875,9.765625E-4,-0.016601562,33.99006,11.706601,-129.0183,7.9818373,0.0,0.0,0.0,0.0,0.0,0.0,0.0,13.57854,-129.99529,27.871956,-0.9460449,-0.12750244,-0.051818848,-0.8720703,0.90722656,0.90722656,0.0,2.5719585,44.823006,3.1336145,
0.7226562392315828,37,-0.83984375,-0.3418579,0.43023682,-0.017578125,0.024414062,0.021484375,0.0,0.0,0.0,0.0,0.0,0.0,0.0,0.0,0.0,0.0,0.0,-0.57968116,0.08989242,-0.81003344,-0.95355225,0.011657715,-0.2581787,-0.041015625,0.046875,0.029296875,5.090044,-12.001196,1.8610516,-16.770203,-0.989563,0.031311035,-0.0033569336,-0.051757812,0.028320312,0.013671875,2.3810482,-11.640495,-55.14698,-17.205956,0.5253296,0.12426758,0.85614014,-0.005859375,0.016601562,-0.033203125,54.64767,-8.977088,-127.10555,-16.856352,0.0,0.0,0.0,0.0,0.0,0.0,0.0,-12.912081,-127.01693,2.7539043,0.0,0.0,0.0,0.0,0.0,0.0,0.0,0.57968116,-0.08989242,0.81003344,-0.99468994,0.11590576,-0.022888184,0.15527344,-0.09765625,-0.109375,7.443551,12.001196,-1.8610516,16.770203,-0.95373535,-0.16156006,-0.27404785,-0.037109375,0.01953125,-9.765625E-4,18.801983,2.9660606,-58.14434,17.400206,0.49395752,0.0881958,0.8613281,0.032226562,9.765625E-4,0.0029296875,34.133865,11.705072,-129.01483,8.072644,0.0,0.0,0.0,0.0,0.0,0.0,0.0,13.591265,-129.98227,27.962353,-0.9569702,-0.1272583,-0.05078125,-0.9091797,0.9082031,0.8886719,0.0,2.5719585,44.823006,3.1336145,
0.7421874889405445,38,-0.82702637,-0.30737305,0.42041016,0.020507812,-0.0126953125,0.001953125,0.0,0.0,0.0,0.0,0.0,0.0,0.0,0.0,0.0,0.0,0.0,-0.5793694,0.08940698,-0.8103068,-0.9445801,0.008666992,-0.28204346,-0.00390625,0.029296875,0.047851562,5.0728474,-11.994741,1.8510016,-16.775864,-0.9683838,0.037231445,0.015625,-0.013671875,0.0087890625,0.033203125,2.356757,-11.623766,-55.15522,-17.201254,0.52508545,0.11767578,0.81866455,0.033203125,-0.021484375,-0.015625,54.567196,-8.979722,-127.11683,-16.82155,0.0,0.0,0.0,0.0,0.0,0.0,0.0,-12.894323,-127.019966,2.79418,0.0,0.0,0.0,0.0,0.0,0.0,0.0,0.5793694,-0.08940698,0.8103068,-0.994751,0.12872314,-0.02758789,0.3154297,-0.06347656,-0.07910156,7.4817047,11.994741,-1.8510016,16.775864,-0.961792,-0.152771,-0.27288818,-0.037109375,0.057617188,-0.01953125,18.797415,2.9698982,-58.138065,17.441187,0.49694824,0.06121826,0.8644409,0.013671875,9.765625E-4,-0.03515625,34.206917,11.714223,-129.01105,8.153561,0.0,0.0,0.0,0.0,0.0,0.0,0.0,13.611875,-129.9717,28.042645,-0.92474365,-0.1642456,-0.04309082,-0.96484375,0.85058594,0.85253906,0.0,2.542807,44.82496,3.127753,
0.7617187386495062,39,-0.8460083,-0.3427124,0.460083,0.01953125,0.061523438,0.001953125,0.0,0.0,0.0,0.0,0.0,0.0,0.0,0.0,0.0,0.0,0.0,-0.5787334,0.08866938,-0.81081456,-0.9274292,0.009033203,-0.23095703,-0.00390625,0.029296875,0.047851562,5.04931,-11.981577,1.8357311,-16.786375,-0.99053955,0.064086914,-0.010070801,-0.032226562,0.02734375,0.013671875,2.3485208,-11.630443,-55.168247,-17.160772,0.5247803,0.094055176,0.83807373,0.052734375,-0.0029296875,-0.033203125,54.548912,-9.0147085,-127.13359,-16.787176,0.0,0.0,0.0,0.0,0.0,0.0,0.0,-12.908,-127.0305,2.8321152,0.0,0.0,0.0,0.0,0.0,0.0,0.0,0.5787334,-0.08866938,0.81081456,-0.9847412,0.14147949,-0.022460938,0.15917969,-0.064453125,-0.11425781,7.5339003,11.981577,-1.8357311,16.786375,-0.94555664,-0.15216064,-0.25689697,-0.037109375,9.765625E-4,0.017578125,18.784302,2.95687,-58.11855,17.497124,0.4989624,0.093322754,0.85528564,0.013671875,-0.018554688,-0.016601562,34.185856,11.678374,-128.99849,8.257708,0.0,0.0,0.0,0.0,0.0,0.0,0.0,13.579534,-129.94328,28.146578,-0.95617676,-0.12890625,-0.08355713,-1.0195312,1.0625,0.9433594,0.0,2.5074666,44.827,3.1124601,
0.7812499883584679,40,-0.84399414,-0.2994995,0.40100098,0.01953125,-0.0126953125,-0.016601562,0.0,0.0,0.0,0.0,0.0,0.0,0.0,0.0,0.0,0.0,0.0,-0.5788888,0.08822936,-0.81077635,-0.9343262,0.02520752,-0.28796387,-0.022460938,0.1015625,0.0107421875,5.0226607,-11.984792,1.8266213,-16.785583,-0.99768066,0.028198242,0.02142334,-0.03125,0.046875,-0.024414062,2.3139303,-11.591081,-55.17883,-17.195156,0.49291992,0.11022949,0.85009766,0.051757812,0.016601562,-0.0146484375,54.669357,-8.970347,-127.13899,-16.808681,0.0,0.0,0.0,0.0,0.0,0.0,0.0,-12.82382,-127.02722,2.8186932,0.0,0.0,0.0,0.0,0.0,0.0,0.0,0.5788888,-0.08822936,0.81077635,-0.99176025,0.13867188,-0.038269043,0.068359375,-0.12792969,-0.09863281,7.635454,11.984792,-1.8266213,16.785583,-0.9415283,-0.15985107,-0.26904297,9.765625E-4,0.0390625,-0.01953125,18.843718,2.9095898,-58.105114,17.53153,0.5029907,0.08227539,0.8623047,-0.0048828125,0.0,-0.016601562,34.182228,11.647797,-128.99254,8.327667,0.0,0.0,0.0,0.0,0.0,0.0,0.0,13.547329,-129.93663,28.218199,-0.95526123,-0.14508057,-0.03387451,-0.9472656,0.9453125,0.9824219,0.0,2.4697714,44.829823,3.1150186,
0.8007812380674296,41,-0.8289795,-0.31524658,0.42034912,0.01953125,0.024414062,0.020507812,0.0,0.0,0.0,0.0,0.0,0.0,0.0,0.0,0.0,0.0,0.0,-0.5797329,0.08849938,-0.8101521,-0.9161377,0.033569336,-0.2625122,0.015625,0.028320312,0.029296875,5.057801,-12.002268,1.8322116,-16.772661,-0.9897461,0.0234375,-0.0043945312,-0.03125,0.045898438,0.013671875,2.2951608,-11.587067,-55.17493,-17.19045,0.5332031,0.1184082,0.83343506,0.013671875,-0.0029296875,-0.033203125,54.783302,-8.96295,-127.137314,-16.807407,0.0,0.0,0.0,0.0,0.0,0.0,0.0,-12.786631,-127.01264,2.8258247,0.0,0.0,0.0,0.0,0.0,0.0,0.0,0.5797329,-0.08849938,0.8101521,-0.9916992,0.122802734,-0.030700684,0.14550781,-0.14648438,-0.12011719,7.618678,12.002268,-1.8322116,16.772661,-0.95977783,-0.14794922,-0.26776123,9.765625E-4,0.01953125,0.018554688,18.867199,2.9093475,-58.103374,17.567352,0.52404785,0.06652832,0.8641968,0.013671875,9.765625E-4,-0.016601562,34.13471,11.634409,-128.99193,8.381442,0.0,0.0,0.0,0.0,0.0,0.0,0.0,13.529223,-129.93697,28.271717,-0.94714355,-0.12731934,-0.070739746,-0.89160156,0.90722656,0.94433594,0.0,2.5167065,44.828835,3.0960941,
0.8203124877763913,42,-0.8290405,-0.32305908,0.44604492,0.01953125,0.024414062,0.001953125,0.0,0.0,0.0,0.0,0.0,0.0,0.0,0.0,0.0,0.0,0.0,-0.5798423,0.087937474,-0.81014377,-0.93829346,0.026000977,-0.23852539,-0.022460938,0.046875,0.047851562,5.031313,-12.004533,1.8205785,-16.772488,-0.9817505,0.057006836,-0.019042969,-0.051757812,0.009765625,0.033203125,2.2757208,-11.581222,-55.18481,-17.190926,0.5223999,0.13323975,0.838562,0.032226562,0.036132812,-0.0146484375,54.78512,-8.968021,-127.14911,-16.842655,0.0,0.0,0.0,0.0,0.0,0.0,0.0,-12.789364,-127.02018,2.7909508,0.0,0.0,0.0,0.0,0.0,0.0,0.0,0.5798423,-0.087937474,0.81014377,-0.9816284,0.1237793,-0.035705566,0.024414062,-0.16210938,-0.1328125,7.722123,12.004533,-1.8205785,16.772488,-0.94763184,-0.15704346,-0.25305176,-0.056640625,9.765625E-4,-9.765625E-4,18.941269,2.849226,-58.083042,17.65528,0.5233154,0.07421875,0.8791504,0.032226562,9.765625E-4,0.0029296875,34.194874,11.571638,-128.98318,8.524546,0.0,0.0,0.0,0.0,0.0,0.0,0.0,13.493558,-129.92525,28.411465,-0.9483032,-0.14013672,-0.05682373,-0.9453125,0.98535156,0.9248047,0.0,2.5018032,44.8314,3.0756378,
0.839843737485353,43,-0.8280029,-0.3112793,0.42633057,0.01953125,0.005859375,0.001953125,0.0,0.0,0.0,0.0,0.0,0.0,0.0,0.0,0.0,0.0,0.0,-0.5783892,0.0872946,-0.8112695,-0.9234619,0.011169434,-0.27642822,-0.041015625,0.029296875,0.047851562,5.0112967,-11.97445,1.807269,-16.795795,-1.0036621,0.027832031,-0.0043945312,-0.0126953125,0.02734375,0.013671875,2.240007,-11.539163,-55.19768,-17.200462,0.5232544,0.12249756,0.83251953,-0.005859375,0.016601562,-0.0146484375,54.758755,-8.954781,-127.164566,-16.857624,0.0,0.0,0.0,0.0,0.0,0.0,0.0,-12.762458,-127.027756,2.7780476,0.0,0.0,0.0,0.0,0.0,0.0,0.0,0.5783892,-0.0872946,0.8112695,-0.99072266,0.12768555,-0.01776123,0.029296875,-0.16601562,-0.09765625,7.8374434,11.97445,-1.807269,16.795795,-0.949646,-0.15985107,-0.26104736,-0.017578125,0.01953125,0.037109375,18.997938,2.7503338,-58.054977,17.756136,0.48608398,0.07092285,0.8744507,-0.0048828125,-0.018554688,-0.016601562,34.2243,11.434045,-128.96332,8.664675,0.0,0.0,0.0,0.0,0.0,0.0,0.0,13.378563,-129.90092,28.549746,-0.96209717,-0.12994385,-0.06365967,-0.98339844,0.984375,0.94433594,0.0,2.4768307,44.834633,3.0584772,
0.8593749871943147,44,-0.8361206,-0.30438232,0.4265747,-0.018554688,0.061523438,0.0029296875,0.0,0.0,0.0,0.0,0.0,0.0,0.0,0.0,0.0,0.0,0.0,-0.5789452,0.08703736,-0.81093735,-0.91711426,0.033691406,-0.27435303,-0.041015625,0.029296875,0.029296875,5.014697,-11.98596,1.8019434,-16.788916,-0.9834595,0.033081055,-0.0013427734,-0.032226562,0.0087890625,0.033203125,2.2100112,-11.544332,-55.204006,-17.172934,0.53515625,0.11248779,0.833374,0.013671875,-0.001953125,0.00390625,54.65053,-8.987394,-127.16905,-16.837957,0.0,0.0,0.0,0.0,0.0,0.0,0.0,-12.792295,-127.02949,2.7975655,0.0,0.0,0.0,0.0,0.0,0.0,0.0,0.5789452,-0.08703736,0.81093735,-0.98968506,0.12664795,-0.00982666,0.09472656,-0.19140625,-0.0859375,8.026001,11.98596,-1.8019434,16.788916,-0.9414673,-0.14538574,-0.2567749,-0.017578125,0.01953125,0.037109375,19.157215,2.6226196,-58.02866,17.867645,0.4833374,0.099487305,0.8892822,0.033203125,0.01953125,0.021484375,34.22227,11.299142,-128.9418,8.819768,0.0,0.0,0.0,0.0,0.0,0.0,0.0,13.23722,-129.8682,28.706612,-0.9623413,-0.14868164,-0.045776367,-0.98339844,1.0224609,0.98046875,0.0,2.4671414,44.837025,3.050984,
0.8789062369032764,45,-0.83099365,-0.32702637,0.44604492,0.01953125,0.024414062,-0.03515625,0.0,0.0,0.0,0.0,0.0,0.0,0.0,0.0,0.0,0.0,0.0,-0.5784969,0.086938545,-0.8111944,-0.9165039,0.007080078,-0.27062988,0.015625,0.046875,0.06640625,5.044458,-11.976679,1.7998973,-16.794239,-1.0037231,0.025756836,0.0025634766,-0.051757812,0.009765625,0.033203125,2.1936557,-11.513136,-55.20328,-17.162931,0.5482178,0.111206055,0.8432007,0.033203125,-0.021484375,-0.034179688,54.726845,-8.950974,-127.166245,-16.786018,0.0,0.0,0.0,0.0,0.0,0.0,0.0,-12.750055,-127.02202,2.852087,0.0,0.0,0.0,0.0,0.0,0.0,0.0,0.5784969,-0.086938545,0.8111944,-0.9805908,0.118896484,-0.039733887,0.20996094,-0.11230469,-0.06738281,8.083933,11.976679,-1.7998973,16.794239,-0.95062256,-0.14642334,-0.24084473,-0.037109375,0.0390625,0.018554688,19.220263,2.541584,-58.01163,17.947405,0.5064087,0.09686279,0.88616943,0.0146484375,0.01953125,0.001953125,34.199047,11.178282,-128.93329,8.920525,0.0,0.0,0.0,0.0,0.0,0.0,0.0,13.128872,-129.85143,28.806942,-0.9442749,-0.1381836,-0.061828613,-0.91015625,0.9453125,0.9628906,0.0,2.4940836,44.83451,3.0264354,
0.8984374866122381,46,-0.8479004,-0.31036377,0.39898682,-0.07421875,0.080078125,0.041015625,0.0,0.0,0.0,0.0,0.0,0.0,0.0,0.0,0.0,0.0,0.0,-0.57835853,0.08682827,-0.8113906,-0.92749023,0.010192871,-0.26055908,-0.022460938,0.046875,0.047851562,5.061712,-11.973816,1.7976146,-16.798302,-0.98779297,0.024902344,0.024414062,-0.032226562,0.02734375,0.013671875,2.1588516,-11.489353,-55.20912,-17.155743,0.54138184,0.117004395,0.8737793,0.013671875,-0.0029296875,-0.0146484375,54.665073,-8.944896,-127.174934,-16.759174,0.0,0.0,0.0,0.0,0.0,0.0,0.0,-12.737439,-127.022964,2.879982,0.0,0.0,0.0,0.0,0.0,0.0,0.0,0.57835853,-0.08682827,0.8113906,-0.97961426,0.12286377,-0.050598145,0.28710938,-0.036132812,-0.06933594,7.966245,11.973816,-1.7976146,16.798302,-0.97094727,-0.1517334,-0.26782227,-0.017578125,0.0390625,0.018554688,19.094948,2.609005,-58.019802,17.85921,0.51293945,0.095581055,0.8491821,0.013671875,0.0,0.021484375,34.174343,11.224725,-128.94185,8.843681,0.0,0.0,0.0,0.0,0.0,0.0,0.0,13.170235,-129.85956,28.73036,-0.9644165,-0.14849854,-0.060668945,-0.94628906,1.0224609,0.96191406,0.0,2.4937787,44.83806,3.020633,
0.9179687363211998,47,-0.81207275,-0.31524658,0.4418335,0.01953125,0.005859375,0.001953125,0.0,0.0,0.0,0.0,0.0,0.0,0.0,0.0,0.0,0.0,0.0,-0.5782733,0.08657431,-0.8113864,-0.93518066,0.030944824,-0.2503662,-0.00390625,0.06542969,0.047851562,5.073388,-11.972052,1.7923567,-16.798216,-0.98809814,0.012634277,-0.012390137,-0.05078125,0.046875,-0.0048828125,2.1659112,-11.49183,-55.212116,-17.112396,0.53118896,0.119506836,0.8206177,0.032226562,0.036132812,-0.0146484375,54.739452,-8.942534,-127.1767,-16.682974,0.0,0.0,0.0,0.0,0.0,0.0,0.0,-12.72762,-127.01344,2.9567719,0.0,0.0,0.0,0.0,0.0,0.0,0.0,0.5782733,-0.08657431,0.8113864,-1.0068359,0.13464355,-0.008544922,0.13769531,-0.119140625,-0.091796875,7.940972,11.972052,-1.7923567,16.798216,-0.9507446,-0.1685791,-0.2602539,-0.017578125,0.020507812,-0.01953125,19.048386,2.6369133,-58.01895,17.845312,0.4940796,0.074035645,0.8703613,0.03125,-0.017578125,-0.03515625,34.212563,11.249286,-128.94382,8.858405,0.0,0.0,0.0,0.0,0.0,0.0,0.0,13.21617,-129.85797,28.74216,-0.9699707,-0.12585449,-0.06359863,-0.9277344,1.0410156,0.99902344,0.0,2.4822698,44.835716,3.0148282,
0.9374999860301615,48,-0.84417725,-0.3062744,0.44555664,-0.037109375,0.061523438,0.0029296875,0.0,0.0,0.0,0.0,0.0,0.0,0.0,0.0,0.0,0.0,0.0,-0.5783862,0.08590085,-0.81142926,-0.93444824,0.013244629,-0.25946045,-0.022460938,0.06542969,0.047851562,5.032092,-11.974386,1.778414,-16.7991,-0.9678345,0.022338867,0.016479492,-0.030273438,0.10253906,-0.0048828125,2.1796033,-11.508335,-55.226986,-17.111032,0.5315552,0.14001465,0.8317261,0.033203125,-0.0029296875,-0.033203125,54.71561,-8.9596815,-127.19255,-16.66254,0.0,0.0,0.0,0.0,0.0,0.0,0.0,-12.730045,-127.02501,2.9801292,0.0,0.0,0.0,0.0,0.0,0.0,0.0,0.5783862,-0.08590085,0.81142926,-0.9968262,0.14154053,-0.01940918,-0.01953125,-0.17480469,-0.08496094,8.06616,11.974386,-1.778414,16.7991,-0.9475708,-0.15014648,-0.25787354,-0.037109375,0.01953125,0.018554688,19.195808,2.5179577,-57.986744,17.944004,0.51049805,0.1027832,0.89105225,0.032226562,9.765625E-4,-0.016601562,34.21201,11.128656,-128.92131,8.970383,0.0,0.0,0.0,0.0,0.0,0.0,0.0,13.09675,-129.82664,28.855492,-0.97106934,-0.13787842,-0.037719727,-0.9472656,0.98339844,0.9814453,0.0,2.4844701,44.84008,2.9760056,
0.9570312357391232,49,-0.8470459,-0.307312,0.4208374,0.01953125,0.024414062,0.001953125,0.0,0.0,0.0,0.0,0.0,0.0,0.0,0.0,0.0,0.0,0.0,-0.578405,0.08542367,-0.8114346,-0.9534302,0.016479492,-0.24035645,-0.041015625,0.029296875,0.047851562,5.0066423,-11.974777,1.7685349,-16.799212,-0.97662354,0.028625488,0.012573242,-0.051757812,0.009765625,-0.0048828125,2.186775,-11.519381,-55.238594,-17.103254,0.53564453,0.14483643,0.8258667,0.013671875,-0.059570312,-0.015625,54.701805,-8.975071,-127.20393,-16.64131,0.0,0.0,0.0,0.0,0.0,0.0,0.0,-12.716948,-127.02452,3.0072708,0.0,0.0,0.0,0.0,0.0,0.0,0.0,0.578405,-0.08542367,0.8114346,-0.9846802,0.13061523,-0.02368164,0.0126953125,-0.16894531,-0.09863281,8.167315,11.974777,-1.7685349,16.799212,-0.9517822,-0.16955566,-0.26330566,-0.037109375,0.057617188,-0.01953125,19.329525,2.4117365,-57.95591,18.001072,0.5244751,0.0869751,0.8890991,0.013671875,0.0,0.0029296875,34.312813,11.0573,-128.88846,9.0676365,0.0,0.0,0.0,0.0,0.0,0.0,0.0,13.043261,-129.79027,28.950634,-0.94818115,-0.13726807,-0.050842285,-1.0400391,0.96484375,0.9638672,0.0,2.484406,44.840668,2.9496667,
0.9765624854480849,50,-0.8111572,-0.3053589,0.45178223,0.01953125,0.024414062,0.001953125,0.0,0.0,0.0,0.0,0.0,0.0,0.0,0.0,0.0,0.0,0.0,-0.5782817,0.084947705,-0.81158453,-0.9425659,0.009643555,-0.28308105,-0.041015625,0.029296875,0.029296875,5.0240645,-11.972223,1.7586808,-16.802317,-0.9959717,0.01763916,-4.8828125E-4,-0.032226562,0.02734375,-0.0048828125,2.1607544,-11.496183,-55.2469,-17.06216,0.53515625,0.11248779,0.83825684,0.013671875,0.036132812,-0.0146484375,54.625465,-8.958451,-127.2133,-16.545797,0.0,0.0,0.0,0.0,0.0,0.0,0.0,-12.700329,-127.03389,3.1027832,0.0,0.0,0.0,0.0,0.0,0.0,0.0,0.5782817,-0.084947705,0.81158453,-0.9967041,0.10992432,-0.011108398,0.08105469,-0.140625,-0.11230469,8.231059,11.972223,-1.7586808,16.802317,-0.94976807,-0.17626953,-0.2723999,-0.037109375,0.01953125,0.037109375,19.380129,2.3929234,-57.941643,18.074932,0.50891113,0.09051514,0.8522339,0.013671875,0.0,0.021484375,34.298634,11.065912,-128.87228,9.188704,0.0,0.0,0.0,0.0,0.0,0.0,0.0,13.039338,-129.76653,29.072739,-0.9493408,-0.14404297,-0.050842285,-1.0205078,0.9658203,0.92578125,0.0,2.4669592,44.842976,2.9358745,
0.9960937351570466,51,-0.84191895,-0.32507324,0.42053223,0.01953125,0.024414062,0.001953125,0.0,0.0,0.0,0.0,0.0,0.0,0.0,0.0,0.0,0.0,0.0,-0.57809985,0.085138485,-0.81175023,-0.9517212,-0.0021362305,-0.26324463,-0.041015625,0.0107421875,0.029296875,5.085885,-11.968462,1.7626307,-16.805746,-0.99560547,0.030395508,0.0036010742,-0.032226562,0.02734375,0.033203125,2.1497667,-11.481055,-55.244003,-17.018902,0.50878906,0.10028076,0.8331909,0.032226562,0.036132812,-0.0146484375,54.691635,-8.941311,-127.208115,-16.46687,0.0,0.0,0.0,0.0,0.0,0.0,0.0,-12.664588,-127.0321,3.185707,0.0,0.0,0.0,0.0,0.0,0.0,0.0,0.57809985,-0.085138485,0.81175023,-0.99676514,0.12371826,-0.010803223,0.040039062,-0.17675781,-0.12792969,8.2799835,11.968462,-1.7626307,16.805746,-0.94866943,-0.16668701,-0.2602539,-0.037109375,0.038085938,0.037109375,19.482302,2.3290796,-57.932648,18.169088,0.51104736,0.07232666,0.8642578,-0.0048828125,0.0,0.001953125,34.33661,11.037232,-128.86566,9.336392,0.0,0.0,0.0,0.0,0.0,0.0,0.0,13.005572,-129.75949,29.220707,-0.94317627,-0.13433838,-0.05883789,-1.0019531,0.984375,0.94433594,0.0,2.507917,44.84397,2.9173036,
1.0156249848660084,52,-0.8278198,-0.3388672,0.42999268,0.01953125,0.024414062,0.001953125,0.0,0.0,0.0,0.0,0.0,0.0,0.0,0.0,0.0,0.0,0.0,-0.5781894,0.08481482,-0.8115925,-0.9334717,0.010314941,-0.26934814,-0.022460938,0.0107421875,0.029296875,5.094738,-11.970314,1.7559297,-16.802483,-1.0059204,0.018920898,0.0015258789,-0.03125,0.045898438,0.013671875,2.1338668,-11.470053,-55.25098,-16.989002,0.50390625,0.10308838,0.8578491,0.033203125,0.016601562,0.00390625,54.8148,-8.934507,-127.213394,-16.403183,0.0,0.0,0.0,0.0,0.0,0.0,0.0,-12.635635,-127.0284,3.2522717,0.0,0.0,0.0,0.0,0.0,0.0,0.0,0.5781894,-0.08481482,0.8115925,-0.9866333,0.11102295,-0.037902832,0.16992188,-0.11328125,-0.10546875,8.35193,11.970314,-1.7559297,16.802483,-0.9415283,-0.15496826,-0.26794434,-0.037109375,0.0390625,-9.765625E-4,19.52735,2.2967482,-57.91927,18.228884,0.5074463,0.09680176,0.887146,0.013671875,-0.018554688,0.0029296875,34.336506,10.9928875,-128.859,9.413149,0.0,0.0,0.0,0.0,0.0,0.0,0.0,12.968511,-129.74591,29.297846,-0.93408203,-0.1317749,-0.043029785,-0.91015625,0.98339844,1.0185547,0.0,2.4955025,44.84058,2.9081984,
1.03515623457497,53,-0.8588867,-0.321167,0.40899658,0.01953125,0.005859375,-0.016601562,0.0,0.0,0.0,0.0,0.0,0.0,0.0,0.0,0.0,0.0,0.0,-0.57800245,0.085344166,-0.81177825,-0.9213257,0.018859863,-0.25073242,-0.00390625,0.0107421875,0.06640625,5.1615243,-11.966444,1.7668889,-16.806326,-0.9840088,0.014404297,-0.009399414,-0.0126953125,0.02734375,0.033203125,2.1490383,-11.470914,-55.23919,-16.95717,0.5123291,0.12945557,0.84936523,0.033203125,-0.001953125,0.00390625,54.840656,-8.920898,-127.20393,-16.349796,0.0,0.0,0.0,0.0,0.0,0.0,0.0,-12.617252,-127.01068,3.3073444,0.0,0.0,0.0,0.0,0.0,0.0,0.0,0.57800245,-0.085344166,0.81177825,-0.97857666,0.11187744,-0.028015137,0.26757812,-0.036132812,-0.08886719,8.161494,11.966444,-1.7668889,16.806326,-0.96698,-0.16259766,-0.2571411,-0.056640625,0.01953125,0.037109375,19.404896,2.3845148,-57.949226,18.17743,0.4981079,0.09210205,0.86724854,-0.0048828125,0.0,-0.016601562,34.45215,11.079056,-128.89264,9.394295,0.0,0.0,0.0,0.0,0.0,0.0,0.0,13.092726,-129.77805,29.275698,-0.9678345,-0.11804199,-0.06854248,-0.94628906,1.0605469,0.9980469,0.0,2.5628004,44.841946,2.8895738,
1.0546874842839318,54,-0.84106445,-0.29559326,0.40490723,0.01953125,0.061523438,0.001953125,0.0,0.0,0.0,0.0,0.0,0.0,0.0,0.0,0.0,0.0,0.0,-0.5782082,0.08498836,-0.8116092,-0.9458008,-0.010131836,-0.26538086,-0.022460938,0.06542969,0.047851562,5.170968,-11.970703,1.7595227,-16.802828,-0.9816284,0.028015137,6.1035156E-4,-0.032226562,0.02734375,0.013671875,2.1194181,-11.463459,-55.2477,-16.92521,0.5372925,0.121276855,0.8354492,0.013671875,0.016601562,-0.0146484375,54.689007,-8.934635,-127.21417,-16.303747,0.0,0.0,0.0,0.0,0.0,0.0,0.0,-12.644469,-127.0105,3.3496132,0.0,0.0,0.0,0.0,0.0,0.0,0.0,0.5782082,-0.08498836,0.8116092,-0.9998169,0.12957764,0.008117676,0.09667969,-0.15527344,-0.10839844,8.2603245,11.970703,-1.7595227,16.802828,-0.9525757,-0.13641357,-0.2625122,-0.037109375,0.038085938,0.037109375,19.476885,2.3346796,-57.92762,18.27306,0.5101929,0.09814453,0.8711548,0.013671875,0.0,0.0029296875,34.405685,10.999502,-128.87814,9.493937,0.0,0.0,0.0,0.0,0.0,0.0,0.0,13.014524,-129.76083,29.37585,-0.96221924,-0.13787842,-0.0546875,-1.0224609,0.98339844,1.0195312,0.0,2.5572999,44.841087,2.8736968,
1.0742187339928935,55,-0.85791016,-0.32312012,0.4109497,-0.018554688,0.061523438,0.021484375,0.0,0.0,0.0,0.0,0.0,0.0,0.0,0.0,0.0,0.0,0.0,-0.5779957,0.0850204,-0.811714,-0.9293213,0.023132324,-0.2791748,0.0146484375,-0.0078125,0.047851562,5.166343,-11.966302,1.760186,-16.804995,-0.9804077,0.0038452148,0.026306152,0.005859375,0.0078125,-0.0048828125,2.1217256,-11.468517,-55.249184,-16.933737,0.519104,0.11773682,0.82751465,0.013671875,-0.021484375,-0.015625,54.742516,-8.950383,-127.2118,-16.28127,0.0,0.0,0.0,0.0,0.0,0.0,0.0,-12.637974,-126.99942,3.3759232,0.0,0.0,0.0,0.0,0.0,0.0,0.0,0.5779957,-0.0850204,0.811714,-1.0028076,0.122802734,-0.020690918,0.029296875,-0.14746094,-0.1171875,8.364499,11.966302,-1.760186,16.804995,-0.9517822,-0.16778564,-0.24829102,-0.037109375,0.0390625,0.018554688,19.597113,2.2315865,-57.909763,18.352642,0.51135254,0.09301758,0.88012695,-0.0048828125,0.018554688,-0.016601562,34.456787,10.89207,-128.86064,9.579515,0.0,0.0,0.0,0.0,0.0,0.0,0.0,12.927946,-129.73784,29.45811,-0.9697876,-0.12023926,-0.044677734,-1.2480469,1.2119141,1.2421875,0.0,2.5731235,44.8392,2.8643,
1.0937499837018552,56,-0.8641968,-0.29156494,0.42132568,0.01953125,0.024414062,0.001953125,0.0,0.0,0.0,0.0,0.0,0.0,0.0,0.0,0.0,0.0,0.0,-0.5778358,0.08474555,-0.8119577,-0.94055176,0.005493164,-0.25842285,-0.022460938,0.0107421875,0.06640625,5.1435375,-11.962993,1.7544955,-16.810041,-0.99139404,0.036254883,6.713867E-4,0.005859375,0.0078125,0.033203125,2.12532,-11.473718,-55.250683,-16.941067,0.5391846,0.1194458,0.81573486,-0.005859375,0.036132812,0.00390625,54.72068,-8.962808,-127.213715,-16.270765,0.0,0.0,0.0,0.0,0.0,0.0,0.0,-12.655623,-126.99569,3.386324,0.0,0.0,0.0,0.0,0.0,0.0,0.0,0.5778358,-0.08474555,0.8119577,-0.9855957,0.11383057,-0.018066406,0.0859375,-0.12597656,-0.09667969,8.446641,11.962993,-1.7544955,16.810041,-0.9537964,-0.17059326,-0.25231934,-0.037109375,0.038085938,0.037109375,19.685444,2.1601143,-57.889038,18.407745,0.53411865,0.08258057,0.86309814,-0.0048828125,0.0,0.001953125,34.45158,10.838669,-128.84387,9.660874,0.0,0.0,0.0,0.0,0.0,0.0,0.0,12.860079,-129.714,29.541904,-0.951355,-0.1449585,-0.056762695,-0.98339844,1.0419922,0.98046875,0.0,2.5681882,44.843925,2.8527741,
1.1132812334108169,57,-0.8411255,-0.31713867,0.44836426,0.01953125,0.024414062,0.001953125,0.0,0.0,0.0,0.0,0.0,0.0,0.0,0.0,0.0,0.0,0.0,-0.5776814,0.08476135,-0.81205726,-0.9223633,0.016906738,-0.2477417,-0.07910156,0.01171875,0.06640625,5.129538,-11.959796,1.7548227,-16.812101,-1.0036621,0.028747559,0.0025634766,-0.0126953125,0.02734375,0.051757812,2.1336834,-11.491846,-55.251755,-16.950838,0.5494385,0.12585449,0.84436035,0.013671875,-0.021484375,0.0029296875,54.761757,-8.997553,-127.21579,-16.27082,0.0,0.0,0.0,0.0,0.0,0.0,0.0,-12.674252,-126.985916,3.389595,0.0,0.0,0.0,0.0,0.0,0.0,0.0,0.5776814,-0.08476135,0.81205726,-0.98565674,0.12860107,-0.014770508,0.15332031,-0.13378906,-0.087890625,8.468537,11.959796,-1.7548227,16.812101,-0.9579468,-0.1850586,-0.26062012,-0.017578125,0.01953125,0.018554688,19.735304,2.1248703,-57.88592,18.451479,0.49884033,0.072387695,0.8553467,0.013671875,0.0,0.0029296875,34.547543,10.83422,-128.84074,9.759832,0.0,0.0,0.0,0.0,0.0,0.0,0.0,12.860632,-129.70868,29.641409,-0.95599365,-0.12322998,-0.064697266,-0.98339844,1.0419922,0.99902344,0.0,2.5874758,44.843307,2.8400002,
1.1328124831197786,58,-0.85302734,-0.32696533,0.44055176,-0.017578125,0.005859375,0.021484375,0.0,0.0,0.0,0.0,0.0,0.0,0.0,0.0,0.0,0.0,0.0,-0.5783282,0.08505052,-0.811585,-0.9423218,0.026367188,-0.2819214,-0.041015625,0.047851562,0.047851562,5.156473,-11.973188,1.7608097,-16.802326,-0.98223877,0.008117676,0.008422852,-0.0126953125,0.02734375,0.033203125,2.1112761,-11.495987,-55.243114,-16.943563,0.5112915,0.119384766,0.8866577,0.013671875,-0.001953125,0.00390625,54.763287,-9.020028,-127.209854,-16.252232,0.0,0.0,0.0,0.0,0.0,0.0,0.0,-12.6706,-126.97898,3.413086,0.0,0.0,0.0,0.0,0.0,0.0,0.0,0.5783282,-0.08505052,0.811585,-0.99176025,0.13171387,-0.030517578,0.13574219,-0.1171875,-0.109375,8.495719,11.973188,-1.7608097,16.802326,-0.96191406,-0.16656494,-0.25823975,-0.037109375,0.038085938,0.056640625,19.78459,2.1042309,-57.883522,18.486294,0.50701904,0.097351074,0.85717773,-0.022460938,0.017578125,0.020507812,34.547,10.8272705,-128.84268,9.826921,0.0,0.0,0.0,0.0,0.0,0.0,0.0,12.846014,-129.70822,29.708933,-0.95599365,-0.12322998,-0.064697266,-0.98339844,1.0419922,0.99902344,0.0,2.6134474,44.84267,2.8369946,
1.1523437328287403,59,-0.8432007,-0.30133057,0.44458008,0.020507812,-0.0126953125,0.020507812,0.0,0.0,0.0,0.0,0.0,0.0,0.0,0.0,0.0,0.0,0.0,-0.5780621,0.08498698,-0.8117477,-0.944458,0.013366699,-0.24346924,-0.00390625,0.08300781,0.029296875,5.1870847,-11.967678,1.7594938,-16.805695,-0.99316406,0.044189453,0.0026855469,-0.0126953125,0.045898438,0.013671875,2.0880666,-11.466308,-55.248276,-16.938923,0.52716064,0.119628906,0.8206177,0.013671875,0.036132812,-0.0146484375,54.69101,-8.988919,-127.21668,-16.239767,0.0,0.0,0.0,0.0,0.0,0.0,0.0,-12.657055,-126.98597,3.4224567,0.0,0.0,0.0,0.0,0.0,0.0,0.0,0.5780621,-0.08498698,0.8117477,-0.99176025,0.13366699,-0.025512695,0.14257812,-0.08496094,-0.095703125,8.4031925,11.967678,-1.7594938,16.805695,-0.9517212,-0.16558838,-0.26519775,-0.037109375,0.01953125,0.037109375,19.756145,2.1164494,-57.88746,18.442762,0.50701904,0.097351074,0.85717773,-0.022460938,0.017578125,0.020507812,34.58727,10.859167,-128.84097,9.796391,0.0,0.0,0.0,0.0,0.0,0.0,0.0,12.877911,-129.70651,29.678402,-0.9602661,-0.14190674,-0.04675293,-1.0039062,0.98339844,1.0380859,0.0,2.6429107,44.84125,2.8126419,
1.171874982537702,60,-0.854187,-0.3092041,0.44378662,0.01953125,0.024414062,0.020507812,0.0,0.0,0.0,0.0,0.0,0.0,0.0,0.0,0.0,0.0,0.0,-0.57939714,0.085047826,-0.8108255,-0.91851807,0.005065918,-0.25579834,0.015625,0.0107421875,0.047851562,5.216353,-11.995317,1.7607536,-16.786602,-0.9949951,0.018188477,0.026306152,-0.032226562,0.02734375,0.033203125,2.0433474,-11.484316,-55.248283,-16.902407,0.5220337,0.107788086,0.8451538,0.033203125,0.016601562,0.00390625,54.611794,-9.050227,-127.215546,-16.192085,0.0,0.0,0.0,0.0,0.0,0.0,0.0,-12.705149,-126.982056,3.4720898,0.0,0.0,0.0,0.0,0.0,0.0,0.0,0.57939714,-0.085047826,0.8108255,-0.9957886,0.1326294,-0.016601562,0.046875,-0.1640625,-0.095703125,8.412255,11.995317,-1.7607536,16.786602,-0.95581055,-0.1618042,-0.25512695,-0.037109375,0.01953125,0.056640625,19.794989,2.104763,-57.87891,18.445244,0.5083008,0.11102295,0.8731079,-0.00390625,0.0,0.021484375,34.592842,10.851442,-128.83777,9.824802,0.0,0.0,0.0,0.0,0.0,0.0,0.0,12.879854,-129.68988,29.706474,-0.96136475,-0.14874268,-0.044799805,-1.0585938,1.0224609,1.0,0.0,2.6672845,44.84209,2.7975254,
1.1914062322466636,61,-0.8409424,-0.32312012,0.4244995,0.01953125,0.04296875,0.020507812,0.0,0.0,0.0,0.0,0.0,0.0,0.0,0.0,0.0,0.0,0.0,-0.5797623,0.08561962,-0.8104266,-0.92510986,0.035705566,-0.25146484,-0.022460938,0.029296875,0.047851562,5.275518,-12.002875,1.7725915,-16.778343,-0.9817505,0.023864746,0.012512207,-0.013671875,0.0087890625,0.033203125,2.0262268,-11.489649,-55.23264,-16.880825,0.51312256,0.114746094,0.8461914,0.051757812,0.036132812,0.00390625,54.59798,-9.072546,-127.20183,-16.169817,0.0,0.0,0.0,0.0,0.0,0.0,0.0,-12.727031,-126.96986,3.4938335,0.0,0.0,0.0,0.0,0.0,0.0,0.0,0.5797623,-0.08561962,0.8104266,-0.9887085,0.1296997,-0.024658203,-0.020507812,-0.13671875,-0.125,8.396507,12.002875,-1.7725915,16.778343,-0.9475708,-0.15393066,-0.26794434,-0.017578125,0.0390625,0.037109375,19.853947,2.0645676,-57.87967,18.463993,0.4963379,0.095703125,0.88623047,-0.00390625,0.018554688,0.001953125,34.60944,10.816233,-128.83621,9.846874,0.0,0.0,0.0,0.0,0.0,0.0,0.0,12.851923,-129.68698,29.727213,-0.9672241,-0.14178467,-0.04473877,-1.0771484,1.0605469,1.0371094,0.0,2.7285452,44.83634,2.7849078,
1.2109374819556253,62,-0.8338623,-0.31530762,0.39666748,0.01953125,0.024414062,-0.016601562,0.0,0.0,0.0,0.0,0.0,0.0,0.0,0.0,0.0,0.0,0.0,-0.58076817,0.08553927,-0.8096842,-0.92248535,0.007080078,-0.2557373,-0.022460938,0.0107421875,0.047851562,5.2707243,-12.023701,1.770928,-16.762974,-0.9987793,0.024597168,0.003540039,0.005859375,-0.0107421875,0.0146484375,2.0569983,-11.541864,-55.236423,-16.830616,0.50494385,0.10601807,0.8598633,0.052734375,-0.021484375,-0.015625,54.774963,-9.122295,-127.201965,-16.103111,0.0,0.0,0.0,0.0,0.0,0.0,0.0,-12.744001,-126.961555,3.5674,0.0,0.0,0.0,0.0,0.0,0.0,0.0,0.58076817,-0.08553927,0.8096842,-0.9916992,0.118774414,-0.010986328,0.12011719,-0.12109375,-0.09375,8.458537,12.023701,-1.770928,16.762974,-0.9547119,-0.15594482,-0.25500488,-0.037109375,0.0,0.056640625,19.927242,2.0372562,-57.875008,18.497295,0.49420166,0.108947754,0.8711548,-0.0048828125,-0.018554688,0.0029296875,34.609776,10.79091,-128.83218,9.860876,0.0,0.0,0.0,0.0,0.0,0.0,0.0,12.827795,-129.67969,29.740862,-0.9641113,-0.14001465,-0.030822754,-1.0029297,1.0224609,1.0,0.0,2.7296832,44.835552,2.7787218,
1.230468731664587,63,-0.8327637,-0.34680176,0.42803955,0.01953125,0.024414062,0.001953125,0.0,0.0,0.0,0.0,0.0,0.0,0.0,0.0,0.0,0.0,0.0,-0.5807148,0.08629233,-0.80962527,-0.94525146,0.030273438,-0.26605225,-0.060546875,0.029296875,0.047851562,5.30814,-12.022598,1.7865186,-16.761753,-0.9631958,0.044006348,0.013671875,-0.013671875,-0.0107421875,0.033203125,2.054904,-11.557151,-55.220303,-16.834538,0.5144043,0.13128662,0.8621826,0.033203125,-0.001953125,0.00390625,54.787266,-9.161766,-127.18817,-16.088505,0.0,0.0,0.0,0.0,0.0,0.0,0.0,-12.771729,-126.93884,3.5827293,0.0,0.0,0.0,0.0,0.0,0.0,0.0,0.5807148,-0.08629233,0.80962527,-0.98773193,0.13256836,-0.007751465,0.12011719,-0.12109375,-0.09375,8.502351,12.022598,-1.7865186,16.761753,-0.9373779,-0.1404419,-0.26367188,-0.037109375,0.038085938,0.037109375,20.01119,1.9782887,-57.87708,18.564714,0.49438477,0.07965088,0.89227295,-0.0048828125,0.0,-0.016601562,34.659092,10.728968,-128.83127,9.924982,0.0,0.0,0.0,0.0,0.0,0.0,0.0,12.777658,-129.68121,29.803514,-0.9230957,-0.12805176,-0.050048828,-1.0019531,1.0039062,0.94433594,0.0,2.7801733,44.83148,2.784158,
1.2499999813735487,64,-0.8569336,-0.31524658,0.40509033,9.765625E-4,0.005859375,0.001953125,0.0,0.0,0.0,0.0,0.0,0.0,0.0,0.0,0.0,0.0,0.0,-0.58111703,0.08605435,-0.809392,-0.91345215,0.006958008,-0.26281738,-0.041015625,0.047851562,0.047851562,5.2811604,-12.030923,1.7815917,-16.756924,-0.98095703,0.050048828,-0.015075684,-0.013671875,0.0087890625,0.033203125,2.0918121,-11.587031,-55.224903,-16.833797,0.52923584,0.12145996,0.8265991,0.033203125,0.016601562,-0.0146484375,54.89796,-9.173098,-127.19502,-16.07983,0.0,0.0,0.0,0.0,0.0,0.0,0.0,-12.78302,-126.939095,3.5919685,0.0,0.0,0.0,0.0,0.0,0.0,0.0,0.58111703,-0.08605435,0.809392,-0.97961426,0.12384033,-0.0446167,0.14453125,-0.087890625,-0.078125,8.486259,12.030923,-1.7815917,16.756924,-0.9456177,-0.15979004,-0.26904297,-0.037109375,0.01953125,0.018554688,20.035767,1.9247894,-57.86007,18.496365,0.50213623,0.10211182,0.8661499,0.032226562,-0.018554688,0.021484375,34.651287,10.677123,-128.81792,9.864942,0.0,0.0,0.0,0.0,0.0,0.0,0.0,12.724729,-129.66374,29.745007,-0.96875,-0.11114502,-0.07348633,-1.0009766,1.1191406,0.9980469,0.0,2.7896545,44.83325,2.7637784,
1.2695312310825104,65,-0.8330078,-0.32312012,0.43426514,0.01953125,0.024414062,0.020507812,0.0,0.0,0.0,0.0,0.0,0.0,0.0,0.0,0.0,0.0,0.0,-0.5807566,0.086209014,-0.8096576,-0.95043945,0.018554688,-0.27392578,-0.022460938,0.029296875,0.06640625,5.2999754,-12.023461,1.7847939,-16.762423,-1.0011597,0.04626465,0.015563965,-0.0126953125,0.02734375,0.033203125,2.0930283,-11.590127,-55.22354,-16.831364,0.51464844,0.15106201,0.83288574,0.033203125,-0.021484375,-0.015625,54.928123,-9.188817,-127.18684,-16.053604,0.0,0.0,0.0,0.0,0.0,0.0,0.0,-12.796392,-126.92664,3.6185474,0.0,0.0,0.0,0.0,0.0,0.0,0.0,0.5807566,-0.086209014,0.8096576,-0.97869873,0.13946533,-0.015625,0.13964844,-0.064453125,-0.13378906,8.307044,12.023461,-1.7847939,16.762423,-0.9507446,-0.16564941,-0.2642212,-0.017578125,0.0390625,0.037109375,19.907915,1.9937162,-57.88143,18.398981,0.5109253,0.08947754,0.85321045,-0.0048828125,0.0,0.001953125,34.670895,10.745723,-128.84229,9.795172,0.0,0.0,0.0,0.0,0.0,0.0,0.0,12.800457,-129.68622,29.673027,-0.9460449,-0.13763428,-0.017089844,-1.0976562,1.0410156,1.0751953,0.0,2.8281322,44.832848,2.7450356,
1.2890624807914721,66,-0.824646,-0.32525635,0.37945557,-0.018554688,0.061523438,0.0029296875,0.0,0.0,0.0,0.0,0.0,0.0,0.0,0.0,0.0,0.0,0.0,-0.581894,0.0867974,-0.8087444,-0.9133301,0.01977539,-0.26464844,-0.00390625,0.046875,0.047851562,5.323401,-12.047009,1.7969754,-16.743515,-0.96643066,0.034301758,0.010620117,-0.013671875,0.0087890625,0.033203125,2.0890973,-11.605007,-55.211582,-16.834951,0.5297241,0.14874268,0.84069824,0.013671875,0.016601562,0.00390625,55.004612,-9.201884,-127.17563,-16.040293,0.0,0.0,0.0,0.0,0.0,0.0,0.0,-12.778621,-126.90594,3.6374187,0.0,0.0,0.0,0.0,0.0,0.0,0.0,0.581894,-0.0867974,0.8087444,-0.9937744,0.1404419,-0.0075683594,0.02734375,-0.1640625,-0.115234375,8.389464,12.047009,-1.7969754,16.743515,-0.9577637,-0.15386963,-0.26593018,-0.056640625,0.01953125,0.018554688,19.965965,1.9615507,-57.88013,18.435692,0.48321533,0.06762695,0.8874512,-0.0048828125,-0.018554688,0.0029296875,34.682095,10.687232,-128.84201,9.83087,0.0,0.0,0.0,0.0,0.0,0.0,0.0,12.764076,-129.68744,29.706121,-0.944397,-0.14910889,-0.046875,-1.0966797,1.0605469,1.0556641,0.0,2.842208,44.829437,2.7662818,
1.3085937305004338,67,-0.8539429,-0.29956055,0.3912964,0.01953125,0.024414062,0.001953125,0.0,0.0,0.0,0.0,0.0,0.0,0.0,0.0,0.0,0.0,0.0,-0.5828604,0.087552875,-0.807975,-0.944397,0.019226074,-0.23944092,-0.060546875,0.047851562,0.047851562,5.359207,-12.067017,1.812616,-16.727587,-1.0011597,0.010803223,0.0044555664,-0.0126953125,0.045898438,0.033203125,2.120618,-11.643816,-55.193817,-16.831564,0.51690674,0.103027344,0.8352051,0.013671875,-0.021484375,-0.015625,55.003555,-9.230333,-127.16049,-15.991331,0.0,0.0,0.0,0.0,0.0,0.0,0.0,-12.823685,-126.89532,3.684101,0.0,0.0,0.0,0.0,0.0,0.0,0.0,0.5828604,-0.087552875,0.807975,-0.9876709,0.1227417,-0.018859863,0.013671875,-0.1328125,-0.12109375,8.410201,12.067017,-1.812616,16.727587,-0.949646,-0.15014648,-0.25689697,-0.037109375,0.01953125,0.056640625,20.021278,1.9178371,-57.878975,18.479416,0.48321533,0.06762695,0.8874512,-0.0048828125,-0.018554688,0.0029296875,34.629536,10.6082325,-128.8489,9.8895645,0.0,0.0,0.0,0.0,0.0,0.0,0.0,12.685077,-129.69434,29.764816,-0.9552002,-0.14013672,-0.04083252,-1.0595703,1.0605469,1.0556641,0.0,2.9063814,44.825962,2.7607632,
1.3281249802093955,68,-0.8210449,-0.291687,0.40057373,9.765625E-4,0.04296875,0.05859375,0.0,0.0,0.0,0.0,0.0,0.0,0.0,0.0,0.0,0.0,0.0,-0.58337355,0.08739482,-0.80767715,-0.939209,0.03503418,-0.2680664,-0.00390625,0.046875,0.047851562,5.340857,-12.077641,1.8093438,-16.72142,-0.99298096,0.01739502,0.008483887,-0.013671875,0.0087890625,0.013671875,2.1248596,-11.674939,-55.197617,-16.8166,0.5130005,0.10998535,0.833313,0.033203125,0.016601562,-0.0146484375,54.895176,-9.281867,-127.161865,-15.962542,0.0,0.0,0.0,0.0,0.0,0.0,0.0,-12.905663,-126.90192,3.7072735,0.0,0.0,0.0,0.0,0.0,0.0,0.0,0.58337355,-0.08739482,0.80767715,-0.98168945,0.13439941,0.0040893555,0.09863281,-0.119140625,-0.12988281,8.460603,12.077641,-1.8093438,16.72142,-0.96588135,-0.15490723,-0.25097656,-0.017578125,9.765625E-4,0.037109375,20.039116,1.9033537,-57.87346,18.53201,0.5289917,0.085754395,0.8521118,0.0146484375,0.01953125,0.001953125,34.494003,10.547135,-128.84613,9.938221,0.0,0.0,0.0,0.0,0.0,0.0,0.0,12.594343,-129.68822,29.817394,-0.9298706,-0.117126465,-0.052978516,-1.0576172,1.0810547,0.99902344,0.0,2.9056978,44.82858,2.7519393,
1.3476562299183572,69,-0.82855225,-0.35083008,0.3961792,9.765625E-4,0.024414062,-0.016601562,0.0,0.0,0.0,0.0,0.0,0.0,0.0,0.0,0.0,0.0,0.0,-0.5835245,0.08843503,-0.8073963,-0.9472046,0.035095215,-0.24224854,-0.022460938,0.046875,0.047851562,5.393759,-12.080767,1.8308792,-16.715607,-0.9884033,0.036376953,-0.011230469,-0.013671875,0.0087890625,0.013671875,2.116461,-11.694718,-55.17377,-16.8123,0.5050049,0.11199951,0.84716797,0.013671875,0.016601562,0.00390625,54.83872,-9.332893,-127.14009,-15.960531,0.0,0.0,0.0,0.0,0.0,0.0,0.0,-12.939637,-126.87821,3.7119217,0.0,0.0,0.0,0.0,0.0,0.0,0.0,0.5835245,-0.08843503,0.8073963,-0.97869873,0.14630127,-0.010559082,0.19238281,-0.095703125,-0.08886719,8.491557,12.080767,-1.8308792,16.715607,-0.9517822,-0.16772461,-0.2532959,-0.017578125,0.01953125,0.018554688,20.09206,1.8513288,-57.883896,18.55652,0.51330566,0.0970459,0.87713623,-0.0048828125,0.0,0.001953125,34.50535,10.479802,-128.85593,9.963087,0.0,0.0,0.0,0.0,0.0,0.0,0.0,12.535523,-129.70134,29.840267,-0.9493408,-0.14709473,-0.03894043,-1.0029297,1.0605469,1.0175781,0.0,2.9554446,44.821865,2.7734191,
1.367187479627319,70,-0.8359375,-0.30743408,0.40472412,0.020507812,-0.0126953125,0.001953125,0.0,0.0,0.0,0.0,0.0,0.0,0.0,0.0,0.0,0.0,0.0,-0.5837312,0.08829629,-0.80723083,-0.9456177,0.004638672,-0.2672119,-0.022460938,0.046875,0.047851562,5.3764744,-12.085045,1.8280069,-16.712181,-0.99365234,0.02923584,0.0134887695,-0.032226562,0.02734375,0.013671875,2.141283,-11.717095,-55.178886,-16.792604,0.5335083,0.13098145,0.85131836,0.033203125,-0.021484375,-0.015625,54.93696,-9.344257,-127.14289,-15.934386,0.0,0.0,0.0,0.0,0.0,0.0,0.0,-12.94108,-126.86683,3.740777,0.0,0.0,0.0,0.0,0.0,0.0,0.0,0.5837312,-0.08829629,0.80723083,-0.9897461,0.13659668,-0.026489258,0.1640625,-0.068359375,-0.07910156,8.436358,12.085045,-1.8280069,16.712181,-0.95977783,-0.15673828,-0.2659912,-0.037109375,0.01953125,0.056640625,20.005383,1.8796568,-57.886677,18.458944,0.5019531,0.064331055,0.86138916,0.013671875,0.0,0.021484375,34.474167,10.469462,-128.86548,9.84464,0.0,0.0,0.0,0.0,0.0,0.0,0.0,12.534048,-129.71,29.721016,-0.9580078,-0.13323975,-0.03881836,-0.98535156,1.0791016,1.0732422,0.0,2.9362478,44.821617,2.779382,
1.3867187293362806,71,-0.85601807,-0.32110596,0.4317627,9.765625E-4,0.061523438,0.040039062,0.0,0.0,0.0,0.0,0.0,0.0,0.0,0.0,0.0,0.0,0.0,-0.5846398,0.08843569,-0.8065868,-0.91918945,0.026672363,-0.24176025,-0.060546875,0.01171875,0.06640625,5.3694353,-12.103856,1.8308929,-16.698849,-0.97875977,0.024047852,-0.0033569336,-0.013671875,0.0087890625,0.033203125,2.1574914,-11.764161,-55.176743,-16.770895,0.54522705,0.113220215,0.84417725,0.013671875,-0.0029296875,-0.033203125,54.937904,-9.403411,-127.143074,-15.917177,0.0,0.0,0.0,0.0,0.0,0.0,0.0,-13.026024,-126.869225,3.7516346,0.0,0.0,0.0,0.0,0.0,0.0,0.0,0.5846398,-0.08843569,0.8065868,-0.9957886,0.1385498,-0.0115356445,0.016601562,-0.13476562,-0.103515625,8.413376,12.103856,-1.8308929,16.698849,-0.9598999,-0.17144775,-0.26031494,-0.037109375,0.01953125,0.037109375,19.9811,1.8893347,-57.89442,18.416199,0.5201416,0.101379395,0.86206055,-0.0048828125,-0.018554688,0.0029296875,34.45004,10.471549,-128.8763,9.836529,0.0,0.0,0.0,0.0,0.0,0.0,0.0,12.537794,-129.71155,29.71322,-0.9550781,-0.13427734,-0.04284668,-1.0771484,1.1376953,1.0546875,0.0,2.9464443,44.82205,2.778697,
1.4062499790452423,72,-0.8354492,-0.36462402,0.39416504,0.01953125,0.061523438,0.001953125,0.0,0.0,0.0,0.0,0.0,0.0,0.0,0.0,0.0,0.0,0.0,-0.5859538,0.089062326,-0.8055744,-0.9376221,0.003540039,-0.26934814,0.0146484375,0.0107421875,0.06640625,5.418661,-12.131059,1.8438662,-16.677887,-0.9925537,0.031311035,0.0045776367,-0.033203125,0.0087890625,0.051757812,2.1431103,-11.7868,-55.16519,-16.73152,0.51123047,0.12664795,0.8345337,0.013671875,0.016601562,-0.0146484375,54.99786,-9.438682,-127.13283,-15.853452,0.0,0.0,0.0,0.0,0.0,0.0,0.0,-13.051769,-126.84906,3.8181124,0.0,0.0,0.0,0.0,0.0,0.0,0.0,0.5859538,-0.089062326,0.8055744,-0.9897461,0.12957764,-0.0018920898,-0.07910156,-0.17480469,-0.14257812,8.545712,12.131059,-1.8438662,16.677887,-0.94763184,-0.15405273,-0.2609253,-0.037109375,0.01953125,0.037109375,20.105108,1.8184586,-57.88277,18.479185,0.49938965,0.103759766,0.88513184,-0.0048828125,-0.01953125,0.021484375,34.47265,10.401037,-128.86896,9.912819,0.0,0.0,0.0,0.0,0.0,0.0,0.0,12.472846,-129.69862,29.789864,-0.96221924,-0.14294434,-0.039794922,-1.0400391,1.0800781,1.0361328,0.0,2.9630752,44.82002,2.799928,
1.425781228754204,73,-0.8538208,-0.3447876,0.43249512,0.01953125,0.005859375,0.001953125,0.0,0.0,0.0,0.0,0.0,0.0,0.0,0.0,0.0,0.0,0.0,-0.58670294,0.08954337,-0.8049816,-0.9314575,0.013244629,-0.26342773,-0.060546875,0.029296875,0.047851562,5.4490266,-12.14657,1.8538253,-16.665615,-0.9970703,0.014343262,0.020324707,-0.013671875,-0.0107421875,0.033203125,2.1204336,-11.796916,-55.15535,-16.71149,0.5413208,0.119140625,0.8491821,0.033203125,-0.0029296875,-0.0146484375,55.027737,-9.473171,-127.12307,-15.805254,0.0,0.0,0.0,0.0,0.0,0.0,0.0,-13.075774,-126.832695,3.8689747,0.0,0.0,0.0,0.0,0.0,0.0,0.0,0.58670294,-0.08954337,0.8049816,-0.9805908,0.11773682,-0.015014648,0.05078125,-0.111328125,-0.12011719,8.61646,12.14657,-1.8538253,16.665615,-0.95874023,-0.14898682,-0.2658081,-0.037109375,0.0,0.056640625,20.139128,1.8222885,-57.886765,18.527168,0.5053711,0.09387207,0.8851929,0.0146484375,0.038085938,0.021484375,34.46726,10.404236,-128.87164,9.975115,0.0,0.0,0.0,0.0,0.0,0.0,0.0,12.476555,-129.70323,29.85252,-0.9710083,-0.13189697,-0.046691895,-1.0410156,1.0605469,1.0556641,0.0,2.9619217,44.818634,2.8267026,
1.4453124784631657,74,-0.8529053,-0.31329346,0.401062,0.01953125,0.04296875,0.001953125,0.0,0.0,0.0,0.0,0.0,0.0,0.0,0.0,0.0,0.0,0.0,-0.587378,0.08976665,-0.8044957,-0.94506836,0.042907715,-0.24713135,-0.00390625,0.046875,0.06640625,5.434406,-12.160545,1.8584481,-16.655554,-1.0081787,0.046325684,0.026489258,-0.032226562,0.02734375,0.033203125,2.1263328,-11.852756,-55.147705,-16.694153,0.54351807,0.124816895,0.87194824,0.052734375,-0.0029296875,-0.0146484375,55.043926,-9.571428,-127.12008,-15.786248,0.0,0.0,0.0,0.0,0.0,0.0,0.0,-13.15606,-126.82423,3.890132,0.0,0.0,0.0,0.0,0.0,0.0,0.0,0.587378,-0.08976665,0.8044957,-0.98565674,0.12164307,-0.0030517578,0.22949219,-0.09375,-0.06738281,8.660546,12.160545,-1.8584481,16.655554,-0.95874023,-0.14141846,-0.24871826,-0.037109375,0.01953125,0.018554688,20.175213,1.79109,-57.886684,18.535536,0.5230713,0.072509766,0.8632202,-0.0048828125,0.0,-0.016601562,34.362366,10.357743,-128.87372,9.988207,0.0,0.0,0.0,0.0,0.0,0.0,0.0,12.411613,-129.70988,29.866549,-0.95928955,-0.15002441,-0.021972656,-1.078125,1.0605469,1.0556641,0.0,2.9696462,44.818882,2.8327518,
1.4648437281721274,75,-0.8040161,-0.31329346,0.43572998,9.765625E-4,0.061523438,0.0029296875,0.0,0.0,0.0,0.0,0.0,0.0,0.0,0.0,0.0,0.0,0.0,-0.5871991,0.08994365,-0.80459607,-0.93756104,0.0063476562,-0.24957275,-0.022460938,0.046875,0.047851562,5.4013834,-12.156841,1.8621123,-16.657633,-0.9883423,0.038146973,0.0016479492,0.005859375,0.0078125,0.033203125,2.1604826,-11.891461,-55.147705,-16.702415,0.5282593,0.12145996,0.83251953,-0.005859375,0.016601562,-0.0146484375,55.055393,-9.622602,-127.11543,-15.780413,0.0,0.0,0.0,0.0,0.0,0.0,0.0,-13.204481,-126.81104,3.8962688,0.0,0.0,0.0,0.0,0.0,0.0,0.0,0.5871991,-0.08994365,0.80459607,-0.9807129,0.1404419,-0.01953125,0.12695312,-0.0703125,-0.10058594,8.668435,12.156841,-1.8621123,16.657633,-0.9649658,-0.16760254,-0.25024414,-0.056640625,0.01953125,0.056640625,20.127817,1.8130007,-57.89329,18.528912,0.5092163,0.09509277,0.87316895,-0.0048828125,0.0,-0.016601562,34.25083,10.349708,-128.886,9.976751,0.0,0.0,0.0,0.0,0.0,0.0,0.0,12.397279,-129.71944,29.857458,-0.94732666,-0.14007568,-0.06378174,-1.1152344,1.0605469,1.0371094,0.0,2.953596,44.818184,2.8545527,
1.484374977881089,76,-0.83599854,-0.3201294,0.4303589,-0.018554688,0.061523438,0.0029296875,0.0,0.0,0.0,0.0,0.0,0.0,0.0,0.0,0.0,0.0,0.0,-0.58741057,0.08969544,-0.80448425,-0.94506836,0.046020508,-0.26885986,0.015625,0.046875,0.06640625,5.3730106,-12.1612215,1.8569738,-16.655317,-0.98742676,0.0021972656,0.018310547,-0.032226562,0.02734375,0.051757812,2.1570375,-11.919761,-55.15303,-16.696688,0.53741455,0.12805176,0.8444214,0.013671875,-0.0029296875,-0.0146484375,54.9863,-9.682455,-127.12368,-15.785914,0.0,0.0,0.0,0.0,0.0,0.0,0.0,-13.249584,-126.81503,3.8936014,0.0,0.0,0.0,0.0,0.0,0.0,0.0,0.58741057,-0.08969544,0.80448425,-0.9897461,0.13452148,-0.004760742,0.10253906,-0.10449219,-0.115234375,8.579086,12.1612215,-1.8569738,16.655317,-0.9484863,-0.13641357,-0.2675171,-0.037109375,0.01953125,0.037109375,20.05658,1.8761959,-57.90281,18.472574,0.5092163,0.09509277,0.87316895,-0.0048828125,0.0,-0.016601562,34.230824,10.410148,-128.8923,9.893826,0.0,0.0,0.0,0.0,0.0,0.0,0.0,12.457719,-129.72574,29.774532,-0.9390259,-0.12866211,-0.049926758,-1.1328125,1.0800781,1.0371094,0.0,2.951411,44.819656,2.8421054,
1.5039062275900508,77,-0.8560791,-0.30340576,0.41906738,0.01953125,0.061523438,0.001953125,0.0,0.0,0.0,0.0,0.0,0.0,0.0,0.0,0.0,0.0,0.0,-0.5882205,0.090263315,-0.8038768,-0.9283447,0.020141602,-0.28320312,-0.00390625,0.06542969,0.06640625,5.4094677,-12.177988,1.8687304,-16.642742,-0.9723511,0.0056152344,0.022338867,0.0068359375,0.044921875,0.033203125,2.107565,-11.943232,-55.140373,-16.686417,0.5211792,0.12261963,0.8216553,0.033203125,-0.021484375,0.0029296875,54.7317,-9.775038,-127.116745,-15.790889,0.0,0.0,0.0,0.0,0.0,0.0,0.0,-13.370187,-126.80931,3.8843374,0.0,0.0,0.0,0.0,0.0,0.0,0.0,0.5882205,-0.090263315,0.8038768,-0.99072266,0.13049316,0.005065918,0.1328125,-0.13378906,-0.10644531,8.629215,12.177988,-1.8687304,16.642742,-0.95880127,-0.15209961,-0.24993896,-0.037109375,0.038085938,0.037109375,20.145575,1.826436,-57.898346,18.543106,0.50512695,0.07714844,0.8703003,-0.00390625,0.037109375,0.020507812,34.223167,10.336009,-128.88977,9.944204,0.0,0.0,0.0,0.0,0.0,0.0,0.0,12.403221,-129.73413,29.822176,-0.94506836,-0.128479,-0.05480957,-1.0214844,1.0996094,1.0361328,0.0,3.0027735,44.818428,2.8352191,
1.5234374772990125,78,-0.8290405,-0.32696533,0.45196533,0.01953125,0.024414062,0.001953125,0.0,0.0,0.0,0.0,0.0,0.0,0.0,0.0,0.0,0.0,0.0,-0.589042,0.09078677,-0.803171,-0.93530273,0.024963379,-0.24053955,0.015625,0.06542969,0.047851562,5.4254193,-12.194995,1.8795676,-16.62813,-0.97924805,0.041809082,-0.0012817383,-0.0126953125,0.02734375,0.051757812,2.1221864,-11.961365,-55.128647,-16.684673,0.5272827,0.12646484,0.8187866,0.033203125,0.016601562,-0.0146484375,54.76192,-9.784445,-127.1036,-15.741934,0.0,0.0,0.0,0.0,0.0,0.0,0.0,-13.399606,-126.80029,3.928913,0.0,0.0,0.0,0.0,0.0,0.0,0.0,0.589042,-0.09078677,0.803171,-0.98669434,0.13446045,1.8310547E-4,0.13964844,-0.10253906,-0.09375,8.728413,12.194995,-1.8795676,16.62813,-0.95373535,-0.16363525,-0.26611328,-0.017578125,0.038085938,0.056640625,20.207012,1.7832375,-57.8975,18.582384,0.49591064,0.06628418,0.8604126,-0.0048828125,0.0,0.001953125,34.177193,10.273228,-128.89159,9.994276,0.0,0.0,0.0,0.0,0.0,0.0,0.0,12.346526,-129.73785,29.871265,-0.97406006,-0.13775635,-0.037719727,-1.0595703,1.1367188,1.1103516,0.0,3.0063963,44.814926,2.8607965,
1.5429687270079742,79,-0.8440552,-0.31420898,0.43756104,-0.018554688,0.080078125,0.0029296875,0.0,0.0,0.0,0.0,0.0,0.0,0.0,0.0,0.0,0.0,0.0,-0.58885574,0.0910913,-0.8032892,-0.94036865,0.02130127,-0.26916504,-0.00390625,0.029296875,0.047851562,5.4245167,-12.191139,1.8858724,-16.630577,-0.9821167,0.010375977,-0.010375977,-0.0126953125,0.064453125,0.051757812,2.1123884,-11.958238,-55.123375,-16.721794,0.5175781,0.13806152,0.8632202,-0.005859375,-0.001953125,0.00390625,54.72423,-9.803801,-127.09642,-15.762779,0.0,0.0,0.0,0.0,0.0,0.0,0.0,-13.407166,-126.79107,3.9091759,0.0,0.0,0.0,0.0,0.0,0.0,0.0,0.58885574,-0.0910913,0.8032892,-0.98168945,0.14141846,-0.017578125,0.12011719,-0.10253906,-0.11328125,8.767976,12.191139,-1.8858724,16.630577,-0.95062256,-0.15106201,-0.26385498,-0.037109375,0.057617188,0.038085938,20.26052,1.733388,-57.88887,18.625275,0.49816895,0.0949707,0.87323,0.032226562,9.765625E-4,0.0029296875,34.1716,10.205679,-128.88345,10.024308,0.0,0.0,0.0,0.0,0.0,0.0,0.0,12.286764,-129.73027,29.900322,-0.9508667,-0.11853027,-0.058776855,-1.0410156,1.0410156,1.0556641,0.0,3.0302548,44.813927,2.8604589,
1.5624999767169359,80,-0.85302734,-0.30737305,0.4169922,0.01953125,0.04296875,0.001953125,0.0,0.0,0.0,0.0,0.0,0.0,0.0,0.0,0.0,0.0,0.0,-0.5901402,0.091234,-0.8022589,-0.9283447,0.016967773,-0.24468994,-0.060546875,0.029296875,0.047851562,5.412365,-12.217731,1.8888266,-16.609247,-0.97698975,0.017700195,0.018432617,-0.0126953125,0.02734375,0.033203125,2.1278968,-12.013125,-55.11933,-16.706669,0.5181885,0.12365723,0.81970215,-0.025390625,-0.059570312,0.021484375,54.68896,-9.87737,-127.093895,-15.735489,0.0,0.0,0.0,0.0,0.0,0.0,0.0,-13.472632,-126.7804,3.9392529,0.0,0.0,0.0,0.0,0.0,0.0,0.0,0.5901402,-0.091234,0.8022589,-0.99176025,0.13360596,-0.019592285,0.123046875,-0.10449219,-0.095703125,8.700258,12.217731,-1.8888266,16.609247,-0.94451904,-0.1461792,-0.27075195,-0.037109375,0.038085938,0.037109375,20.231853,1.7775364,-57.899403,18.567606,0.49829102,0.09387207,0.8812256,-0.00390625,0.037109375,0.001953125,34.16245,10.245729,-128.89139,9.94505,0.0,0.0,0.0,0.0,0.0,0.0,0.0,12.327691,-129.7415,29.820915,-0.9512329,-0.14013672,-0.050842285,-1.0605469,1.0595703,1.0927734,0.0,3.0524342,44.81048,2.8505452,
1.5820312264258976,81,-0.84088135,-0.33294678,0.42834473,0.01953125,0.024414062,0.001953125,0.0,0.0,0.0,0.0,0.0,0.0,0.0,0.0,0.0,0.0,0.0,-0.5898855,0.091364846,-0.8024053,-0.9536133,0.007751465,-0.26708984,-0.022460938,0.06542969,0.06640625,5.4072933,-12.21246,1.8915355,-16.612276,-0.9813843,0.035095215,-0.009216309,-0.013671875,0.0087890625,0.013671875,2.180052,-12.043035,-55.114784,-16.699854,0.5335083,0.13500977,0.8356323,0.013671875,-0.0029296875,-0.0146484375,54.776592,-9.885414,-127.08802,-15.706396,0.0,0.0,0.0,0.0,0.0,0.0,0.0,-13.466089,-126.769745,3.9692783,0.0,0.0,0.0,0.0,0.0,0.0,0.0,0.5898855,-0.091364846,0.8024053,-0.98168945,0.13745117,-0.0126953125,0.14648438,-0.0703125,-0.08105469,8.579292,12.21246,-1.8915355,16.612276,-0.9536743,-0.14996338,-0.26879883,-0.056640625,0.038085938,0.018554688,20.145584,1.822669,-57.911606,18.495686,0.50335693,0.06982422,0.8903198,0.0146484375,0.01953125,0.001953125,34.14558,10.269751,-128.89963,9.848017,0.0,0.0,0.0,0.0,0.0,0.0,0.0,12.366343,-129.75732,29.72228,-0.9557495,-0.12365723,-0.026916504,-1.0029297,1.1181641,1.0732422,0.0,3.0772676,44.808517,2.8398213,
1.6015624761348592,82,-0.8599243,-0.3093872,0.39526367,-0.018554688,0.061523438,0.0029296875,0.0,0.0,0.0,0.0,0.0,0.0,0.0,0.0,0.0,0.0,0.0,-0.5903803,0.09136143,-0.80215,-0.930603,-5.493164E-4,-0.26361084,-0.022460938,0.046875,0.047851562,5.4284887,-12.222703,1.891465,-16.606993,-0.96899414,0.017333984,0.022399902,-0.0126953125,0.02734375,0.033203125,2.1396372,-12.036403,-55.119095,-16.696705,0.5199585,0.10784912,0.8362427,0.013671875,-0.001953125,0.00390625,54.70095,-9.91515,-127.09581,-15.670425,0.0,0.0,0.0,0.0,0.0,0.0,0.0,-13.477642,-126.779465,4.0097027,0.0,0.0,0.0,0.0,0.0,0.0,0.0,0.5903803,-0.09136143,0.80215,-0.9898071,0.14935303,-0.0064697266,0.087890625,-0.10839844,-0.09863281,8.585814,12.222703,-1.891465,16.606993,-0.95983887,-0.1607666,-0.25708008,-0.037109375,0.0390625,0.018554688,20.194244,1.7822208,-57.902412,18.513466,0.54119873,0.06463623,0.868103,0.013671875,0.0,0.0029296875,34.077744,10.218304,-128.89238,9.864577,0.0,0.0,0.0,0.0,0.0,0.0,0.0,12.306918,-129.75983,29.737797,-0.9418335,-0.12182617,-0.042907715,-1.0585938,1.0605469,1.0185547,0.0,3.1073322,44.811817,2.816885,
1.621093725843821,83,-0.8800049,-0.3112793,0.41156006,0.01953125,0.005859375,0.001953125,0.0,0.0,0.0,0.0,0.0,0.0,0.0,0.0,0.0,0.0,0.0,-0.59057754,0.09156236,-0.80194116,-0.9290161,0.045776367,-0.27801514,0.015625,0.046875,0.047851562,5.4487033,-12.226787,1.8956248,-16.602667,-0.99957275,0.032104492,0.02935791,-0.0126953125,0.02734375,0.033203125,2.120895,-12.025164,-55.11071,-16.724968,0.52874756,0.15270996,0.83483887,0.013671875,-0.021484375,-0.015625,54.668537,-9.918219,-127.085655,-15.691769,0.0,0.0,0.0,0.0,0.0,0.0,0.0,-13.467946,-126.75818,3.9903965,0.0,0.0,0.0,0.0,0.0,0.0,0.0,0.59057754,-0.09156236,0.80194116,-0.98876953,0.15130615,-0.010375977,0.055664062,-0.09667969,-0.10449219,8.522262,12.226787,-1.8956248,16.602667,-0.94348145,-0.14611816,-0.27270508,-0.037109375,0.01953125,0.018554688,20.233513,1.7556486,-57.9042,18.489544,0.5149536,0.06854248,0.85827637,-0.0048828125,0.0,0.001953125,34.172207,10.227748,-128.89442,9.852028,0.0,0.0,0.0,0.0,0.0,0.0,0.0,12.330267,-129.7667,29.724669,-0.93688965,-0.12701416,-0.02709961,-1.1337891,1.0996094,1.0556641,0.0,3.1600513,44.808407,2.788868,
1.6406249755527826,84,-0.8520508,-0.31915283,0.43267822,0.020507812,-0.0126953125,0.020507812,0.0,0.0,0.0,0.0,0.0,0.0,0.0,0.0,0.0,0.0,0.0,-0.5900149,0.09162817,-0.8023656,-0.9050293,0.038269043,-0.2557373,-0.041015625,0.083984375,0.047851562,5.4376864,-12.215138,1.8969872,-16.611456,-0.9668579,0.055114746,0.0087890625,-0.032226562,0.045898438,0.033203125,2.1212642,-12.000069,-55.107685,-16.753767,0.52893066,0.09979248,0.84698486,0.013671875,-0.001953125,0.00390625,54.67664,-9.879203,-127.08099,-15.7274,0.0,0.0,0.0,0.0,0.0,0.0,0.0,-13.415141,-126.75836,3.9566498,0.0,0.0,0.0,0.0,0.0,0.0,0.0,0.5900149,-0.09162817,0.8023656,-0.9958496,0.15136719,-0.010314941,0.018554688,-0.09863281,-0.12597656,8.622315,12.215138,-1.8969872,16.611456,-0.9517822,-0.17053223,-0.2612915,-0.037109375,0.038085938,0.037109375,20.292372,1.7142859,-57.898705,18.534674,0.5352173,0.07550049,0.87109375,-0.0048828125,0.018554688,-0.016601562,34.231323,10.208385,-128.88512,9.89963,0.0,0.0,0.0,0.0,0.0,0.0,0.0,12.3048315,-129.76105,29.771553,-0.95410156,-0.14434814,-0.013061523,-1.0595703,1.0595703,1.0742188,0.0,3.128714,44.809532,2.8164563,
1.6601562252617443,85,-0.82958984,-0.3616333,0.41394043,-0.017578125,0.005859375,0.0029296875,0.0,0.0,0.0,0.0,0.0,0.0,0.0,0.0,0.0,0.0,0.0,-0.5902952,0.09227432,-0.8020259,-0.92907715,0.03881836,-0.2701416,-0.022460938,0.029296875,0.06640625,5.475253,-12.22094,1.9103645,-16.604424,-0.9850464,0.051330566,0.035461426,-0.0126953125,0.045898438,0.051757812,2.0868475,-11.994149,-55.095074,-16.772478,0.5218506,0.09802246,0.83813477,0.013671875,0.016601562,-0.0146484375,54.475857,-9.901821,-127.06912,-15.779846,0.0,0.0,0.0,0.0,0.0,0.0,0.0,-13.4642725,-126.75964,3.90069,0.0,0.0,0.0,0.0,0.0,0.0,0.0,0.5902952,-0.09227432,0.8020259,-0.9786377,0.12963867,-0.023742676,0.091796875,-0.037109375,-0.14355469,8.4877405,12.22094,-1.9103645,16.604424,-0.9506836,-0.15594482,-0.2619629,-0.037109375,0.038085938,0.037109375,20.205975,1.800889,-57.92492,18.46847,0.5131836,0.09729004,0.8661499,0.013671875,9.765625E-4,-0.016601562,34.18477,10.30319,-128.90915,9.812445,0.0,0.0,0.0,0.0,0.0,0.0,0.0,12.389538,-129.7813,29.685846,-0.9511719,-0.13922119,-0.043884277,-1.0595703,1.0986328,1.0927734,0.0,3.16821,44.804188,2.8229725,
1.679687474970706,86,-0.8569336,-0.3300171,0.42474365,0.020507812,-0.0126953125,0.020507812,0.0,0.0,0.0,0.0,0.0,0.0,0.0,0.0,0.0,0.0,0.0,-0.590802,0.09222472,-0.8016707,-0.92645264,0.011169434,-0.27044678,-0.060546875,0.047851562,0.06640625,5.46895,-12.231433,1.9093375,-16.597069,-1.0012207,0.04333496,0.012573242,0.0068359375,0.044921875,0.033203125,2.0639322,-12.008436,-55.099045,-16.754757,0.53411865,0.109558105,0.8421631,0.013671875,-0.001953125,0.00390625,54.399437,-9.942213,-127.072205,-15.789192,0.0,0.0,0.0,0.0,0.0,0.0,0.0,-13.508978,-126.7659,3.8897305,0.0,0.0,0.0,0.0,0.0,0.0,0.0,0.590802,-0.09222472,0.8016707,-0.9916992,0.119628906,0.007873535,0.123046875,-0.10449219,-0.095703125,8.5090475,12.231433,-1.9093375,16.597069,-0.94555664,-0.15026855,-0.25091553,-0.037109375,0.01953125,0.037109375,20.205294,1.8422384,-57.932903,18.49318,0.5151367,0.08831787,0.8671875,0.013671875,-0.018554688,0.0029296875,34.14682,10.349741,-128.91183,9.812843,0.0,0.0,0.0,0.0,0.0,0.0,0.0,12.424084,-129.78629,29.68739,-0.94317627,-0.13842773,-0.044921875,-1.0419922,1.078125,1.1298828,0.0,3.1505678,44.805275,2.8325748,
1.6992187246796677,87,-0.84350586,-0.3567505,0.39245605,-0.036132812,0.024414062,0.0029296875,0.0,0.0,0.0,0.0,0.0,0.0,0.0,0.0,0.0,0.0,0.0,-0.5908121,0.092200294,-0.8016452,-0.9550171,0.050048828,-0.2538452,-0.07910156,0.047851562,0.047851562,5.453017,-12.231641,1.908832,-16.59654,-0.9871826,0.043273926,-0.015136719,-0.0126953125,0.045898438,0.033203125,2.0798018,-12.031668,-55.10184,-16.755093,0.51190186,0.10205078,0.8470459,0.013671875,-0.0029296875,-0.0146484375,54.38905,-9.974472,-127.074615,-15.788554,0.0,0.0,0.0,0.0,0.0,0.0,0.0,-13.546897,-126.77353,3.889762,0.0,0.0,0.0,0.0,0.0,0.0,0.0,0.5908121,-0.092200294,0.8016452,-0.9897461,0.1305542,-0.0078125,0.123046875,-0.10449219,-0.095703125,8.54162,12.231641,-1.908832,16.59654,-0.94055176,-0.16271973,-0.27111816,-0.037109375,0.038085938,0.037109375,20.254782,1.8136997,-57.927128,18.53222,0.51794434,0.08862305,0.8511963,-0.0048828125,-0.038085938,0.0029296875,34.127785,10.317093,-128.90344,9.830292,0.0,0.0,0.0,0.0,0.0,0.0,0.0,12.388295,-129.77931,29.705173,-0.94311523,-0.1385498,-0.033996582,-1.0595703,1.1357422,1.1289062,0.0,3.1596775,44.804394,2.8244445,
1.7187499743886294,88,-0.82476807,-0.31732178,0.38848877,0.01953125,0.005859375,0.001953125,0.0,0.0,0.0,0.0,0.0,0.0,0.0,0.0,0.0,0.0,0.0,-0.5906607,0.09222083,-0.80181307,-0.925354,0.018127441,-0.28125,-0.00390625,0.046875,0.029296875,5.4345865,-12.228509,1.9092569,-16.600016,-0.97369385,0.026550293,0.014526367,-0.03125,0.045898438,0.013671875,2.0707483,-12.025352,-55.099636,-16.776587,0.5140381,0.10882568,0.8510742,0.013671875,-0.001953125,0.00390625,54.39219,-9.985253,-127.07599,-15.789858,0.0,0.0,0.0,0.0,0.0,0.0,0.0,-13.528651,-126.77149,3.8940887,0.0,0.0,0.0,0.0,0.0,0.0,0.0,0.5906607,-0.09222083,0.80181307,-0.9958496,0.15332031,-0.008300781,0.1875,-0.11035156,-0.103515625,8.664605,12.228509,-1.9092569,16.600016,-0.9393921,-0.13842773,-0.27056885,-0.037109375,0.01953125,-9.765625E-4,20.357822,1.7489843,-57.91009,18.583681,0.5023804,0.08178711,0.8882446,-0.0048828125,0.0,0.001953125,34.12347,10.265462,-128.88512,9.840431,0.0,0.0,0.0,0.0,0.0,0.0,0.0,12.337177,-129.76291,29.71567,-0.9331665,-0.13470459,-0.04699707,-1.0595703,1.0800781,1.0556641,0.0,3.1333072,44.80705,2.8453288,
1.7382812240975911,89,-0.8407593,-0.35858154,0.44396973,0.01953125,0.024414062,0.001953125,0.0,0.0,0.0,0.0,0.0,0.0,0.0,0.0,0.0,0.0,0.0,-0.5903584,0.092768624,-0.8019455,-0.94226074,0.029296875,-0.28186035,-0.022460938,0.0107421875,0.047851562,5.4591947,-12.222251,1.9205981,-16.602758,-1.0026855,0.028564453,0.009521484,-0.013671875,0.0087890625,0.033203125,2.0764115,-12.014584,-55.0895,-16.787977,0.5252075,0.119506836,0.8413086,-0.005859375,-0.001953125,0.00390625,54.34827,-9.963373,-127.06543,-15.804672,0.0,0.0,0.0,0.0,0.0,0.0,0.0,-13.5377865,-126.75746,3.8728561,0.0,0.0,0.0,0.0,0.0,0.0,0.0,0.5903584,-0.092768624,0.8019455,-0.9918213,0.15734863,-0.028015137,0.13964844,-0.10253906,-0.09375,8.688805,12.222251,-1.9205981,16.602758,-0.973938,-0.14489746,-0.2666626,-0.017578125,0.01953125,0.018554688,20.358059,1.7167721,-57.92165,18.56313,0.50531006,0.09094238,0.880188,-0.005859375,-0.037109375,-0.016601562,34.105145,10.199079,-128.89413,9.784821,0.0,0.0,0.0,0.0,0.0,0.0,0.0,12.274463,-129.77798,29.65838,-0.953125,-0.12817383,-0.066711426,-1.1152344,1.1943359,1.1474609,0.0,3.1367598,44.804016,2.873754,
1.7578124738065528,90,-0.8358154,-0.33496094,0.4163208,0.020507812,-0.0126953125,0.001953125,0.0,0.0,0.0,0.0,0.0,0.0,0.0,0.0,0.0,0.0,0.0,-0.5898591,0.09268942,-0.8022812,-0.9281006,0.0357666,-0.25933838,-0.041015625,0.029296875,0.047851562,5.425239,-12.211912,1.9189584,-16.609709,-0.9957886,0.023376465,0.009521484,-0.032226562,0.045898438,0.033203125,2.1042192,-12.018846,-55.088467,-16.812378,0.5331421,0.117614746,0.8097534,-0.005859375,0.036132812,0.00390625,54.4143,-9.952756,-127.06737,-15.836635,0.0,0.0,0.0,0.0,0.0,0.0,0.0,-13.524298,-126.75693,3.841672,0.0,0.0,0.0,0.0,0.0,0.0,0.0,0.5898591,-0.09268942,0.8022812,-0.9827881,0.15820312,-0.015258789,-0.053710938,-0.0859375,-0.16992188,8.746981,12.211912,-1.9189584,16.609709,-0.9495239,-0.13842773,-0.26257324,-0.037109375,0.0390625,-0.01953125,20.396261,1.673439,-57.91421,18.57095,0.50946045,0.09082031,0.8901367,-0.0048828125,0.0,-0.016601562,34.114258,10.152898,-128.8835,9.766062,0.0,0.0,0.0,0.0,0.0,0.0,0.0,12.238367,-129.76556,29.639856,-0.95928955,-0.14788818,-0.03881836,-1.1513672,1.1953125,1.1103516,0.0,3.1145244,44.80328,2.8863437,
1.7773437235155145,91,-0.83551025,-0.35968018,0.39819336,-0.055664062,0.061523438,0.022460938,0.0,0.0,0.0,0.0,0.0,0.0,0.0,0.0,0.0,0.0,0.0,-0.58991766,0.092887916,-0.802279,-0.9416504,0.0015869141,-0.26434326,-0.022460938,0.06542969,0.06640625,5.42365,-12.213125,1.9230678,-16.609661,-0.96380615,0.024047852,0.026428223,-0.034179688,-0.046875,0.033203125,2.0934956,-12.022481,-55.08263,-16.819765,0.5307617,0.14550781,0.87615967,0.013671875,0.016601562,0.022460938,54.434124,-9.979889,-127.057205,-15.826447,0.0,0.0,0.0,0.0,0.0,0.0,0.0,-13.52997,-126.74195,3.8570518,0.0,0.0,0.0,0.0,0.0,0.0,0.0,0.58991766,-0.092887916,0.802279,-0.982666,0.13067627,-0.02960205,0.12207031,-0.06640625,-0.13476562,8.673781,12.213125,-1.9230678,16.609661,-0.9486084,-0.15570068,-0.28094482,-0.037109375,0.038085938,0.037109375,20.301981,1.7426548,-57.93062,18.50122,0.50286865,0.08648682,0.85028076,-0.0048828125,-0.018554688,0.0029296875,34.054794,10.217387,-128.89601,9.689062,0.0,0.0,0.0,0.0,0.0,0.0,0.0,12.287714,-129.7818,29.564331,-0.9413452,-0.14221191,-0.056884766,-1.1347656,1.1367188,1.1298828,0.0,3.104433,44.805096,2.90484,
1.7968749732244762,92,-0.8427124,-0.3251953,0.3828125,0.01953125,0.061523438,0.001953125,0.0,0.0,0.0,0.0,0.0,0.0,0.0,0.0,0.0,0.0,0.0,-0.58953965,0.09286182,-0.80252343,-0.95007324,0.04510498,-0.2658081,-0.022460938,0.029296875,0.047851562,5.374761,-12.205298,1.9225273,-16.614721,-0.97247314,0.06726074,0.0028686523,-0.0126953125,0.045898438,0.013671875,2.1180325,-12.042661,-55.084053,-16.85277,0.51538086,0.13531494,0.838562,0.013671875,-0.021484375,-0.015625,54.451958,-10.009514,-127.05918,-15.86752,0.0,0.0,0.0,0.0,0.0,0.0,0.0,-13.553497,-126.74024,3.816064,0.0,0.0,0.0,0.0,0.0,0.0,0.0,0.58953965,-0.09286182,0.80252343,-0.9837036,0.1305542,-0.00982666,0.0859375,-0.10644531,-0.11621094,8.675683,12.205298,-1.9225273,16.614721,-0.9527588,-0.16564941,-0.26123047,-0.056640625,0.01953125,0.018554688,20.264791,1.765152,-57.93414,18.490168,0.49920654,0.11193848,0.87213135,-0.0048828125,0.0,0.001953125,34.02674,10.233135,-128.90108,9.670756,0.0,0.0,0.0,0.0,0.0,0.0,0.0,12.301711,-129.78027,29.54633,-0.9592285,-0.13684082,-0.06365967,-1.078125,1.15625,1.1103516,0.0,3.0812283,44.80433,2.9209182,
1.816406222933438,93,-0.8529663,-0.31622314,0.41687012,9.765625E-4,-0.0126953125,0.001953125,0.0,0.0,0.0,0.0,0.0,0.0,0.0,0.0,0.0,0.0,0.0,-0.5892292,0.09279621,-0.8027368,-0.9248047,0.06048584,-0.28289795,-0.041015625,0.06542969,0.047851562,5.338251,-12.198872,1.9211692,-16.61914,-0.9873657,0.036315918,-0.010253906,-0.0126953125,0.02734375,0.033203125,2.1197875,-12.01459,-55.087097,-16.929184,0.5385132,0.13092041,0.8474121,0.033203125,-0.001953125,0.00390625,54.46613,-9.965146,-127.06061,-15.982191,0.0,0.0,0.0,0.0,0.0,0.0,0.0,-13.527709,-126.74508,3.6978703,0.0,0.0,0.0,0.0,0.0,0.0,0.0,0.5892292,-0.09279621,0.8027368,-0.98876953,0.14538574,-0.014465332,0.018554688,-0.1171875,-0.10644531,8.727692,12.198872,-1.9211692,16.61914,-0.95770264,-0.14801025,-0.26776123,-0.037109375,0.0390625,0.018554688,20.304214,1.733057,-57.92944,18.522535,0.51226807,0.08709717,0.8781738,0.032226562,9.765625E-4,0.0029296875,33.95195,10.196842,-128.89677,9.685896,0.0,0.0,0.0,0.0,0.0,0.0,0.0,12.256707,-129.7774,29.563154,-0.94610596,-0.13043213,-0.055847168,-1.171875,1.1367188,1.1113281,0.0,3.0705807,44.803967,2.9254446,
1.8359374726423996,94,-0.8529663,-0.31622314,0.41687012,9.765625E-4,-0.0126953125,0.001953125,0.0,0.0,0.0,0.0,0.0,0.0,0.0,0.0,0.0,0.0,0.0,-0.5892292,0.09279621,-0.8027368,-0.9376221,0.0015869141,-0.26837158,-0.022460938,-0.0068359375,0.047851562,5.310797,-12.198872,1.9211692,-16.61914,-0.98657227,0.030151367,0.0026245117,-0.032226562,0.02734375,0.033203125,2.1278048,-12.014544,-55.083515,-16.97207,0.5231323,0.115600586,0.83929443,0.013671875,0.016601562,0.00390625,54.441696,-9.962703,-127.06093,-16.046747,0.0,0.0,0.0,0.0,0.0,0.0,0.0,-13.537542,-126.75252,3.6321812,0.0,0.0,0.0,0.0,0.0,0.0,0.0,0.5892292,-0.09279621,0.8027368,-0.99176025,0.14251709,-0.01940918,0.05078125,-0.111328125,-0.12011719,8.712441,12.198872,-1.9211692,16.61914,-0.9486084,-0.15301514,-0.2609253,-0.037109375,0.038085938,0.037109375,20.301891,1.7367268,-57.931526,18.503798,0.5310669,0.05456543,0.866272,0.032226562,-0.017578125,-0.015625,34.015324,10.21833,-128.89534,9.675638,0.0,0.0,0.0,0.0,0.0,0.0,0.0,12.277334,-129.77826,29.551338,-0.94628906,-0.14215088,-0.052856445,-1.0771484,1.1181641,1.0732422,0.0,3.0705807,44.803967,2.9254446,
1.8554687223513613,95,-0.8255615,-0.3390503,0.3764038,-0.017578125,0.024414062,0.0029296875,0.0,0.0,0.0,0.0,0.0,0.0,0.0,0.0,0.0,0.0,0.0,-0.5891281,0.09376017,-0.80272704,-0.9282837,0.023864746,-0.24267578,-0.041015625,0.047851562,0.06640625,5.372646,-12.196779,1.9411261,-16.618938,-0.99334717,0.038208008,0.006591797,-0.0126953125,0.045898438,0.033203125,2.1357005,-12.019107,-55.068363,-16.934769,0.52459717,0.1449585,0.83966064,0.013671875,0.036132812,-0.0146484375,54.59657,-9.964807,-127.0443,-15.964398,0.0,0.0,0.0,0.0,0.0,0.0,0.0,-13.532597,-126.735504,3.7145395,0.0,0.0,0.0,0.0,0.0,0.0,0.0,0.5891281,-0.09376017,0.80272704,-0.98669434,0.13452148,-0.0146484375,0.06542969,-0.10644531,-0.13574219,8.772948,12.196779,-1.9411261,16.618938,-0.95373535,-0.15979004,-0.2600708,-0.037109375,9.765625E-4,0.017578125,20.333149,1.7356129,-57.9513,18.522518,0.50909424,0.090270996,0.86517334,0.013671875,9.765625E-4,-0.016601562,34.145855,10.257099,-128.91075,9.709702,0.0,0.0,0.0,0.0,0.0,0.0,0.0,12.324967,-129.79277,29.584599,-0.9546509,-0.15856934,-0.05279541,-1.1523438,1.1367188,1.1113281,0.0,3.0676403,44.801483,2.9815383,
1.874999972060323,96,-0.8356323,-0.35272217,0.4121704,0.020507812,-0.03125,0.001953125,0.0,0.0,0.0,0.0,0.0,0.0,0.0,0.0,0.0,0.0,0.0,-0.5897143,0.09385899,-0.80231917,-0.942749,-0.004211426,-0.27233887,-0.022460938,0.029296875,0.029296875,5.4075475,-12.208914,1.9431716,-16.610495,-0.98431396,0.004272461,0.0044555664,-0.0126953125,0.02734375,0.033203125,2.1135924,-12.013067,-55.060944,-16.895012,0.51452637,0.14312744,0.8446045,0.013671875,0.016601562,0.00390625,54.631943,-9.959087,-127.040375,-15.90485,0.0,0.0,0.0,0.0,0.0,0.0,0.0,-13.531654,-126.72744,3.7734718,0.0,0.0,0.0,0.0,0.0,0.0,0.0,0.5897143,-0.09385899,0.80231917,-0.99072266,0.13354492,-0.010681152,0.052734375,-0.09375,-0.12207031,8.814209,12.208914,-1.9431716,16.610495,-0.949646,-0.15496826,-0.25897217,-0.037109375,0.01953125,0.037109375,20.371033,1.7470379,-57.95014,18.54642,0.51397705,0.083496094,0.8552246,-0.0048828125,-0.018554688,-0.016601562,34.116962,10.2840395,-128.90717,9.705576,0.0,0.0,0.0,0.0,0.0,0.0,0.0,12.336235,-129.78543,29.583288,-0.9589844,-0.12817383,-0.052734375,-1.0585938,1.1181641,1.0732422,0.0,3.0581813,44.802586,2.9934115,
1.8945312217692847,97,-0.8461304,-0.29748535,0.41888428,-0.017578125,0.005859375,0.0029296875,0.0,0.0,0.0,0.0,0.0,0.0,0.0,0.0,0.0,0.0,0.0,-0.58972263,0.09362072,-0.8022904,-0.92126465,0.023925781,-0.27142334,-0.00390625,0.028320312,0.029296875,5.418987,-12.209088,1.9382391,-16.609898,-0.98516846,0.008483887,-0.007446289,-0.0126953125,0.02734375,0.033203125,2.1222787,-11.988994,-55.06756,-16.901428,0.52789307,0.09790039,0.8391113,0.013671875,0.016601562,0.00390625,54.66721,-9.91367,-127.04245,-15.850449,0.0,0.0,0.0,0.0,0.0,0.0,0.0,-13.4805355,-126.73118,3.828886,0.0,0.0,0.0,0.0,0.0,0.0,0.0,0.58972263,-0.09362072,0.8022904,-0.9836426,0.12072754,-0.020874023,0.17675781,-0.08105469,-0.09277344,8.654648,12.209088,-1.9382391,16.609898,-0.9607544,-0.14031982,-0.2576294,-0.017578125,0.0390625,0.037109375,20.265295,1.8336706,-57.963123,18.476418,0.5031738,0.078063965,0.8753052,0.0126953125,-0.037109375,-0.016601562,34.12854,10.37499,-128.91974,9.629559,0.0,0.0,0.0,0.0,0.0,0.0,0.0,12.4293,-129.80595,29.506453,-0.9527588,-0.11669922,-0.045837402,-1.078125,1.1367188,1.1289062,0.0,3.080836,44.801193,2.9633675,
1.9140624714782464,98,-0.85406494,-0.31713867,0.43774414,-0.018554688,0.061523438,0.040039062,0.0,0.0,0.0,0.0,0.0,0.0,0.0,0.0,0.0,0.0,0.0,-0.58977646,0.093713,-0.8022301,-0.92126465,0.023925781,-0.27142334,-0.00390625,0.028320312,0.029296875,5.418191,-12.2102,1.9401495,-16.608652,-0.9819946,0.015991211,0.009460449,-0.0126953125,0.02734375,-0.0048828125,2.112203,-11.990106,-55.065647,-16.900183,0.5162964,0.12854004,0.83258057,0.013671875,-0.001953125,0.00390625,54.67805,-9.926835,-127.04039,-15.854299,0.0,0.0,0.0,0.0,0.0,0.0,0.0,-13.476635,-126.72723,3.8276625,0.0,0.0,0.0,0.0,0.0,0.0,0.0,0.58977646,-0.093713,0.8022301,-0.9876709,0.12664795,-0.015808105,0.18359375,-0.030273438,-0.099609375,8.649017,12.2102,-1.9401495,16.608652,-0.94866943,-0.15795898,-0.25506592,-0.037109375,0.057617188,0.038085938,20.241589,1.8684626,-57.971035,18.467361,0.5008545,0.061401367,0.85839844,0.032226562,9.765625E-4,0.0029296875,34.187065,10.426861,-128.92906,9.624056,0.0,0.0,0.0,0.0,0.0,0.0,0.0,12.485504,-129.81061,29.500273,-0.96868896,-0.111328125,-0.05859375,-1.0976562,1.1171875,1.1298828,0.0,3.0673199,44.800762,2.9784236,
1.933593721187208,99,-0.84198,-0.30737305,0.40881348,0.020507812,-0.0126953125,0.001953125,0.0,0.0,0.0,0.0,0.0,0.0,0.0,0.0,0.0,0.0,0.0,-0.59107786,0.09372486,-0.80129373,-0.92419434,0.028686523,-0.24169922,-0.060546875,0.029296875,0.029296875,5.3658214,-12.237144,1.9403952,-16.589266,-0.98046875,0.03375244,0.012573242,-0.0126953125,0.045898438,0.033203125,2.157945,-12.051117,-55.064156,-16.92167,0.5171509,0.119628906,0.83935547,0.033203125,-0.001953125,0.00390625,54.71555,-9.988021,-127.03663,-15.866173,0.0,0.0,0.0,0.0,0.0,0.0,0.0,-13.532038,-126.72539,3.8177547,0.0,0.0,0.0,0.0,0.0,0.0,0.0,0.59107786,-0.09372486,0.80129373,-0.98773193,0.13946533,-0.0056762695,0.087890625,-0.10839844,-0.09863281,8.66193,12.237144,-1.9403952,16.589266,-0.9536743,-0.14703369,-0.26776123,-0.037109375,0.01953125,0.018554688,20.243326,1.8943386,-57.971767,18.474037,0.5092163,0.11218262,0.8670654,0.013671875,0.0,0.021484375,34.17246,10.444834,-128.92581,9.647741,0.0,0.0,0.0,0.0,0.0,0.0,0.0,12.4957905,-129.79941,29.526125,-0.9541626,-0.1381836,-0.04284668,-1.1533203,1.0791016,1.1123047,0.0,3.0701041,44.801605,2.9756298,
1.9531249708961698,100,-0.8319702,-0.31915283,0.4282837,0.01953125,0.024414062,0.001953125,0.0,0.0,0.0,0.0,0.0,0.0,0.0,0.0,0.0,0.0,0.0,-0.5920056,0.09360359,-0.8006562,-0.9234009,0.017028809,-0.2664795,-0.060546875,0.047851562,0.029296875,5.371734,-12.2563505,1.9378844,-16.576065,-0.98809814,0.047912598,0.008666992,-0.032226562,0.02734375,0.033203125,2.1435668,-12.057937,-55.06967,-16.901981,0.50531006,0.13165283,0.83361816,-0.025390625,-0.0029296875,-0.0146484375,54.63041,-9.996336,-127.04415,-15.844626,0.0,0.0,0.0,0.0,0.0,0.0,0.0,-13.546535,-126.736336,3.8382616,0.0,0.0,0.0,0.0,0.0,0.0,0.0,0.5920056,-0.09360359,0.8006562,-0.9807129,0.15026855,-0.011474609,0.10546875,-0.10644531,-0.09765625,8.711088,12.2563505,-1.9378844,16.576065,-0.95874023,-0.14129639,-0.25567627,-0.037109375,0.038085938,0.037109375,20.28806,1.8581848,-57.95976,18.472141,0.4993286,0.095825195,0.88220215,0.013671875,9.765625E-4,-0.016601562,34.139317,10.401054,-128.92021,9.656858,0.0,0.0,0.0,0.0,0.0,0.0,0.0,12.445065,-129.79419,29.534666,-0.95336914,-0.14385986,-0.058776855,-1.1708984,1.1181641,1.0742188,0.0,3.066619,44.803402,2.970443,
1.9726562206051315,101,-0.8440552,-0.32995605,0.4522705,-0.017578125,-0.0126953125,0.021484375,0.0,0.0,0.0,0.0,0.0,0.0,0.0,0.0,0.0,0.0,0.0,-0.59205574,0.093907714,-0.8005338,-0.9406128,0.006713867,-0.30090332,-0.07910156,0.029296875,0.047851562,5.420288,-12.257391,1.9441808,-16.573532,-1.0023193,0.006652832,0.018310547,-0.0126953125,0.045898438,0.013671875,2.1261485,-12.042591,-55.06361,-16.876295,0.5229492,0.101867676,0.8499756,0.013671875,-0.001953125,0.00390625,54.572002,-9.975704,-127.03511,-15.815756,0.0,0.0,0.0,0.0,0.0,0.0,0.0,-13.539272,-126.73637,3.8637009,0.0,0.0,0.0,0.0,0.0,0.0,0.0,0.59205574,-0.093907714,0.8005338,-0.98876953,0.14245605,-0.018432617,0.13769531,-0.10058594,-0.111328125,8.710503,12.257391,-1.9441808,16.573532,-0.95562744,-0.13739014,-0.25958252,-0.037109375,0.038085938,0.037109375,20.297424,1.8406,-57.9581,18.46896,0.5101929,0.06109619,0.8793335,-0.0048828125,0.0,0.001953125,34.135765,10.362002,-128.92072,9.6325035,0.0,0.0,0.0,0.0,0.0,0.0,0.0,12.417851,-129.79947,29.510246,-0.95129395,-0.14404297,-0.046875,-1.1347656,1.0986328,1.1123047,0.0,3.0851424,44.800117,2.9736412,
1.9921874703140932,102,-0.8569336,-0.30737305,0.3972168,0.01953125,0.005859375,0.020507812,0.0,0.0,0.0,0.0,0.0,0.0,0.0,0.0,0.0,0.0,0.0,-0.5925522,0.09366815,-0.80020124,-0.9373779,0.022277832,-0.27905273,-0.022460938,0.06542969,0.047851562,5.397645,-12.267668,1.939221,-16.566647,-0.9935303,0.032165527,0.013549805,-0.0126953125,0.045898438,0.013671875,2.12532,-12.043411,-55.065514,-16.890345,0.5148926,0.10205078,0.84606934,0.013671875,-0.001953125,0.00390625,54.557163,-9.968843,-127.03796,-15.848275,0.0,0.0,0.0,0.0,0.0,0.0,0.0,-13.535168,-126.74882,3.8317595,0.0,0.0,0.0,0.0,0.0,0.0,0.0,0.5925522,-0.09366815,0.80020124,-0.9837036,0.13458252,-0.02557373,0.08300781,-0.10449219,-0.13378906,8.704186,12.267668,-1.939221,16.566647,-0.9607544,-0.14215088,-0.26367188,-0.037109375,9.765625E-4,0.017578125,20.290401,1.8682098,-57.957043,18.45885,0.51135254,0.083984375,0.8841553,0.013671875,-0.018554688,-0.016601562,34.19082,10.397241,-128.91324,9.611382,0.0,0.0,0.0,0.0,0.0,0.0,0.0,12.469276,-129.79768,29.486664,-0.95025635,-0.14819336,-0.027954102,-1.1171875,1.1162109,1.1679688,0.0,3.0719519,44.801544,2.9694858,
2.011718720023055,103,-0.8488159,-0.3388672,0.4244995,9.765625E-4,-0.0126953125,0.001953125,0.0,0.0,0.0,0.0,0.0,0.0,0.0,0.0,0.0,0.0,0.0,-0.59153384,0.09315692,-0.80105823,-0.92718506,0.029846191,-0.25842285,-0.022460938,0.029296875,0.047851562,5.3621683,-12.246584,1.9286371,-16.584389,-0.9932251,0.042297363,-0.0012817383,-0.051757812,0.046875,0.051757812,2.1436584,-12.013515,-55.07966,-16.924305,0.50701904,0.11193848,0.84417725,0.013671875,-0.0029296875,-0.033203125,54.66324,-9.90489,-127.05492,-15.9025545,0.0,0.0,0.0,0.0,0.0,0.0,0.0,-13.4702635,-126.76909,3.7773943,0.0,0.0,0.0,0.0,0.0,0.0,0.0,0.59153384,-0.09315692,0.80105823,-0.9786377,0.13452148,-0.01373291,0.08984375,-0.07324219,-0.12109375,8.644224,12.246584,-1.9286371,16.584389,-0.9484863,-0.13330078,-0.2814331,-0.037109375,0.01953125,0.018554688,20.215227,1.906826,-57.959267,18.43171,0.5133667,0.090026855,0.88116455,0.013671875,-0.018554688,0.0029296875,34.17152,10.425457,-128.91574,9.56432,0.0,0.0,0.0,0.0,0.0,0.0,0.0,12.486517,-129.7931,29.441233,-0.967041,-0.12994385,-0.053649902,-1.1347656,1.0791016,1.09375,0.0,3.0475008,44.805435,2.9601302,
2.0312499697320168,104,-0.8305664,-0.36260986,0.4109497,-0.017578125,-0.0126953125,-0.016601562,0.0,0.0,0.0,0.0,0.0,0.0,0.0,0.0,0.0,0.0,0.0,-0.5914288,0.09337533,-0.80104655,-0.92907715,0.04486084,-0.29675293,-0.041015625,0.06542969,0.047851562,5.3733387,-12.2444105,1.933159,-16.584146,-0.99884033,0.021606445,0.003540039,-0.032226562,0.02734375,0.013671875,2.1270688,-11.97606,-55.073433,-16.958475,0.5472412,0.11315918,0.8461914,0.013671875,0.016601562,0.00390625,54.642933,-9.859522,-127.046394,-15.936529,0.0,0.0,0.0,0.0,0.0,0.0,0.0,-13.439165,-126.75972,3.740614,0.0,0.0,0.0,0.0,0.0,0.0,0.0,0.5914288,-0.09337533,0.80104655,-0.9898071,0.1463623,-0.0045166016,0.1328125,-0.13378906,-0.10644531,8.673261,12.2444105,-1.933159,16.584146,-0.94659424,-0.16174316,-0.269104,-0.017578125,0.020507812,-9.765625E-4,20.228525,1.903863,-57.964397,18.432356,0.5209961,0.06652832,0.8602295,0.013671875,9.765625E-4,-0.03515625,34.215824,10.44829,-128.9183,9.580128,0.0,0.0,0.0,0.0,0.0,0.0,0.0,12.510587,-129.80034,29.456375,-1.0140381,-0.14691162,-0.015563965,-1.1728516,0.9453125,1.0214844,0.0,3.0362165,44.802517,2.980781,
2.0507812194409785,105,-0.8567505,-0.33007812,0.39300537,-0.017578125,0.005859375,0.0029296875,0.0,0.0,0.0,0.0,0.0,0.0,0.0,0.0,0.0,0.0,0.0,-0.5917549,0.09373584,-0.8008679,-0.9432373,0.02911377,-0.2512207,-0.00390625,0.08300781,0.029296875,5.3599386,-12.251162,1.9406224,-16.580448,-0.98327637,0.041015625,-0.0022583008,-0.033203125,-0.028320312,0.033203125,2.1309297,-11.973718,-55.06795,-17.0174,0.53118896,0.11444092,0.8501587,0.013671875,-0.021484375,-0.015625,54.711018,-9.858491,-127.03783,-16.022675,0.0,0.0,0.0,0.0,0.0,0.0,0.0,-13.445267,-126.75127,3.6535053,0.0,0.0,0.0,0.0,0.0,0.0,0.0,0.5917549,-0.09373584,0.8008679,-0.98376465,0.14935303,-0.01739502,0.0859375,-0.12597656,-0.09667969,8.728569,12.251162,-1.9406224,16.580448,-0.94958496,-0.14440918,-0.24780273,-0.037109375,0.0390625,-9.765625E-4,20.279312,1.8602219,-57.965637,18.452492,0.51501465,0.06549072,0.8612671,0.013671875,0.0,0.0029296875,34.148834,10.391888,-128.91772,9.590696,0.0,0.0,0.0,0.0,0.0,0.0,0.0,12.44182,-129.8007,29.468592,-1.012085,-0.14892578,-0.01361084,-1.1923828,0.77246094,0.96875,0.0,3.045896,44.80479,2.9934912,
