TOTAL_TIME,0m8s
TOTAL_FRAMES,346
SELECTED_FRAMES,346
NO_OF_JOINTS,12
FREQUENCY,42.666668
DESCRIPTION,Capture 4
TIME_STAMP,Jul 9, 2010

Time,Frame,Pelvis_accelX_Pelvis,Pelvis_accelY_Pelvis,Pelvis_accelZ_Pelvis,Pelvis_gyroX_Pelvis,Pelvis_gyroY_Pelvis,Pelvis_gyroZ_Pelvis,Pelvis_Joint angle_Pelvis,Pelvis_Relative pos X_Pelvis,Pelvis_Relative pos Y_Pelvis,Pelvis_Relative pos Z_Pelvis,RightPelvis_accelX_RightPelvis,RightPelvis_accelY_RightPelvis,RightPelvis_accelZ_RightPelvis,RightPelvis_gyroX_RightPelvis,RightPelvis_gyroY_RightPelvis,RightPelvis_gyroZ_RightPelvis,RightPelvis_Joint angle_RightPelvis,RightPelvis_Relative pos X_RightPelvis,RightPelvis_Relative pos Y_RightPelvis,RightPelvis_Relative pos Z_RightPelvis,RightUpLeg_accelX_RightUpLeg,RightUpLeg_accelY_RightUpLeg,RightUpLeg_accelZ_RightUpLeg,RightUpLeg_gyroX_RightUpLeg,RightUpLeg_gyroY_RightUpLeg,RightUpLeg_gyroZ_RightUpLeg,RightUpLeg_Joint angle_RightUpLeg,RightUpLeg_Relative pos X_RightUpLeg,RightUpLeg_Relative pos Y_RightUpLeg,RightUpLeg_Relative pos Z_RightUpLeg,RightLeg_accelX_RightLeg,RightLeg_accelY_RightLeg,RightLeg_accelZ_RightLeg,RightLeg_gyroX_RightLeg,RightLeg_gyroY_RightLeg,RightLeg_gyroZ_RightLeg,RightLeg_Joint angle_RightLeg,RightLeg_Relative pos X_RightLeg,RightLeg_Relative pos Y_RightLeg,RightLeg_Relative pos Z_RightLeg,RightFoot_accelX_RightFoot,RightFoot_accelY_RightFoot,RightFoot_accelZ_RightFoot,RightFoot_gyroX_RightFoot,RightFoot_gyroY_RightFoot,RightFoot_gyroZ_RightFoot,RightFoot_Joint angle_RightFoot,RightFoot_Relative pos X_RightFoot,RightFoot_Relative pos Y_RightFoot,RightFoot_Relative pos Z_RightFoot,RightFootEnd_accelX_RightFootEnd,RightFootEnd_accelY_RightFootEnd,RightFootEnd_accelZ_RightFootEnd,RightFootEnd_gyroX_RightFootEnd,RightFootEnd_gyroY_RightFootEnd,RightFootEnd_gyroZ_RightFootEnd,RightFootEnd_Joint angle_RightFootEnd,RightFootEnd_Relative pos X_RightFootEnd,RightFootEnd_Relative pos Y_RightFootEnd,RightFootEnd_Relative pos Z_RightFootEnd,LeftPelvis_accelX_LeftPelvis,LeftPelvis_accelY_LeftPelvis,LeftPelvis_accelZ_LeftPelvis,LeftPelvis_gyroX_LeftPelvis,LeftPelvis_gyroY_LeftPelvis,LeftPelvis_gyroZ_LeftPelvis,LeftPelvis_Joint angle_LeftPelvis,LeftPelvis_Relative pos X_LeftPelvis,LeftPelvis_Relative pos Y_LeftPelvis,LeftPelvis_Relative pos Z_LeftPelvis,LeftUpLeg_accelX_LeftUpLeg,LeftUpLeg_accelY_LeftUpLeg,LeftUpLeg_accelZ_LeftUpLeg,LeftUpLeg_gyroX_LeftUpLeg,LeftUpLeg_gyroY_LeftUpLeg,LeftUpLeg_gyroZ_LeftUpLeg,LeftUpLeg_Joint angle_LeftUpLeg,LeftUpLeg_Relative pos X_LeftUpLeg,LeftUpLeg_Relative pos Y_LeftUpLeg,LeftUpLeg_Relative pos Z_LeftUpLeg,LeftLeg_accelX_LeftLeg,LeftLeg_accelY_LeftLeg,LeftLeg_accelZ_LeftLeg,LeftLeg_gyroX_LeftLeg,LeftLeg_gyroY_LeftLeg,LeftLeg_gyroZ_LeftLeg,LeftLeg_Joint angle_LeftLeg,LeftLeg_Relative pos X_LeftLeg,LeftLeg_Relative pos Y_LeftLeg,LeftLeg_Relative pos Z_LeftLeg,LeftFoot_accelX_LeftFoot,LeftFoot_accelY_LeftFoot,LeftFoot_accelZ_LeftFoot,LeftFoot_gyroX_LeftFoot,LeftFoot_gyroY_LeftFoot,LeftFoot_gyroZ_LeftFoot,LeftFoot_Joint angle_LeftFoot,LeftFoot_Relative pos X_LeftFoot,LeftFoot_Relative pos Y_LeftFoot,LeftFoot_Relative pos Z_LeftFoot,LeftFootEnd_accelX_LeftFootEnd,LeftFootEnd_accelY_LeftFootEnd,LeftFootEnd_accelZ_LeftFootEnd,LeftFootEnd_gyroX_LeftFootEnd,LeftFootEnd_gyroY_LeftFootEnd,LeftFootEnd_gyroZ_LeftFootEnd,LeftFootEnd_Joint angle_LeftFootEnd,LeftFootEnd_Relative pos X_LeftFootEnd,LeftFootEnd_Relative pos Y_LeftFootEnd,LeftFootEnd_Relative pos Z_LeftFootEnd,Spine_accelX_Spine,Spine_accelY_Spine,Spine_accelZ_Spine,Spine_gyroX_Spine,Spine_gyroY_Spine,Spine_gyroZ_Spine,Spine_Joint angle_Spine,Spine_Relative pos X_Spine,Spine_Relative pos Y_Spine,Spine_Relative pos Z_Spine,
0.0,0,0.0,0.0,0.0,0.0,0.0,0.0,0.0,0.0,0.0,0.0,0.0,0.0,0.0,0.0,0.0,0.0,0.0,0.0,0.0,0.0,0.0,0.0,0.0,0.0,0.0,0.0,NaN,0.0,0.0,0.0,0.0,0.0,0.0,0.0,0.0,0.0,NaN,0.0,0.0,0.0,0.0,0.0,0.0,0.0,0.0,0.0,NaN,0.0,0.0,0.0,0.0,0.0,0.0,0.0,0.0,0.0,0.0,0.0,0.0,0.0,0.0,0.0,0.0,0.0,0.0,0.0,0.0,0.0,0.0,0.0,0.0,0.0,0.0,0.0,0.0,0.0,NaN,0.0,0.0,0.0,0.0,0.0,0.0,0.0,0.0,0.0,NaN,0.0,0.0,0.0,0.0,0.0,0.0,0.0,0.0,0.0,NaN,0.0,0.0,0.0,0.0,0.0,0.0,0.0,0.0,0.0,0.0,0.0,0.0,0.0,0.0,0.0,0.0,0.0,0.0,0.0,0.0,0.0,0.0,0.0,
0.02343749930150809,1,0.0,0.0,0.0,0.0,0.0,0.0,0.0,0.0,0.0,0.0,0.0,0.0,0.0,0.0,0.0,0.0,0.0,0.0,0.0,0.0,0.0,0.0,0.0,0.0,0.0,0.0,NaN,0.0,0.0,0.0,0.0,0.0,0.0,0.0,0.0,0.0,NaN,0.0,0.0,0.0,0.0,0.0,0.0,0.0,0.0,0.0,NaN,0.0,0.0,0.0,0.0,0.0,0.0,0.0,0.0,0.0,0.0,0.0,0.0,0.0,0.0,0.0,0.0,0.0,0.0,0.0,0.0,0.0,0.0,0.0,0.0,0.0,0.0,0.0,0.0,0.0,NaN,0.0,0.0,0.0,0.0,0.0,0.0,0.0,0.0,0.0,NaN,0.0,0.0,0.0,0.0,0.0,0.0,0.0,0.0,0.0,NaN,0.0,0.0,0.0,0.0,0.0,0.0,0.0,0.0,0.0,0.0,0.0,0.0,0.0,0.0,0.0,0.0,0.0,0.0,0.0,0.0,0.0,0.0,0.0,
0.04687499860301618,2,0.0,0.0,0.0,0.0,0.0,0.0,0.0,0.0,0.0,0.0,0.0,0.0,0.0,0.0,0.0,0.0,0.0,0.0,0.0,0.0,0.0,0.0,0.0,0.0,0.0,0.0,NaN,0.0,0.0,0.0,0.0,0.0,0.0,0.0,0.0,0.0,NaN,0.0,0.0,0.0,0.0,0.0,0.0,0.0,0.0,0.0,NaN,0.0,0.0,0.0,0.0,0.0,0.0,0.0,0.0,0.0,0.0,0.0,0.0,0.0,0.0,0.0,0.0,0.0,0.0,0.0,0.0,0.0,0.0,0.0,0.0,0.0,0.0,0.0,0.0,0.0,NaN,0.0,0.0,0.0,0.0,0.0,0.0,0.0,0.0,0.0,NaN,0.0,0.0,0.0,0.0,0.0,0.0,0.0,0.0,0.0,NaN,0.0,0.0,0.0,0.0,0.0,0.0,0.0,0.0,0.0,0.0,0.0,0.0,0.0,0.0,0.0,0.0,0.0,0.0,0.0,0.0,0.0,0.0,0.0,
0.07031249790452426,3,-0.028930664,-0.64575195,0.8101196,0.0107421875,-0.005859375,-0.0546875,0.0,0.0,0.0,0.0,0.0,0.0,0.0,0.0,0.0,0.0,0.0,-0.41512492,0.03451348,0.9091387,-0.88726807,-0.103149414,-0.33239746,-0.7402344,0.79785156,0.41796875,5.831396,-8.594374,0.71453595,18.821987,-0.9840698,-0.017944336,-0.16790771,0.04296875,0.0068359375,-0.0390625,2.0662067,-8.922974,-56.251045,16.673378,0.0,0.0,0.0,0.0,0.0,0.0,NaN,-6.652421,-128.23306,16.3495,0.0,0.0,0.0,0.0,0.0,0.0,0.0,-6.652421,-128.23306,16.3495,0.0,0.0,0.0,0.0,0.0,0.0,0.0,0.41512492,-0.03451348,-0.9091387,0.94989014,-0.18005371,-0.2232666,-0.09277344,0.0068359375,-0.10839844,5.0217247,8.594374,-0.71453595,-18.821987,-0.98376465,-0.012817383,-0.11669922,-0.06933594,0.52246094,0.92871094,3.9372616,5.1922746,-57.486015,-15.0328045,-0.3067627,0.6680298,0.6727905,-0.018554688,0.022460938,-0.02734375,3.514855,5.9533873,-129.4277,-11.882605,0.0,0.0,0.0,0.0,0.0,0.0,0.0,20.233147,-129.1913,2.1162157,0.0,0.0,0.0,0.0,0.0,0.0,0.0,4.652577,44.75802,0.42528808,
0.09374999720603236,4,-0.033935547,-0.64556885,0.80218506,0.049804688,-0.0048828125,-0.053710938,0.0,0.0,0.0,0.0,0.0,0.0,0.0,0.0,0.0,0.0,0.0,-0.4146334,0.034799807,0.9093393,-0.897522,-0.10662842,-0.34210205,-0.57128906,0.62402344,0.32226562,4.6070867,-8.584199,0.72046393,18.826145,-0.9769287,-0.02178955,-0.18688965,0.024414062,-0.0126953125,-0.0390625,2.7827706,-10.062042,-56.242504,17.113058,0.0,0.0,0.0,0.0,0.0,0.0,NaN,-7.8680954,-128.22675,16.772867,0.0,0.0,0.0,0.0,0.0,0.0,0.0,-7.8680954,-128.22675,16.772867,0.0,0.0,0.0,0.0,0.0,0.0,0.0,0.4146334,-0.034799807,-0.9093393,0.977478,-0.13763428,-0.20056152,-0.017578125,0.024414062,0.0029296875,4.8543386,8.584199,-0.72046393,-18.826145,-0.9817505,-0.008117676,-0.1048584,-0.0126953125,0.35058594,0.5488281,2.8270164,5.2437935,-57.514233,-15.247076,-0.27667236,0.6577759,0.6875,9.765625E-4,0.00390625,-0.0087890625,3.6973996,5.1244607,-129.40765,-11.06277,0.0,0.0,0.0,0.0,0.0,0.0,0.0,19.381998,-129.16008,2.9603424,0.0,0.0,0.0,0.0,0.0,0.0,0.0,4.652604,44.757645,0.40861273,
0.11718749650754046,5,-0.0038452148,-0.6273804,0.7996216,0.030273438,-0.0234375,-0.053710938,0.0,0.0,0.0,0.0,0.0,0.0,0.0,0.0,0.0,0.0,0.0,-0.41326055,0.03527008,0.9099167,-0.89190674,-0.064086914,-0.34783936,-0.25,0.29589844,0.15136719,3.8993294,-8.555773,0.7301999,18.838097,-0.98187256,-0.009033203,-0.19671631,0.04296875,-0.03125,-0.0390625,3.327667,-10.7090645,-56.218704,17.362906,-0.4212036,-0.61383057,0.68707275,-0.015625,-0.0029296875,-0.0087890625,16.59384,-8.568722,-128.20319,17.000006,0.0,0.0,0.0,0.0,0.0,0.0,0.0,0.51376534,-127.8324,34.816082,0.0,0.0,0.0,0.0,0.0,0.0,0.0,0.41326055,-0.03527008,-0.9099167,0.96069336,-0.15246582,-0.23114014,0.01953125,0.024414062,0.001953125,4.7910104,8.555773,-0.7301999,-18.838097,-0.99176025,-0.0056152344,-0.12158203,-0.0546875,-0.01171875,0.016601562,2.4666448,5.256315,-57.521286,-15.321442,-0.3027954,0.6582031,0.6756592,0.001953125,-0.015625,-0.028320312,3.7407827,4.802594,-129.40378,-10.913394,0.0,0.0,0.0,0.0,0.0,0.0,0.0,19.054893,-129.15303,3.1148005,0.0,0.0,0.0,0.0,0.0,0.0,0.0,4.6524587,44.756725,0.37817132,
0.14062499580904855,6,-0.010925293,-0.6395874,0.80841064,0.030273438,-0.04296875,-0.03515625,0.0,0.0,0.0,0.0,0.0,0.0,0.0,0.0,0.0,0.0,0.0,-0.41254294,0.03547909,0.9102633,-0.91656494,-0.10736084,-0.33270264,-0.0048828125,-0.013671875,0.036132812,3.8975716,-8.540919,0.73452723,18.845272,-0.97888184,-0.0072631836,-0.1817627,0.04296875,-0.0126953125,-0.020507812,3.2884884,-10.693022,-56.213665,17.377268,-0.4083252,-0.6220703,0.6859741,0.0029296875,-0.00390625,-0.0087890625,16.706522,-8.599809,-128.20186,17.015017,0.0,0.0,0.0,0.0,0.0,0.0,0.0,0.48403454,-127.83559,34.82962,0.0,0.0,0.0,0.0,0.0,0.0,0.0,0.41254294,-0.03547909,-0.9102633,0.96875,-0.15740967,-0.22540283,-0.017578125,0.024414062,0.0029296875,4.7540274,8.540919,-0.73452723,-18.845272,-1.0010376,-0.0075683594,-0.118652344,0.0029296875,0.0068359375,-0.001953125,2.4473662,5.2803383,-57.53146,-15.373224,-0.27868652,0.66400146,0.6550293,-0.018554688,0.00390625,-0.02734375,3.7929215,4.8701353,-129.40733,-10.945152,0.0,0.0,0.0,0.0,0.0,0.0,0.0,19.114948,-129.14679,3.090415,0.0,0.0,0.0,0.0,0.0,0.0,0.0,4.647395,44.75859,0.36171508,
0.16406249511055665,7,-0.026977539,-0.6483154,0.79730225,0.049804688,-0.0048828125,-0.03515625,0.0,0.0,0.0,0.0,0.0,0.0,0.0,0.0,0.0,0.0,0.0,-0.41249108,0.035113193,0.9103098,-0.9061279,-0.09088135,-0.32489014,-0.0048828125,-0.013671875,0.017578125,3.9496264,-8.5398445,0.7269519,18.846233,-0.9819946,-0.013061523,-0.17779541,0.04296875,-0.03125,-0.020507812,3.1892366,-10.616102,-56.223675,17.366543,-0.4282837,-0.61779785,0.6970825,-0.016601562,-0.022460938,-0.02734375,16.768696,-8.556374,-128.21219,16.995722,0.0,0.0,0.0,0.0,0.0,0.0,0.0,0.53940964,-127.8464,34.80478,0.0,0.0,0.0,0.0,0.0,0.0,0.0,0.41249108,-0.035113193,-0.9103098,0.9507446,-0.15838623,-0.23095703,0.020507812,-0.0126953125,0.001953125,4.7003217,8.5398445,-0.7269519,-18.846233,-0.979187,0.009155273,-0.1204834,0.0029296875,0.0068359375,-0.001953125,2.4683897,5.2864323,-57.532776,-15.440703,-0.2947998,0.66308594,0.66485596,0.020507812,0.00390625,-0.028320312,3.7574432,4.9296236,-129.41747,-11.014833,0.0,0.0,0.0,0.0,0.0,0.0,0.0,19.169193,-129.15375,3.0258179,0.0,0.0,0.0,0.0,0.0,0.0,0.0,4.6300106,44.76067,0.37146497,
0.18749999441206475,8,-0.00390625,-0.64385986,0.8223877,0.030273438,0.0126953125,-0.03515625,0.0,0.0,0.0,0.0,0.0,0.0,0.0,0.0,0.0,0.0,0.0,-0.41157466,0.035302065,0.91074055,-0.9154663,-0.095458984,-0.3355713,-0.0234375,0.025390625,0.036132812,4.062209,-8.520872,0.730862,18.855152,-0.9830322,-0.02758789,-0.18591309,0.0048828125,-0.032226562,-9.765625E-4,3.077271,-10.49937,-56.22718,17.376282,-0.3885498,-0.6010132,0.69781494,0.0029296875,-0.0029296875,-0.02734375,16.819614,-8.453405,-128.21695,16.975569,0.0,0.0,0.0,0.0,0.0,0.0,0.0,0.6507635,-127.853355,34.781128,0.0,0.0,0.0,0.0,0.0,0.0,0.0,0.41157466,-0.035302065,-0.91074055,0.97473145,-0.1652832,-0.21466064,-0.017578125,0.024414062,0.0029296875,4.666904,8.520872,-0.730862,-18.855152,-1.013855,-0.022827148,-0.09716797,-0.016601562,-0.01171875,-0.021484375,2.494263,5.278322,-57.54094,-15.496731,-0.32122803,0.62060547,0.64593506,0.001953125,-0.015625,0.0087890625,3.7428758,4.9799414,-129.41777,-11.071101,0.0,0.0,0.0,0.0,0.0,0.0,0.0,19.213757,-129.14554,2.973773,0.0,0.0,0.0,0.0,0.0,0.0,0.0,4.6420465,44.76046,0.3627956,
0.21093749371357284,9,-0.04498291,-0.6567383,0.80792236,0.030273438,-0.005859375,-0.015625,0.0,0.0,0.0,0.0,0.0,0.0,0.0,0.0,0.0,0.0,0.0,-0.41140765,0.0353961,0.91093487,-0.89105225,-0.103393555,-0.31243896,-0.0048828125,-0.013671875,-9.765625E-4,4.151477,-8.517414,0.73280895,18.859175,-0.9840698,-0.023742676,-0.17089844,0.0048828125,-0.032226562,-9.765625E-4,2.991008,-10.411833,-56.22169,17.364956,-0.4118042,-0.59698486,0.67803955,-0.015625,-0.0029296875,-0.0087890625,16.875914,-8.365086,-128.20847,16.91536,0.0,0.0,0.0,0.0,0.0,0.0,0.0,0.7412863,-127.84254,34.718296,0.0,0.0,0.0,0.0,0.0,0.0,0.0,0.41140765,-0.0353961,-0.91093487,0.9844971,-0.13861084,-0.20373535,0.01953125,0.005859375,0.001953125,4.6683307,8.517414,-0.73280895,-18.859175,-0.98046875,0.0038452148,-0.10479736,-0.016601562,-0.01171875,-0.021484375,2.4673586,5.3502097,-57.55722,-15.547948,-0.31079102,0.6711426,0.66101074,0.020507812,0.00390625,-0.009765625,3.752281,5.1193585,-129.4404,-11.144264,0.0,0.0,0.0,0.0,0.0,0.0,0.0,19.334421,-129.16469,2.9207058,0.0,0.0,0.0,0.0,0.0,0.0,0.0,4.644354,44.765305,0.35809994,
0.23437499301508094,10,-0.010925293,-0.6328125,0.78167725,0.030273438,-0.005859375,0.0029296875,0.0,0.0,0.0,0.0,0.0,0.0,0.0,0.0,0.0,0.0,0.0,-0.41119638,0.035468593,0.9110233,-0.90527344,-0.10491943,-0.3180542,0.013671875,-0.032226562,-0.001953125,4.2390995,-8.513039,0.7343097,18.86101,-0.9840698,-0.024658203,-0.18286133,0.04296875,-0.03125,-0.0390625,2.9019823,-10.332134,-56.221344,17.31617,-0.4192505,-0.6137085,0.67907715,0.0029296875,-0.0029296875,-0.02734375,16.924583,-8.313307,-128.20787,16.841202,0.0,0.0,0.0,0.0,0.0,0.0,0.0,0.7992563,-127.843094,34.642044,0.0,0.0,0.0,0.0,0.0,0.0,0.0,0.41119638,-0.035468593,-0.9110233,0.9927368,-0.14471436,-0.24365234,0.020507812,-0.049804688,-0.0546875,4.6384006,8.513039,-0.7343097,-18.86101,-0.99035645,0.016235352,-0.11853027,-0.016601562,0.0078125,-0.001953125,2.4503238,5.382527,-57.555267,-15.607944,-0.29577637,0.65893555,0.6875,-0.017578125,-0.015625,-0.02734375,3.7907007,5.1889877,-129.44061,-11.186067,0.0,0.0,0.0,0.0,0.0,0.0,0.0,19.393147,-129.16086,2.8903837,0.0,0.0,0.0,0.0,0.0,0.0,0.0,4.6443214,44.765175,0.35341597,
0.25781249231658904,11,-0.040893555,-0.631897,0.80407715,0.0107421875,0.01171875,-0.016601562,0.0,0.0,0.0,0.0,0.0,0.0,0.0,0.0,0.0,0.0,0.0,-0.4108069,0.035365976,0.91119945,-0.8727417,-0.104003906,-0.30499268,0.051757812,-0.013671875,-0.0390625,4.3136597,-8.504977,0.7321853,18.864655,-0.9911499,-0.023620605,-0.17883301,0.024414062,0.005859375,-0.0390625,2.8027468,-10.251518,-56.22575,17.29993,-0.41534424,-0.61676025,0.677063,0.0029296875,-0.00390625,-0.0087890625,16.992493,-8.2692585,-128.2122,16.79779,0.0,0.0,0.0,0.0,0.0,0.0,0.0,0.84511185,-127.85038,34.59729,0.0,0.0,0.0,0.0,0.0,0.0,0.0,0.4108069,-0.035365976,-0.91119945,0.9715576,-0.16027832,-0.19274902,0.01953125,-0.0126953125,-0.03515625,4.6466284,8.504977,-0.7321853,-18.864655,-1.0022583,-0.00982666,-0.10687256,0.0029296875,0.0068359375,-0.021484375,2.4380715,5.4299574,-57.559406,-15.646809,-0.30078125,0.66619873,0.6550293,0.001953125,-0.015625,-0.009765625,3.8002968,5.2921953,-129.44345,-11.254478,0.0,0.0,0.0,0.0,0.0,0.0,0.0,19.493233,-129.15933,2.824706,0.0,0.0,0.0,0.0,0.0,0.0,0.0,4.6441474,44.765022,0.35633183,
0.2812499916180971,12,-0.0138549805,-0.6276245,0.80444336,0.0107421875,-0.0068359375,0.021484375,0.0,0.0,0.0,0.0,0.0,0.0,0.0,0.0,0.0,0.0,0.0,-0.40924776,0.035856023,0.91176707,-0.9100342,-0.08703613,-0.3157959,0.0146484375,0.005859375,0.017578125,4.402954,-8.472697,0.74233085,18.876406,-0.99432373,-0.031555176,-0.15600586,0.0048828125,0.005859375,-0.020507812,2.7198057,-10.1511345,-56.21846,17.305988,-0.42858887,-0.58465576,0.67822266,0.0029296875,-0.0029296875,-0.02734375,17.010118,-8.181522,-128.21161,16.762539,0.0,0.0,0.0,0.0,0.0,0.0,0.0,0.93852997,-127.846855,34.559433,0.0,0.0,0.0,0.0,0.0,0.0,0.0,0.40924776,-0.035856023,-0.91176707,0.9605713,-0.15631104,-0.19744873,0.01953125,-0.0126953125,-0.053710938,4.595721,8.472697,-0.74233085,-18.876406,-0.98223877,0.02734375,-0.08404541,-0.016601562,0.0078125,-0.021484375,2.4810445,5.4006205,-57.574272,-15.699905,-0.2746582,0.6616821,0.6815796,0.001953125,-0.034179688,-0.028320312,3.808069,5.330461,-129.45557,-11.282202,0.0,0.0,0.0,0.0,0.0,0.0,0.0,19.516123,-129.15948,2.8130217,0.0,0.0,0.0,0.0,0.0,0.0,0.0,4.653774,44.75951,0.32864594,
0.3046874909196052,13,-0.03894043,-0.6478882,0.81103516,0.030273438,0.0126953125,-0.016601562,0.0,0.0,0.0,0.0,0.0,0.0,0.0,0.0,0.0,0.0,0.0,-0.40899232,0.03590694,0.9117496,-0.9086304,-0.12054443,-0.3260498,0.0146484375,-0.013671875,-9.765625E-4,4.5051956,-8.467408,0.7433851,18.876043,-0.9840088,-0.015991211,-0.171875,0.04296875,-0.0126953125,-0.020507812,2.63923,-10.053269,-56.220924,17.256317,-0.40905762,-0.6101074,0.68395996,0.00390625,0.015625,-0.028320312,17.005169,-8.081544,-128.20914,16.689579,0.0,0.0,0.0,0.0,0.0,0.0,0.0,1.053093,-127.84437,34.47965,0.0,0.0,0.0,0.0,0.0,0.0,0.0,0.40899232,-0.03590694,-0.9117496,0.9766846,-0.14465332,-0.23138428,0.01953125,-0.0126953125,-0.03515625,4.561109,8.467408,-0.7433851,-18.876043,-0.9873657,0.017944336,-0.10668945,-0.03515625,0.0078125,0.016601562,2.4629123,5.421982,-57.580338,-15.757255,-0.32489014,0.65838623,0.6835327,9.765625E-4,0.00390625,-0.0087890625,3.8264337,5.370037,-129.45718,-11.330874,0.0,0.0,0.0,0.0,0.0,0.0,0.0,19.55656,-129.1561,2.7639666,0.0,0.0,0.0,0.0,0.0,0.0,0.0,4.651393,44.75443,0.3239808,
0.32812499022111324,14,-0.051818848,-0.6107788,0.8208618,-0.0087890625,0.01171875,0.001953125,0.0,0.0,0.0,0.0,0.0,0.0,0.0,0.0,0.0,0.0,0.0,-0.40887985,0.03570933,0.911979,-0.8869629,-0.087402344,-0.32629395,-0.0234375,-0.0126953125,-9.765625E-4,4.52831,-8.46508,0.7392939,18.880795,-0.97180176,-0.010314941,-0.16888428,0.04296875,-0.03125,-9.765625E-4,2.5873234,-10.022185,-56.22347,17.252884,-0.42340088,-0.6207886,0.6900635,0.022460938,-0.00390625,0.009765625,17.063759,-8.079262,-128.21063,16.668585,0.0,0.0,0.0,0.0,0.0,0.0,0.0,1.0594387,-127.85215,34.455082,0.0,0.0,0.0,0.0,0.0,0.0,0.0,0.40887985,-0.03570933,-0.911979,0.9724121,-0.12683105,-0.21124268,0.020507812,-0.03125,0.001953125,4.546958,8.46508,-0.7392939,-18.880795,-0.9921875,0.011962891,-0.15100098,-0.017578125,-0.01171875,0.03515625,2.396779,5.477009,-57.58403,-15.83337,-0.2946167,0.6814575,0.68566895,0.020507812,-0.015625,-0.028320312,3.8620899,5.419219,-129.46667,-11.409707,0.0,0.0,0.0,0.0,0.0,0.0,0.0,19.602615,-129.15843,2.687933,0.0,0.0,0.0,0.0,0.0,0.0,0.0,4.6486306,44.761723,0.3314991,
0.3515624895226213,15,-0.027893066,-0.63568115,0.80322266,0.030273438,-0.024414062,0.0029296875,0.0,0.0,0.0,0.0,0.0,0.0,0.0,0.0,0.0,0.0,0.0,-0.40867996,0.035578236,0.9120301,-0.8973999,-0.07745361,-0.36572266,-0.0048828125,-0.013671875,-9.765625E-4,4.611676,-8.460941,0.7365798,18.881847,-0.9830322,-0.018859863,-0.17883301,0.0234375,0.06347656,-9.765625E-4,2.512325,-9.943685,-56.225807,17.224897,-0.40704346,-0.6143799,0.6949463,-0.015625,0.015625,-0.009765625,17.093063,-8.012591,-128.21506,16.630623,0.0,0.0,0.0,0.0,0.0,0.0,0.0,1.1273966,-127.85688,34.417522,0.0,0.0,0.0,0.0,0.0,0.0,0.0,0.40867996,-0.035578236,-0.9120301,1.0089111,-0.15856934,-0.24810791,0.057617188,-0.0126953125,9.765625E-4,4.5498867,8.460941,-0.7365798,-18.881847,-0.9541626,-0.008666992,-0.09887695,-0.03515625,0.0078125,-0.001953125,2.4271288,5.507744,-57.583973,-15.875479,-0.2979126,0.640625,0.6687012,0.040039062,-0.015625,-0.028320312,3.8637629,5.5334353,-129.46245,-11.463625,0.0,0.0,0.0,0.0,0.0,0.0,0.0,19.698408,-129.14618,2.6506128,0.0,0.0,0.0,0.0,0.0,0.0,0.0,4.653466,44.75936,0.33915472,
0.3749999888241294,16,-0.024902344,-0.6314087,0.7953491,-0.0087890625,-0.025390625,-0.016601562,0.0,0.0,0.0,0.0,0.0,0.0,0.0,0.0,0.0,0.0,0.0,-0.40724537,0.035744116,0.91264206,-0.881958,-0.09753418,-0.32055664,-0.041992188,0.044921875,0.017578125,4.6651406,-8.431242,0.740014,18.894522,-0.9890747,-0.01977539,-0.18383789,0.0234375,-0.0126953125,-0.020507812,2.4535966,-9.885963,-56.226032,17.227709,-0.41748047,-0.59143066,0.7010498,0.020507812,-0.060546875,-0.0087890625,17.141958,-7.9915633,-128.21535,16.606394,0.0,0.0,0.0,0.0,0.0,0.0,0.0,1.1572509,-127.86121,34.39115,0.0,0.0,0.0,0.0,0.0,0.0,0.0,0.40724537,-0.035744116,-0.91264206,0.9655762,-0.13671875,-0.22906494,0.01953125,0.005859375,-0.016601562,4.525108,8.431242,-0.740014,-18.894522,-0.97143555,-0.010070801,-0.11364746,0.0029296875,0.0068359375,-0.001953125,2.4529583,5.5092745,-57.58593,-15.957043,-0.277771,0.6461792,0.673645,9.765625E-4,0.00390625,0.009765625,3.8537657,5.608247,-129.46695,-11.531706,0.0,0.0,0.0,0.0,0.0,0.0,0.0,19.762737,-129.1467,2.594864,0.0,0.0,0.0,0.0,0.0,0.0,0.0,4.6702504,44.756725,0.3310696,
0.39843748812563745,17,-0.03302002,-0.6575928,0.8070679,0.0107421875,-0.025390625,-0.016601562,0.0,0.0,0.0,0.0,0.0,0.0,0.0,0.0,0.0,0.0,0.0,-0.40703386,0.03581658,0.9127302,-0.8867798,-0.10845947,-0.36724854,-0.0048828125,-0.032226562,0.017578125,4.702946,-8.426864,0.7415141,18.896347,-0.9779663,-0.030578613,-0.18200684,0.0234375,-0.032226562,-9.765625E-4,2.4032216,-9.843334,-56.222904,17.232233,-0.42858887,-0.592041,0.6991577,0.00390625,-0.00390625,0.009765625,17.134111,-7.959895,-128.21358,16.591293,0.0,0.0,0.0,0.0,0.0,0.0,0.0,1.2035513,-127.86511,34.36962,0.0,0.0,0.0,0.0,0.0,0.0,0.0,0.40703386,-0.03581658,-0.9127302,0.9645386,-0.15045166,-0.20440674,0.020507812,-0.0126953125,0.001953125,4.5204306,8.426864,-0.7415141,-18.896347,-0.9703369,0.0015258789,-0.09686279,-0.016601562,0.0078125,-0.001953125,2.485616,5.538577,-57.597614,-15.989675,-0.30065918,0.692688,0.649292,0.001953125,-0.015625,-0.028320312,3.8482234,5.7208815,-129.47643,-11.543626,0.0,0.0,0.0,0.0,0.0,0.0,0.0,19.86959,-129.15323,2.58702,0.0,0.0,0.0,0.0,0.0,0.0,0.0,4.670206,44.756626,0.32638693,
0.4218749874271455,18,-0.008911133,-0.6328125,0.78271484,-0.0078125,-0.043945312,-0.016601562,0.0,0.0,0.0,0.0,0.0,0.0,0.0,0.0,0.0,0.0,0.0,-0.4057769,0.03615728,0.9132539,-0.8931885,-0.10418701,-0.32232666,-0.0234375,-0.0126953125,-0.038085938,4.7756524,-8.400838,0.7485678,18.907188,-0.97698975,-0.03253174,-0.17700195,0.0048828125,-0.0126953125,-0.05859375,2.3498538,-9.764202,-56.21795,17.262245,-0.4197998,-0.6022339,0.7010498,0.041992188,-0.00390625,0.009765625,17.115149,-7.87535,-128.21042,16.61496,0.0,0.0,0.0,0.0,0.0,0.0,0.0,1.2991858,-127.86595,34.387684,0.0,0.0,0.0,0.0,0.0,0.0,0.0,0.4057769,-0.03615728,-0.9132539,0.96868896,-0.15740967,-0.21942139,0.01953125,0.005859375,0.001953125,4.5086293,8.400838,-0.7485678,-18.907188,-0.987854,0.031433105,-0.13220215,-0.034179688,0.045898438,0.016601562,2.4883704,5.527707,-57.60549,-16.030695,-0.29077148,0.6711426,0.6403198,0.001953125,-0.015625,-0.009765625,3.8586915,5.730691,-129.48434,-11.561283,0.0,0.0,0.0,0.0,0.0,0.0,0.0,19.880672,-129.16217,2.5674572,0.0,0.0,0.0,0.0,0.0,0.0,0.0,4.6871004,44.754044,0.310683,
0.4453124867286536,19,-0.018859863,-0.6210327,0.8123169,0.030273438,-0.024414062,-0.015625,0.0,0.0,0.0,0.0,0.0,0.0,0.0,0.0,0.0,0.0,0.0,-0.40504804,0.036207072,0.9135243,-0.9001465,-0.09710693,-0.32006836,-0.0048828125,0.025390625,0.017578125,4.837683,-8.38575,0.74959886,18.912785,-0.98101807,-0.026672363,-0.1739502,0.04296875,0.0068359375,-9.765625E-4,2.3146913,-9.70569,-56.216118,17.221016,-0.43548584,-0.6129761,0.66625977,-0.016601562,-0.022460938,-0.0087890625,17.160915,-7.8259854,-128.20456,16.575743,0.0,0.0,0.0,0.0,0.0,0.0,0.0,1.3460202,-127.8671,34.347046,0.0,0.0,0.0,0.0,0.0,0.0,0.0,0.40504804,-0.036207072,-0.9135243,0.96868896,-0.15740967,-0.21942139,0.01953125,0.005859375,0.001953125,4.509238,8.38575,-0.74959886,-18.912785,-0.98913574,-0.014343262,-0.09112549,-0.036132812,-0.03125,-0.0029296875,2.5226655,5.512619,-57.60652,-16.036291,-0.30285645,0.6635132,0.63635254,0.001953125,-0.015625,-0.009765625,3.8333874,5.7595544,-129.4876,-11.5860405,0.0,0.0,0.0,0.0,0.0,0.0,0.0,19.909986,-129.16545,2.5435572,0.0,0.0,0.0,0.0,0.0,0.0,0.0,4.691823,44.751465,0.30660796,
0.46874998603016166,20,-0.03289795,-0.6275635,0.7952881,0.0107421875,-0.043945312,0.0029296875,0.0,0.0,0.0,0.0,0.0,0.0,0.0,0.0,0.0,0.0,0.0,-0.40388104,0.03625229,0.9140274,-0.8952637,-0.11010742,-0.3213501,-0.04296875,0.005859375,0.036132812,4.8980103,-8.3615885,0.7505349,18.923203,-0.9789429,-0.018920898,-0.1798706,0.0234375,0.005859375,-0.020507812,2.265463,-9.6360235,-56.218178,17.181852,-0.44207764,-0.607666,0.7032471,0.0029296875,-0.0029296875,-0.02734375,17.198353,-7.7810636,-128.21329,16.52832,0.0,0.0,0.0,0.0,0.0,0.0,0.0,1.392694,-127.87313,34.297897,0.0,0.0,0.0,0.0,0.0,0.0,0.0,0.40388104,-0.03625229,-0.9140274,0.9929199,-0.16833496,-0.2399292,0.020507812,-0.0126953125,0.001953125,4.4728637,8.3615885,-0.7505349,-18.923203,-0.9906616,0.0040893555,-0.11071777,-0.03515625,0.026367188,0.036132812,2.4935567,5.5335226,-57.618797,-16.129324,-0.28778076,0.6671753,0.6403198,9.765625E-4,0.00390625,-0.0087890625,3.883932,5.7962484,-129.50043,-11.683969,0.0,0.0,0.0,0.0,0.0,0.0,0.0,19.940079,-129.17712,2.4523935,0.0,0.0,0.0,0.0,0.0,0.0,0.0,4.6914306,44.751076,0.29807687,
0.4921874853316697,21,-0.030883789,-0.6296997,0.8022461,-0.0087890625,-0.026367188,0.021484375,0.0,0.0,0.0,0.0,0.0,0.0,0.0,0.0,0.0,0.0,0.0,-0.40347928,0.036353648,0.9142388,-0.90319824,-0.08074951,-0.34173584,-0.0048828125,-0.032226562,-9.765625E-4,4.9207563,-8.353272,0.7526333,18.927578,-0.9901123,-0.018737793,-0.1828003,0.0234375,-0.032226562,-0.020507812,2.2328308,-9.60809,-56.21584,17.161884,-0.42114258,-0.61291504,0.69207764,0.0029296875,-0.022460938,-0.0087890625,17.243906,-7.7787814,-128.20813,16.49908,0.0,0.0,0.0,0.0,0.0,0.0,0.0,1.3963227,-127.870544,34.26822,0.0,0.0,0.0,0.0,0.0,0.0,0.0,0.40347928,-0.036353648,-0.9142388,0.9845581,-0.14459229,-0.20874023,0.01953125,0.005859375,-0.03515625,4.450563,8.353272,-0.7526333,-18.927578,-0.9776001,-0.008972168,-0.113708496,-0.016601562,0.0078125,-0.001953125,2.5038185,5.5405726,-57.625805,-16.16161,-0.28466797,0.6658325,0.67181396,9.765625E-4,0.00390625,-0.0087890625,3.8539693,5.8355207,-129.5066,-11.750391,0.0,0.0,0.0,0.0,0.0,0.0,0.0,19.979763,-129.18379,2.3845901,0.0,0.0,0.0,0.0,0.0,0.0,0.0,4.6863556,44.753242,0.28865933,
0.5156249846331779,22,-0.018798828,-0.59942627,0.78564453,-0.028320312,-0.0078125,-0.016601562,0.0,0.0,0.0,0.0,0.0,0.0,0.0,0.0,0.0,0.0,0.0,-0.4034822,0.0367074,0.914218,-0.90319824,-0.08074951,-0.34173584,-0.0048828125,-0.032226562,-9.765625E-4,4.9271617,-8.353333,0.7599569,18.927147,-0.9840698,-0.026611328,-0.18389893,0.04296875,-0.0126953125,-0.020507812,2.222023,-9.608151,-56.208515,17.161453,-0.40637207,-0.588501,0.69195557,0.0029296875,-0.00390625,-0.0087890625,17.283731,-7.791232,-128.19884,16.492558,0.0,0.0,0.0,0.0,0.0,0.0,0.0,1.3922625,-127.86011,34.256966,0.0,0.0,0.0,0.0,0.0,0.0,0.0,0.4034822,-0.0367074,-0.914218,0.97198486,-0.18408203,-0.23962402,-0.017578125,0.005859375,0.0029296875,4.4517946,8.353333,-0.7599569,-18.927147,-0.9869385,0.039794922,-0.10266113,0.0029296875,0.026367188,-0.001953125,2.5409107,5.557061,-57.629864,-16.15428,-0.2927246,0.6549072,0.6953125,9.765625E-4,0.00390625,-0.0087890625,3.8114614,5.9166074,-129.50848,-11.698678,0.0,0.0,0.0,0.0,0.0,0.0,0.0,20.05638,-129.18051,2.4407873,0.0,0.0,0.0,0.0,0.0,0.0,0.0,4.6864576,44.75312,0.27141428,
0.5390624839346859,23,-0.019836426,-0.62127686,0.7885132,0.0107421875,-0.0068359375,0.0029296875,0.0,0.0,0.0,0.0,0.0,0.0,0.0,0.0,0.0,0.0,0.0,-0.4031673,0.03706108,0.9142951,-0.8892822,-0.07873535,-0.3619995,0.0146484375,0.005859375,-0.01953125,5.042088,-8.346812,0.76727927,18.928743,-0.97991943,-0.014038086,-0.18182373,0.04296875,-0.0126953125,-9.765625E-4,2.0911572,-9.477217,-56.20272,17.159832,-0.4420166,-0.5961304,0.6743164,0.00390625,-0.00390625,0.02734375,17.328161,-7.676178,-128.19638,16.48063,0.0,0.0,0.0,0.0,0.0,0.0,0.0,1.5131063,-127.86268,34.24199,0.0,0.0,0.0,0.0,0.0,0.0,0.0,0.4031673,-0.03706108,-0.9142951,0.9697876,-0.16827393,-0.21960449,0.020507812,-0.0126953125,0.001953125,4.439591,8.346812,-0.76727927,-18.928743,-1.0007935,-0.03778076,-0.105041504,-0.015625,0.045898438,0.036132812,2.5472198,5.5869484,-57.635254,-16.16384,-0.258667,0.65283203,0.6687622,-0.018554688,0.00390625,-0.0087890625,3.81367,6.0033593,-129.51678,-11.761855,0.0,0.0,0.0,0.0,0.0,0.0,0.0,20.134727,-129.17853,2.385479,0.0,0.0,0.0,0.0,0.0,0.0,0.0,4.6741934,44.75258,0.24707937,
0.562499983236194,24,-0.021972656,-0.6593628,0.8052368,-0.0087890625,-0.0068359375,0.001953125,0.0,0.0,0.0,0.0,0.0,0.0,0.0,0.0,0.0,0.0,0.0,-0.40269595,0.037304826,0.9145285,-0.8848877,-0.091552734,-0.31848145,0.033203125,-0.033203125,-0.001953125,5.0578785,-8.337054,0.77232563,18.933575,-0.97998047,-0.029541016,-0.19189453,0.0048828125,0.005859375,-0.020507812,2.0538561,-9.448553,-56.199272,17.172062,-0.41625977,-0.60632324,0.65515137,0.021484375,-0.022460938,-0.0087890625,17.38148,-7.6636887,-128.1893,16.475752,0.0,0.0,0.0,0.0,0.0,0.0,0.0,1.5250874,-127.85295,34.238853,0.0,0.0,0.0,0.0,0.0,0.0,0.0,0.40269595,-0.037304826,-0.9145285,0.9517212,-0.15148926,-0.23291016,9.765625E-4,0.024414062,0.0029296875,4.3966775,8.337054,-0.77232563,-18.933575,-0.94958496,0.006591797,-0.115478516,0.0029296875,0.026367188,0.016601562,2.5618548,5.587612,-57.64255,-16.213037,-0.31298828,0.638855,0.6676636,0.001953125,-0.015625,-0.028320312,3.7736158,6.031534,-129.52281,-11.809045,0.0,0.0,0.0,0.0,0.0,0.0,0.0,20.16424,-129.18535,2.3365316,0.0,0.0,0.0,0.0,0.0,0.0,0.0,4.669113,44.75467,0.23035681,
0.5859374825377021,25,-0.016906738,-0.63934326,0.7984009,-0.0087890625,0.01171875,-0.016601562,0.0,0.0,0.0,0.0,0.0,0.0,0.0,0.0,0.0,0.0,0.0,-0.40151095,0.037966073,0.91503906,-0.876709,-0.118774414,-0.35864258,0.013671875,-0.032226562,-0.01953125,5.123729,-8.312521,0.7860152,18.944145,-0.98602295,-0.01586914,-0.1897583,0.0234375,0.005859375,-9.765625E-4,1.9961578,-9.401413,-56.182144,17.186234,-0.40698242,-0.61242676,0.6968994,0.041992188,-0.00390625,-0.0087890625,17.412056,-7.659647,-128.17139,16.479126,0.0,0.0,0.0,0.0,0.0,0.0,0.0,1.5357208,-127.83093,34.23884,0.0,0.0,0.0,0.0,0.0,0.0,0.0,0.40151095,-0.037966073,-0.91503906,0.97613525,-0.18023682,-0.27142334,0.020507812,-0.0126953125,0.001953125,4.3781066,8.312521,-0.7860152,-18.944145,-0.96417236,4.8828125E-4,-0.10083008,-0.015625,0.045898438,-0.001953125,2.5450673,5.572281,-57.652973,-16.268045,-0.30682373,0.66534424,0.65112305,0.01953125,0.022460938,-0.0087890625,3.7721627,6.0033536,-129.53204,-11.877813,0.0,0.0,0.0,0.0,0.0,0.0,0.0,20.13351,-129.19531,2.2714977,0.0,0.0,0.0,0.0,0.0,0.0,0.0,4.6982784,44.752438,0.20473027,
0.6093749818392101,26,-0.0018310547,-0.62939453,0.83428955,-0.0087890625,-0.025390625,-0.016601562,0.0,0.0,0.0,0.0,0.0,0.0,0.0,0.0,0.0,0.0,0.0,-0.40012446,0.03827755,0.9155327,-0.87890625,-0.08850098,-0.3295288,-0.0234375,0.005859375,0.036132812,5.163384,-8.283816,0.79246396,18.954365,-0.980896,-0.009155273,-0.18377686,0.061523438,0.0068359375,-9.765625E-4,1.9510384,-9.346603,-56.1817,17.2109,-0.44482422,-0.59350586,0.69329834,0.0029296875,-0.00390625,-0.0087890625,17.434616,-7.626979,-128.17325,16.509554,0.0,0.0,0.0,0.0,0.0,0.0,0.0,1.5732851,-127.83564,34.26576,0.0,0.0,0.0,0.0,0.0,0.0,0.0,0.40012446,-0.03827755,-0.9155327,0.98864746,-0.16033936,-0.20404053,0.020507812,-0.0126953125,0.001953125,4.408023,8.283816,-0.79246396,-18.954365,-0.98309326,-0.03552246,-0.12957764,-0.015625,0.045898438,0.016601562,2.478361,5.5940065,-57.67076,-16.280966,-0.29968262,0.66986084,0.6796875,0.020507812,0.00390625,-0.009765625,3.8001938,6.008223,-129.55542,-11.924754,0.0,0.0,0.0,0.0,0.0,0.0,0.0,20.13498,-129.22444,2.2286692,0.0,0.0,0.0,0.0,0.0,0.0,0.0,4.707713,44.747364,0.18661451,
0.6328124811407182,27,-0.033935547,-0.64001465,0.8140869,-0.0087890625,-0.025390625,0.0029296875,0.0,0.0,0.0,0.0,0.0,0.0,0.0,0.0,0.0,0.0,0.0,-0.39925948,0.038173385,0.9159934,-0.89501953,-0.095214844,-0.32019043,0.0146484375,-0.013671875,-9.765625E-4,5.2097373,-8.265909,0.79030746,18.963902,-0.9911499,-0.02746582,-0.18487549,0.024414062,0.005859375,-0.0390625,1.9053645,-9.289126,-56.181446,17.21534,-0.40930176,-0.6178589,0.67700195,0.00390625,-0.00390625,0.009765625,17.460527,-7.5754185,-128.17957,16.49199,0.0,0.0,0.0,0.0,0.0,0.0,0.0,1.6252995,-127.84234,34.2473,0.0,0.0,0.0,0.0,0.0,0.0,0.0,0.39925948,-0.038173385,-0.9159934,0.98095703,-0.16833496,-0.24957275,9.765625E-4,0.024414062,0.021484375,4.501412,8.265909,-0.79030746,-18.963902,-0.9680176,0.01928711,-0.08892822,0.00390625,0.045898438,0.016601562,2.395472,5.677459,-57.676807,-16.279469,-0.29693604,0.64959717,0.64904785,0.040039062,0.00390625,-0.009765625,3.7904425,6.115755,-129.56085,-11.910569,0.0,0.0,0.0,0.0,0.0,0.0,0.0,20.24255,-129.23563,2.2406158,0.0,0.0,0.0,0.0,0.0,0.0,0.0,4.714629,44.749886,0.19007313,
0.6562499804422263,28,-0.035827637,-0.6156616,0.79229736,-0.0087890625,-0.0068359375,-0.016601562,0.0,0.0,0.0,0.0,0.0,0.0,0.0,0.0,0.0,0.0,0.0,-0.39833915,0.038252257,0.9163844,-0.8778076,-0.09777832,-0.3137207,0.0146484375,-0.013671875,0.016601562,5.226335,-8.246856,0.79194033,18.971998,-0.986145,-0.029541016,-0.17596436,0.04296875,-0.0126953125,-0.0390625,1.8846061,-9.251812,-56.1801,17.236523,-0.44354248,-0.5814209,0.6833496,0.0029296875,-0.022460938,-0.02734375,17.438366,-7.5388427,-128.17737,16.52091,0.0,0.0,0.0,0.0,0.0,0.0,0.0,1.6711583,-127.8412,34.27195,0.0,0.0,0.0,0.0,0.0,0.0,0.0,0.39833915,-0.038252257,-0.9163844,0.96868896,-0.15441895,-0.21942139,-0.017578125,0.005859375,0.0029296875,4.5383773,8.246856,-0.79194033,-18.971998,-0.98895264,-0.006164551,-0.09893799,0.001953125,0.0068359375,0.0546875,2.3618176,5.7133894,-57.673454,-16.283497,-0.28564453,0.67974854,0.6531372,0.020507812,0.00390625,-0.009765625,3.7519677,6.1798277,-129.55434,-11.921829,0.0,0.0,0.0,0.0,0.0,0.0,0.0,20.32014,-129.2264,2.216547,0.0,0.0,0.0,0.0,0.0,0.0,0.0,4.7142596,44.749706,0.18125296,
0.6796874797437343,29,-0.052001953,-0.64819336,0.7850952,-0.0087890625,-0.025390625,-0.03515625,0.0,0.0,0.0,0.0,0.0,0.0,0.0,0.0,0.0,0.0,0.0,-0.39809093,0.03821902,0.91649276,-0.88531494,-0.099975586,-0.3433838,0.013671875,-0.032226562,-0.001953125,5.2334538,-8.241716,0.7912523,18.974241,-0.98095703,-0.023742676,-0.18487549,0.04296875,0.0068359375,-9.765625E-4,1.8497027,-9.232453,-56.18318,17.261055,-0.4260254,-0.6121216,0.7050781,0.00390625,-0.00390625,0.009765625,17.493404,-7.542245,-128.18033,16.557028,0.0,0.0,0.0,0.0,0.0,0.0,0.0,1.6695089,-127.84146,34.306335,0.0,0.0,0.0,0.0,0.0,0.0,0.0,0.39809093,-0.03821902,-0.91649276,0.98095703,-0.16638184,-0.2475586,0.076171875,0.005859375,0.038085938,4.4991484,8.241716,-0.7912523,-18.974241,-0.98254395,0.0076293945,-0.093933105,0.00390625,0.045898438,-0.020507812,2.4502437,5.6756086,-57.678818,-16.307814,-0.2937622,0.65008545,0.6933594,0.001953125,-0.015625,-0.009765625,3.6870053,6.213939,-129.56207,-11.971188,0.0,0.0,0.0,0.0,0.0,0.0,0.0,20.354773,-129.23671,2.1681204,0.0,0.0,0.0,0.0,0.0,0.0,0.0,4.714153,44.749676,0.1815319,
0.7031249790452424,30,-0.012878418,-0.6213379,0.79260254,-0.0087890625,-0.0068359375,-0.016601562,0.0,0.0,0.0,0.0,0.0,0.0,0.0,0.0,0.0,0.0,0.0,-0.3975128,0.038391434,0.91673476,-0.90631104,-0.09472656,-0.3328247,-0.0048828125,0.005859375,0.0546875,5.266894,-8.229748,0.7948218,18.97925,-0.98101807,-0.026672363,-0.1739502,0.0234375,-0.0126953125,-9.765625E-4,1.7799326,-9.166714,-56.182858,17.279642,-0.42144775,-0.6259155,0.6970215,0.00390625,0.015625,0.0087890625,17.51737,-7.4935703,-128.1772,16.568254,0.0,0.0,0.0,0.0,0.0,0.0,0.0,1.7243681,-127.839516,34.31546,0.0,0.0,0.0,0.0,0.0,0.0,0.0,0.3975128,-0.038391434,-0.91673476,0.9404297,-0.14544678,-0.19091797,-0.017578125,0.005859375,0.021484375,4.4993663,8.229748,-0.7948218,-18.97925,-0.9680176,0.009765625,-0.1105957,-0.016601562,0.0068359375,0.016601562,2.4195366,5.7014275,-57.67549,-16.306755,-0.31695557,0.65057373,0.6746216,0.001953125,-0.015625,0.0087890625,3.7293017,6.2497296,-129.56012,-11.985983,0.0,0.0,0.0,0.0,0.0,0.0,0.0,20.37555,-129.22331,2.1679611,0.0,0.0,0.0,0.0,0.0,0.0,0.0,4.696698,44.751514,0.16244912,
0.7265624783467505,31,-0.012939453,-0.647583,0.78063965,-0.0087890625,-0.025390625,0.0029296875,0.0,0.0,0.0,0.0,0.0,0.0,0.0,0.0,0.0,0.0,0.0,-0.39769796,0.038265765,0.9167095,-0.9213867,-0.09844971,-0.3255005,0.013671875,-0.051757812,-0.038085938,5.263842,-8.233581,0.7922199,18.978727,-0.98394775,-0.012023926,-0.18774414,0.04296875,-0.0126953125,-0.020507812,1.7273709,-9.14142,-56.185062,17.295546,-0.4366455,-0.5918579,0.6982422,0.00390625,0.015625,0.0087890625,17.571095,-7.4936934,-128.18387,16.58189,0.0,0.0,0.0,0.0,0.0,0.0,0.0,1.7281828,-127.846,34.328224,0.0,0.0,0.0,0.0,0.0,0.0,0.0,0.39769796,-0.038265765,-0.9167095,0.9729004,-0.18206787,-0.21582031,0.01953125,0.005859375,0.001953125,4.525021,8.233581,-0.7922199,-18.978727,-0.98864746,0.0068969727,-0.10284424,-0.015625,0.026367188,-0.001953125,2.3704205,5.734703,-57.674385,-16.2645,-0.2803955,0.70391846,0.67004395,0.0,0.041992188,-0.0087890625,3.7873933,6.2606735,-129.56128,-11.92557,0.0,0.0,0.0,0.0,0.0,0.0,0.0,20.375471,-129.21794,2.2397556,0.0,0.0,0.0,0.0,0.0,0.0,0.0,4.6745524,44.7559,0.15974617,
0.7499999776482585,32,-0.026916504,-0.63201904,0.8131714,-0.0087890625,-0.025390625,-0.016601562,0.0,0.0,0.0,0.0,0.0,0.0,0.0,0.0,0.0,0.0,0.0,-0.3970405,0.038527697,0.9169335,-0.90301514,-0.08508301,-0.32391357,0.033203125,-0.033203125,-0.001953125,5.2907987,-8.219969,0.7976426,18.983366,-0.97991943,-0.014099121,-0.17584229,0.04296875,0.0068359375,-0.0390625,1.7381004,-9.114752,-56.179462,17.28898,-0.41693115,-0.6019287,0.6820679,0.00390625,-0.00390625,0.009765625,17.602785,-7.45191,-128.17538,16.602036,0.0,0.0,0.0,0.0,0.0,0.0,0.0,1.7620287,-127.83903,34.352207,0.0,0.0,0.0,0.0,0.0,0.0,0.0,0.3970405,-0.038527697,-0.9169335,0.9545288,-0.13964844,-0.22094727,-0.018554688,0.061523438,0.0029296875,4.540017,8.219969,-0.7976426,-18.983366,-0.9813843,0.008850098,-0.105773926,-0.034179688,0.045898438,-0.001953125,2.3509364,5.7538056,-57.681,-16.274557,-0.2880249,0.62402344,0.65478516,-0.018554688,0.022460938,0.009765625,3.8504615,6.296674,-129.56656,-11.941818,0.0,0.0,0.0,0.0,0.0,0.0,0.0,20.404968,-129.2276,2.22818,0.0,0.0,0.0,0.0,0.0,0.0,0.0,4.6792746,44.753384,0.1457212,
0.7734374769497666,33,-0.040039062,-0.6594238,0.8010254,-0.02734375,-0.026367188,-0.016601562,0.0,0.0,0.0,0.0,0.0,0.0,0.0,0.0,0.0,0.0,0.0,-0.39810506,0.03822866,0.91667074,-0.91693115,-0.12506104,-0.33880615,-0.0048828125,-0.013671875,-9.765625E-4,5.267154,-8.242007,0.7914518,18.977924,-0.986084,-0.02368164,-0.17687988,0.04296875,0.0068359375,-0.020507812,1.7273709,-9.116617,-56.186714,17.268663,-0.414917,-0.6008911,0.67803955,0.022460938,-0.00390625,-0.0087890625,17.63155,-7.453849,-128.1842,16.59051,0.0,0.0,0.0,0.0,0.0,0.0,0.0,1.7710819,-127.84055,34.334274,0.0,0.0,0.0,0.0,0.0,0.0,0.0,0.39810506,-0.03822866,-0.91667074,0.9737549,-0.16430664,-0.2156372,0.01953125,0.005859375,0.020507812,4.4995403,8.242007,-0.7914518,-18.977924,-0.99072266,1.2207031E-4,-0.11273193,0.0029296875,0.0068359375,-0.001953125,2.3080015,5.7774534,-57.679276,-16.281403,-0.28570557,0.65496826,0.68548584,-0.018554688,0.00390625,-0.02734375,3.9430764,6.2683454,-129.56529,-11.955335,0.0,0.0,0.0,0.0,0.0,0.0,0.0,20.366549,-129.22562,2.2255192,0.0,0.0,0.0,0.0,0.0,0.0,0.0,4.6425686,44.764927,0.14937401,
0.7968749762512747,34,-0.027954102,-0.64068604,0.8062134,0.0107421875,-0.025390625,0.0029296875,0.0,0.0,0.0,0.0,0.0,0.0,0.0,0.0,0.0,0.0,0.0,-0.39842156,0.038485564,0.9166505,-0.89746094,-0.12298584,-0.3184204,0.051757812,-0.032226562,-0.020507812,5.288761,-8.248562,0.7967705,18.977507,-0.98913574,-0.015991211,-0.16583252,0.0234375,0.005859375,-9.765625E-4,1.6959289,-9.091937,-56.181602,17.255749,-0.43255615,-0.6255493,0.69311523,0.0048828125,0.034179688,0.0087890625,17.635324,-7.4327493,-128.17415,16.56268,0.0,0.0,0.0,0.0,0.0,0.0,0.0,1.7939363,-127.8278,34.30471,0.0,0.0,0.0,0.0,0.0,0.0,0.0,0.39842156,-0.038485564,-0.9166505,0.92852783,-0.13763428,-0.22332764,-0.037109375,0.061523438,0.0029296875,4.478553,8.248562,-0.7967705,-18.977507,-0.9821167,0.008544922,-0.13720703,-0.03515625,0.026367188,0.016601562,2.2458532,5.7856483,-57.68148,-16.269863,-0.27368164,0.65478516,0.68548584,-0.017578125,-0.015625,0.009765625,4.0026693,6.202454,-129.5683,-11.964422,0.0,0.0,0.0,0.0,0.0,0.0,0.0,20.291746,-129.21533,2.225605,0.0,0.0,0.0,0.0,0.0,0.0,0.0,4.6278286,44.77182,0.13173842,
0.8203124755527827,35,-0.026916504,-0.6340332,0.78344727,0.030273438,-0.024414062,-0.015625,0.0,0.0,0.0,0.0,0.0,0.0,0.0,0.0,0.0,0.0,0.0,-0.39796475,0.0388799,0.9168246,-0.89746094,-0.12298584,-0.3184204,0.051757812,-0.032226562,-0.020507812,5.296832,-8.239105,0.8049344,18.98111,-0.9779053,-0.018859863,-0.18585205,0.061523438,0.0068359375,-9.765625E-4,1.6904968,-9.08248,-56.17344,17.259352,-0.41119385,-0.57940674,0.6900635,0.00390625,0.015625,-0.009765625,17.660322,-7.4374847,-128.16739,16.581614,0.0,0.0,0.0,0.0,0.0,0.0,0.0,1.7944422,-127.81777,34.321938,0.0,0.0,0.0,0.0,0.0,0.0,0.0,0.39796475,-0.0388799,-0.9168246,0.96484375,-0.1574707,-0.24414062,-0.017578125,0.024414062,0.0029296875,4.385526,8.239105,-0.8049344,-18.98111,-0.98461914,-1.2207031E-4,-0.105773926,-0.03515625,0.026367188,0.036132812,2.3020577,5.719018,-57.686447,-16.321604,-0.29882812,0.6553955,0.6599121,0.0,0.022460938,-0.0087890625,3.958343,6.1332846,-129.57489,-12.053866,0.0,0.0,0.0,0.0,0.0,0.0,0.0,20.226131,-129.22403,2.1321392,0.0,0.0,0.0,0.0,0.0,0.0,0.0,4.6276813,44.771572,0.11009741,
0.8437499748542908,36,-0.0289917,-0.65722656,0.7982178,-0.0087890625,-0.0068359375,-0.016601562,0.0,0.0,0.0,0.0,0.0,0.0,0.0,0.0,0.0,0.0,0.0,-0.3983771,0.03883031,0.9166546,-0.88897705,-0.09234619,-0.32232666,-0.0234375,-0.0126953125,-9.765625E-4,5.291502,-8.247641,0.8039079,18.977592,-0.98602295,-0.015930176,-0.18078613,0.0234375,-0.0126953125,-0.020507812,1.6585922,-9.073487,-56.17024,17.26386,-0.43865967,-0.59277344,0.69921875,0.0234375,0.034179688,-0.009765625,17.744724,-7.445247,-128.16858,16.585642,0.0,0.0,0.0,0.0,0.0,0.0,0.0,1.7782083,-127.810745,34.328903,0.0,0.0,0.0,0.0,0.0,0.0,0.0,0.3983771,-0.03883031,-0.9166546,0.9746704,-0.1642456,-0.20770264,0.057617188,-0.0126953125,9.765625E-4,4.3428464,8.247641,-0.8039079,-18.977592,-0.9842529,0.012207031,-0.12145996,0.0029296875,0.045898438,0.036132812,2.304352,5.70418,-57.688324,-16.32656,-0.29486084,0.65148926,0.65301514,-0.018554688,0.022460938,-0.0087890625,3.9398968,6.091782,-129.57954,-12.060914,0.0,0.0,0.0,0.0,0.0,0.0,0.0,20.186384,-129.22995,2.1219578,0.0,0.0,0.0,0.0,0.0,0.0,0.0,4.6106243,44.773632,0.10712099,
0.8671874741557989,37,-0.019958496,-0.6549072,0.7894287,0.030273438,-0.005859375,-0.015625,0.0,0.0,0.0,0.0,0.0,0.0,0.0,0.0,0.0,0.0,0.0,-0.39854473,0.039210536,0.9166047,-0.8953247,-0.10491943,-0.33221436,0.013671875,-0.032226562,-0.001953125,5.323769,-8.251111,0.8117796,18.97656,-0.9963379,-0.035339355,-0.16796875,0.0234375,-0.0126953125,-0.020507812,1.6213615,-9.04137,-56.16847,17.274155,-0.42425537,-0.60723877,0.66119385,0.0029296875,-0.00390625,-0.0087890625,17.753014,-7.4131303,-128.16681,16.595936,0.0,0.0,0.0,0.0,0.0,0.0,0.0,1.8076787,-127.80948,34.340477,0.0,0.0,0.0,0.0,0.0,0.0,0.0,0.39854473,-0.039210536,-0.9166047,0.9805908,-0.14068604,-0.21954346,0.020507812,-0.0126953125,0.020507812,4.2784653,8.251111,-0.8117796,-18.97656,-0.98132324,0.0061035156,-0.11853027,-0.016601562,-0.01171875,-0.0029296875,2.323637,5.67649,-57.698647,-16.355314,-0.27471924,0.65789795,0.67077637,-0.018554688,0.00390625,-0.0087890625,3.9395986,6.046681,-129.59113,-12.091482,0.0,0.0,0.0,0.0,0.0,0.0,0.0,20.14035,-129.23846,2.091834,0.0,0.0,0.0,0.0,0.0,0.0,0.0,4.605789,44.775795,0.08720255,
0.890624973457307,38,-0.022949219,-0.65216064,0.7963257,0.0107421875,-0.025390625,-0.016601562,0.0,0.0,0.0,0.0,0.0,0.0,0.0,0.0,0.0,0.0,0.0,-0.3986543,0.039528184,0.9165399,-0.88916016,-0.10321045,-0.32641602,0.0146484375,-0.013671875,-9.765625E-4,5.34885,-8.253378,0.8183558,18.975218,-0.97991943,-0.009155273,-0.18078613,0.04296875,-0.0126953125,-0.020507812,1.5743312,-9.018897,-56.162056,17.287876,-0.40405273,-0.6143799,0.69189453,0.0029296875,-0.00390625,-0.0087890625,17.771507,-7.412489,-128.15811,16.602877,0.0,0.0,0.0,0.0,0.0,0.0,0.0,1.8034801,-127.80218,34.349087,0.0,0.0,0.0,0.0,0.0,0.0,0.0,0.3986543,-0.039528184,-0.9165399,0.95703125,-0.1821289,-0.24719238,0.001953125,-0.06933594,0.020507812,4.271456,8.253378,-0.8183558,-18.975218,-0.9734497,-0.0051879883,-0.10675049,-0.016601562,0.0078125,-0.001953125,2.3420112,5.659769,-57.703705,-16.323439,-0.28356934,0.67749023,0.6777344,-0.038085938,0.022460938,-0.0087890625,3.937958,6.030904,-129.59149,-12.036735,0.0,0.0,0.0,0.0,0.0,0.0,0.0,20.123672,-129.23532,2.1492662,0.0,0.0,0.0,0.0,0.0,0.0,0.0,4.6058917,44.775665,0.072291255,
0.914062472758815,39,-0.012939453,-0.64385986,0.8192749,-0.0087890625,0.01171875,-0.036132812,0.0,0.0,0.0,0.0,0.0,0.0,0.0,0.0,0.0,0.0,0.0,-0.39861086,0.039506584,0.916434,-0.90704346,-0.08496094,-0.32476807,-0.0048828125,0.005859375,0.017578125,5.364068,-8.25248,0.81790876,18.973024,-0.98101807,-0.020874023,-0.17687988,0.0234375,-0.0126953125,-0.020507812,1.5579623,-8.995332,-56.162125,17.300049,-0.3998413,-0.6033325,0.6819458,0.022460938,-0.00390625,-0.0087890625,17.809175,-7.391444,-128.16199,16.652866,0.0,0.0,0.0,0.0,0.0,0.0,0.0,1.8267183,-127.80516,34.39869,0.0,0.0,0.0,0.0,0.0,0.0,0.0,0.39861086,-0.039506584,-0.916434,0.9607544,-0.15350342,-0.23809814,-0.09082031,-0.087890625,0.078125,4.2312384,8.25248,-0.81790876,-18.973024,-1.0043945,-0.025268555,-0.12860107,0.0029296875,0.026367188,-0.001953125,2.4611633,5.564063,-57.689777,-16.26997,-0.2987671,0.67407227,0.6472168,0.0,0.041992188,-0.02734375,3.8705482,5.9723287,-129.58243,-12.012043,0.0,0.0,0.0,0.0,0.0,0.0,0.0,20.063377,-129.22798,2.1749325,0.0,0.0,0.0,0.0,0.0,0.0,0.0,4.603552,44.77069,0.07233298,
0.9374999720603231,40,-0.018920898,-0.6434326,0.8033447,0.0107421875,0.01171875,0.001953125,0.0,0.0,0.0,0.0,0.0,0.0,0.0,0.0,0.0,0.0,0.0,-0.39846176,0.039630003,0.91640425,-0.9083252,-0.10681152,-0.3199463,0.051757812,-0.032226562,-0.020507812,5.4265027,-8.249393,0.8204639,18.972408,-0.9849243,-3.6621094E-4,-0.18469238,0.080078125,-0.01171875,-9.765625E-4,1.5201987,-8.9481735,-56.159737,17.276796,-0.43774414,-0.5863037,0.67230225,-0.015625,-0.0029296875,-0.0087890625,17.861858,-7.3410473,-128.15851,16.599775,0.0,0.0,0.0,0.0,0.0,0.0,0.0,1.8886862,-127.809784,34.340485,0.0,0.0,0.0,0.0,0.0,0.0,0.0,0.39846176,-0.039630003,-0.91640425,0.9433594,-0.14050293,-0.18695068,0.021484375,-0.087890625,0.076171875,4.2100787,8.249393,-0.8204639,-18.972408,-0.954834,0.020690918,-0.072143555,0.0029296875,0.0068359375,-0.001953125,2.533814,5.510509,-57.69379,-16.256237,-0.3237915,0.6691284,0.6845703,0.0,0.041992188,-0.02734375,3.7913206,5.943943,-129.57977,-11.9466715,0.0,0.0,0.0,0.0,0.0,0.0,0.0,20.043747,-129.22801,2.231122,0.0,0.0,0.0,0.0,0.0,0.0,0.0,4.613451,44.76598,0.07006502,
0.9609374713618312,41,-0.045959473,-0.65185547,0.8099365,0.049804688,0.013671875,-0.015625,0.0,0.0,0.0,0.0,0.0,0.0,0.0,0.0,0.0,0.0,0.0,-0.39802384,0.039151967,0.9164933,-0.88391113,-0.10058594,-0.31262207,0.051757812,-0.013671875,0.03515625,5.43956,-8.240328,0.81056714,18.97425,-0.9708252,-0.021911621,-0.18395996,0.061523438,0.0068359375,-9.765625E-4,1.5218712,-8.921542,-56.165493,17.257011,-0.43359375,-0.62323,0.6791992,0.022460938,-0.00390625,-0.02734375,17.861736,-7.295491,-128.16245,16.564098,0.0,0.0,0.0,0.0,0.0,0.0,0.0,1.9333925,-127.81719,34.304756,0.0,0.0,0.0,0.0,0.0,0.0,0.0,0.39802384,-0.039151967,-0.9164933,0.9770508,-0.18609619,-0.24768066,0.020507812,-0.0126953125,0.057617188,4.2446866,8.240328,-0.81056714,-18.97425,-0.9700928,0.024902344,-0.07122803,-0.0546875,0.0078125,0.016601562,2.6538744,5.4449387,-57.672424,-16.169077,-0.284729,0.6550293,0.67663574,-0.07910156,0.099609375,-0.026367188,3.796585,5.961209,-129.55676,-11.813102,0.0,0.0,0.0,0.0,0.0,0.0,0.0,20.036043,-129.21451,2.3898592,0.0,0.0,0.0,0.0,0.0,0.0,0.0,4.6108565,44.76116,0.0902822,
0.9843749706633392,42,-0.038879395,-0.62164307,0.7942505,0.0107421875,0.01171875,0.001953125,0.0,0.0,0.0,0.0,0.0,0.0,0.0,0.0,0.0,0.0,0.0,-0.39729375,0.039202675,0.9167604,-0.88726807,-0.09802246,-0.33935547,0.08984375,-0.013671875,0.03515625,5.483979,-8.225213,0.811617,18.97978,-0.98101807,-0.029541016,-0.1819458,0.13671875,-0.030273438,-9.765625E-4,1.517493,-8.88472,-56.16473,17.209026,-0.42236328,-0.61657715,0.6781006,-0.015625,0.015625,-0.028320312,17.983435,-7.245016,-128.15607,16.464787,0.0,0.0,0.0,0.0,0.0,0.0,0.0,1.9843216,-127.8112,34.204556,0.0,0.0,0.0,0.0,0.0,0.0,0.0,0.39729375,-0.039202675,-0.9167604,0.9435425,-0.14257812,-0.22271729,0.13085938,0.15527344,0.057617188,4.3582883,8.225213,-0.811617,-18.97978,-0.95599365,-0.004333496,-0.1116333,-0.0703125,0.10449219,0.017578125,2.5666637,5.5225472,-57.67441,-16.109531,-0.2979126,0.6405029,0.67755127,-0.057617188,0.022460938,-0.045898438,3.8362467,6.0478306,-129.55437,-11.729108,0.0,0.0,0.0,0.0,0.0,0.0,0.0,20.111786,-129.22444,2.4849997,0.0,0.0,0.0,0.0,0.0,0.0,0.0,4.6154933,44.75872,0.08622229,
1.0078124699648474,43,-0.039001465,-0.6520386,0.7852173,0.030273438,0.03125,-0.016601562,0.0,0.0,0.0,0.0,0.0,0.0,0.0,0.0,0.0,0.0,0.0,-0.39712137,0.038834706,0.9169415,-0.87353516,-0.1048584,-0.36358643,0.051757812,0.043945312,0.053710938,5.4899793,-8.2216425,0.80399895,18.983532,-0.98394775,-0.021606445,-0.20178223,0.04296875,0.0068359375,-9.765625E-4,1.4577711,-8.867221,-56.173317,17.179264,-0.40075684,-0.60235596,0.6838989,-0.016601562,-0.0029296875,-0.045898438,18.163668,-7.3242106,-128.16934,16.44947,0.0,0.0,0.0,0.0,0.0,0.0,0.0,1.9196868,-127.82596,34.18464,0.0,0.0,0.0,0.0,0.0,0.0,0.0,0.39712137,-0.038834706,-0.9169415,0.96765137,-0.1583252,-0.20751953,0.12988281,0.2109375,0.0390625,4.658922,8.2216425,-0.80399895,-18.983532,-0.97784424,-0.03149414,-0.13348389,-0.09082031,0.06542969,-0.001953125,2.2101884,5.779196,-57.67208,-15.955277,-0.28460693,0.6815796,0.66400146,-0.05859375,0.061523438,-0.0078125,3.725204,6.1759934,-129.55861,-11.65394,0.0,0.0,0.0,0.0,0.0,0.0,0.0,20.234745,-129.23363,2.5651588,0.0,0.0,0.0,0.0,0.0,0.0,0.0,4.605418,44.7635,0.09873295,
1.0312499692663555,44,-0.036987305,-0.64727783,0.7932129,0.049804688,0.032226562,-0.016601562,0.0,0.0,0.0,0.0,0.0,0.0,0.0,0.0,0.0,0.0,0.0,-0.39874104,0.038079225,0.9163018,-0.8951416,-0.101135254,-0.32122803,0.109375,0.0048828125,0.052734375,5.3834677,-8.255176,0.78835803,18.970287,-0.9779663,-0.03729248,-0.19396973,0.099609375,0.026367188,-9.765625E-4,1.3982978,-8.928276,-56.191856,17.195131,-0.4220581,-0.6003418,0.6621704,-0.016601562,-0.0029296875,-0.045898438,18.253908,-7.4447446,-128.19058,16.391342,0.0,0.0,0.0,0.0,0.0,0.0,0.0,1.7995505,-127.84334,34.127457,0.0,0.0,0.0,0.0,0.0,0.0,0.0,0.39874104,-0.038079225,-0.9163018,0.95947266,-0.14251709,-0.20318604,0.16699219,0.24804688,0.038085938,4.9777584,8.255176,-0.78835803,-18.970287,-0.97698975,0.02368164,-0.10369873,-0.10839844,0.10449219,-0.020507812,1.8413253,6.141717,-57.66623,-15.789192,-0.2775879,0.6816406,0.6502075,-0.05859375,0.061523438,0.0107421875,3.6011417,6.4596157,-129.55713,-11.48663,0.0,0.0,0.0,0.0,0.0,0.0,0.0,20.510052,-129.235,2.7423449,0.0,0.0,0.0,0.0,0.0,0.0,0.0,4.55433,44.76998,0.12134838,
1.0546874685678636,45,-0.061950684,-0.63391113,0.79888916,0.068359375,0.05078125,-0.015625,0.0,0.0,0.0,0.0,0.0,0.0,0.0,0.0,0.0,0.0,0.0,-0.39919186,0.037004754,0.9160504,-0.9058838,-0.10699463,-0.3657837,0.14648438,0.0048828125,0.052734375,5.3241005,-8.264509,0.7661132,18.965082,-0.9911499,-0.032287598,-0.19586182,0.15625,-0.030273438,0.018554688,1.420651,-8.972586,-56.20979,17.081804,-0.42626953,-0.6125488,0.68115234,0.00390625,0.015625,-0.045898438,18.500654,-7.508748,-128.20714,16.15716,0.0,0.0,0.0,0.0,0.0,0.0,0.0,1.7408361,-127.856895,33.891693,0.0,0.0,0.0,0.0,0.0,0.0,0.0,0.39919186,-0.037004754,-0.9160504,0.9673462,-0.15032959,-0.16375732,0.2421875,0.2109375,0.037109375,5.428381,8.264509,-0.7661132,-18.965082,-1.0076904,-0.03527832,-0.12573242,-0.12792969,0.10449219,0.017578125,1.3814019,6.5797424,-57.64676,-15.58852,-0.28857422,0.69055176,0.6483154,-0.0390625,0.041992188,-0.02734375,3.4003577,6.720083,-129.54016,-11.374012,0.0,0.0,0.0,0.0,0.0,0.0,0.0,20.769733,-129.22559,2.8554144,0.0,0.0,0.0,0.0,0.0,0.0,0.0,4.517565,44.76948,0.16013479,
1.0781249678693716,46,-0.052001953,-0.65722656,0.78900146,0.068359375,0.05078125,-0.03515625,0.0,0.0,0.0,0.0,0.0,0.0,0.0,0.0,0.0,0.0,0.0,-0.3992956,0.03595838,0.9161105,-0.88513184,-0.113464355,-0.3126831,0.109375,0.024414062,0.08984375,5.3447447,-8.266656,0.74445,18.966328,-0.9789429,-0.011169434,-0.17181396,0.061523438,-0.03125,0.018554688,1.4297134,-8.92811,-56.22425,17.018505,-0.41101074,-0.6069336,0.67803955,-0.015625,0.015625,-0.045898438,18.59978,-7.442276,-128.22198,16.103643,0.0,0.0,0.0,0.0,0.0,0.0,0.0,1.8073559,-127.874,33.837326,0.0,0.0,0.0,0.0,0.0,0.0,0.0,0.3992956,-0.03595838,-0.9161105,0.9816284,-0.15148926,-0.20874023,0.12988281,0.2109375,0.001953125,5.7161803,8.266656,-0.74445,-18.966328,-0.9842529,0.0026245117,-0.14019775,-0.052734375,0.08496094,0.017578125,1.1322874,6.8752027,-57.627167,-15.510624,-0.2927246,0.6559448,0.6894531,9.765625E-4,0.00390625,-0.02734375,3.4058807,6.87014,-129.52576,-11.394908,0.0,0.0,0.0,0.0,0.0,0.0,0.0,20.908962,-129.22333,2.8457994,0.0,0.0,0.0,0.0,0.0,0.0,0.0,4.4952164,44.7742,0.20184529,
1.1015624671708797,47,-0.03186035,-0.6176758,0.7963257,0.06933594,0.033203125,-0.07324219,0.0,0.0,0.0,0.0,0.0,0.0,0.0,0.0,0.0,0.0,0.0,-0.39930952,0.035604894,0.9160277,-0.9112549,-0.099731445,-0.32183838,0.109375,0.024414062,0.08984375,5.427225,-8.266944,0.73713154,18.964615,-0.99438477,-0.05670166,-0.17315674,0.0234375,0.005859375,0.056640625,1.394093,-8.876206,-56.234818,17.04015,-0.43060303,-0.61590576,0.6582031,0.0048828125,0.053710938,-0.06542969,18.536911,-7.344275,-128.23283,16.100634,0.0,0.0,0.0,0.0,0.0,0.0,0.0,1.9085021,-127.884995,33.832283,0.0,0.0,0.0,0.0,0.0,0.0,0.0,0.39930952,-0.035604894,-0.9160277,0.9614868,-0.12786865,-0.23187256,0.09277344,0.17382812,0.0390625,5.988379,8.266944,-0.73713154,-18.964615,-0.9923096,0.00982666,-0.14416504,-0.036132812,0.0078125,0.03515625,1.0477319,7.095559,-57.619003,-15.46456,-0.296875,0.6503296,0.6716919,-0.018554688,0.022460938,0.009765625,3.4467943,7.0081353,-129.52673,-11.449687,0.0,0.0,0.0,0.0,0.0,0.0,0.0,21.03092,-129.23866,2.8073492,0.0,0.0,0.0,0.0,0.0,0.0,0.0,4.5395746,44.76579,0.23887289,
1.1249999664723878,48,-0.054992676,-0.6522217,0.78601074,0.049804688,0.032226562,-0.0546875,0.0,0.0,0.0,0.0,0.0,0.0,0.0,0.0,0.0,0.0,0.0,-0.399351,0.034906246,0.91604334,-0.91638184,-0.099609375,-0.324646,0.07128906,0.043945312,0.09082031,5.5153723,-8.267804,0.7226675,18.964937,-0.9893799,-0.046203613,-0.15216064,0.13671875,-0.01171875,0.018554688,1.2911946,-8.776874,-56.255547,17.08836,-0.44604492,-0.59399414,0.6713867,0.04296875,0.034179688,-0.028320312,18.569069,-7.163864,-128.2436,16.01129,0.0,0.0,0.0,0.0,0.0,0.0,0.0,2.083685,-127.89761,33.742416,0.0,0.0,0.0,0.0,0.0,0.0,0.0,0.399351,-0.034906246,-0.91604334,0.9685669,-0.16125488,-0.19366455,0.07421875,0.2109375,0.040039062,6.250311,8.267804,-0.7226675,-18.964937,-0.9918823,0.024963379,-0.1519165,-0.11035156,0.06542969,0.036132812,0.9437756,7.3121476,-57.603317,-15.396845,-0.3289795,0.6496582,0.68151855,9.765625E-4,0.022460938,0.009765625,3.450371,7.116456,-129.50836,-11.319662,0.0,0.0,0.0,0.0,0.0,0.0,0.0,21.139729,-129.22607,2.9359875,0.0,0.0,0.0,0.0,0.0,0.0,0.0,4.556699,44.76409,0.2807467,
1.1484374657738958,49,-0.04498291,-0.64959717,0.8000488,0.0107421875,0.03125,-0.07421875,0.0,0.0,0.0,0.0,0.0,0.0,0.0,0.0,0.0,0.0,0.0,-0.398784,0.034081392,0.91641766,-0.94140625,-0.11242676,-0.29333496,0.08984375,-0.0146484375,0.10839844,5.565706,-8.256065,0.70559067,18.972689,-0.98413086,-0.028686523,-0.16601562,0.060546875,-0.0126953125,0.056640625,1.2837468,-8.687969,-56.269905,17.09544,-0.42456055,-0.63098145,0.7050171,0.04296875,0.034179688,-0.028320312,18.615564,-6.9742866,-128.26138,15.986494,0.0,0.0,0.0,0.0,0.0,0.0,0.0,2.2679276,-127.910736,33.71978,0.0,0.0,0.0,0.0,0.0,0.0,0.0,0.398784,-0.034081392,-0.91641766,0.97943115,-0.1651001,-0.15625,0.13183594,0.09863281,0.056640625,6.5325193,8.256065,-0.70559067,-18.972689,-0.97454834,-0.028198242,-0.15014648,-0.052734375,0.06542969,0.036132812,1.1341869,7.530037,-57.580036,-15.267094,-0.28857422,0.68933105,0.6729126,-0.018554688,0.00390625,0.009765625,3.4284549,7.2447915,-129.48593,-11.293815,0.0,0.0,0.0,0.0,0.0,0.0,0.0,21.258358,-129.20067,2.9713583,0.0,0.0,0.0,0.0,0.0,0.0,0.0,4.546419,44.768913,0.3134513,
1.171874965075404,50,-0.04901123,-0.6644287,0.79992676,0.030273438,0.013671875,-0.07324219,0.0,0.0,0.0,0.0,0.0,0.0,0.0,0.0,0.0,0.0,0.0,-0.39973882,0.033097193,0.9161072,-0.8991089,-0.11126709,-0.3043213,0.08984375,0.0048828125,0.053710938,5.6272683,-8.275833,0.68521446,18.966259,-0.973999,-0.023986816,-0.1560669,0.041992188,0.0068359375,0.037109375,1.2319411,-8.597369,-56.29135,17.103535,-0.41308594,-0.60565186,0.66607666,0.041992188,0.034179688,-0.046875,18.549572,-6.8093777,-128.27838,15.998638,0.0,0.0,0.0,0.0,0.0,0.0,0.0,2.4270954,-127.92835,33.735382,0.0,0.0,0.0,0.0,0.0,0.0,0.0,0.39973882,-0.033097193,-0.9161072,0.99243164,-0.14447021,-0.18011475,0.07519531,0.080078125,0.057617188,6.7165914,8.275833,-0.68521446,-18.966259,-1.0031738,-0.011474609,-0.12261963,0.00390625,0.064453125,0.036132812,1.3196759,7.7034407,-57.557228,-15.179406,-0.3079834,0.64068604,0.67559814,0.059570312,0.00390625,0.02734375,3.4824529,7.3376026,-129.46661,-11.301225,0.0,0.0,0.0,0.0,0.0,0.0,0.0,21.342213,-129.19691,2.9743853,0.0,0.0,0.0,0.0,0.0,0.0,0.0,4.5243683,44.773697,0.35659826,
1.195312464376912,51,-0.051940918,-0.64556885,0.7959595,0.049804688,0.051757812,-0.111328125,0.0,0.0,0.0,0.0,0.0,0.0,0.0,0.0,0.0,0.0,0.0,-0.39919066,0.03277596,0.9164033,-0.8914795,-0.12701416,-0.32055664,0.07128906,-0.013671875,0.053710938,5.6884427,-8.264484,0.678564,18.97239,-0.9893799,-0.0491333,-0.14819336,0.041992188,0.0068359375,0.037109375,1.1923896,-8.503621,-56.298607,17.146551,-0.41864014,-0.5983887,0.7050171,0.00390625,0.015625,-0.028320312,18.426563,-6.6333017,-128.28629,16.008455,0.0,0.0,0.0,0.0,0.0,0.0,0.0,2.6111584,-127.937004,33.74051,0.0,0.0,0.0,0.0,0.0,0.0,0.0,0.39919066,-0.03277596,-0.9164033,0.9603882,-0.15820312,-0.16369629,0.056640625,0.080078125,0.057617188,6.867556,8.264484,-0.678564,-18.97239,-0.973938,0.015075684,-0.123413086,0.00390625,0.083984375,0.055664062,1.4194106,7.8401256,-57.5523,-15.134266,-0.2869873,0.62786865,0.6577759,0.040039062,0.00390625,0.02734375,3.5020194,7.4573135,-129.46436,-11.266142,0.0,0.0,0.0,0.0,0.0,0.0,0.0,21.4539,-129.19038,3.0157852,0.0,0.0,0.0,0.0,0.0,0.0,0.0,4.5191674,44.77603,0.3671224,
1.21874996367842,52,-0.052978516,-0.6470337,0.7781372,0.049804688,0.0703125,-0.07421875,0.0,0.0,0.0,0.0,0.0,0.0,0.0,0.0,0.0,0.0,0.0,-0.40016267,0.032186627,0.9159811,-0.9008789,-0.070129395,-0.33081055,0.07128906,0.0048828125,0.10839844,5.6539183,-8.284607,0.66636294,18.96365,-0.97595215,-0.03253174,-0.18103027,0.080078125,0.044921875,0.037109375,1.1740321,-8.496191,-56.315907,17.219894,-0.41241455,-0.62927246,0.7019043,0.022460938,0.015625,-0.028320312,18.494928,-6.570247,-128.29794,16.048258,0.0,0.0,0.0,0.0,0.0,0.0,0.0,2.6785998,-127.94687,33.779533,0.0,0.0,0.0,0.0,0.0,0.0,0.0,0.40016267,-0.032186627,-0.9159811,1.005127,-0.13061523,-0.14453125,0.07519531,0.09863281,0.076171875,7.01403,8.284607,-0.66636294,-18.96365,-0.982666,-0.006958008,-0.11175537,-0.034179688,0.083984375,0.055664062,1.5691017,8.044591,-57.540768,-15.10279,-0.3250122,0.65374756,0.65893555,0.05859375,0.022460938,0.0087890625,3.4601173,7.5575266,-129.45645,-11.270613,0.0,0.0,0.0,0.0,0.0,0.0,0.0,21.556686,-129.18124,3.00984,0.0,0.0,0.0,0.0,0.0,0.0,0.0,4.48987,44.778008,0.3880266,
1.242187462979928,53,-0.0491333,-0.6812744,0.7701416,0.049804688,0.051757812,-0.07324219,0.0,0.0,0.0,0.0,0.0,0.0,0.0,0.0,0.0,0.0,0.0,-0.40040472,0.031676345,0.9157086,-0.87353516,-0.11798096,-0.35076904,-0.0048828125,0.06347656,0.091796875,5.602766,-8.2896185,0.6557986,18.958006,-0.9830322,-0.022766113,-0.1798706,0.041992188,0.044921875,0.056640625,1.1071216,-8.464598,-56.33019,17.267094,-0.41088867,-0.6021118,0.68304443,0.022460938,0.015625,-0.045898438,18.520952,-6.5667734,-128.31085,16.113586,0.0,0.0,0.0,0.0,0.0,0.0,0.0,2.6882105,-127.9553,33.84235,0.0,0.0,0.0,0.0,0.0,0.0,0.0,0.40040472,-0.031676345,-0.9157086,1.0056763,-0.17803955,-0.17681885,0.056640625,0.09863281,0.07714844,7.206826,8.2896185,-0.6557986,-18.958006,-0.99298096,-0.0059814453,-0.1048584,-0.0146484375,0.083984375,0.07421875,1.8566728,8.237748,-57.5166,-14.92926,-0.32983398,0.6810913,0.66693115,0.078125,0.022460938,0.0087890625,3.3608022,7.633278,-129.42947,-11.099136,0.0,0.0,0.0,0.0,0.0,0.0,0.0,21.634274,-129.1372,3.1788483,0.0,0.0,0.0,0.0,0.0,0.0,0.0,4.4285603,44.776478,0.38752604,
1.2656249622814362,54,-0.053100586,-0.6799927,0.789917,0.030273438,0.051757812,-0.11230469,0.0,0.0,0.0,0.0,0.0,0.0,0.0,0.0,0.0,0.0,0.0,-0.40147758,0.031196965,0.9152899,-0.9038086,-0.11828613,-0.3470459,0.052734375,0.08203125,0.109375,5.4562864,-8.31183,0.64587396,18.949337,-0.98913574,-0.03527832,-0.1899414,0.00390625,0.06347656,0.07519531,1.0857046,-8.54098,-56.336235,17.294197,-0.4216919,-0.59814453,0.6980591,0.022460938,-0.00390625,-0.02734375,18.508024,-6.7186832,-128.32504,16.09853,0.0,0.0,0.0,0.0,0.0,0.0,0.0,2.5447178,-127.97345,33.826183,0.0,0.0,0.0,0.0,0.0,0.0,0.0,0.40147758,-0.031196965,-0.9152899,0.98028564,-0.14831543,-0.15216064,0.07519531,0.1171875,0.11425781,7.3698516,8.31183,-0.64587396,-18.949337,-0.9640503,-0.0020751953,-0.1204834,0.0048828125,0.12207031,0.09375,2.1347837,8.410544,-57.491997,-14.740494,-0.29681396,0.65722656,0.66778564,0.07714844,0.041992188,0.02734375,3.298831,7.695326,-129.4029,-10.901796,0.0,0.0,0.0,0.0,0.0,0.0,0.0,21.68588,-129.09183,3.3846989,0.0,0.0,0.0,0.0,0.0,0.0,0.0,4.359873,44.784664,0.38593817,
1.2890624615829442,55,-0.06109619,-0.673645,0.7739868,0.049804688,0.0703125,-0.11230469,0.0,0.0,0.0,0.0,0.0,0.0,0.0,0.0,0.0,0.0,0.0,-0.40090543,0.031204889,0.91551304,-0.92578125,-0.13128662,-0.3147583,0.052734375,0.024414062,0.109375,5.388234,-8.299985,0.64603794,18.953957,-0.9831543,-0.038391113,-0.16607666,0.022460938,0.06347656,0.07519531,1.0882249,-8.518815,-56.340042,17.33079,-0.44152832,-0.5878906,0.70422363,0.0029296875,-0.0029296875,-0.02734375,18.45885,-6.6678853,-128.31946,16.096601,0.0,0.0,0.0,0.0,0.0,0.0,0.0,2.6030097,-127.964554,33.81906,0.0,0.0,0.0,0.0,0.0,0.0,0.0,0.40090543,-0.031204889,-0.91551304,0.9644165,-0.16113281,-0.15789795,0.09375,0.13574219,0.11328125,7.584342,8.299985,-0.64603794,-18.953957,-0.9710083,-0.0024414062,-0.14416504,0.0048828125,0.12207031,0.09375,2.5119352,8.5972805,-57.47285,-14.513794,-0.28686523,0.6435547,0.6549072,0.059570312,0.00390625,0.045898438,3.2126613,7.707911,-129.38152,-10.656187,0.0,0.0,0.0,0.0,0.0,0.0,0.0,21.710224,-129.06659,3.6205597,0.0,0.0,0.0,0.0,0.0,0.0,0.0,4.295751,44.789997,0.35447097,
1.3124999608844523,56,-0.045043945,-0.6633301,0.79803467,0.087890625,0.015625,-0.11035156,0.0,0.0,0.0,0.0,0.0,0.0,0.0,0.0,0.0,0.0,0.0,-0.40065497,0.031429395,0.91570246,-0.923584,-0.12451172,-0.30682373,0.08984375,-0.0146484375,0.08984375,5.4158754,-8.294799,0.65068585,18.957878,-0.9892578,-0.027709961,-0.1539917,0.0234375,0.08203125,0.055664062,0.9970111,-8.442425,-56.33349,17.402536,-0.41125488,-0.61383057,0.67401123,0.041992188,0.015625,-0.028320312,18.359915,-6.6072264,-128.314,16.142782,0.0,0.0,0.0,0.0,0.0,0.0,0.0,2.6715899,-127.95899,33.86363,0.0,0.0,0.0,0.0,0.0,0.0,0.0,0.40065497,-0.031429395,-0.91570246,0.9663696,-0.14050293,-0.18151855,0.057617188,0.061523438,0.11425781,7.696206,8.294799,-0.65068585,-18.957878,-0.9567261,0.0020751953,-0.13226318,0.0048828125,0.12207031,0.11230469,2.7586086,8.699959,-57.47118,-14.400717,-0.27069092,0.65283203,0.68548584,0.0390625,0.022460938,0.02734375,3.3380644,7.553049,-129.36891,-10.466601,0.0,0.0,0.0,0.0,0.0,0.0,0.0,21.539423,-129.04478,3.8251429,0.0,0.0,0.0,0.0,0.0,0.0,0.0,4.2685285,44.7964,0.33011103,
1.3359374601859604,57,-0.0690918,-0.6798096,0.7788086,0.107421875,0.016601562,-0.11035156,0.0,0.0,0.0,0.0,0.0,0.0,0.0,0.0,0.0,0.0,0.0,-0.4001505,0.032077193,0.91582686,-0.9190674,-0.09698486,-0.30169678,0.0146484375,0.024414062,0.109375,5.5197053,-8.284356,0.6640974,18.960457,-0.9710083,-0.02319336,-0.13513184,-0.034179688,0.12011719,0.07519531,0.88115597,-8.374469,-56.326496,17.538857,-0.40319824,-0.61828613,0.6889038,0.080078125,-0.00390625,-0.0087890625,18.20923,-6.6134076,-128.31242,16.319805,0.0,0.0,0.0,0.0,0.0,0.0,0.0,2.6688132,-127.94752,34.03888,0.0,0.0,0.0,0.0,0.0,0.0,0.0,0.4001505,-0.032077193,-0.91582686,0.951355,-0.15820312,-0.16052246,-0.0546875,0.024414062,0.115234375,7.853355,8.284356,-0.6640974,-18.960457,-0.9763794,0.031799316,-0.15679932,-0.052734375,0.12207031,0.11230469,2.9676828,8.703419,-57.473454,-14.252503,-0.30682373,0.6642456,0.6609497,0.041015625,-0.015625,0.045898438,3.3903246,7.250394,-129.35698,-10.17922,0.0,0.0,0.0,0.0,0.0,0.0,0.0,21.234558,-129.03429,4.1147223,0.0,0.0,0.0,0.0,0.0,0.0,0.0,4.325161,44.787987,0.3210677,
1.3593749594874684,58,-0.05303955,-0.65789795,0.77911377,0.107421875,-0.001953125,-0.09082031,0.0,0.0,0.0,0.0,0.0,0.0,0.0,0.0,0.0,0.0,0.0,-0.40063584,0.032608904,0.91557026,-0.9157715,-0.08935547,-0.2878418,-0.080078125,0.043945312,0.14746094,5.657384,-8.294405,0.67510563,18.955143,-0.9567871,-0.016540527,-0.13317871,-0.052734375,0.15820312,0.07519531,0.79376894,-8.296865,-56.320034,17.750547,-0.4241333,-0.6012573,0.6591797,0.13769531,-0.0048828125,0.009765625,18.05395,-6.583145,-128.3072,16.563576,0.0,0.0,0.0,0.0,0.0,0.0,0.0,2.707302,-127.92936,34.27682,0.0,0.0,0.0,0.0,0.0,0.0,0.0,0.40063584,-0.032608904,-0.91557026,0.9844971,-0.1798706,-0.14459229,-0.12890625,-0.013671875,0.15429688,7.9784584,8.294405,-0.67510563,-18.955143,-0.9515991,-0.005554199,-0.14996338,-0.033203125,0.103515625,0.09277344,3.120168,8.66188,-57.472,-14.108993,-0.3139038,0.6624756,0.6550293,0.059570312,0.00390625,0.045898438,3.4831274,6.941726,-129.34659,-9.926307,0.0,0.0,0.0,0.0,0.0,0.0,0.0,20.927406,-129.00938,4.364354,0.0,0.0,0.0,0.0,0.0,0.0,0.0,4.3943567,44.780136,0.3279984,
1.3828124587889765,59,-0.049072266,-0.66760254,0.74346924,0.12695312,-0.0390625,-0.109375,0.0,0.0,0.0,0.0,0.0,0.0,0.0,0.0,0.0,0.0,0.0,-0.40264514,0.032569386,0.91465664,-0.9381714,-0.11785889,-0.2715454,-0.080078125,-0.032226562,0.0546875,5.8089333,-8.336003,0.6742872,18.93623,-0.9923096,-0.012268066,-0.1359253,-0.09082031,0.17675781,0.07519531,0.5706123,-8.203324,-56.322216,17.798002,-0.4356079,-0.6296387,0.70111084,0.080078125,-0.0048828125,0.02734375,17.76739,-6.629432,-128.31483,16.685637,0.0,0.0,0.0,0.0,0.0,0.0,0.0,2.6784682,-127.92065,34.39047,0.0,0.0,0.0,0.0,0.0,0.0,0.0,0.40264514,-0.032569386,-0.91465664,0.97473145,-0.20843506,-0.14471436,-0.053710938,-0.087890625,0.095703125,8.099824,8.336003,-0.6742872,-18.93623,-0.982605,0.03729248,-0.13018799,-0.052734375,0.103515625,0.09277344,3.253294,8.6180725,-57.44689,-13.877911,-0.30493164,0.6525879,0.6539917,0.040039062,0.00390625,0.02734375,3.5153005,6.6837397,-129.30841,-9.557013,0.0,0.0,0.0,0.0,0.0,0.0,0.0,20.666351,-128.97487,4.7362947,0.0,0.0,0.0,0.0,0.0,0.0,0.0,4.4172087,44.776352,0.35010898,
1.4062499580904846,60,-0.031921387,-0.6281738,0.7844238,0.049804688,0.0146484375,-0.091796875,0.0,0.0,0.0,0.0,0.0,0.0,0.0,0.0,0.0,0.0,0.0,-0.40278822,0.03313925,0.9146185,-0.93463135,-0.11968994,-0.23388672,-0.0234375,-0.051757812,0.03515625,5.9503193,-8.338965,0.6860851,18.935436,-0.98431396,-0.016418457,-0.10809326,-0.12792969,0.25195312,0.055664062,0.3214254,-8.013329,-56.312565,17.86397,-0.44036865,-0.61743164,0.69421387,0.13671875,-0.0048828125,-0.0087890625,17.313915,-6.612439,-128.30539,16.827034,0.0,0.0,0.0,0.0,0.0,0.0,0.0,2.7054358,-127.891106,34.526012,0.0,0.0,0.0,0.0,0.0,0.0,0.0,0.40278822,-0.03313925,-0.9146185,0.97680664,-0.19281006,-0.18823242,-0.03515625,-0.087890625,0.11425781,8.058637,8.338965,-0.6860851,-18.935436,-0.9893799,0.043029785,-0.16070557,-0.18359375,0.14355469,0.055664062,3.3596952,8.482702,-57.44862,-13.6832075,-0.30389404,0.65338135,0.6668091,0.0390625,0.022460938,0.064453125,3.4288547,6.2543125,-129.2907,-9.186298,0.0,0.0,0.0,0.0,0.0,0.0,0.0,20.240032,-128.95851,5.106472,0.0,0.0,0.0,0.0,0.0,0.0,0.0,4.37799,44.782402,0.30542576,
1.4296874573919927,61,-9.1552734E-4,-0.6431885,0.8015747,0.068359375,0.07128906,-0.13085938,0.0,0.0,0.0,0.0,0.0,0.0,0.0,0.0,0.0,0.0,0.0,-0.40167722,0.035211675,0.91504395,-0.9584961,-0.08929443,-0.23699951,-0.0048828125,-0.14941406,0.07128906,6.1688848,-8.315962,0.7289907,18.944246,-0.98132324,0.0036621094,-0.061157227,-0.16601562,0.328125,0.0546875,0.4010509,-7.7250404,-56.268986,17.998089,-0.41271973,-0.59814453,0.68603516,0.17675781,-0.005859375,0.08300781,16.689466,-6.532011,-128.2647,17.058546,0.0,0.0,0.0,0.0,0.0,0.0,0.0,2.7985725,-127.83187,34.749443,0.0,0.0,0.0,0.0,0.0,0.0,0.0,0.40167722,-0.035211675,-0.91504395,0.9595337,-0.19561768,-0.14025879,-0.0146484375,-0.18164062,0.11328125,7.956949,8.315962,-0.7289907,-18.944246,-0.95355225,0.0061035156,-0.13421631,-0.26171875,0.0859375,0.09277344,3.4398005,8.346963,-57.476192,-13.5149765,-0.30090332,0.65356445,0.65008545,0.040039062,0.0029296875,0.064453125,3.1685443,5.923457,-129.30443,-8.885698,0.0,0.0,0.0,0.0,0.0,0.0,0.0,19.892788,-128.96574,5.4211216,0.0,0.0,0.0,0.0,0.0,0.0,0.0,4.338661,44.787502,0.18108237,
1.4531249566935007,62,0.010986328,-0.66534424,0.7878418,0.12695312,0.0546875,-0.1484375,0.0,0.0,0.0,0.0,0.0,0.0,0.0,0.0,0.0,0.0,0.0,-0.40083125,0.03884857,0.9151481,-0.95739746,-0.08886719,-0.15454102,0.08984375,-0.28515625,0.087890625,6.8076916,-8.298449,0.80428576,18.946402,-0.9946289,0.008483887,-0.028137207,-0.18457031,0.46191406,0.03515625,1.1396946,-7.1512175,-56.186855,18.315693,-0.43115234,-0.58258057,0.72314453,0.15820312,0.033203125,0.064453125,15.87633,-6.216089,-128.1918,17.50942,0.0,0.0,0.0,0.0,0.0,0.0,0.0,3.149363,-127.73539,35.181152,0.0,0.0,0.0,0.0,0.0,0.0,0.0,0.40083125,-0.03884857,-0.9151481,0.9668579,-0.20855713,-0.17626953,-0.12695312,-0.21875,0.09667969,7.6954923,8.298449,-0.80428576,-18.946402,-0.97351074,0.011230469,-0.17553711,-0.35546875,0.125,0.13085938,3.3743482,8.056309,-57.545723,-13.517541,-0.30187988,0.65960693,0.63531494,9.765625E-4,0.00390625,0.046875,2.9303105,5.3092184,-129.35806,-8.791146,0.0,0.0,0.0,0.0,0.0,0.0,0.0,19.266615,-129.01779,5.5273705,0.0,0.0,0.0,0.0,0.0,0.0,0.0,4.413001,44.775642,0.032125235,
1.4765624559950088,63,0.046142578,-0.6352539,0.7546387,0.06933594,0.03515625,-0.16796875,0.0,0.0,0.0,0.0,0.0,0.0,0.0,0.0,0.0,0.0,0.0,-0.39881787,0.04369337,0.9156833,-1.0223999,-0.08514404,-0.10809326,0.18359375,-0.4013672,0.123046875,7.686484,-8.256765,0.9045884,18.957485,-1.005249,0.008728027,0.10241699,-0.18457031,0.6142578,0.03515625,2.2376466,-6.296509,-56.06635,18.735723,-0.41125488,-0.5940552,0.72595215,0.19628906,0.0126953125,0.1015625,14.93961,-5.69674,-128.07217,18.108818,0.0,0.0,0.0,0.0,0.0,0.0,0.0,3.6773214,-127.60295,35.771408,0.0,0.0,0.0,0.0,0.0,0.0,0.0,0.39881787,-0.04369337,-0.9156833,0.98413086,-0.12860107,-0.14807129,-0.12695312,-0.29296875,0.040039062,7.2325335,8.256765,-0.9045884,-18.957485,-0.9503174,-0.052978516,-0.17285156,-0.375,0.10644531,0.13085938,3.174162,7.70818,-57.656345,-13.663411,-0.29278564,0.6491089,0.6913452,0.060546875,-0.015625,0.08300781,2.539832,4.660084,-129.44409,-8.825292,0.0,0.0,0.0,0.0,0.0,0.0,0.0,18.607327,-129.10036,5.5040884,0.0,0.0,0.0,0.0,0.0,0.0,0.0,4.4695454,44.76444,-0.18933952,
1.4999999552965169,64,0.003112793,-0.63275146,0.7531128,-0.0859375,0.01171875,-0.15136719,0.0,0.0,0.0,0.0,0.0,0.0,0.0,0.0,0.0,0.0,0.0,-0.3972827,0.0469286,0.9162616,-1.0264282,-0.08148193,-0.03338623,0.33496094,-0.6533203,0.12011719,8.803169,-8.224985,0.97156745,18.969458,-0.9819336,0.022888184,0.123291016,-0.18359375,0.8623047,-0.0048828125,3.8500547,-5.0624733,-55.949013,19.3077,-0.39074707,-0.6152954,0.7177124,0.21972656,0.12695312,0.15527344,13.8675375,-4.906983,-127.95584,18.85407,0.0,0.0,0.0,0.0,0.0,0.0,0.0,4.4607253,-127.48824,36.52281,0.0,0.0,0.0,0.0,0.0,0.0,0.0,0.3972827,-0.0469286,-0.9162616,0.9647217,-0.1338501,-0.25579834,-0.2763672,-0.29296875,0.080078125,6.530748,8.224985,-0.97156745,-18.969458,-0.9605713,-0.0012207031,-0.1618042,-0.11035156,0.103515625,0.13085938,2.7921107,7.259128,-57.741882,-13.920322,-0.3168335,0.66711426,0.67767334,0.15625,-0.015625,0.08203125,2.3553445,4.003734,-129.51685,-9.025848,0.0,0.0,0.0,0.0,0.0,0.0,0.0,17.935844,-129.1249,5.316579,0.0,0.0,0.0,0.0,0.0,0.0,0.0,4.40738,44.77232,-0.38212484,
1.523437454598025,65,-0.0099487305,-0.6444092,0.77471924,-0.028320312,0.0126953125,-0.11230469,0.0,0.0,0.0,0.0,0.0,0.0,0.0,0.0,0.0,0.0,0.0,-0.39602995,0.047591187,0.91699994,-1.0533447,-0.06866455,0.055908203,0.5986328,-1.0214844,0.17089844,10.512436,-8.199047,0.98528504,18.984741,-1.0040894,0.06866455,0.14874268,-0.24023438,1.109375,-0.024414062,6.3095365,-3.2510972,-55.795887,20.050734,-0.40679932,-0.64105225,0.6889038,0.31640625,0.14453125,0.22949219,12.788717,-3.855524,-127.79997,19.816046,0.0,0.0,0.0,0.0,0.0,0.0,0.0,5.4919395,-127.378685,37.495487,0.0,0.0,0.0,0.0,0.0,0.0,0.0,0.39602995,-0.047591187,-0.91699994,0.95288086,-0.1977539,-0.20367432,-0.3515625,-0.31152344,0.043945312,5.957365,8.199047,-0.98528504,-18.984741,-0.9769287,0.05291748,-0.1616211,0.1171875,0.08203125,0.11230469,2.3850727,6.8318315,-57.759308,-14.150297,-0.26757812,0.673645,0.65411377,0.17871094,-0.09277344,0.0625,2.514661,3.3857417,-129.51932,-9.09841,0.0,0.0,0.0,0.0,0.0,0.0,0.0,17.325722,-129.04794,5.232382,0.0,0.0,0.0,0.0,0.0,0.0,0.0,4.3298564,44.788754,-0.4545226,
1.546874953899533,66,0.0031738281,-0.6168213,0.8126221,-0.028320312,0.06640625,9.765625E-4,0.0,0.0,0.0,0.0,0.0,0.0,0.0,0.0,0.0,0.0,0.0,-0.39506474,0.04787126,0.9173461,-1.0466919,-0.056518555,0.08862305,0.9013672,-1.4296875,0.21972656,12.931278,-8.179066,0.9910836,18.991909,-1.057312,0.11651611,0.052856445,-0.37304688,1.3945312,-0.025390625,9.792135,-0.9334688,-55.51665,20.993954,-0.43951416,-0.6654663,0.710083,0.3232422,0.27734375,0.37597656,11.7495365,-2.881194,-127.49779,20.942356,0.0,0.0,0.0,0.0,0.0,0.0,0.0,6.4467278,-127.17628,38.63463,0.0,0.0,0.0,0.0,0.0,0.0,0.0,0.39506474,-0.04787126,-0.9173461,0.9696045,-0.293396,-0.19012451,-0.3515625,-0.31152344,0.043945312,5.628139,8.179066,-0.9910836,-18.991909,-0.98480225,0.078430176,-0.13787842,0.15625,0.12011719,0.11230469,1.9974319,6.3420033,-57.75995,-14.184168,-0.3027954,0.6732178,0.6412964,0.09863281,-0.03515625,0.026367188,2.768737,2.6944737,-129.4863,-8.875286,0.0,0.0,0.0,0.0,0.0,0.0,0.0,16.642744,-128.96149,5.448044,0.0,0.0,0.0,0.0,0.0,0.0,0.0,4.351392,44.78428,-0.46307325,
1.570312453201041,67,-0.016967773,-0.6569824,0.7944336,-0.08691406,0.1015625,0.018554688,0.0,0.0,0.0,0.0,0.0,0.0,0.0,0.0,0.0,0.0,0.0,-0.394348,0.04597304,0.91790104,-1.1517944,-6.1035156E-5,0.175354,0.9199219,-1.7392578,0.328125,15.293581,-8.164227,0.95178455,19.003399,-1.1879272,0.1204834,-0.033996582,-0.5048828,1.640625,-0.06542969,14.1295805,1.3407354,-55.189205,21.855045,-0.46850586,-0.6403198,0.7761841,0.2998047,0.6191406,0.70410156,11.076934,-2.9629521,-127.076614,21.425085,0.0,0.0,0.0,0.0,0.0,0.0,0.0,6.3560195,-127.02162,39.120914,0.0,0.0,0.0,0.0,0.0,0.0,0.0,0.394348,-0.04597304,-0.91790104,0.92926025,-0.26470947,-0.17608643,-0.1640625,-0.29296875,0.021484375,5.4678035,8.164227,-0.95178455,-19.003399,-0.953125,0.079711914,-0.12597656,0.080078125,0.12109375,0.13085938,1.672808,5.859789,-57.6938,-14.090325,-0.2975464,0.7123413,0.633667,0.09863281,-0.03515625,0.026367188,2.8724897,1.9728932,-129.38211,-8.435779,0.0,0.0,0.0,0.0,0.0,0.0,0.0,15.927732,-128.80597,5.8788767,0.0,0.0,0.0,0.0,0.0,0.0,0.0,4.318473,44.79438,-0.3882259,
1.5937499525025491,68,0.0061035156,-0.63360596,0.78186035,-0.10546875,0.13671875,0.09375,0.0,0.0,0.0,0.0,0.0,0.0,0.0,0.0,0.0,0.0,0.0,-0.3932468,0.04335086,0.9185974,-1.3174438,0.001159668,0.16772461,0.8623047,-1.9521484,0.43847656,17.737698,-8.141427,0.89749724,19.017815,-1.1879272,0.1204834,-0.033996582,-0.5048828,1.640625,-0.06542969,16.713018,3.7250586,-54.739117,22.757996,-0.4925537,-0.7519531,0.7821655,-0.045898438,1.0585938,0.9951172,10.814978,-0.578629,-126.626526,22.328035,0.0,0.0,0.0,0.0,0.0,0.0,0.0,8.706814,-127.10155,40.03817,0.0,0.0,0.0,0.0,0.0,0.0,0.0,0.3932468,-0.04335086,-0.9185974,0.9366455,-0.30419922,-0.19451904,-0.013671875,-0.29296875,0.038085938,5.4048285,8.141427,-0.89749724,-19.017815,-0.9717407,0.12188721,-0.12487793,0.04296875,0.12207031,0.09375,1.3992771,5.419051,-57.60388,-13.943777,-0.2805786,0.692688,0.6276245,0.001953125,-0.015625,-0.009765625,2.9171875,1.34375,-129.26016,-7.960595,0.0,0.0,0.0,0.0,0.0,0.0,0.0,15.296104,-128.65398,6.353713,0.0,0.0,0.0,0.0,0.0,0.0,0.0,4.2262454,44.807823,-0.3053574,
1.6171874518040572,69,-0.029174805,-0.7092285,0.8189087,-0.1640625,0.043945312,0.018554688,0.0,0.0,0.0,0.0,0.0,0.0,0.0,0.0,0.0,0.0,0.0,-0.3946957,0.04059445,0.9179591,-1.3502197,-0.0048217773,0.37127686,0.9189453,-2.2421875,0.5097656,20.429895,-8.171425,0.84043103,19.004599,-1.1843872,0.07989502,-0.22564697,-0.671875,1.9824219,-0.296875,24.60268,6.360755,-54.08298,23.754347,-0.4699707,-0.8433838,0.76086426,0.09277344,1.5878906,1.5986328,9.606704,-3.7543144,-125.33945,21.223835,0.0,0.0,0.0,0.0,0.0,0.0,0.0,5.4368477,-126.6551,38.938614,0.0,0.0,0.0,0.0,0.0,0.0,0.0,0.3946957,-0.04059445,-0.9179591,0.956604,-0.27868652,-0.2164917,0.09863281,-0.29296875,0.036132812,5.377458,8.171425,-0.84043103,-19.004599,-0.9484863,0.059570312,-0.12017822,0.043945312,0.16015625,0.09375,1.2797774,5.063387,-57.51029,-13.731518,-0.2677002,0.65582275,0.6717529,-0.016601562,-0.03515625,0.0087890625,2.970386,0.7042961,-129.12492,-7.4972963,0.0,0.0,0.0,0.0,0.0,0.0,0.0,14.649932,-128.51202,6.8238173,0.0,0.0,0.0,0.0,0.0,0.0,0.0,4.032572,44.820103,-0.24816889,
1.6406249511055653,70,0.03881836,-0.7127075,0.7652588,0.0107421875,-0.043945312,0.0029296875,0.0,0.0,0.0,0.0,0.0,0.0,0.0,0.0,0.0,0.0,0.0,-0.39839625,0.04049156,0.9162449,-1.1377563,-0.019470215,0.18774414,0.65527344,-1.6035156,0.4794922,23.258915,-8.248036,0.8383007,18.969109,-1.0664062,-0.13372803,-0.30187988,-0.765625,1.9248047,-0.39257812,30.258831,9.007541,-53.183937,24.782434,-0.5305176,-0.64367676,0.95928955,0.19628906,1.640625,2.0966797,8.713681,-4.041774,-123.90594,20.926937,0.0,0.0,0.0,0.0,0.0,0.0,0.0,4.9102545,-126.29273,38.6559,0.0,0.0,0.0,0.0,0.0,0.0,0.0,0.39839625,-0.04049156,-0.9162449,0.9556885,-0.17211914,-0.20343018,0.060546875,-0.31152344,0.017578125,5.0639563,8.248036,-0.8383007,-18.969109,-0.96295166,0.03277588,-0.16265869,0.1015625,0.16015625,0.037109375,1.1569061,4.801586,-57.497253,-13.771709,-0.32177734,0.6710205,0.68756104,0.001953125,-0.015625,-0.028320312,3.0915518,0.19433022,-129.09566,-7.5904016,0.0,0.0,0.0,0.0,0.0,0.0,0.0,14.132329,-128.47298,6.7379255,0.0,0.0,0.0,0.0,0.0,0.0,0.0,3.8701346,44.8292,-0.2983449,
1.6640624504070733,71,0.048706055,-0.7404175,0.7078247,0.107421875,-0.00390625,-0.0146484375,0.0,0.0,0.0,0.0,0.0,0.0,0.0,0.0,0.0,0.0,0.0,-0.40465084,0.041620918,0.913178,-1.1211548,0.028869629,-0.45544434,0.8623047,-1.9316406,0.328125,25.61405,-8.377528,0.861682,18.905615,-0.9760742,0.07366943,-0.53167725,-0.4248047,1.8330078,-0.4296875,35.25317,11.130948,-52.290493,25.568615,-0.27416992,-0.7713623,1.7428589,-0.3251953,0.3876953,1.7236328,8.277778,-4.502137,-122.37512,20.088182,0.0,0.0,0.0,0.0,0.0,0.0,0.0,4.0722,-125.613434,37.871277,0.0,0.0,0.0,0.0,0.0,0.0,0.0,0.40465084,-0.041620918,-0.913178,0.9284668,-0.12976074,-0.2341919,-0.12695312,-0.31152344,0.0029296875,4.5978937,8.377528,-0.861682,-18.905615,-0.9557495,0.023254395,-0.18823242,0.17675781,0.17773438,0.09472656,0.99543977,4.605337,-57.527786,-13.940436,-0.2758789,0.6415405,0.6499634,0.0029296875,-0.053710938,-0.028320312,3.3533373,-0.27336884,-129.11961,-7.9048276,0.0,0.0,0.0,0.0,0.0,0.0,0.0,13.657956,-128.49554,6.4303575,0.0,0.0,0.0,0.0,0.0,0.0,0.0,3.7301123,44.82918,-0.39032733,
1.6874999497085814,72,0.095703125,-0.7598877,0.7470093,-0.0087890625,0.12402344,-0.056640625,0.0,0.0,0.0,0.0,0.0,0.0,0.0,0.0,0.0,0.0,0.0,-0.41128612,0.04326008,0.91001993,-0.9102173,0.09802246,-0.4553833,0.19921875,-1.7509766,-0.08886719,27.37852,-8.514897,0.89561784,18.840235,-0.96832275,0.03643799,-0.4932251,-0.19921875,0.9013672,-0.2919922,39.041008,12.85975,-51.460434,25.809313,0.8564453,-0.7525635,0.618103,0.0546875,0.81347656,0.5175781,7.965013,-4.6304235,-121.006996,19.189528,0.0,0.0,0.0,0.0,0.0,0.0,0.0,3.8197088,-124.56445,36.970825,0.0,0.0,0.0,0.0,0.0,0.0,0.0,0.41128612,-0.04326008,-0.91001993,0.9607544,-0.15447998,-0.24304199,-0.29492188,-0.33007812,0.0234375,3.9657571,8.514897,-0.89561784,-18.840235,-0.9744873,0.051818848,-0.20684814,0.34765625,0.17675781,0.056640625,0.7430948,4.377892,-57.553326,-14.234108,-0.2805786,0.6906128,0.6345215,0.020507812,-0.015625,-0.009765625,3.8281221,-0.7797785,-129.14455,-8.389278,0.0,0.0,0.0,0.0,0.0,0.0,0.0,13.143098,-128.51826,5.953638,0.0,0.0,0.0,0.0,0.0,0.0,0.0,3.5298204,44.839264,-0.5362348,
1.7109374490100895,73,0.05444336,-0.81707764,0.7909546,0.16601562,0.09375,-0.18652344,0.0,0.0,0.0,0.0,0.0,0.0,0.0,0.0,0.0,0.0,0.0,-0.40999293,0.04462578,0.9107084,-0.8890991,0.0041503906,-0.12768555,-0.40527344,-1.5361328,0.06640625,28.980902,-8.488124,0.923892,18.854488,-0.9390869,0.024169922,-0.45166016,0.10449219,-0.08691406,-0.4609375,41.171368,14.372466,-50.779083,26.211456,0.74694824,-0.87683105,0.8063965,-0.31445312,0.42285156,-0.4765625,7.1675467,-3.4511805,-120.1671,18.874296,0.0,0.0,0.0,0.0,0.0,0.0,0.0,5.13245,-123.93125,36.54438,0.0,0.0,0.0,0.0,0.0,0.0,0.0,0.40999293,-0.04462578,-0.9107084,0.92041016,-0.234375,-0.2559204,-0.44433594,-0.3486328,0.044921875,3.656395,8.488124,-0.923892,-18.854488,-0.94525146,0.09075928,-0.17901611,0.23339844,0.15820312,0.056640625,0.43114716,3.8636336,-57.56671,-14.435017,-0.2828369,0.6553345,0.6470947,0.041992188,-0.07324219,-0.0107421875,4.3502364,-1.6102276,-129.13931,-8.568687,0.0,0.0,0.0,0.0,0.0,0.0,0.0,12.318709,-128.50055,5.768688,0.0,0.0,0.0,0.0,0.0,0.0,0.0,3.4922395,44.848087,-0.62543315,
1.7343749483115976,74,0.050720215,-0.73706055,0.6959839,0.28222656,0.041992188,-0.24121094,0.0,0.0,0.0,0.0,0.0,0.0,0.0,0.0,0.0,0.0,0.0,-0.41031197,0.049981296,0.91025937,-0.89575195,-0.18621826,-0.119140625,-0.5,-1.4589844,0.14160156,30.314764,-8.494731,1.0347676,18.84519,-0.85809326,0.005493164,-0.4074707,0.3125,-1.0771484,-0.51464844,41.45528,15.533164,-50.1191,26.201078,0.66259766,-0.8864746,0.9866333,-0.62402344,-0.14453125,-0.9316406,6.830414,-0.88601017,-119.80051,18.365017,0.0,0.0,0.0,0.0,0.0,0.0,0.0,7.853098,-123.49673,35.974205,0.0,0.0,0.0,0.0,0.0,0.0,0.0,0.41031197,-0.049981296,-0.91025937,0.949646,-0.29241943,-0.20855713,-0.46289062,-0.3857422,0.0078125,3.3559053,8.494731,-1.0347676,-18.84519,-0.95098877,0.074157715,-0.14569092,0.34765625,0.17675781,0.056640625,0.2654082,3.3466454,-57.63162,-14.500523,-0.28967285,0.68170166,0.6571045,0.0625,-0.091796875,0.0078125,4.851836,-2.370789,-129.18227,-8.640123,0.0,0.0,0.0,0.0,0.0,0.0,0.0,11.561367,-128.51115,5.692791,0.0,0.0,0.0,0.0,0.0,0.0,0.0,3.593449,44.835434,-0.8420648,
1.7578124476131056,75,0.008850098,-0.6873169,0.7005005,0.33984375,0.15625,-0.27929688,0.0,0.0,0.0,0.0,0.0,0.0,0.0,0.0,0.0,0.0,0.0,-0.41257894,0.055814438,0.9089109,-0.8133545,-0.2565918,-0.07019043,-0.32910156,-1.2470703,0.0126953125,31.957136,-8.541664,1.1555318,18.817274,-0.83288574,-0.049072266,-0.43395996,0.21484375,-1.9941406,-0.24316406,40.899406,16.850431,-49.298676,26.51538,0.43066406,-0.8145752,1.1054077,-0.6513672,-0.828125,-1.3671875,6.759146,3.0830803,-119.5873,18.99511,0.0,0.0,0.0,0.0,0.0,0.0,0.0,11.976479,-122.8855,36.60513,0.0,0.0,0.0,0.0,0.0,0.0,0.0,0.41257894,-0.055814438,-0.9089109,0.96435547,-0.2902832,-0.1453247,-0.34960938,-0.4609375,-0.032226562,3.1311913,8.541664,-1.1555318,-18.817274,-0.95196533,0.10656738,-0.076660156,0.34960938,0.21484375,0.01953125,0.50706285,2.9143739,-57.713497,-14.496811,-0.2614746,0.68218994,0.6689453,0.04296875,-0.111328125,-0.047851562,5.210903,-2.927742,-129.25548,-8.66518,0.0,0.0,0.0,0.0,0.0,0.0,0.0,11.007705,-128.53352,5.6620617,0.0,0.0,0.0,0.0,0.0,0.0,0.0,3.697204,44.8227,-1.0742142,
1.7812499469146137,76,-0.0010375977,-0.65216064,0.6459961,0.3203125,0.09863281,-0.22167969,0.0,0.0,0.0,0.0,0.0,0.0,0.0,0.0,0.0,0.0,0.0,-0.41245937,0.060225025,0.908612,-0.7503052,-0.27911377,-0.008422852,0.06933594,-0.9404297,-0.0078125,33.539917,-8.539187,1.2468446,18.811083,-0.82562256,-0.0036010742,-0.416687,0.13574219,-2.6826172,0.0087890625,39.357025,18.078568,-48.519127,26.845783,0.10986328,-0.81848145,1.0751953,-0.54003906,-1.4179688,-1.6923828,7.0922112,7.758564,-119.520935,20.632107,0.0,0.0,0.0,0.0,0.0,0.0,0.0,16.794914,-122.062996,38.29802,0.0,0.0,0.0,0.0,0.0,0.0,0.0,0.41245937,-0.060225025,-0.908612,1.0049438,-0.23510742,-0.13769531,-0.2763672,-0.3671875,-0.08886719,2.9390488,8.539187,-1.2468446,-18.811083,-0.9638672,0.051635742,-0.018920898,0.2783203,0.3701172,0.021484375,0.6507192,2.6541967,-57.782097,-14.526611,-0.28485107,0.6514282,0.6480713,0.0625,-0.111328125,-0.029296875,5.0976987,-3.285717,-129.30609,-8.66317,0.0,0.0,0.0,0.0,0.0,0.0,0.0,10.684403,-128.55415,5.6282263,0.0,0.0,0.0,0.0,0.0,0.0,0.0,3.8372226,44.804043,-1.2278357,
1.8046874462161218,77,0.032958984,-0.66101074,0.6890259,0.16601562,0.056640625,-0.16699219,0.0,0.0,0.0,0.0,0.0,0.0,0.0,0.0,0.0,0.0,0.0,-0.4153419,0.062498093,0.90702903,-0.8517456,-0.21203613,0.036499023,0.41015625,-0.7685547,0.0078125,34.653397,-8.598866,1.2939041,18.778313,-0.89123535,-0.07513428,-0.35620117,0.09472656,-3.1230469,0.2783203,36.733234,18.9977,-47.920383,26.90429,-0.19726562,-0.81658936,0.986084,-0.41503906,-1.609375,-1.8935547,7.2710857,12.918994,-119.55228,22.607567,0.0,0.0,0.0,0.0,0.0,0.0,0.0,22.073624,-121.11918,40.327194,0.0,0.0,0.0,0.0,0.0,0.0,0.0,0.4153419,-0.062498093,-0.90702903,0.9598999,-0.17358398,-0.046813965,-0.2763672,-0.3486328,-0.08886719,2.7096388,8.598866,-1.2939041,-18.778313,-0.9661865,0.085754395,-0.02758789,0.37695312,0.52246094,0.0234375,0.4392403,2.7236676,-57.835564,-14.606216,-0.26934814,0.69958496,0.69659424,0.043945312,-0.13085938,-0.06640625,5.1105194,-3.4667525,-129.35068,-8.813885,0.0,0.0,0.0,0.0,0.0,0.0,0.0,10.525,-128.55852,5.4538517,0.0,0.0,0.0,0.0,0.0,0.0,0.0,3.8449228,44.79586,-1.3259754,
1.8281249455176298,78,-0.011169434,-0.6900635,0.6536865,0.068359375,0.07128906,-0.111328125,0.0,0.0,0.0,0.0,0.0,0.0,0.0,0.0,0.0,0.0,0.0,-0.42156872,0.06365093,0.9039511,-0.8565674,-0.09313965,0.1529541,0.7314453,-0.79003906,0.0234375,35.571144,-8.72778,1.3177716,18.71459,-0.9319458,-0.036254883,-0.28588867,0.54785156,-3.3847656,0.3564453,33.60476,19.859917,-47.340275,26.770102,-0.37994385,-0.8165283,0.83496094,-0.06542969,-1.4785156,-1.8212891,7.490302,18.598654,-119.31821,24.670967,0.0,0.0,0.0,0.0,0.0,0.0,0.0,27.8817,-119.83778,42.38488,0.0,0.0,0.0,0.0,0.0,0.0,0.0,0.42156872,-0.06365093,-0.9039511,0.9902954,-0.19152832,-0.08532715,-0.35058594,-0.3486328,0.005859375,2.5814917,8.72778,-1.3177716,-18.71459,-0.96209717,0.1060791,-0.093444824,0.22851562,0.6201172,0.04296875,0.03426402,2.7789445,-57.8677,-14.676518,-0.24346924,0.6743164,0.65411377,-0.033203125,-0.13085938,-0.06640625,5.365566,-3.989924,-129.32996,-8.890629,0.0,0.0,0.0,0.0,0.0,0.0,0.0,10.022263,-128.47803,5.3558397,0.0,0.0,0.0,0.0,0.0,0.0,0.0,3.7047224,44.799664,-1.4267864,
1.851562444819138,79,0.012634277,-0.74884033,0.6478882,0.14648438,0.09082031,-0.072265625,0.0,0.0,0.0,0.0,0.0,0.0,0.0,0.0,0.0,0.0,0.0,-0.4308241,0.062200446,0.8991934,-0.86901855,0.087524414,0.31781006,1.0351562,-0.7919922,0.11230469,36.700874,-8.919395,1.2877421,18.61609,-0.96551514,0.0073242188,-0.206604,1.2080078,-3.3955078,0.47265625,30.565584,20.842861,-46.63769,26.815346,-0.5534668,-0.94281006,0.7335205,0.076171875,-1.1542969,-1.9541016,8.143481,24.710342,-118.55589,26.921898,0.0,0.0,0.0,0.0,0.0,0.0,0.0,34.178642,-118.10274,44.54052,0.0,0.0,0.0,0.0,0.0,0.0,0.0,0.4308241,-0.062200446,-0.8991934,0.8865967,-0.17791748,-0.19610596,-0.42382812,-0.51660156,0.005859375,2.786426,8.919395,-1.2877421,-18.61609,-0.94921875,0.050720215,-0.17132568,0.19140625,0.640625,-0.032226562,0.3995845,2.6663108,-57.820545,-14.740768,-0.30273438,0.67803955,0.6482544,-0.111328125,-0.13085938,-0.10253906,5.7854013,-5.022299,-129.20201,-9.127838,0.0,0.0,0.0,0.0,0.0,0.0,0.0,9.024769,-128.35226,5.081032,0.0,0.0,0.0,0.0,0.0,0.0,0.0,3.4893718,44.79725,-1.426949,
1.874999944120646,80,0.01159668,-0.76379395,0.6824951,0.12695312,0.12792969,-0.07324219,0.0,0.0,0.0,0.0,0.0,0.0,0.0,0.0,0.0,0.0,0.0,-0.44063288,0.05919341,0.8943959,-0.8342285,0.2230835,0.2852173,1.1679688,-0.5996094,0.09375,37.71869,-9.122466,1.2254871,18.516766,-0.91430664,0.10858154,-0.17712402,1.5117188,-3.3154297,0.4345703,27.592657,21.660099,-45.995716,26.994663,-0.66571045,-0.8612671,0.67474365,0.16015625,-0.7705078,-2.2919922,9.105088,30.450287,-117.436264,29.229902,0.0,0.0,0.0,0.0,0.0,0.0,0.0,40.273567,-116.058815,46.604553,0.0,0.0,0.0,0.0,0.0,0.0,0.0,0.44063288,-0.05919341,-0.8943959,0.92633057,-0.22149658,-0.25097656,-0.4609375,-0.5732422,-0.01171875,3.318063,9.122466,-1.2254871,-18.516766,-0.9463501,0.074401855,-0.20568848,0.21191406,0.6982422,-0.0126953125,0.5395923,2.2395458,-57.702644,-14.985392,-0.2796631,0.6679077,0.65509033,-0.16992188,-0.111328125,-0.12011719,6.2584925,-6.392682,-129.00352,-9.654132,0.0,0.0,0.0,0.0,0.0,0.0,0.0,7.693426,-128.19366,4.5204277,0.0,0.0,0.0,0.0,0.0,0.0,0.0,3.2701805,44.806496,-1.3543221,
1.898437443422154,81,0.060668945,-0.7444458,0.68218994,0.22363281,0.1484375,-0.052734375,0.0,0.0,0.0,0.0,0.0,0.0,0.0,0.0,0.0,0.0,0.0,-0.44902334,0.056923795,0.8904104,-0.78863525,0.14831543,0.30133057,0.80859375,-0.4814453,0.024414062,38.250595,-9.296173,1.178499,18.434258,-0.9046631,0.12011719,-0.014770508,1.2666016,-3.0322266,0.3564453,24.237673,22.160519,-45.655315,26.628918,-0.7935791,-0.6176758,0.7600708,-0.14257812,-0.5371094,-2.6269531,9.544952,35.65381,-116.27458,30.750038,0.0,0.0,0.0,0.0,0.0,0.0,0.0,45.928177,-114.0106,47.76707,0.0,0.0,0.0,0.0,0.0,0.0,0.0,0.44902334,-0.056923795,-0.8904104,0.928833,-0.20159912,-0.18927002,-0.29296875,-0.49804688,-0.051757812,3.8572195,9.296173,-1.178499,-18.434258,-0.94055176,0.016113281,-0.19018555,0.13769531,0.7373047,-0.049804688,0.85866195,1.9215608,-57.612007,-15.139156,-0.29455566,0.70526123,0.6513672,-0.18945312,-0.091796875,-0.12011719,6.7274156,-7.7382607,-128.80379,-10.124078,0.0,0.0,0.0,0.0,0.0,0.0,0.0,6.3906903,-128.04451,4.00957,0.0,0.0,0.0,0.0,0.0,0.0,0.0,3.1003814,44.8221,-1.3019847,
1.921874942723662,82,0.035827637,-0.7084961,0.69189453,0.28125,0.13183594,-0.051757812,0.0,0.0,0.0,0.0,0.0,0.0,0.0,0.0,0.0,0.0,0.0,-0.4562059,0.055914424,0.88715285,-0.9055176,0.09777832,0.45306396,0.22070312,-0.5732422,-0.08105469,39.24281,-9.444877,1.157602,18.366816,-0.90509033,0.04144287,-0.026367188,1.0761719,-2.6914062,0.4892578,21.602755,22.808617,-45.07285,26.863634,-0.8334961,-0.3001709,0.7619629,-0.1328125,-0.34765625,-2.3339844,9.339172,40.583717,-114.637375,32.427216,0.0,0.0,0.0,0.0,0.0,0.0,0.0,51.294083,-111.54561,49.037994,0.0,0.0,0.0,0.0,0.0,0.0,0.0,0.4562059,-0.055914424,-0.88715285,0.88391113,-0.20947266,-0.20233154,-0.34960938,-0.51660156,-0.05078125,4.2997437,9.444877,-1.157602,-18.366816,-0.94781494,0.07293701,-0.27746582,0.025390625,0.79589844,-0.01171875,1.383808,1.619545,-57.53797,-15.20528,-0.29589844,0.6454468,0.6687012,-0.15136719,-0.091796875,-0.15722656,7.256338,-9.268267,-128.56902,-10.379105,0.0,0.0,0.0,0.0,0.0,0.0,0.0,4.896696,-127.86607,3.7220688,0.0,0.0,0.0,0.0,0.0,0.0,0.0,3.0564868,44.83997,-1.2543656,
1.9453124420251702,83,0.0289917,-0.6541748,0.6592407,0.30078125,0.15039062,0.005859375,0.0,0.0,0.0,0.0,0.0,0.0,0.0,0.0,0.0,0.0,0.0,-0.46080104,0.055616595,0.8854058,-0.90808105,0.17163086,0.4835205,-0.10058594,-0.45410156,-0.26171875,40.571884,-9.5400095,1.151436,18.330645,-0.86260986,0.22247314,0.005859375,0.64160156,-2.2958984,0.4873047,19.693157,23.599796,-44.355824,27.299763,-0.87524414,-0.08081055,0.62402344,-0.42773438,-0.37109375,-1.4648438,9.433318,44.878666,-112.795456,34.38762,0.0,0.0,0.0,0.0,0.0,0.0,0.0,56.034367,-109.1994,50.52923,0.0,0.0,0.0,0.0,0.0,0.0,0.0,0.46080104,-0.055616595,-0.8854058,0.9031372,-0.19293213,-0.27294922,-0.46191406,-0.53515625,-0.10546875,4.7225657,9.5400095,-1.151436,-18.330645,-0.9219971,-0.05291748,-0.24060059,0.14160156,0.85253906,-0.047851562,1.7581394,1.1087847,-57.4536,-15.425708,-0.29278564,0.6460571,0.69921875,-0.016601562,-0.091796875,-0.15820312,7.9089947,-11.010369,-128.31004,-11.122671,0.0,0.0,0.0,0.0,0.0,0.0,0.0,3.1995058,-127.66646,2.9360952,0.0,0.0,0.0,0.0,0.0,0.0,0.0,3.1429615,44.860416,-1.1821742,
1.9687499413266782,84,0.025939941,-0.66833496,0.63635254,0.18457031,0.14648438,0.022460938,0.0,0.0,0.0,0.0,0.0,0.0,0.0,0.0,0.0,0.0,0.0,-0.4660801,0.05494637,0.8825818,-0.92352295,0.22607422,0.40289307,-0.45996094,-0.24121094,-0.14550781,41.45884,-9.6493025,1.1375602,18.27218,-0.8514404,0.2694702,0.08288574,-0.16992188,-1.7519531,0.29296875,17.840168,23.998371,-43.889004,27.775211,-1.0487671,-0.340271,0.58013916,-0.78515625,-0.52734375,-0.59472656,9.43309,48.165115,-111.20111,36.17782,0.0,0.0,0.0,0.0,0.0,0.0,0.0,59.89798,-107.54624,51.89754,0.0,0.0,0.0,0.0,0.0,0.0,0.0,0.4660801,-0.05494637,-0.8825818,0.92285156,-0.16235352,-0.25421143,-0.5175781,-0.5908203,-0.16113281,5.13763,9.6493025,-1.1375602,-18.27218,-0.9454956,0.052124023,-0.23919678,0.37109375,0.9082031,-0.08496094,2.077448,0.59226894,-57.364277,-15.928272,-0.25543213,0.67718506,0.67578125,0.09765625,-0.034179688,-0.15917969,8.831376,-12.708359,-128.04358,-12.237204,0.0,0.0,0.0,0.0,0.0,0.0,0.0,1.5313339,-127.43063,1.7932949,0.0,0.0,0.0,0.0,0.0,0.0,0.0,3.2162101,44.85354,-1.0939808,
1.9921874406281863,85,0.04559326,-0.7792969,0.7493286,0.18457031,0.09082031,0.0048828125,0.0,0.0,0.0,0.0,0.0,0.0,0.0,0.0,0.0,0.0,0.0,-0.47207528,0.054523185,0.8793828,-0.96203613,0.17358398,0.4491577,-0.8574219,-0.41308594,-0.087890625,41.96046,-9.773423,1.128799,18.20595,-0.8162842,0.04437256,0.12054443,-1.0917969,-1.0947266,-0.11328125,16.491686,24.168938,-43.544224,28.285217,-1.0344238,-0.19274902,0.39276123,-0.69628906,-0.9707031,-0.053710938,9.75927,50.424713,-109.9727,37.42891,0.0,0.0,0.0,0.0,0.0,0.0,0.0,61.93022,-106.06849,53.313675,0.0,0.0,0.0,0.0,0.0,0.0,0.0,0.47207528,-0.054523185,-0.8793828,0.94537354,-0.18432617,-0.3184204,-0.6484375,-0.5722656,-0.15820312,5.6768546,9.773423,-1.128799,-18.20595,-0.99957275,0.032470703,-0.30932617,0.203125,1.0058594,-0.06542969,2.6997964,0.15333271,-57.282547,-16.435211,-0.30480957,0.6610718,0.6815796,0.22753906,0.10058594,-0.21484375,9.790649,-14.589761,-127.69549,-13.079815,0.0,0.0,0.0,0.0,0.0,0.0,0.0,-0.30087757,-127.10725,0.90114784,0.0,0.0,0.0,0.0,0.0,0.0,0.0,3.1817524,44.855183,-1.0730488,
2.0156249399296944,86,0.08758545,-0.78674316,0.78149414,0.28222656,0.09375,-0.0126953125,0.0,0.0,0.0,0.0,0.0,0.0,0.0,0.0,0.0,0.0,0.0,-0.47275627,0.05506914,0.87929976,-0.8831787,0.020568848,0.46972656,-1.0849609,-0.3154297,-0.103515625,42.85142,-9.78752,1.1401019,18.20423,-0.8602905,-0.019226074,0.1182251,-0.9951172,-0.42578125,-0.28808594,16.24791,24.514412,-43.072636,29.078976,-0.95440674,-0.30358887,0.19342041,-0.64453125,-0.74609375,0.4248047,9.779115,51.859108,-109.030716,38.43023,0.0,0.0,0.0,0.0,0.0,0.0,0.0,64.00232,-105.56016,53.72095,0.0,0.0,0.0,0.0,0.0,0.0,0.0,0.47275627,-0.05506914,-0.87929976,0.9296875,-0.19622803,-0.36584473,-0.7597656,-0.68359375,-0.17578125,6.285969,9.78752,-1.1401019,-18.20423,-0.97991943,0.066223145,-0.36224365,0.49121094,1.0996094,-0.15820312,3.1824157,-0.62271786,-57.169437,-17.051878,-0.5297241,0.80285645,0.755249,0.33496094,0.34960938,-0.23242188,10.976426,-16.931347,-127.26706,-14.37137,0.0,0.0,0.0,0.0,0.0,0.0,0.0,-2.5958786,-126.73419,-0.43658733,0.0,0.0,0.0,0.0,0.0,0.0,0.0,3.3254702,44.858543,-1.0214767,
2.0390624392312025,87,0.08947754,-0.8330078,0.80914307,0.3017578,0.07714844,-0.05078125,0.0,0.0,0.0,0.0,0.0,0.0,0.0,0.0,0.0,0.0,0.0,-0.47222984,0.05774501,0.8795244,-0.8479004,-0.10882568,0.4498291,-0.9140625,-0.23828125,-0.123046875,43.84754,-9.776621,1.1955006,18.208881,-0.8547363,-0.12615967,0.11328125,-0.80566406,0.28320312,-0.29101562,16.858377,24.80945,-42.597946,29.820518,-0.9769287,-0.4230957,0.055725098,-0.31445312,-0.024414062,0.60058594,11.996657,52.258324,-108.54067,38.98983,0.0,0.0,0.0,0.0,0.0,0.0,0.0,65.47598,-105.794266,53.475185,0.0,0.0,0.0,0.0,0.0,0.0,0.0,0.47222984,-0.05774501,-0.8795244,1.0841675,-0.27770996,-0.4810791,-0.7578125,-0.87109375,-0.17675781,6.952317,9.776621,-1.1955006,-18.208881,-1.1695557,0.08795166,-0.41589355,0.4140625,1.0625,-0.19628906,3.5259228,-1.6293478,-57.037674,-17.661499,-0.21417236,0.67419434,0.723999,0.3798828,0.6777344,-0.6376953,12.273113,-19.563168,-126.75782,-15.515399,0.0,0.0,0.0,0.0,0.0,0.0,0.0,-5.283698,-126.29782,-1.5229044,0.0,0.0,0.0,0.0,0.0,0.0,0.0,3.629726,44.84005,-0.9951105,
2.0624999385327105,88,0.0602417,-0.8826904,0.83935547,0.24316406,9.765625E-4,-0.08886719,0.0,0.0,0.0,0.0,0.0,0.0,0.0,0.0,0.0,0.0,0.0,-0.47134346,0.060930774,0.8797899,-0.9338989,-0.12158203,0.44995117,-0.6298828,-0.06640625,-0.1796875,44.587246,-9.75827,1.2614558,18.214378,-0.86676025,-0.17773438,-0.0076293945,-0.19921875,0.99609375,-0.3310547,18.668898,25.024406,-42.271336,30.248001,-1.1331177,-0.36523438,-0.0017089844,0.111328125,0.77441406,0.5732422,11.5602,51.29225,-108.87401,38.012466,0.0,0.0,0.0,0.0,0.0,0.0,0.0,64.75893,-106.43248,52.580784,0.0,0.0,0.0,0.0,0.0,0.0,0.0,0.47134346,-0.060930774,-0.8797899,1.1629028,-0.28546143,-0.40148926,-0.57128906,-0.79589844,-0.2548828,7.7187924,9.75827,-1.2614558,-18.214378,-1.2165527,-0.15924072,-0.30407715,0.3779297,1.1015625,-0.1953125,3.848783,-2.6440306,-56.894634,-18.4224,-0.21417236,0.67419434,0.723999,0.3798828,0.6777344,-0.6376953,13.699227,-22.153915,-126.20035,-16.93931,0.0,0.0,0.0,0.0,0.0,0.0,0.0,-7.874446,-125.74035,-2.9468155,0.0,0.0,0.0,0.0,0.0,0.0,0.0,3.9156141,44.815945,-1.0060024,
2.0859374378342186,89,0.05908203,-0.9215088,0.8164673,0.4375,0.043945312,-0.06640625,0.0,0.0,0.0,0.0,0.0,0.0,0.0,0.0,0.0,0.0,0.0,-0.4699136,0.06477229,0.88029456,-0.9953003,-0.21612549,0.33642578,-0.23144531,0.31835938,-0.23632812,44.917755,-9.728666,1.3409873,18.224827,-0.79296875,-0.22857666,-0.24255371,0.46289062,1.6914062,-0.35253906,20.491726,25.025606,-42.259697,30.095497,-1.3134155,-0.2687378,0.06384277,0.43945312,1.4580078,0.69433594,11.44539,49.32257,-109.73794,36.672134,0.0,0.0,0.0,0.0,0.0,0.0,0.0,63.050613,-107.8293,51.09801,0.0,0.0,0.0,0.0,0.0,0.0,0.0,0.4699136,-0.06477229,-0.88029456,1.1698608,-0.12921143,-0.24127197,-0.515625,-0.79589844,-0.27441406,8.406884,9.728666,-1.3409873,-18.224827,-1.1138916,-0.04547119,-0.18811035,0.6074219,1.1572266,-0.2705078,4.1897945,-3.6265326,-56.747986,-19.132732,-0.29223633,0.7200928,0.7272339,0.80078125,1.8300781,-1.1875,13.511248,-24.748695,-125.591805,-18.582243,0.0,0.0,0.0,0.0,0.0,0.0,0.0,-10.6549225,-125.89937,-4.3976383,0.0,0.0,0.0,0.0,0.0,0.0,0.0,4.2650037,44.78433,-1.0185237,
2.1093749371357267,90,0.13244629,-0.8451538,0.8027344,0.4560547,0.17382812,-0.048828125,0.0,0.0,0.0,0.0,0.0,0.0,0.0,0.0,0.0,0.0,0.0,-0.46781,0.06794928,0.8811617,-0.9116821,-0.2765503,0.54351807,0.5263672,0.5839844,-0.2607422,44.917755,-9.685116,1.4067607,18.242779,-1.0206909,0.045837402,-0.05255127,1.0488281,2.0419922,-0.21875,22.464415,24.67997,-42.64269,29.489838,-0.4824829,-0.2715454,0.7151489,0.4892578,2.2949219,1.0361328,11.632929,46.08655,-111.21597,34.532223,0.0,0.0,0.0,0.0,0.0,0.0,0.0,60.29027,-110.146645,48.553123,0.0,0.0,0.0,0.0,0.0,0.0,0.0,0.46781,-0.06794928,-0.8811617,1.1200562,-0.10217285,-0.14471436,-0.51660156,-0.68359375,-0.2919922,8.764458,9.685116,-1.4067607,-18.242779,-1.0878906,-0.053955078,-0.13494873,0.4423828,1.3134766,-0.34375,4.6966944,-4.5161076,-56.588894,-19.852167,-0.3322754,0.762146,0.6772461,0.8828125,2.2148438,-1.3701172,13.807466,-27.321918,-124.88963,-20.310188,0.0,0.0,0.0,0.0,0.0,0.0,0.0,-13.4403515,-125.78528,-5.9424906,0.0,0.0,0.0,0.0,0.0,0.0,0.0,4.7931256,44.7328,-0.90481615,
2.1328124364372347,91,-0.13171387,-0.8596802,1.0421143,0.01171875,-0.095703125,-0.24414062,0.0,0.0,0.0,0.0,0.0,0.0,0.0,0.0,0.0,0.0,0.0,-0.4649191,0.07012254,0.88247955,-1.7983398,-0.17053223,0.014770508,1.1699219,1.0673828,-0.7988281,44.34281,-9.625267,1.4517539,18.270061,-1.0554199,-0.16186523,-0.032287598,1.7041016,1.3242188,0.359375,23.6599,24.522346,-43.076485,28.31615,-1.0361328,-1.2509155,1.5679321,0.84375,1.578125,2.0605469,13.876426,43.55934,-112.383446,32.814022,0.0,0.0,0.0,0.0,0.0,0.0,0.0,57.902153,-112.780594,46.74942,0.0,0.0,0.0,0.0,0.0,0.0,0.0,0.4649191,-0.07012254,-0.88247955,1.4100342,-0.3057251,-0.13513184,-0.6123047,-0.58984375,-0.3642578,9.632026,9.625267,-1.4517539,-18.270061,-1.3895874,0.20928955,0.062072754,0.359375,1.6044922,-0.6425781,5.726081,-5.279503,-56.419422,-20.592476,-0.42651367,0.8218384,0.59887695,0.7246094,2.8300781,-1.8818359,14.366729,-30.22494,-123.951675,-22.399307,0.0,0.0,0.0,0.0,0.0,0.0,0.0,-16.662449,-125.6339,-7.7966595,0.0,0.0,0.0,0.0,0.0,0.0,0.0,4.8814745,44.719994,-0.9817658,
2.156249935738743,92,-0.2467041,-0.8286743,0.98724365,-0.06347656,-0.7470703,-0.25683594,0.0,0.0,0.0,0.0,0.0,0.0,0.0,0.0,0.0,0.0,0.0,-0.46614546,0.08072478,0.88104427,-1.017456,-0.071899414,0.02508545,1.3974609,0.77246094,-0.28710938,43.304043,-9.650656,1.6712531,18.240349,-0.4915161,0.06878662,-0.31640625,2.3359375,1.6191406,-0.34960938,24.981356,24.189615,-43.42591,26.607586,-0.6207886,-1.7562256,1.7261353,1.5146484,-0.25097656,0.6777344,13.422587,40.68563,-113.453705,29.79738,0.0,0.0,0.0,0.0,0.0,0.0,0.0,54.997375,-114.443344,43.738594,0.0,0.0,0.0,0.0,0.0,0.0,0.0,0.46614546,-0.08072478,-0.88104427,1.446167,-0.37353516,-0.04638672,-0.48535156,-0.123046875,-0.2890625,10.629102,9.650656,-1.6712531,-18.240349,-1.1907349,0.034973145,0.33929443,0.3125,2.0078125,-0.4482422,7.5955887,-5.6192665,-56.512463,-21.18929,-0.42993164,0.9277954,0.5718994,0.29589844,3.350586,-2.7080078,13.961664,-33.203278,-122.96243,-24.2912,0.0,0.0,0.0,0.0,0.0,0.0,0.0,-20.076117,-125.83586,-9.478007,0.0,0.0,0.0,0.0,0.0,0.0,0.0,4.81376,44.715996,-1.550179,
2.179687435040251,93,-0.031188965,-0.7285156,0.99224854,-0.1015625,-0.82714844,0.029296875,0.0,0.0,0.0,0.0,0.0,0.0,0.0,0.0,0.0,0.0,0.0,-0.47467852,0.0950829,0.8752408,-0.76568604,-0.08453369,-0.31951904,0.6796875,1.6835938,-0.2919922,41.252132,-9.827316,1.9685106,18.120197,-0.9256592,-0.19110107,-0.55023193,0.89941406,1.6396484,-0.46679688,25.869007,22.729858,-44.299294,25.159721,-0.30126953,-0.67974854,0.65600586,1.0537109,-0.67285156,1.5322266,11.676004,36.011948,-115.02048,26.668324,0.0,0.0,0.0,0.0,0.0,0.0,0.0,49.926895,-115.96837,41.001785,0.0,0.0,0.0,0.0,0.0,0.0,0.0,0.47467852,-0.0950829,-0.8752408,1.5043945,-0.29504395,0.19030762,0.31152344,0.6591797,-0.091796875,10.77395,9.827316,-1.9685106,-18.120197,-1.3290405,0.08105469,0.5574951,0.47558594,2.3916016,-0.4814453,10.985409,-4.9325705,-56.944065,-21.210443,-0.52282715,1.1668091,0.54278564,-0.45507812,3.7167969,-3.5498047,13.294776,-35.720154,-121.88492,-25.754574,0.0,0.0,0.0,0.0,0.0,0.0,0.0,-23.276691,-126.483215,-10.788114,0.0,0.0,0.0,0.0,0.0,0.0,0.0,4.759872,44.698933,-2.2744536,
2.203124934341759,94,0.0803833,-0.60272217,0.95928955,0.45898438,-0.42285156,0.1484375,0.0,0.0,0.0,0.0,0.0,0.0,0.0,0.0,0.0,0.0,0.0,-0.48419312,0.1065902,0.8685389,-0.6534424,0.05871582,-0.38781738,-0.66503906,1.1708984,-0.4111328,39.77018,-10.024298,2.2067473,17.98145,-0.8638916,-0.14898682,-0.7116089,0.6904297,1.4267578,-0.35058594,26.353714,21.031523,-45.16644,24.415125,-0.40319824,-0.6453247,0.65393066,0.6123047,-0.27929688,0.4375,10.862414,31.512478,-116.41399,24.674292,0.0,0.0,0.0,0.0,0.0,0.0,0.0,45.20922,-117.28415,39.215294,0.0,0.0,0.0,0.0,0.0,0.0,0.0,0.48419312,-0.1065902,-0.8685389,1.1501465,-0.21002197,0.39416504,0.3798828,1.3671875,0.24707031,9.157381,10.024298,-2.2067473,-17.98145,-1.2215576,-0.062683105,0.58374023,0.42578125,2.8125,-0.041992188,16.001041,-3.337327,-57.559803,-20.522081,-0.48358154,1.1589966,0.5860596,-0.7451172,4.123047,-4.3603516,13.024254,-37.9413,-120.47189,-26.026669,0.0,0.0,0.0,0.0,0.0,0.0,0.0,-26.547964,-127.1509,-11.005937,0.0,0.0,0.0,0.0,0.0,0.0,0.0,5.1293344,44.63371,-2.6181064,
2.226562433643267,95,-0.07086182,-0.3484497,0.8897095,-0.5498047,-0.22851562,0.072265625,0.0,0.0,0.0,0.0,0.0,0.0,0.0,0.0,0.0,0.0,0.0,-0.47330287,0.11170535,0.87197906,-0.852417,-0.27288818,-0.42022705,-1.0439453,1.8173828,-1.2333984,37.64347,-9.798838,2.3126466,18.05267,-0.93878174,-0.043762207,-0.6225586,0.3486328,1.0791016,-0.2734375,25.348513,19.263292,-46.41072,22.845036,-0.50341797,-0.6053467,0.7137451,0.4423828,-0.08496094,0.15820312,10.401589,27.726757,-117.92356,22.292301,0.0,0.0,0.0,0.0,0.0,0.0,0.0,41.347633,-118.74143,36.914787,0.0,0.0,0.0,0.0,0.0,0.0,0.0,0.47330287,-0.11170535,-0.87197906,1.0806885,0.059814453,0.24468994,0.89746094,2.0019531,0.22363281,6.2904277,9.798838,-2.3126466,-18.05267,-1.2841187,0.01928711,0.66259766,1.0234375,3.209961,0.01953125,22.846893,-1.0032024,-58.267323,-19.350496,-0.493042,1.2811279,0.8810425,-0.13183594,4.625,-5.3632812,14.011627,-39.90867,-118.56174,-25.478157,0.0,0.0,0.0,0.0,0.0,0.0,0.0,-29.92593,-127.53947,-10.652959,0.0,0.0,0.0,0.0,0.0,0.0,0.0,5.3963614,44.517284,-2.7738113,
2.249999932944775,96,-0.12878418,-0.31481934,0.803833,-0.8798828,-0.23632812,-0.028320312,0.0,0.0,0.0,0.0,0.0,0.0,0.0,0.0,0.0,0.0,0.0,-0.45902798,0.1086186,0.87768674,-1.0231323,-0.27905273,-0.1842041,-1.0615234,1.8720703,-0.80859375,32.720413,-9.503302,2.2487419,18.170837,-0.9671631,0.115600586,-0.41784668,-0.10546875,0.8828125,-0.234375,22.868116,16.071259,-48.64701,19.829994,-0.43933105,-0.51519775,0.7373047,0.17480469,-0.043945312,0.06542969,10.74217,21.897858,-120.41983,18.969206,0.0,0.0,0.0,0.0,0.0,0.0,0.0,35.381214,-121.17092,33.718708,0.0,0.0,0.0,0.0,0.0,0.0,0.0,0.45902798,-0.1086186,-0.87768674,1.2335815,-0.07623291,0.32635498,0.5048828,3.4980469,-0.09667969,4.0081453,9.503302,-2.2487419,-18.170837,-1.4819946,0.52282715,-0.9067383,0.38671875,3.3720703,-0.18652344,31.649212,2.8354077,-58.856075,-18.20517,-0.85687256,-1.9177246,1.3515625,-0.22070312,1.5273438,-2.4609375,15.34033,-40.495617,-115.93241,-25.366346,0.0,0.0,0.0,0.0,0.0,0.0,0.0,-31.5378,-126.51922,-10.955009,0.0,0.0,0.0,0.0,0.0,0.0,0.0,4.680987,44.488625,-3.0575697,
2.273437432246283,97,-0.066101074,-0.40582275,0.8320923,-0.31640625,-0.43945312,-0.2265625,0.0,0.0,0.0,0.0,0.0,0.0,0.0,0.0,0.0,0.0,0.0,-0.45204246,0.108906455,0.88199866,-1.0175781,-0.27441406,-0.22808838,-0.22753906,1.9189453,-0.09667969,29.295748,-9.35868,2.2547011,18.260107,-0.9423828,0.007446289,-0.4109497,-0.57714844,0.80078125,-0.3310547,21.94443,13.76867,-49.829674,19.012854,-0.42010498,-0.5462036,0.72509766,-0.1328125,-0.040039062,-0.08300781,10.925191,17.218084,-121.752525,18.049475,0.0,0.0,0.0,0.0,0.0,0.0,0.0,30.581059,-122.46178,32.913216,0.0,0.0,0.0,0.0,0.0,0.0,0.0,0.45204246,-0.108906455,-0.88199866,1.4710083,-0.30596924,-0.49554443,1.0341797,3.1972656,0.24804688,4.22934,9.35868,-2.2547011,-18.260107,-1.4455566,-0.15283203,-0.45733643,0.23046875,2.508789,-0.3671875,40.191677,7.1000624,-59.200096,-16.962936,0.10412598,1.9893188,1.1027222,-0.34375,1.4082031,-1.328125,15.578363,-40.047184,-113.125946,-24.433413,0.0,0.0,0.0,0.0,0.0,0.0,0.0,-31.859646,-124.42297,-10.105894,0.0,0.0,0.0,0.0,0.0,0.0,0.0,4.0240865,44.554264,-3.438995,
2.296874931547791,98,-0.032226562,-0.4439087,0.7670288,-0.29589844,-0.79003906,-0.3359375,0.0,0.0,0.0,0.0,0.0,0.0,0.0,0.0,0.0,0.0,0.0,-0.44301224,0.12086241,0.8855225,-0.8151245,-0.14959717,-0.16967773,-0.17089844,1.9960938,-0.13378906,26.501286,-9.171727,2.5022266,18.333061,-0.99328613,-0.1383667,-0.31628418,0.16015625,0.65722656,-0.38671875,20.330103,11.09143,-50.78207,18.014698,-0.43615723,-0.6053467,0.6812134,-0.2861328,-0.018554688,-0.17578125,11.63728,12.62295,-122.759125,16.123236,0.0,0.0,0.0,0.0,0.0,0.0,0.0,25.822124,-123.41395,31.129845,0.0,0.0,0.0,0.0,0.0,0.0,0.0,0.44301224,-0.12086241,-0.8855225,1.376648,-0.0793457,-0.60424805,2.421875,3.1582031,0.48632812,7.1689153,9.171727,-2.5022266,-18.333061,-1.3486938,0.048706055,-0.51898193,-0.08984375,1.4501953,0.11035156,47.16054,11.000704,-59.3741,-14.889458,0.53723145,1.6351929,1.2522583,-0.12988281,0.92578125,-0.5185547,16.166176,-38.486877,-111.140884,-22.54676,0.0,0.0,0.0,0.0,0.0,0.0,0.0,-30.86304,-122.80234,-8.200005,0.0,0.0,0.0,0.0,0.0,0.0,0.0,3.9977946,44.52312,-4.0768013,
2.3203124308492993,99,0.037353516,-0.5823364,0.8607178,-0.6845703,-0.5449219,-0.09765625,0.0,0.0,0.0,0.0,0.0,0.0,0.0,0.0,0.0,0.0,0.0,-0.44373938,0.12873155,0.8852693,-0.84002686,-0.026367188,-0.046691895,-0.4169922,1.8623047,-0.16894531,23.630005,-9.186781,2.665142,18.32782,-0.9421997,0.003112793,-0.1918335,0.06738281,0.5800781,-0.48242188,18.650774,8.677889,-51.46224,17.499979,-0.4237671,-0.62939453,0.67510986,-0.24707031,-0.01953125,-0.12011719,12.391532,9.128255,-123.42772,14.75967,0.0,0.0,0.0,0.0,0.0,0.0,0.0,22.146336,-124.0259,29.919973,0.0,0.0,0.0,0.0,0.0,0.0,0.0,0.44373938,-0.12873155,-0.8852693,1.3521118,-0.14715576,-0.21160889,2.3779297,3.6455078,0.041015625,10.688224,9.186781,-2.665142,-18.32782,-1.262085,-0.050048828,-0.5733032,-0.29589844,0.35351562,0.4736328,53.061146,15.488727,-59.015133,-12.500077,0.5772095,1.2740479,1.3328857,-0.19042969,0.059570312,0.53125,16.409103,-35.040997,-109.839775,-19.539612,0.0,0.0,0.0,0.0,0.0,0.0,0.0,-27.623976,-121.47909,-5.0654764,0.0,0.0,0.0,0.0,0.0,0.0,0.0,3.3993807,44.552578,-4.7746873,
2.3437499301508073,100,0.08319092,-0.6185913,0.741272,0.030273438,0.08203125,0.2685547,0.0,0.0,0.0,0.0,0.0,0.0,0.0,0.0,0.0,0.0,0.0,-0.4488699,0.12686642,0.8838418,-0.9118042,-0.13787842,-0.08453369,-0.9091797,1.9433594,-0.23730469,21.017504,-9.292999,2.6265283,18.298267,-0.93530273,-0.021362305,-0.17913818,-0.9921875,0.5673828,-0.4638672,16.833263,6.097686,-52.250908,17.04928,-0.37976074,-0.6413574,0.6727295,-0.055664062,-0.060546875,-0.02734375,12.148253,5.561644,-124.199684,13.841496,0.0,0.0,0.0,0.0,0.0,0.0,0.0,18.383207,-124.75175,29.171474,0.0,0.0,0.0,0.0,0.0,0.0,0.0,0.4488699,-0.12686642,-0.8838418,1.3396606,-0.23718262,0.003967285,1.625,3.8154297,-0.2626953,15.398353,9.292999,-2.6265283,-18.298267,-1.1706543,-0.048706055,-0.83270264,-0.20117188,-0.93652344,0.5136719,57.681904,20.435656,-57.989834,-10.563518,0.42791748,1.2111206,1.2625732,-0.20019531,-1.2285156,1.2988281,16.368082,-29.73509,-109.28854,-16.709614,0.0,0.0,0.0,0.0,0.0,0.0,0.0,-22.069805,-120.60138,-2.1067047,0.0,0.0,0.0,0.0,0.0,0.0,0.0,3.1526046,44.603687,-4.801312,
2.3671874294523154,101,0.006164551,-0.5895996,0.6066284,0.14550781,0.32421875,0.43945312,0.0,0.0,0.0,0.0,0.0,0.0,0.0,0.0,0.0,0.0,0.0,-0.4533042,0.11784497,0.88315296,-0.87664795,-0.10101318,-0.13983154,-1.5908203,2.1816406,-0.56152344,18.350533,-9.384802,2.4397564,18.284,-0.9863281,-0.20587158,-0.107788086,-1.5224609,0.65625,-0.40722656,14.525131,3.1856184,-53.135536,16.487007,-0.4216919,-0.5637207,0.71209717,-0.076171875,-0.11816406,0.047851562,10.451333,1.861336,-125.04008,12.760576,0.0,0.0,0.0,0.0,0.0,0.0,0.0,14.5204525,-125.50399,28.230923,0.0,0.0,0.0,0.0,0.0,0.0,0.0,0.4533042,-0.11784497,-0.88315296,1.3441772,-0.18389893,0.01928711,1.0244141,3.9824219,-0.1015625,20.947004,9.384802,-2.4397564,-18.284,-0.90185547,-0.117370605,-0.9177246,-0.29296875,-2.1289062,0.57421875,60.82972,25.430017,-56.281395,-8.630703,0.37982178,1.0255127,1.0233154,-0.060546875,-2.3632812,2.102539,15.892515,-22.852335,-109.47441,-13.678028,0.0,0.0,0.0,0.0,0.0,0.0,0.0,-14.479089,-120.12449,1.0342875,0.0,0.0,0.0,0.0,0.0,0.0,0.0,3.2073293,44.662666,-4.3133807,
2.3906249287538235,102,-0.064575195,-0.5133667,0.605896,-0.029296875,0.24609375,0.36035156,0.0,0.0,0.0,0.0,0.0,0.0,0.0,0.0,0.0,0.0,0.0,-0.4560659,0.10732808,0.8832566,-0.8486328,-0.31811523,-0.07476807,-2.0634766,2.3388672,-0.5732422,15.611164,-9.441977,2.222024,18.286152,-1.0048218,-0.2946167,-0.1751709,-0.6923828,0.6845703,-0.234375,11.988736,0.15723896,-53.912773,15.742451,-0.39794922,-0.6730957,0.6478882,9.765625E-4,-0.119140625,0.103515625,9.154527,-1.8151848,-125.74557,11.149558,0.0,0.0,0.0,0.0,0.0,0.0,0.0,10.623852,-126.123695,26.79758,0.0,0.0,0.0,0.0,0.0,0.0,0.0,0.4560659,-0.10732808,-0.8832566,1.1611938,-0.18139648,-0.23175049,0.95410156,3.5527344,0.0087890625,26.159908,9.441977,-2.222024,-18.286152,-0.6702881,-0.14776611,-0.9937744,-0.17578125,-3.265625,0.6357422,62.080772,29.883638,-54.168324,-6.7453823,0.18151855,0.90112305,0.81689453,0.064453125,-3.0371094,2.8925781,15.388548,-14.95006,-110.40282,-10.435926,0.0,0.0,0.0,0.0,0.0,0.0,0.0,-5.610615,-120.02493,4.4014597,0.0,0.0,0.0,0.0,0.0,0.0,0.0,3.170248,44.71955,-3.7971091,
2.4140624280553316,103,-0.1428833,-0.56500244,0.5532837,-0.2607422,0.017578125,0.32128906,0.0,0.0,0.0,0.0,0.0,0.0,0.0,0.0,0.0,0.0,0.0,-0.46061915,0.10014525,0.8818773,-0.8288574,-0.4835205,-0.16217041,-1.4189453,2.5253906,-0.20996094,13.599269,-9.536245,2.0733173,18.257595,-0.9927368,-0.16516113,-0.22790527,0.38476562,0.6220703,-0.17578125,9.756892,-2.628263,-54.366177,14.482976,-0.41345215,-0.6552124,0.664978,0.11621094,-0.13964844,0.15917969,9.831314,-5.309127,-126.11034,8.87603,0.0,0.0,0.0,0.0,0.0,0.0,0.0,6.8933096,-126.41757,24.713192,0.0,0.0,0.0,0.0,0.0,0.0,0.0,0.46061915,-0.10014525,-0.8818773,0.8064575,-0.081604004,-0.33624268,1.1855469,3.0117188,0.0390625,29.60206,9.536245,-2.0733173,-18.257595,-0.4932251,-0.18603516,-0.95007324,-0.03515625,-4.288086,0.69921875,60.60069,32.952595,-52.45112,-5.5001163,-0.116882324,0.8985596,0.8463745,0.107421875,-3.6142578,3.5361328,16.023376,-7.0849266,-112.28369,-7.2233343,0.0,0.0,0.0,0.0,0.0,0.0,0.0,3.3271685,-120.34802,7.8264017,0.0,0.0,0.0,0.0,0.0,0.0,0.0,2.9810786,44.760384,-3.5258856,
2.4374999273568396,104,-0.122924805,-0.59716797,0.57818604,-0.22167969,-0.09375,0.36132812,0.0,0.0,0.0,0.0,0.0,0.0,0.0,0.0,0.0,0.0,0.0,-0.4664324,0.093376055,0.87967795,-0.87683105,-0.42388916,-0.2647705,-0.24511719,2.5722656,0.22167969,12.054454,-9.656597,1.9331738,18.21206,-0.9064331,0.0040893555,-0.25280762,0.026367188,0.5986328,-0.21386719,7.487787,-5.661762,-54.688923,13.027222,-0.41723633,-0.6472168,0.6660156,0.21484375,-0.083984375,0.2685547,11.163961,-9.297531,-126.35458,6.8933125,0.0,0.0,0.0,0.0,0.0,0.0,0.0,2.673932,-126.62305,22.908405,0.0,0.0,0.0,0.0,0.0,0.0,0.0,0.4664324,-0.093376055,-0.87967795,0.63531494,-0.046020508,-0.40161133,1.0058594,2.3388672,0.055664062,33.004574,9.656597,-1.9331738,-18.21206,-0.3359375,-0.13122559,-1.0024414,-0.061523438,-5.154297,0.8388672,58.770527,35.934284,-50.490864,-4.040489,-0.3517456,0.9274292,0.8789673,0.2626953,-4.1708984,3.7705078,17.820303,1.112236,-113.49152,-2.5050306,0.0,0.0,0.0,0.0,0.0,0.0,0.0,12.626185,-119.76992,12.594155,0.0,0.0,0.0,0.0,0.0,0.0,0.0,2.705451,44.798206,-3.3207264,
2.4609374266583477,105,-0.05609131,-0.6591797,0.5967407,-0.27929688,-0.13183594,0.36132812,0.0,0.0,0.0,0.0,0.0,0.0,0.0,0.0,0.0,0.0,0.0,-0.4736777,0.08658864,0.8766288,-0.89764404,-0.28051758,-0.16265869,-0.037109375,2.2226562,0.34570312,11.128894,-9.806598,1.7926536,18.148935,-0.9793701,-0.109191895,-0.19464111,-0.390625,0.7265625,-0.17675781,5.7663636,-8.34705,-54.86186,12.011423,-0.3973999,-0.62524414,0.68084717,0.21386719,-0.12207031,0.3251953,11.631777,-13.010462,-126.43277,5.5799494,0.0,0.0,0.0,0.0,0.0,0.0,0.0,-1.2503672,-126.65587,21.751614,0.0,0.0,0.0,0.0,0.0,0.0,0.0,0.4736777,-0.08658864,-0.8766288,0.46044922,-0.029663086,-0.30645752,0.41503906,1.5546875,0.061523438,35.46028,9.806598,-1.7926536,-18.148935,-0.32989502,-0.115722656,-1.0751343,-0.27441406,-5.8652344,1.0751953,54.685074,38.06668,-48.900154,-2.9345026,-0.49542236,1.0274658,1.0163574,0.4482422,-4.459961,4.1367188,18.927166,10.319878,-115.192764,1.6702251,0.0,0.0,0.0,0.0,0.0,0.0,0.0,22.839361,-119.36502,16.701733,0.0,0.0,0.0,0.0,0.0,0.0,0.0,2.4587753,44.833546,-3.0998402,
2.4843749259598558,106,-0.023010254,-0.6235962,0.54473877,-0.24023438,-0.22363281,0.34375,0.0,0.0,0.0,0.0,0.0,0.0,0.0,0.0,0.0,0.0,0.0,-0.48447844,0.0804582,0.8712293,-0.97528076,-0.19927979,-0.16589355,-0.20800781,1.9140625,0.47460938,10.387715,-10.030205,1.6657342,18.037148,-1.0147705,-0.16705322,-0.052490234,0.1015625,0.8466797,-0.15722656,4.111946,-10.686674,-54.973747,11.65818,-0.43103027,-0.63708496,0.67315674,0.140625,-0.045898438,0.34277344,11.682955,-15.970619,-126.4361,4.595534,0.0,0.0,0.0,0.0,0.0,0.0,0.0,-4.4029503,-126.66352,20.908323,0.0,0.0,0.0,0.0,0.0,0.0,0.0,0.48447844,-0.0804582,-0.8712293,0.37249756,-0.07281494,-0.27923584,0.123046875,0.8828125,0.061523438,36.73072,10.030205,-1.6657342,-18.037148,-0.42181396,-0.2774048,-1.0151978,-0.14257812,-6.4833984,1.1992188,47.742397,39.445194,-47.880623,-2.2768326,-0.8086548,1.1306763,1.2285156,0.8769531,-4.59375,4.0751953,18.470776,21.641916,-117.32862,4.57489,0.0,0.0,0.0,0.0,0.0,0.0,0.0,34.95057,-119.08937,19.401718,0.0,0.0,0.0,0.0,0.0,0.0,0.0,2.1541119,44.857117,-2.9446926,
2.507812425261364,107,-0.026184082,-0.6845093,0.59606934,-0.29785156,-0.29882812,0.30566406,0.0,0.0,0.0,0.0,0.0,0.0,0.0,0.0,0.0,0.0,0.0,-0.49591333,0.07654407,0.86468726,-1.0980835,-0.20080566,-0.2919922,-0.13378906,1.4716797,0.28710938,10.483477,-10.266944,1.5846996,17.901709,-1.0271606,-6.1035156E-4,0.2319336,0.15917969,1.0576172,-0.19628906,2.5789125,-12.774009,-54.96988,11.193667,-0.4570923,-0.7024536,0.6533203,0.14648438,0.06738281,0.5439453,11.762878,-18.475798,-126.34212,3.6600852,0.0,0.0,0.0,0.0,0.0,0.0,0.0,-7.165263,-126.6388,20.14837,0.0,0.0,0.0,0.0,0.0,0.0,0.0,0.49591333,-0.07654407,-0.86468726,0.35894775,0.01977539,-0.31274414,-0.040039062,0.39746094,0.17382812,37.172695,10.266944,-1.5846996,-17.901709,-0.4827881,-0.1015625,-0.8965454,-0.4921875,-6.8251953,1.1191406,40.58017,40.214928,-47.304077,-1.7211246,-1.2589111,1.1696777,1.1086426,0.85253906,-4.383789,4.3935547,19.810663,31.920033,-118.148445,7.794422,0.0,0.0,0.0,0.0,0.0,0.0,0.0,45.679977,-117.37165,22.289837,0.0,0.0,0.0,0.0,0.0,0.0,0.0,1.8289863,44.855892,-2.9217892,
2.531249924562872,108,-0.03314209,-0.6848755,0.6702881,-0.045898438,-0.29101562,0.29101562,0.0,0.0,0.0,0.0,0.0,0.0,0.0,0.0,0.0,0.0,0.0,-0.5175035,0.07059608,0.85183656,-1.1837769,-0.045898438,-0.14129639,-0.49414062,1.1669922,-0.043945312,11.044464,-10.713928,1.4615575,17.635658,-1.2016602,-0.14764404,-0.016357422,-0.5761719,1.296875,-0.44726562,2.326415,-14.898538,-54.940998,10.469091,-0.41400146,-0.8531494,0.7344971,-0.515625,0.08886719,1.0058594,12.599912,-22.408482,-126.076324,2.1084576,0.0,0.0,0.0,0.0,0.0,0.0,0.0,-11.386578,-126.67566,18.787811,0.0,0.0,0.0,0.0,0.0,0.0,0.0,0.5175035,-0.07059608,-0.85183656,0.45092773,0.05505371,-0.3371582,-0.7470703,-0.033203125,0.31347656,37.025303,10.713928,-1.4615575,-17.635658,-0.7218628,0.07366943,-0.684021,-0.27148438,-6.5751953,0.6513672,33.229317,40.701973,-47.058582,-1.1833096,-1.9494019,0.7615967,0.9230957,1.0087891,-2.7714844,3.961914,22.408957,41.687386,-118.12694,10.204738,0.0,0.0,0.0,0.0,0.0,0.0,0.0,55.32749,-114.93938,24.48133,0.0,0.0,0.0,0.0,0.0,0.0,0.0,1.5017629,44.851723,-2.8047493,
2.55468742386438,109,-0.07244873,-0.76416016,0.78948975,-0.083984375,-0.515625,0.29296875,0.0,0.0,0.0,0.0,0.0,0.0,0.0,0.0,0.0,0.0,0.0,-0.5368229,0.06767603,0.84043944,-1.3139038,0.113708496,-0.07397461,-1.3466797,1.2548828,-0.68066406,12.253096,-11.113899,1.4011037,17.3997,-1.2675171,0.13812256,0.08514404,-0.9746094,1.5019531,-0.2763672,2.4512024,-16.85225,-54.770924,9.516872,-0.39526367,-0.56134033,0.84454346,-0.5859375,0.77441406,1.3496094,12.854275,-26.488688,-125.53044,0.18604088,0.0,0.0,0.0,0.0,0.0,0.0,0.0,-15.88388,-126.61197,17.108168,0.0,0.0,0.0,0.0,0.0,0.0,0.0,0.5368229,-0.06767603,-0.84043944,0.6029053,-0.19140625,0.076660156,-1.7021484,-0.0146484375,0.42285156,36.554115,11.113899,-1.4011037,-17.3997,-1.0633545,0.34851074,-0.58154297,-1.5009766,-5.5,-0.091796875,25.93345,40.878113,-47.112843,-0.8582077,-2.0,0.86968994,0.74560547,-0.53027344,-1.9257812,3.1328125,22.894176,51.320183,-117.473206,10.414801,0.0,0.0,0.0,0.0,0.0,0.0,0.0,64.47494,-112.65371,24.687365,0.0,0.0,0.0,0.0,0.0,0.0,0.0,1.2772193,44.874424,-2.797682,
2.578124923165888,110,-0.12475586,-0.8604126,0.8777466,0.3046875,-0.7265625,0.26367188,0.0,0.0,0.0,0.0,0.0,0.0,0.0,0.0,0.0,0.0,0.0,-0.5512113,0.073275104,0.8308173,-1.1883545,0.4078369,0.09716797,-2.4082031,0.97265625,-0.81933594,13.833584,-11.411784,1.5170218,17.200495,-1.1750488,0.12780762,0.31658936,-1.6552734,1.9511719,-0.2783203,3.212966,-18.61816,-54.353622,8.44181,-0.3684082,-0.58343506,0.8721924,-0.5605469,1.5175781,1.5253906,11.823768,-31.06634,-124.60184,-1.3951321,0.0,0.0,0.0,0.0,0.0,0.0,0.0,-20.80051,-126.450325,15.66955,0.0,0.0,0.0,0.0,0.0,0.0,0.0,0.5512113,-0.073275104,-0.8308173,1.4076538,-0.4095459,1.0413208,-0.13574219,0.80566406,0.71972656,37.000046,11.411784,-1.5170218,-17.200495,-1.0230713,-0.097351074,-0.38183594,-2.2832031,-3.8916016,-0.58203125,21.614977,41.28238,-46.95944,-0.11994743,-2.0,0.24584961,-0.34655762,-1.7773438,-1.2324219,2.0566406,21.85257,58.678253,-116.0372,10.095888,0.0,0.0,0.0,0.0,0.0,0.0,0.0,71.27158,-110.425995,24.585056,0.0,0.0,0.0,0.0,0.0,0.0,0.0,1.4167706,44.864223,-3.0168974,
