TOTAL_TIME,0m9s
TOTAL_FRAMES,382
SELECTED_FRAMES,382
NO_OF_JOINTS,12
FREQUENCY,42.666668
DESCRIPTION,Capture 6
TIME_STAMP,Jul 9, 2010

Time,Frame,Pelvis_accelX_Pelvis,Pelvis_accelY_Pelvis,Pelvis_accelZ_Pelvis,Pelvis_gyroX_Pelvis,Pelvis_gyroY_Pelvis,Pelvis_gyroZ_Pelvis,Pelvis_Joint angle_Pelvis,Pelvis_Relative pos X_Pelvis,Pelvis_Relative pos Y_Pelvis,Pelvis_Relative pos Z_Pelvis,RightPelvis_accelX_RightPelvis,RightPelvis_accelY_RightPelvis,RightPelvis_accelZ_RightPelvis,RightPelvis_gyroX_RightPelvis,RightPelvis_gyroY_RightPelvis,RightPelvis_gyroZ_RightPelvis,RightPelvis_Joint angle_RightPelvis,RightPelvis_Relative pos X_RightPelvis,RightPelvis_Relative pos Y_RightPelvis,RightPelvis_Relative pos Z_RightPelvis,RightUpLeg_accelX_RightUpLeg,RightUpLeg_accelY_RightUpLeg,RightUpLeg_accelZ_RightUpLeg,RightUpLeg_gyroX_RightUpLeg,RightUpLeg_gyroY_RightUpLeg,RightUpLeg_gyroZ_RightUpLeg,RightUpLeg_Joint angle_RightUpLeg,RightUpLeg_Relative pos X_RightUpLeg,RightUpLeg_Relative pos Y_RightUpLeg,RightUpLeg_Relative pos Z_RightUpLeg,RightLeg_accelX_RightLeg,RightLeg_accelY_RightLeg,RightLeg_accelZ_RightLeg,RightLeg_gyroX_RightLeg,RightLeg_gyroY_RightLeg,RightLeg_gyroZ_RightLeg,RightLeg_Joint angle_RightLeg,RightLeg_Relative pos X_RightLeg,RightLeg_Relative pos Y_RightLeg,RightLeg_Relative pos Z_RightLeg,RightFoot_accelX_RightFoot,RightFoot_accelY_RightFoot,RightFoot_accelZ_RightFoot,RightFoot_gyroX_RightFoot,RightFoot_gyroY_RightFoot,RightFoot_gyroZ_RightFoot,RightFoot_Joint angle_RightFoot,RightFoot_Relative pos X_RightFoot,RightFoot_Relative pos Y_RightFoot,RightFoot_Relative pos Z_RightFoot,RightFootEnd_accelX_RightFootEnd,RightFootEnd_accelY_RightFootEnd,RightFootEnd_accelZ_RightFootEnd,RightFootEnd_gyroX_RightFootEnd,RightFootEnd_gyroY_RightFootEnd,RightFootEnd_gyroZ_RightFootEnd,RightFootEnd_Joint angle_RightFootEnd,RightFootEnd_Relative pos X_RightFootEnd,RightFootEnd_Relative pos Y_RightFootEnd,RightFootEnd_Relative pos Z_RightFootEnd,LeftPelvis_accelX_LeftPelvis,LeftPelvis_accelY_LeftPelvis,LeftPelvis_accelZ_LeftPelvis,LeftPelvis_gyroX_LeftPelvis,LeftPelvis_gyroY_LeftPelvis,LeftPelvis_gyroZ_LeftPelvis,LeftPelvis_Joint angle_LeftPelvis,LeftPelvis_Relative pos X_LeftPelvis,LeftPelvis_Relative pos Y_LeftPelvis,LeftPelvis_Relative pos Z_LeftPelvis,LeftUpLeg_accelX_LeftUpLeg,LeftUpLeg_accelY_LeftUpLeg,LeftUpLeg_accelZ_LeftUpLeg,LeftUpLeg_gyroX_LeftUpLeg,LeftUpLeg_gyroY_LeftUpLeg,LeftUpLeg_gyroZ_LeftUpLeg,LeftUpLeg_Joint angle_LeftUpLeg,LeftUpLeg_Relative pos X_LeftUpLeg,LeftUpLeg_Relative pos Y_LeftUpLeg,LeftUpLeg_Relative pos Z_LeftUpLeg,LeftLeg_accelX_LeftLeg,LeftLeg_accelY_LeftLeg,LeftLeg_accelZ_LeftLeg,LeftLeg_gyroX_LeftLeg,LeftLeg_gyroY_LeftLeg,LeftLeg_gyroZ_LeftLeg,LeftLeg_Joint angle_LeftLeg,LeftLeg_Relative pos X_LeftLeg,LeftLeg_Relative pos Y_LeftLeg,LeftLeg_Relative pos Z_LeftLeg,LeftFoot_accelX_LeftFoot,LeftFoot_accelY_LeftFoot,LeftFoot_accelZ_LeftFoot,LeftFoot_gyroX_LeftFoot,LeftFoot_gyroY_LeftFoot,LeftFoot_gyroZ_LeftFoot,LeftFoot_Joint angle_LeftFoot,LeftFoot_Relative pos X_LeftFoot,LeftFoot_Relative pos Y_LeftFoot,LeftFoot_Relative pos Z_LeftFoot,LeftFootEnd_accelX_LeftFootEnd,LeftFootEnd_accelY_LeftFootEnd,LeftFootEnd_accelZ_LeftFootEnd,LeftFootEnd_gyroX_LeftFootEnd,LeftFootEnd_gyroY_LeftFootEnd,LeftFootEnd_gyroZ_LeftFootEnd,LeftFootEnd_Joint angle_LeftFootEnd,LeftFootEnd_Relative pos X_LeftFootEnd,LeftFootEnd_Relative pos Y_LeftFootEnd,LeftFootEnd_Relative pos Z_LeftFootEnd,Spine_accelX_Spine,Spine_accelY_Spine,Spine_accelZ_Spine,Spine_gyroX_Spine,Spine_gyroY_Spine,Spine_gyroZ_Spine,Spine_Joint angle_Spine,Spine_Relative pos X_Spine,Spine_Relative pos Y_Spine,Spine_Relative pos Z_Spine,
0.0,0,0.0,0.0,0.0,0.0,0.0,0.0,0.0,0.0,0.0,0.0,0.0,0.0,0.0,0.0,0.0,0.0,0.0,0.0,0.0,0.0,0.0,0.0,0.0,0.0,0.0,0.0,NaN,0.0,0.0,0.0,0.0,0.0,0.0,0.0,0.0,0.0,NaN,0.0,0.0,0.0,0.0,0.0,0.0,0.0,0.0,0.0,NaN,0.0,0.0,0.0,0.0,0.0,0.0,0.0,0.0,0.0,0.0,0.0,0.0,0.0,0.0,0.0,0.0,0.0,0.0,0.0,0.0,0.0,0.0,0.0,0.0,0.0,0.0,0.0,0.0,0.0,NaN,0.0,0.0,0.0,0.0,0.0,0.0,0.0,0.0,0.0,NaN,0.0,0.0,0.0,0.0,0.0,0.0,0.0,0.0,0.0,NaN,0.0,0.0,0.0,0.0,0.0,0.0,0.0,0.0,0.0,0.0,0.0,0.0,0.0,0.0,0.0,0.0,0.0,0.0,0.0,0.0,0.0,0.0,0.0,
0.02343749930150809,1,0.0,0.0,0.0,0.0,0.0,0.0,0.0,0.0,0.0,0.0,0.0,0.0,0.0,0.0,0.0,0.0,0.0,0.0,0.0,0.0,0.0,0.0,0.0,0.0,0.0,0.0,NaN,0.0,0.0,0.0,0.0,0.0,0.0,0.0,0.0,0.0,NaN,0.0,0.0,0.0,0.0,0.0,0.0,0.0,0.0,0.0,NaN,0.0,0.0,0.0,0.0,0.0,0.0,0.0,0.0,0.0,0.0,0.0,0.0,0.0,0.0,0.0,0.0,0.0,0.0,0.0,0.0,0.0,0.0,0.0,0.0,0.0,0.0,0.0,0.0,0.0,NaN,0.0,0.0,0.0,0.0,0.0,0.0,0.0,0.0,0.0,NaN,0.0,0.0,0.0,0.0,0.0,0.0,0.0,0.0,0.0,NaN,0.0,0.0,0.0,0.0,0.0,0.0,0.0,0.0,0.0,0.0,0.0,0.0,0.0,0.0,0.0,0.0,0.0,0.0,0.0,0.0,0.0,0.0,0.0,
0.04687499860301618,2,0.0,0.0,0.0,0.0,0.0,0.0,0.0,0.0,0.0,0.0,0.0,0.0,0.0,0.0,0.0,0.0,0.0,0.0,0.0,0.0,0.0,0.0,0.0,0.0,0.0,0.0,NaN,0.0,0.0,0.0,0.0,0.0,0.0,0.0,0.0,0.0,NaN,0.0,0.0,0.0,0.0,0.0,0.0,0.0,0.0,0.0,NaN,0.0,0.0,0.0,0.0,0.0,0.0,0.0,0.0,0.0,0.0,0.0,0.0,0.0,0.0,0.0,0.0,0.0,0.0,0.0,0.0,0.0,0.0,0.0,0.0,0.0,0.0,0.0,0.0,0.0,NaN,0.0,0.0,0.0,0.0,0.0,0.0,0.0,0.0,0.0,NaN,0.0,0.0,0.0,0.0,0.0,0.0,0.0,0.0,0.0,NaN,0.0,0.0,0.0,0.0,0.0,0.0,0.0,0.0,0.0,0.0,0.0,0.0,0.0,0.0,0.0,0.0,0.0,0.0,0.0,0.0,0.0,0.0,0.0,
0.07031249790452426,3,-0.032836914,-0.60839844,0.8151245,0.0107421875,-0.025390625,0.0029296875,0.0,0.0,0.0,0.0,0.0,0.0,0.0,0.0,0.0,0.0,0.0,-0.23346895,0.042841487,0.9713928,-0.8812866,-0.09301758,-0.3513794,-0.79785156,0.7792969,0.43652344,6.3282156,-4.833532,0.8869516,20.110844,-0.9758911,-0.019897461,-0.18591309,0.0234375,0.12109375,-0.001953125,1.9536445,-6.707523,-56.06646,18.447586,0.0,0.0,0.0,0.0,0.0,0.0,NaN,-5.8719625,-128.07324,17.577868,0.0,0.0,0.0,0.0,0.0,0.0,0.0,-5.8719625,-128.07324,17.577868,0.0,0.0,0.0,0.0,0.0,0.0,0.0,0.23346895,-0.042841487,-0.9713928,0.9576416,-0.13378906,-0.24969482,-0.09277344,-0.01171875,-0.1640625,4.0788074,4.833532,-0.8869516,-20.110844,-0.97283936,-0.031799316,-0.12261963,-0.0703125,0.5214844,0.98535156,3.8448126,1.0895815,-57.7474,-18.721104,-0.2947998,0.6511841,0.6824951,9.765625E-4,0.00390625,-0.0087890625,2.904949,1.930558,-129.74292,-17.175611,0.0,0.0,0.0,0.0,0.0,0.0,0.0,18.683365,-129.55739,-6.2562838,0.0,0.0,0.0,0.0,0.0,0.0,0.0,6.0878725,44.58226,-0.503031,
0.09374999720603236,4,-0.023803711,-0.611145,0.81030273,0.030273438,-0.024414062,-0.015625,0.0,0.0,0.0,0.0,0.0,0.0,0.0,0.0,0.0,0.0,0.0,-0.23387262,0.04296292,0.971414,-0.88220215,-0.07897949,-0.35821533,-0.6464844,0.6826172,0.3232422,5.066393,-4.841889,0.8894658,20.111284,-0.98809814,-0.012084961,-0.17077637,0.0234375,0.005859375,-9.765625E-4,3.0274382,-7.8119893,-56.030125,19.036674,0.0,0.0,0.0,0.0,0.0,0.0,NaN,-6.914303,-128.03418,18.152548,0.0,0.0,0.0,0.0,0.0,0.0,0.0,-6.914303,-128.03418,18.152548,0.0,0.0,0.0,0.0,0.0,0.0,0.0,0.23387262,-0.04296292,-0.971414,0.9376221,-0.13476562,-0.24731445,-0.036132812,0.005859375,0.0029296875,4.1251173,4.841889,-0.8894658,-20.111284,-0.9807739,-0.010253906,-0.10089111,-0.05078125,0.38867188,0.6435547,3.135315,1.1985781,-57.76414,-18.87769,-0.29486084,0.6483154,0.6746216,0.001953125,-0.015625,-0.028320312,3.0786068,1.274926,-129.72528,-16.001165,0.0,0.0,0.0,0.0,0.0,0.0,0.0,18.027098,-129.53648,-5.0790462,0.0,0.0,0.0,0.0,0.0,0.0,0.0,6.0674562,44.5904,-0.5113394,
0.11718749650754046,5,-0.030944824,-0.64282227,0.8101196,-0.0087890625,-0.0068359375,-0.016601562,0.0,0.0,0.0,0.0,0.0,0.0,0.0,0.0,0.0,0.0,0.0,-0.23510203,0.04272779,0.97130674,-0.89208984,-0.10333252,-0.31536865,-0.28808594,0.3154297,0.15136719,4.30325,-4.867339,0.8845976,20.109058,-0.97283936,-0.028625488,-0.1899414,0.0234375,0.005859375,-9.765625E-4,3.6940088,-8.483198,-56.00336,19.345734,-0.4298706,-0.59033203,0.66522217,0.0029296875,-0.0029296875,-0.02734375,21.930271,-7.596123,-128.01418,18.415321,0.0,0.0,0.0,0.0,0.0,0.0,0.0,1.9291005,-128.03085,36.00271,0.0,0.0,0.0,0.0,0.0,0.0,0.0,0.23510203,-0.04272779,-0.97130674,0.9925537,-0.13671875,-0.21972656,0.020507812,-0.0126953125,0.001953125,4.162172,4.867339,-0.8845976,-20.109058,-0.96875,-0.030944824,-0.120666504,-0.0703125,0.123046875,0.07421875,2.8701036,1.300569,-57.758076,-18.852549,-0.31298828,0.6446533,0.67163086,0.001953125,-0.015625,-0.028320312,3.0809588,1.030391,-129.69579,-15.557461,0.0,0.0,0.0,0.0,0.0,0.0,0.0,17.784824,-129.51738,-4.63943,0.0,0.0,0.0,0.0,0.0,0.0,0.0,6.0338745,44.60297,-0.5016031,
0.14062499580904855,6,-0.014831543,-0.6098633,0.80548096,0.0107421875,-0.0068359375,0.0029296875,0.0,0.0,0.0,0.0,0.0,0.0,0.0,0.0,0.0,0.0,0.0,-0.23586956,0.043205313,0.97102404,-0.9138794,-0.11810303,-0.34576416,0.0146484375,0.025390625,0.017578125,4.2481914,-4.883232,0.8944841,20.103209,-0.99212646,-0.02166748,-0.18579102,0.024414062,-0.032226562,-0.0390625,3.7732527,-8.567654,-55.988583,19.328915,-0.42645264,-0.62371826,0.6911011,0.021484375,-0.022460938,-0.0087890625,21.924583,-7.667397,-127.9946,18.38826,0.0,0.0,0.0,0.0,0.0,0.0,0.0,1.8537269,-127.997635,35.976593,0.0,0.0,0.0,0.0,0.0,0.0,0.0,0.23586956,-0.043205313,-0.97102404,0.96661377,-0.14068604,-0.22717285,0.020507812,-0.0126953125,0.001953125,4.2352633,4.883232,-0.8944841,-20.103209,-1.0098267,-0.037353516,-0.12084961,0.0029296875,0.0068359375,-0.021484375,2.8198755,1.3882139,-57.77603,-18.808704,-0.28173828,0.64801025,0.68743896,-0.018554688,0.00390625,-0.02734375,3.0355747,1.178559,-129.72208,-15.580581,0.0,0.0,0.0,0.0,0.0,0.0,0.0,17.935078,-129.5408,-4.66644,0.0,0.0,0.0,0.0,0.0,0.0,0.0,6.0326138,44.599617,-0.5190711,
0.16406249511055665,7,-0.029846191,-0.62054443,0.82507324,0.030273438,-0.024414062,-0.015625,0.0,0.0,0.0,0.0,0.0,0.0,0.0,0.0,0.0,0.0,0.0,-0.23629022,0.0430939,0.97085154,-0.8798218,-0.10736084,-0.3803711,-0.04296875,0.025390625,-9.765625E-4,4.3670425,-4.89194,0.89217746,20.099636,-0.9911499,-0.01977539,-0.17883301,0.0048828125,0.005859375,-9.765625E-4,3.7101405,-8.484764,-55.99972,19.242735,-0.40893555,-0.6083374,0.69299316,0.0234375,0.015625,-0.009765625,21.897364,-7.540116,-128.00226,18.289268,0.0,0.0,0.0,0.0,0.0,0.0,0.0,1.9831309,-127.99082,35.877346,0.0,0.0,0.0,0.0,0.0,0.0,0.0,0.23629022,-0.0430939,-0.97085154,0.96728516,-0.10614014,-0.21685791,9.765625E-4,0.005859375,0.021484375,4.283406,4.89194,-0.89217746,-20.099636,-0.9483032,-0.037902832,-0.13439941,-0.016601562,0.0068359375,0.016601562,2.8007903,1.4374611,-57.776337,-18.817465,-0.3189087,0.64642334,0.6972656,0.001953125,-0.034179688,-0.028320312,2.9352496,1.274853,-129.72829,-15.678173,0.0,0.0,0.0,0.0,0.0,0.0,0.0,18.043135,-129.54964,-4.7825165,0.0,0.0,0.0,0.0,0.0,0.0,0.0,6.038433,44.59562,-0.50983715,
0.18749999441206475,8,-0.017822266,-0.61260986,0.7965088,0.0107421875,-0.0068359375,-0.016601562,0.0,0.0,0.0,0.0,0.0,0.0,0.0,0.0,0.0,0.0,0.0,-0.23737195,0.042962085,0.9707042,-0.87353516,-0.121032715,-0.3468628,-0.0234375,0.025390625,-9.765625E-4,4.4387965,-4.9143357,0.88944834,20.096588,-0.9749756,-0.030639648,-0.17401123,0.024414062,-0.0126953125,-0.0390625,3.620825,-8.41211,-56.000427,19.196749,-0.4307251,-0.59588623,0.69415283,0.022460938,-0.00390625,-0.0087890625,21.847864,-7.457978,-128.00243,18.22712,0.0,0.0,0.0,0.0,0.0,0.0,0.0,2.0783792,-127.97718,35.808006,0.0,0.0,0.0,0.0,0.0,0.0,0.0,0.23737195,-0.042962085,-0.9707042,0.9807129,-0.13977051,-0.24926758,0.01953125,0.005859375,0.001953125,4.3060703,4.9143357,-0.88944834,-20.096588,-0.96661377,-0.024108887,-0.11273193,-0.0546875,0.0078125,-0.001953125,2.7737522,1.5108869,-57.772923,-18.800953,-0.29077148,0.64611816,0.6923218,9.765625E-4,0.00390625,-0.0087890625,2.9093256,1.3967109,-129.71999,-15.718828,0.0,0.0,0.0,0.0,0.0,0.0,0.0,18.169891,-129.54585,-4.8302402,0.0,0.0,0.0,0.0,0.0,0.0,0.0,6.014457,44.60381,-0.503355,
0.21093749371357284,9,-0.029907227,-0.630249,0.8190918,0.0107421875,-0.025390625,0.0029296875,0.0,0.0,0.0,0.0,0.0,0.0,0.0,0.0,0.0,0.0,0.0,-0.23894697,0.04293806,0.9703455,-0.8848877,-0.07128906,-0.3421631,-0.0234375,-0.051757812,-9.765625E-4,4.5114956,-4.9469438,0.8889511,20.08916,-0.973938,-0.03161621,-0.18200684,0.0048828125,-0.0703125,-0.020507812,3.5349624,-8.36163,-56.008797,19.13295,-0.42510986,-0.576355,0.703125,0.0029296875,-0.00390625,-0.0087890625,21.818111,-7.4067554,-128.01157,18.147709,0.0,0.0,0.0,0.0,0.0,0.0,0.0,2.1347847,-127.97745,35.726524,0.0,0.0,0.0,0.0,0.0,0.0,0.0,0.23894697,-0.04293806,-0.9703455,1.008667,-0.12695312,-0.24377441,0.057617188,-0.03125,9.765625E-4,4.3484354,4.9469438,-0.8889511,-20.08916,-0.97961426,-3.0517578E-4,-0.09887695,-0.03515625,0.0078125,0.016601562,2.731655,1.6060317,-57.777412,-18.773212,-0.3088379,0.65509033,0.69732666,-0.018554688,0.00390625,-0.02734375,2.9032638,1.5271671,-129.73178,-15.707374,0.0,0.0,0.0,0.0,0.0,0.0,0.0,18.299868,-129.56178,-4.8176336,0.0,0.0,0.0,0.0,0.0,0.0,0.0,5.9955072,44.60761,-0.497509,
0.23437499301508094,10,-0.019897461,-0.62805176,0.8162842,0.030273438,-0.005859375,0.0029296875,0.0,0.0,0.0,0.0,0.0,0.0,0.0,0.0,0.0,0.0,0.0,-0.23993516,0.043163814,0.9700844,-0.87731934,-0.107177734,-0.33966064,-0.0234375,-0.0126953125,-9.765625E-4,4.6028757,-4.9674015,0.89362484,20.083755,-0.9850464,-0.018859863,-0.17687988,0.0234375,-0.0126953125,-9.765625E-4,3.4568903,-8.294434,-56.011974,19.077719,-0.44311523,-0.57299805,0.7062988,0.022460938,-0.00390625,-0.0087890625,21.747875,-7.325231,-128.01111,18.05884,0.0,0.0,0.0,0.0,0.0,0.0,0.0,2.2250352,-127.97065,35.63163,0.0,0.0,0.0,0.0,0.0,0.0,0.0,0.23993516,-0.043163814,-0.9700844,0.9645386,-0.14257812,-0.21520996,0.020507812,-0.0126953125,0.001953125,4.3848114,4.9674015,-0.89362484,-20.083755,-1.0194702,-0.0513916,-0.111083984,-0.034179688,0.06542969,0.017578125,2.7465906,1.6806307,-57.787216,-18.789148,-0.3250122,0.64385986,0.6706543,9.765625E-4,0.00390625,-0.0087890625,2.8664181,1.7018287,-129.74326,-15.8035965,0.0,0.0,0.0,0.0,0.0,0.0,0.0,18.47605,-129.57541,-4.9151,0.0,0.0,0.0,0.0,0.0,0.0,0.0,5.985281,44.608585,-0.5044892,
0.25781249231658904,11,-0.01977539,-0.6088257,0.8321533,0.0107421875,0.01171875,-0.016601562,0.0,0.0,0.0,0.0,0.0,0.0,0.0,0.0,0.0,0.0,0.0,-0.24051967,0.043457374,0.969872,-0.8815918,-0.10473633,-0.3604126,0.0146484375,-0.013671875,-9.765625E-4,4.70153,-4.979503,0.89970237,20.079357,-0.9719238,-0.034484863,-0.184021,0.04296875,-0.0126953125,-9.765625E-4,3.3880138,-8.228264,-56.00992,19.015793,-0.4124756,-0.59246826,0.69903564,-0.015625,0.015625,-0.009765625,21.735502,-7.2441635,-128.01338,17.970173,0.0,0.0,0.0,0.0,0.0,0.0,0.0,2.3024588,-127.9554,35.54483,0.0,0.0,0.0,0.0,0.0,0.0,0.0,0.24051967,-0.043457374,-0.969872,0.9606323,-0.15441895,-0.215271,0.057617188,-0.0126953125,9.765625E-4,4.4328356,4.979503,-0.89970237,-20.079357,-0.97058105,-0.017089844,-0.113708496,-0.053710938,0.045898438,0.036132812,2.7580411,1.7407322,-57.791782,-18.765747,-0.29083252,0.6511841,0.6756592,9.765625E-4,0.00390625,-0.02734375,2.80107,1.8539462,-129.74864,-15.835421,0.0,0.0,0.0,0.0,0.0,0.0,0.0,18.637535,-129.58295,-4.961645,0.0,0.0,0.0,0.0,0.0,0.0,0.0,5.984626,44.606155,-0.5145482,
0.2812499916180971,12,-0.026855469,-0.61376953,0.79833984,-0.0087890625,-0.0068359375,0.001953125,0.0,0.0,0.0,0.0,0.0,0.0,0.0,0.0,0.0,0.0,0.0,-0.24163648,0.04361195,0.96961206,-0.88586426,-0.093566895,-0.31445312,-0.0048828125,0.005859375,0.017578125,4.806768,-5.0026245,0.9029027,20.073977,-0.98309326,-0.045043945,-0.19006348,0.0234375,0.005859375,-0.020507812,3.305412,-8.146995,-56.00333,18.945929,-0.40509033,-0.6057129,0.66101074,0.0029296875,-0.00390625,-0.0087890625,21.73601,-7.1343875,-128.00363,17.84813,0.0,0.0,0.0,0.0,0.0,0.0,0.0,2.4139771,-127.93298,35.422523,0.0,0.0,0.0,0.0,0.0,0.0,0.0,0.24163648,-0.04361195,-0.96961206,0.9645996,-0.13085938,-0.24285889,0.076171875,-0.0126953125,9.765625E-4,4.4365897,5.0026245,-0.9029027,-20.073977,-0.98657227,-0.020751953,-0.16296387,-0.03515625,0.0078125,-0.001953125,2.7428107,1.7888734,-57.80146,-18.77098,-0.2939453,0.6317749,0.66864014,0.0,0.022460938,-0.0087890625,2.7740345,1.924515,-129.76434,-15.905701,0.0,0.0,0.0,0.0,0.0,0.0,0.0,18.711435,-129.60432,-5.0378475,0.0,0.0,0.0,0.0,0.0,0.0,0.0,5.969723,44.60919,-0.5187547,
0.3046874909196052,13,-0.03491211,-0.6304321,0.8239746,0.0107421875,-0.025390625,-0.016601562,0.0,0.0,0.0,0.0,0.0,0.0,0.0,0.0,0.0,0.0,0.0,-0.24211654,0.04330997,0.96951044,-0.8812866,-0.10308838,-0.3425293,0.013671875,-0.051757812,-0.001953125,4.827711,-5.012564,0.89665085,20.071873,-0.99224854,-0.033325195,-0.17993164,0.0234375,0.025390625,-9.765625E-4,3.2768586,-8.118658,-56.015408,18.901775,-0.42340088,-0.61968994,0.6850586,-0.015625,0.015625,-0.009765625,21.655056,-7.092048,-128.01247,17.78004,0.0,0.0,0.0,0.0,0.0,0.0,0.0,2.4663653,-127.938095,35.347942,0.0,0.0,0.0,0.0,0.0,0.0,0.0,0.24211654,-0.04330997,-0.96951044,0.95654297,-0.140625,-0.21899414,9.765625E-4,0.024414062,0.0029296875,4.4503427,5.012564,-0.89665085,-20.071873,-0.96173096,-0.022888184,-0.082214355,-0.016601562,0.0068359375,0.016601562,2.7435243,1.8425884,-57.795975,-18.802553,-0.28485107,0.63842773,0.67456055,-0.018554688,0.00390625,-0.02734375,2.6997964,2.0334687,-129.76144,-15.972729,0.0,0.0,0.0,0.0,0.0,0.0,0.0,18.827219,-129.59567,-5.1141987,0.0,0.0,0.0,0.0,0.0,0.0,0.0,5.9485216,44.61236,-0.50739455,
0.32812499022111324,14,-0.027832031,-0.61639404,0.8201294,0.0107421875,-0.0068359375,0.021484375,0.0,0.0,0.0,0.0,0.0,0.0,0.0,0.0,0.0,0.0,0.0,-0.24259284,0.043461002,0.9694234,-0.8822632,-0.07989502,-0.36218262,-0.061523438,0.025390625,0.0,4.887239,-5.0224233,0.8997774,20.07007,-0.9840088,-0.01977539,-0.18585205,0.04296875,-0.0126953125,-0.020507812,3.2251902,-8.077929,-56.010555,18.843012,-0.43096924,-0.5932007,0.6612549,0.0029296875,-0.022460938,0.009765625,21.648531,-7.0499973,-128.01712,17.7144,0.0,0.0,0.0,0.0,0.0,0.0,0.0,2.5069904,-127.9357,35.284508,0.0,0.0,0.0,0.0,0.0,0.0,0.0,0.24259284,-0.043461002,-0.9694234,0.9924927,-0.13079834,-0.21173096,0.020507812,-0.0126953125,0.001953125,4.468614,5.0224233,-0.8997774,-20.07007,-0.9796753,-0.01574707,-0.124572754,0.00390625,0.045898438,-0.001953125,2.7543478,1.882628,-57.801056,-18.780968,-0.2909546,0.6376343,0.6637573,9.765625E-4,0.00390625,-0.0087890625,2.6441205,2.142911,-129.76547,-16.027628,0.0,0.0,0.0,0.0,0.0,0.0,0.0,18.941422,-129.60643,-5.1783333,0.0,0.0,0.0,0.0,0.0,0.0,0.0,5.9381995,44.615364,-0.5141854,
0.3515624895226213,15,-0.018798828,-0.6088257,0.77075195,0.0107421875,-0.025390625,0.0029296875,0.0,0.0,0.0,0.0,0.0,0.0,0.0,0.0,0.0,0.0,0.0,-0.2440384,0.043505263,0.969059,-0.8630371,-0.09863281,-0.33795166,-0.0048828125,-0.013671875,-9.765625E-4,4.934711,-5.052351,0.9006937,20.062527,-0.98205566,-0.02960205,-0.1739502,0.04296875,-0.0126953125,-9.765625E-4,3.152501,-8.035745,-56.0144,18.838797,-0.4204712,-0.616272,0.6611328,0.022460938,-0.00390625,0.009765625,21.636568,-7.010498,-128.01726,17.662422,0.0,0.0,0.0,0.0,0.0,0.0,0.0,2.5482292,-127.93316,35.230812,0.0,0.0,0.0,0.0,0.0,0.0,0.0,0.2440384,-0.043505263,-0.969059,0.96069336,-0.14855957,-0.23504639,0.020507812,-0.0126953125,0.001953125,4.50176,5.052351,-0.9006937,-20.062527,-0.99212646,-0.028259277,-0.13647461,-0.034179688,0.045898438,0.016601562,2.7179337,1.9615865,-57.8071,-18.761545,-0.29058838,0.67749023,0.68859863,0.020507812,-0.015625,-0.009765625,2.615764,2.2485979,-129.77252,-16.06933,0.0,0.0,0.0,0.0,0.0,0.0,0.0,19.052189,-129.61636,-5.226944,0.0,0.0,0.0,0.0,0.0,0.0,0.0,5.923965,44.61731,-0.5112306,
0.3749999888241294,16,-0.037841797,-0.6121216,0.80615234,0.0107421875,0.01171875,0.001953125,0.0,0.0,0.0,0.0,0.0,0.0,0.0,0.0,0.0,0.0,0.0,-0.24464172,0.043763697,0.96888167,-0.88964844,-0.10650635,-0.3602295,0.033203125,-0.033203125,-0.001953125,5.004294,-5.0648417,0.9060441,20.058855,-0.95861816,-0.021057129,-0.1829834,0.0234375,-0.0126953125,-0.020507812,3.096234,-7.9839115,-56.012302,18.805187,-0.4104004,-0.5874634,0.69299316,0.022460938,-0.00390625,-0.0087890625,21.60601,-6.9466004,-128.01077,17.64576,0.0,0.0,0.0,0.0,0.0,0.0,0.0,2.614675,-127.9126,35.212967,0.0,0.0,0.0,0.0,0.0,0.0,0.0,0.24464172,-0.043763697,-0.96888167,0.98779297,-0.15252686,-0.23565674,0.020507812,-0.0126953125,0.001953125,4.5110183,5.0648417,-0.9060441,-20.058855,-0.9824219,-0.011108398,-0.15112305,-0.034179688,0.045898438,-0.001953125,2.6803684,1.9897108,-57.80798,-18.739426,-0.29370117,0.67285156,0.6679077,0.0,0.041992188,-0.0087890625,2.652768,2.258096,-129.78113,-16.09937,0.0,0.0,0.0,0.0,0.0,0.0,0.0,19.063494,-129.63046,-5.258114,0.0,0.0,0.0,0.0,0.0,0.0,0.0,5.91842,44.617332,-0.5209377,
0.39843748812563745,17,-0.032836914,-0.6234131,0.8210449,0.030273438,0.0126953125,0.0029296875,0.0,0.0,0.0,0.0,0.0,0.0,0.0,0.0,0.0,0.0,0.0,-0.24531856,0.04351048,0.9687109,-0.87194824,-0.10064697,-0.32580566,-0.0048828125,0.005859375,-9.765625E-4,5.097237,-5.078855,0.90080184,20.055317,-0.97283936,-0.021911621,-0.17993164,0.0234375,0.005859375,-0.020507812,3.0010052,-7.9116187,-56.0236,18.7392,-0.42089844,-0.5977173,0.677124,0.00390625,-0.00390625,0.009765625,21.602179,-6.884782,-128.028,17.531614,0.0,0.0,0.0,0.0,0.0,0.0,0.0,2.6769218,-127.92024,35.09938,0.0,0.0,0.0,0.0,0.0,0.0,0.0,0.24531856,-0.04351048,-0.9687109,0.989563,-0.13867188,-0.21569824,0.020507812,-0.0126953125,0.001953125,4.578768,5.078855,-0.90080184,-20.055317,-0.9585571,-0.022644043,-0.09399414,-0.016601562,0.0078125,-0.001953125,2.6433804,2.0687895,-57.8044,-18.704515,-0.30767822,0.6837158,0.67089844,9.765625E-4,0.00390625,-0.0087890625,2.6205487,2.3800225,-129.77623,-16.097324,0.0,0.0,0.0,0.0,0.0,0.0,0.0,19.187366,-129.62689,-5.25858,0.0,0.0,0.0,0.0,0.0,0.0,0.0,5.9148088,44.617493,-0.5061531,
0.4218749874271455,18,-0.016845703,-0.6213989,0.79351807,0.030273438,0.0126953125,0.0029296875,0.0,0.0,0.0,0.0,0.0,0.0,0.0,0.0,0.0,0.0,0.0,-0.24619672,0.043770757,0.96848136,-0.90753174,-0.09643555,-0.34576416,-0.0048828125,0.005859375,-9.765625E-4,5.159018,-5.0970354,0.90619034,20.050566,-0.97088623,-0.033569336,-0.184021,0.0234375,-0.032226562,-0.020507812,2.9420445,-7.874868,-56.02051,18.686993,-0.41931152,-0.6157837,0.68304443,0.00390625,0.015625,0.0087890625,21.56929,-6.8522654,-128.0212,17.466581,0.0,0.0,0.0,0.0,0.0,0.0,0.0,2.718155,-127.90143,35.027924,0.0,0.0,0.0,0.0,0.0,0.0,0.0,0.24619672,-0.043770757,-0.96848136,0.98358154,-0.14654541,-0.21368408,0.057617188,0.005859375,9.765625E-4,4.593802,5.0970354,-0.90619034,-20.050566,-0.9543457,-0.028137207,-0.118652344,-0.015625,0.045898438,0.036132812,2.6401942,2.11172,-57.813572,-18.66537,-0.30395508,0.6526489,0.64416504,-0.018554688,0.022460938,-0.0087890625,2.600604,2.4588296,-129.78564,-16.11987,0.0,0.0,0.0,0.0,0.0,0.0,0.0,19.269735,-129.64279,-5.288472,0.0,0.0,0.0,0.0,0.0,0.0,0.0,5.9044127,44.618988,-0.5156112,
0.4453124867286536,19,-0.035949707,-0.6491699,0.82092285,-0.0087890625,-0.0068359375,0.001953125,0.0,0.0,0.0,0.0,0.0,0.0,0.0,0.0,0.0,0.0,0.0,-0.24682117,0.04335417,0.9682558,-0.87164307,-0.10974121,-0.3696289,-0.061523438,0.064453125,0.037109375,5.2279844,-5.1099634,0.8975656,20.045898,-0.97088623,-0.033569336,-0.184021,0.0234375,-0.032226562,-0.020507812,2.865872,-7.811661,-56.02873,18.62982,-0.45367432,-0.5895386,0.70336914,0.0048828125,0.015625,0.02734375,21.538828,-6.7890587,-128.0294,17.409409,0.0,0.0,0.0,0.0,0.0,0.0,0.0,2.7914238,-127.90162,34.96607,0.0,0.0,0.0,0.0,0.0,0.0,0.0,0.24682117,-0.04335417,-0.9682558,0.9765625,-0.12689209,-0.24310303,0.01953125,0.005859375,0.001953125,4.603301,5.1099634,-0.8975656,-20.045898,-0.9932251,-0.02178955,-0.11279297,-0.016601562,0.0078125,-0.001953125,2.6557176,2.1420405,-57.807472,-18.655787,-0.2788086,0.6392212,0.68640137,0.040039062,0.00390625,-0.009765625,2.5517495,2.5314317,-129.77707,-16.116222,0.0,0.0,0.0,0.0,0.0,0.0,0.0,19.346931,-129.62965,-5.2903214,0.0,0.0,0.0,0.0,0.0,0.0,0.0,5.893838,44.616863,-0.49532676,
0.46874998603016166,20,-0.014892578,-0.63098145,0.8173218,-0.0087890625,-0.025390625,0.0029296875,0.0,0.0,0.0,0.0,0.0,0.0,0.0,0.0,0.0,0.0,0.0,-0.24654788,0.043538526,0.9683772,-0.8631592,-0.103515625,-0.34295654,0.0146484375,-0.013671875,-9.765625E-4,5.267154,-5.1043053,0.90138245,20.04841,-0.98101807,-0.027648926,-0.17694092,0.0048828125,0.005859375,-9.765625E-4,2.8159158,-7.7632885,-56.026115,18.629253,-0.42071533,-0.5982666,0.70007324,-0.015625,-0.00390625,0.009765625,21.476547,-6.7494955,-128.02214,17.398415,0.0,0.0,0.0,0.0,0.0,0.0,0.0,2.8327074,-127.885994,34.952965,0.0,0.0,0.0,0.0,0.0,0.0,0.0,0.24654788,-0.043538526,-0.9683772,0.97961426,-0.14263916,-0.22943115,0.020507812,-0.0126953125,0.001953125,4.5764146,5.1043053,-0.90138245,-20.04841,-0.9845581,-0.02178955,-0.16296387,-0.015625,0.026367188,-0.020507812,2.6870055,2.1172268,-57.80886,-18.642982,-0.31103516,0.63391113,0.6696167,9.765625E-4,0.00390625,-0.02734375,2.565977,2.5253174,-129.77943,-16.1571,0.0,0.0,0.0,0.0,0.0,0.0,0.0,19.340681,-129.6362,-5.3298225,0.0,0.0,0.0,0.0,0.0,0.0,0.0,5.8878956,44.620155,-0.50708294,
0.4921874853316697,21,-0.030883789,-0.6347656,0.8051758,0.0107421875,-0.025390625,-0.016601562,0.0,0.0,0.0,0.0,0.0,0.0,0.0,0.0,0.0,0.0,0.0,-0.24839577,0.04351198,0.9679598,-0.87646484,-0.10089111,-0.35949707,-0.0048828125,0.005859375,0.017578125,5.3214498,-5.142565,0.9008328,20.039768,-0.9790039,-0.0256958,-0.17895508,0.0048828125,-0.032226562,-0.020507812,2.7463768,-7.730559,-56.026638,18.569809,-0.45318604,-0.5695801,0.69940186,0.00390625,0.015625,0.0087890625,21.47857,-6.715582,-128.02225,17.311848,0.0,0.0,0.0,0.0,0.0,0.0,0.0,2.8679266,-127.88302,34.86555,0.0,0.0,0.0,0.0,0.0,0.0,0.0,0.24839577,-0.04351198,-0.9679598,0.9682617,-0.109069824,-0.21295166,0.01953125,0.005859375,-0.03515625,4.579923,5.142565,-0.9008328,-20.039768,-0.99121094,-0.023864746,-0.110839844,0.001953125,0.0068359375,0.016601562,2.6787612,2.1872072,-57.80549,-18.62559,-0.29974365,0.6679077,0.67871094,-0.018554688,0.00390625,0.009765625,2.5436826,2.6261802,-129.78127,-16.204037,0.0,0.0,0.0,0.0,0.0,0.0,0.0,19.441965,-129.63135,-5.3794594,0.0,0.0,0.0,0.0,0.0,0.0,0.0,5.8640985,44.625713,-0.5011934,
0.5156249846331779,22,-0.01586914,-0.6300049,0.8173218,0.030273438,-0.061523438,0.00390625,0.0,0.0,0.0,0.0,0.0,0.0,0.0,0.0,0.0,0.0,0.0,-0.24934685,0.043625295,0.9677131,-0.88720703,-0.09307861,-0.33929443,0.0146484375,-0.013671875,-9.765625E-4,5.367099,-5.162253,0.90317893,20.03466,-0.99121094,-0.038208008,-0.1819458,0.0234375,-0.0126953125,-9.765625E-4,2.7223234,-7.713749,-56.025352,18.508724,-0.4350586,-0.6014404,0.6812134,0.0029296875,-0.00390625,-0.0087890625,21.44809,-6.6841655,-128.02571,17.233707,0.0,0.0,0.0,0.0,0.0,0.0,0.0,2.8992763,-127.87857,34.787895,0.0,0.0,0.0,0.0,0.0,0.0,0.0,0.24934685,-0.043625295,-0.9677131,1.0007935,-0.1437378,-0.24975586,-0.017578125,0.024414062,0.0029296875,4.5909867,5.162253,-0.90317893,-20.03466,-0.9812012,-0.04260254,-0.12664795,-0.015625,0.026367188,0.016601562,2.653063,2.2343085,-57.811638,-18.640097,-0.2767334,0.64190674,0.7061157,9.765625E-4,0.00390625,0.009765625,2.5461438,2.6754148,-129.78825,-16.24797,0.0,0.0,0.0,0.0,0.0,0.0,0.0,19.49717,-129.63814,-5.4323044,0.0,0.0,0.0,0.0,0.0,0.0,0.0,5.854299,44.627106,-0.50337195,
0.5390624839346859,23,-0.0087890625,-0.6113281,0.8223877,0.030273438,-0.005859375,-0.015625,0.0,0.0,0.0,0.0,0.0,0.0,0.0,0.0,0.0,0.0,0.0,-0.24931031,0.043880895,0.96770996,-0.9030762,-0.073791504,-0.3416748,-0.0048828125,-0.013671875,-9.765625E-4,5.3845596,-5.1614966,0.9084706,20.034597,-0.9810791,-0.031555176,-0.17102051,0.0048828125,-0.0126953125,-0.0390625,2.7096388,-7.7000976,-56.021313,18.507969,-0.43554688,-0.6265869,0.6981201,0.022460938,-0.00390625,-0.0087890625,21.441532,-6.6705294,-128.02086,17.231094,0.0,0.0,0.0,0.0,0.0,0.0,0.0,2.9194756,-127.869675,34.781845,0.0,0.0,0.0,0.0,0.0,0.0,0.0,0.24931031,-0.043880895,-0.96770996,0.9714966,-0.119018555,-0.23498535,0.020507812,-0.03125,0.001953125,4.610232,5.1614966,-0.9084706,-20.034597,-1.0030518,-0.010192871,-0.13446045,-0.016601562,0.0068359375,0.016601562,2.6132934,2.2557237,-57.819042,-18.63481,-0.27172852,0.6469116,0.6893921,-0.017578125,0.00390625,0.028320312,2.5589497,2.6746476,-129.79424,-16.273376,0.0,0.0,0.0,0.0,0.0,0.0,0.0,19.492516,-129.64146,-5.452688,0.0,0.0,0.0,0.0,0.0,0.0,0.0,5.8533626,44.627045,-0.5156206,
0.562499983236194,24,-0.041931152,-0.6442261,0.81988525,0.0107421875,-0.025390625,0.0029296875,0.0,0.0,0.0,0.0,0.0,0.0,0.0,0.0,0.0,0.0,0.0,-0.24910858,0.044098146,0.9677241,-0.88635254,-0.10394287,-0.3433838,-0.0048828125,-0.013671875,0.017578125,5.4651866,-5.157319,0.91296834,20.034887,-0.96777344,-0.023864746,-0.18096924,0.0234375,0.005859375,-9.765625E-4,2.6470802,-7.628984,-56.025402,18.487112,-0.42626953,-0.58013916,0.6951294,0.022460938,-0.00390625,0.009765625,21.38758,-6.594081,-128.0215,17.183132,0.0,0.0,0.0,0.0,0.0,0.0,0.0,3.0047264,-127.8676,34.729168,0.0,0.0,0.0,0.0,0.0,0.0,0.0,0.24910858,-0.044098146,-0.9677241,1.0167847,-0.14666748,-0.24017334,0.020507812,-0.0126953125,0.001953125,4.628974,5.157319,-0.91296834,-20.034887,-0.95947266,-0.022338867,-0.10681152,-0.016601562,0.026367188,0.036132812,2.60812,2.2635925,-57.822575,-18.613821,-0.31097412,0.6437988,0.66082764,0.001953125,-0.015625,-0.009765625,2.5652905,2.6914034,-129.79552,-16.217915,0.0,0.0,0.0,0.0,0.0,0.0,0.0,19.510174,-129.6455,-5.397791,0.0,0.0,0.0,0.0,0.0,0.0,0.0,5.8574924,44.62516,-0.5257027,
0.5859374825377021,25,0.005126953,-0.6248169,0.81658936,0.030273438,-0.005859375,-0.03515625,0.0,0.0,0.0,0.0,0.0,0.0,0.0,0.0,0.0,0.0,0.0,-0.24991345,0.044503294,0.9675085,-0.87158203,-0.11395264,-0.3567505,-0.0048828125,-0.032226562,-0.01953125,5.482621,-5.1739836,0.9213562,20.030424,-0.97595215,-0.0335083,-0.18200684,0.04296875,-0.0126953125,-0.0390625,2.6560862,-7.639291,-56.01434,18.444603,-0.4506836,-0.5905762,0.70233154,0.0029296875,-0.022460938,-0.0087890625,21.368338,-6.5869226,-128.00856,17.141426,0.0,0.0,0.0,0.0,0.0,0.0,0.0,3.0175543,-127.84842,34.683582,0.0,0.0,0.0,0.0,0.0,0.0,0.0,0.24991345,-0.044503294,-0.9675085,0.97650146,-0.119018555,-0.23504639,-0.017578125,0.005859375,0.0029296875,4.634176,5.1739836,-0.9213562,-20.030424,-1.0015259,-0.027648926,-0.11383057,0.0029296875,0.026367188,-0.001953125,2.6284542,2.308334,-57.833313,-18.643816,-0.30877686,0.6608887,0.7022705,0.001953125,-0.015625,-0.009765625,2.5351267,2.7968092,-129.81241,-16.279583,0.0,0.0,0.0,0.0,0.0,0.0,0.0,19.615578,-129.66238,-5.4594593,0.0,0.0,0.0,0.0,0.0,0.0,0.0,5.8465595,44.62685,-0.542536,
0.6093749818392101,26,-0.03894043,-0.64678955,0.8070679,-0.0087890625,0.01171875,-0.036132812,0.0,0.0,0.0,0.0,0.0,0.0,0.0,0.0,0.0,0.0,0.0,-0.25012016,0.04465267,0.967307,-0.8843994,-0.10491943,-0.3474121,0.0146484375,-0.013671875,-9.765625E-4,5.5279365,-5.178263,0.92444885,20.026253,-0.9840698,-0.030517578,-0.1819458,0.04296875,0.0068359375,-9.765625E-4,2.629199,-7.6056376,-56.006634,18.374771,-0.42419434,-0.61065674,0.6821289,-0.015625,-0.022460938,0.009765625,21.30658,-6.543254,-128.00232,17.051384,0.0,0.0,0.0,0.0,0.0,0.0,0.0,3.0673704,-127.843414,34.591377,0.0,0.0,0.0,0.0,0.0,0.0,0.0,0.25012016,-0.04465267,-0.967307,0.9814453,-0.13665771,-0.20562744,0.01953125,0.005859375,0.001953125,4.621435,5.178263,-0.92444885,-20.026253,-0.9503784,-0.030334473,-0.11175537,0.0029296875,0.026367188,0.016601562,2.619951,2.324986,-57.834713,-18.62581,-0.29089355,0.6405029,0.6677246,0.0,0.022460938,-0.0087890625,2.5157506,2.8184566,-129.80876,-16.258942,0.0,0.0,0.0,0.0,0.0,0.0,0.0,19.644238,-129.65712,-5.4496765,0.0,0.0,0.0,0.0,0.0,0.0,0.0,5.8261294,44.623196,-0.5534053,
0.6328124811407182,27,-0.019836426,-0.6107178,0.7994385,0.0107421875,0.0126953125,-0.036132812,0.0,0.0,0.0,0.0,0.0,0.0,0.0,0.0,0.0,0.0,0.0,-0.25019318,0.044871643,0.9672687,-0.89263916,-0.09539795,-0.36602783,-0.04296875,0.025390625,0.036132812,5.5745716,-5.179776,0.92898214,20.025461,-0.9890137,-0.010009766,-0.18475342,0.0234375,-0.032226562,-0.020507812,2.586567,-7.5735016,-56.003162,18.347488,-0.42193604,-0.5985718,0.670166,0.00390625,-0.00390625,0.009765625,21.286562,-6.5240264,-127.99727,17.013666,0.0,0.0,0.0,0.0,0.0,0.0,0.0,3.0852742,-127.83576,34.554115,0.0,0.0,0.0,0.0,0.0,0.0,0.0,0.25019318,-0.044871643,-0.9672687,0.9526367,-0.13378906,-0.24859619,-0.055664062,0.024414062,0.00390625,4.622156,5.179776,-0.92898214,-20.025461,-0.9850464,0.014709473,-0.14312744,-0.016601562,0.026367188,0.0546875,2.6097708,2.330377,-57.842075,-18.628574,-0.277771,0.64611816,0.68151855,9.765625E-4,0.00390625,0.009765625,2.557343,2.8162396,-129.81656,-16.263662,0.0,0.0,0.0,0.0,0.0,0.0,0.0,19.637331,-129.66449,-5.4488525,0.0,0.0,0.0,0.0,0.0,0.0,0.0,5.8254123,44.622757,-0.5632534,
0.6562499804422263,28,-0.04486084,-0.61639404,0.84368896,0.030273438,0.0126953125,-0.016601562,0.0,0.0,0.0,0.0,0.0,0.0,0.0,0.0,0.0,0.0,0.0,-0.24975175,0.045375995,0.96722364,-0.9003296,-0.08258057,-0.35375977,0.0146484375,-0.013671875,-9.765625E-4,5.6563096,-5.1706357,0.93942374,20.024529,-0.986084,-0.02557373,-0.18585205,0.0234375,-0.032226562,-9.765625E-4,2.5314953,-7.518422,-55.993294,18.331161,-0.43634033,-0.6133423,0.68218994,0.022460938,-0.00390625,0.009765625,21.27843,-6.4813814,-127.99297,16.991884,0.0,0.0,0.0,0.0,0.0,0.0,0.0,3.1318521,-127.8279,34.53019,0.0,0.0,0.0,0.0,0.0,0.0,0.0,0.24975175,-0.045375995,-0.96722364,0.9707031,-0.14562988,-0.24316406,0.01953125,0.005859375,0.001953125,4.649452,5.1706357,-0.93942374,-20.024529,-0.9883423,-0.03100586,-0.103027344,-0.016601562,0.0078125,-0.001953125,2.6441205,2.3257613,-57.85049,-18.608475,-0.29278564,0.6461792,0.6884155,0.0390625,0.022460938,0.0087890625,2.5826287,2.8607268,-129.82597,-16.248354,0.0,0.0,0.0,0.0,0.0,0.0,0.0,19.680721,-129.66904,-5.427904,0.0,0.0,0.0,0.0,0.0,0.0,0.0,5.8435264,44.61417,-0.5841265,
0.6796874797437343,29,-0.030822754,-0.62072754,0.8300171,0.0107421875,-0.024414062,-0.03515625,0.0,0.0,0.0,0.0,0.0,0.0,0.0,0.0,0.0,0.0,0.0,-0.2503028,0.04520016,0.96721125,-0.8925781,-0.122802734,-0.33343506,0.013671875,-0.013671875,-0.01953125,5.703377,-5.182045,0.93578357,20.024271,-0.9790039,-0.036315918,-0.19000244,0.0234375,0.005859375,-9.765625E-4,2.4809656,-7.4741893,-55.99995,18.278065,-0.41571045,-0.597229,0.6920166,0.0029296875,-0.00390625,-0.0087890625,21.228039,-6.436676,-128.00165,16.934706,0.0,0.0,0.0,0.0,0.0,0.0,0.0,3.1813145,-127.83161,34.469955,0.0,0.0,0.0,0.0,0.0,0.0,0.0,0.2503028,-0.04520016,-0.96721125,0.96832275,-0.10119629,-0.22875977,9.765625E-4,0.024414062,0.0029296875,4.678139,5.182045,-0.93578357,-20.024271,-0.97161865,-0.012390137,-0.09991455,0.001953125,0.0068359375,0.016601562,2.593293,2.3925793,-57.854927,-18.626408,-0.29406738,0.618042,0.6705322,9.765625E-4,0.00390625,-0.0087890625,2.595104,2.9336815,-129.83484,-16.28143,0.0,0.0,0.0,0.0,0.0,0.0,0.0,19.754677,-129.68362,-5.4651413,0.0,0.0,0.0,0.0,0.0,0.0,0.0,5.824341,44.622105,-0.5780299,
0.7031249790452424,30,-0.035888672,-0.6251221,0.8110962,0.0107421875,-0.025390625,-0.016601562,0.0,0.0,0.0,0.0,0.0,0.0,0.0,0.0,0.0,0.0,0.0,-0.25096166,0.04516667,0.96707183,-0.86798096,-0.13867188,-0.3670044,-0.041992188,0.044921875,0.017578125,5.705129,-5.1956854,0.93509024,20.021385,-0.986145,-0.030517578,-0.17199707,0.0234375,0.025390625,-0.020507812,2.503584,-7.4898176,-55.99725,18.238073,-0.43121338,-0.5812988,0.71014404,-0.0146484375,0.015625,0.0087890625,21.184458,-6.4307003,-127.99327,16.893705,0.0,0.0,0.0,0.0,0.0,0.0,0.0,3.1951761,-127.8218,34.425056,0.0,0.0,0.0,0.0,0.0,0.0,0.0,0.25096166,-0.04516667,-0.96707183,0.95861816,-0.14654541,-0.21911621,0.020507812,-0.0126953125,0.020507812,4.6674914,5.1956854,-0.93509024,-20.021385,-0.99279785,-0.011291504,-0.13739014,0.001953125,-0.01171875,0.016601562,2.6210713,2.4025779,-57.85262,-18.591593,-0.28863525,0.66259766,0.7032471,0.001953125,-0.015625,0.02734375,2.5973659,2.973273,-129.82741,-16.27565,0.0,0.0,0.0,0.0,0.0,0.0,0.0,19.790142,-129.67274,-5.452916,0.0,0.0,0.0,0.0,0.0,0.0,0.0,5.814864,44.624683,-0.5751798,
0.7265624783467505,31,-0.016845703,-0.6170654,0.8133545,0.0107421875,-0.0068359375,0.0029296875,0.0,0.0,0.0,0.0,0.0,0.0,0.0,0.0,0.0,0.0,0.0,-0.25046816,0.045238227,0.96719384,-0.88946533,-0.09674072,-0.354187,-0.0234375,0.025390625,0.036132812,5.7474003,-5.1854677,0.93657136,20.02391,-0.9840698,-0.02947998,-0.18688965,0.0234375,-0.032226562,0.018554688,2.4650571,-7.456532,-55.99529,18.210182,-0.43395996,-0.5682373,0.7062378,0.0029296875,-0.022460938,0.009765625,21.177946,-6.418716,-127.988205,16.840641,0.0,0.0,0.0,0.0,0.0,0.0,0.0,3.2145696,-127.81699,34.368027,0.0,0.0,0.0,0.0,0.0,0.0,0.0,0.25046816,-0.045238227,-0.96719384,0.9927368,-0.14465332,-0.23968506,0.018554688,0.080078125,0.0029296875,4.736069,5.1854677,-0.93657136,-20.02391,-0.99835205,0.016723633,-0.13726807,-0.016601562,-0.01171875,-0.0029296875,2.5680358,2.44784,-57.850006,-18.535305,-0.27069092,0.65093994,0.6756592,-0.018554688,0.00390625,-0.0087890625,2.6150904,3.01822,-129.82526,-16.227484,0.0,0.0,0.0,0.0,0.0,0.0,0.0,19.830624,-129.66136,-5.3968334,0.0,0.0,0.0,0.0,0.0,0.0,0.0,5.819274,44.623928,-0.5801985,
0.7499999776482585,32,-0.04083252,-0.61724854,0.8100586,0.0107421875,-0.005859375,-0.03515625,0.0,0.0,0.0,0.0,0.0,0.0,0.0,0.0,0.0,0.0,0.0,-0.25057748,0.04520168,0.96715903,-0.8826904,-0.1005249,-0.37225342,-0.080078125,0.06347656,0.055664062,5.7698636,-5.187731,0.93581486,20.02319,-0.99523926,-0.026489258,-0.18182373,0.0234375,-0.0126953125,-0.020507812,2.466724,-7.4437075,-55.997536,18.187311,-0.44830322,-0.5767822,0.7033081,-0.015625,-0.00390625,0.009765625,21.147257,-6.386631,-127.99853,16.8039,0.0,0.0,0.0,0.0,0.0,0.0,0.0,3.2488298,-127.82506,34.328663,0.0,0.0,0.0,0.0,0.0,0.0,0.0,0.25057748,-0.04520168,-0.96715903,0.9715576,-0.124938965,-0.24298096,0.020507812,-0.03125,0.001953125,4.738715,5.187731,-0.93581486,-20.02319,-0.9807129,-0.013916016,-0.115722656,-0.016601562,0.0068359375,0.016601562,2.5939724,2.4557016,-57.85733,-18.560158,-0.29864502,0.6826172,0.671875,-0.018554688,0.00390625,0.009765625,2.5684934,3.0682328,-129.83853,-16.247807,0.0,0.0,0.0,0.0,0.0,0.0,0.0,19.880253,-129.67018,-5.419343,0.0,0.0,0.0,0.0,0.0,0.0,0.0,5.8194914,44.623573,-0.57780254,
0.7734374769497666,33,-0.033813477,-0.6154175,0.81707764,-0.0087890625,-0.025390625,-0.016601562,0.0,0.0,0.0,0.0,0.0,0.0,0.0,0.0,0.0,0.0,0.0,-0.251054,0.045350794,0.9670702,-0.89263916,-0.11364746,-0.34729004,-0.0234375,0.005859375,-0.01953125,5.804376,-5.1975965,0.93890214,20.02135,-0.98205566,-0.026672363,-0.17993164,0.0234375,-0.0126953125,-0.020507812,2.438553,-7.4235425,-55.99444,18.150858,-0.43493652,-0.600647,0.69018555,-0.015625,0.015625,-0.028320312,21.12088,-6.3714333,-127.9934,16.775803,0.0,0.0,0.0,0.0,0.0,0.0,0.0,3.2631588,-127.81911,34.302345,0.0,0.0,0.0,0.0,0.0,0.0,0.0,0.251054,-0.045350794,-0.9670702,0.97247314,-0.13665771,-0.21136475,0.01953125,0.005859375,0.001953125,4.8078275,5.1975965,-0.93890214,-20.02135,-0.9798584,-0.030395508,-0.1383667,-0.036132812,-0.01171875,0.03515625,2.4992802,2.544752,-57.86717,-18.526512,-0.28295898,0.63586426,0.637146,-0.017578125,-0.015625,-0.0087890625,2.579975,3.136364,-129.84517,-16.21237,0.0,0.0,0.0,0.0,0.0,0.0,0.0,19.952412,-129.67729,-5.386756,0.0,0.0,0.0,0.0,0.0,0.0,0.0,5.80923,44.626648,-0.584677,
0.7968749762512747,34,-0.007873535,-0.6325073,0.83721924,-0.0087890625,-0.0068359375,0.001953125,0.0,0.0,0.0,0.0,0.0,0.0,0.0,0.0,0.0,0.0,0.0,-0.25162065,0.045498095,0.96690965,-0.8656006,-0.11907959,-0.35699463,0.0146484375,0.005859375,-9.765625E-4,5.8047137,-5.209328,0.9419517,20.018028,-0.98205566,-0.039245605,-0.18499756,0.0234375,-0.0126953125,-0.020507812,2.4103782,-7.4240866,-55.997334,18.162441,-0.41589355,-0.59558105,0.663147,0.0234375,0.015625,0.0087890625,21.131348,-6.3890405,-127.99773,16.7769,0.0,0.0,0.0,0.0,0.0,0.0,0.0,3.2450957,-127.81734,34.303932,0.0,0.0,0.0,0.0,0.0,0.0,0.0,0.25162065,-0.045498095,-0.96690965,0.9737549,-0.16235352,-0.22753906,0.020507812,-0.03125,0.001953125,4.8063602,5.209328,-0.9419517,-20.018028,-0.9749756,-0.030029297,-0.110839844,0.0029296875,0.0068359375,-0.001953125,2.498262,2.5564933,-57.866802,-18.485605,-0.31585693,0.6532593,0.6923828,9.765625E-4,0.00390625,-0.02734375,2.5811124,3.1442044,-129.84927,-16.167242,0.0,0.0,0.0,0.0,0.0,0.0,0.0,19.960913,-129.6775,-5.342205,0.0,0.0,0.0,0.0,0.0,0.0,0.0,5.804111,44.626972,-0.58951545,
0.8203124755527827,35,-0.023864746,-0.6212158,0.8171997,0.0107421875,-0.025390625,-0.016601562,0.0,0.0,0.0,0.0,0.0,0.0,0.0,0.0,0.0,0.0,0.0,-0.2516555,0.045786753,0.966798,-0.8881836,-0.10217285,-0.32940674,-0.0234375,-0.013671875,0.017578125,5.8465023,-5.2100477,0.9479279,20.015717,-0.9830322,-0.026550293,-0.19085693,0.0234375,0.025390625,-9.765625E-4,2.382856,-7.395359,-55.986263,18.163895,-0.41741943,-0.5820923,0.6821289,0.022460938,-0.00390625,0.009765625,21.125181,-6.3558373,-127.98074,16.763144,0.0,0.0,0.0,0.0,0.0,0.0,0.0,3.285296,-127.79673,34.285843,0.0,0.0,0.0,0.0,0.0,0.0,0.0,0.2516555,-0.045786753,-0.966798,0.96881104,-0.15942383,-0.23730469,0.01953125,0.005859375,0.001953125,4.871742,5.2100477,-0.9479279,-20.015717,-0.9501953,-0.020385742,-0.111694336,-0.016601562,0.0068359375,0.016601562,2.4516015,2.6062143,-57.867126,-18.440426,-0.29486084,0.6444092,0.67755127,0.0,0.022460938,-0.0087890625,2.590801,3.190336,-129.84633,-16.145779,0.0,0.0,0.0,0.0,0.0,0.0,0.0,20.00809,-129.67313,-5.322691,0.0,0.0,0.0,0.0,0.0,0.0,0.0,5.8132544,44.621742,-0.60007143,
0.8437499748542908,36,-0.020874023,-0.6224365,0.8261719,0.030273438,-0.005859375,-0.015625,0.0,0.0,0.0,0.0,0.0,0.0,0.0,0.0,0.0,0.0,0.0,-0.2519322,0.045973875,0.96681535,-0.8901367,-0.08703613,-0.3421631,0.0146484375,-0.013671875,-9.765625E-4,5.8746967,-5.2157784,0.9518017,20.016077,-0.9911499,-0.03326416,-0.19189453,0.0234375,-0.0126953125,-9.765625E-4,2.348104,-7.375136,-55.984444,18.127026,-0.4364624,-0.58917236,0.71118164,0.0048828125,0.034179688,0.0087890625,21.103575,-6.3530765,-127.98081,16.725452,0.0,0.0,0.0,0.0,0.0,0.0,0.0,3.295508,-127.79495,34.245132,0.0,0.0,0.0,0.0,0.0,0.0,0.0,0.2519322,-0.045973875,-0.96681535,0.9555664,-0.14849854,-0.21508789,0.020507812,-0.0126953125,0.001953125,4.840234,5.2157784,-0.9518017,-20.016077,-0.97650146,-0.0059814453,-0.11468506,-0.015625,0.026367188,-0.001953125,2.4887638,2.5984297,-57.87327,-18.413528,-0.30267334,0.6798096,0.66400146,0.0,0.022460938,-0.0087890625,2.56468,3.2088914,-129.85092,-16.127453,0.0,0.0,0.0,0.0,0.0,0.0,0.0,20.031012,-129.68199,-5.312232,0.0,0.0,0.0,0.0,0.0,0.0,0.0,5.797638,44.627934,-0.6113956,
0.8671874741557989,37,-0.021911621,-0.6329956,0.81622314,-0.0087890625,0.01171875,0.001953125,0.0,0.0,0.0,0.0,0.0,0.0,0.0,0.0,0.0,0.0,0.0,-0.25239122,0.045978177,0.9667818,-0.8867798,-0.11645508,-0.36138916,-0.080078125,0.06347656,0.055664062,5.8718605,-5.2252812,0.9518908,20.01538,-0.9869995,-0.019714355,-0.19580078,0.0234375,-0.032226562,-9.765625E-4,2.3310378,-7.373323,-55.987564,18.118628,-0.43920898,-0.5750122,0.7022705,-0.015625,-0.00390625,0.009765625,21.097446,-6.35998,-127.98528,16.717567,0.0,0.0,0.0,0.0,0.0,0.0,0.0,3.2876782,-127.79934,34.235863,0.0,0.0,0.0,0.0,0.0,0.0,0.0,0.25239122,-0.045978177,-0.9667818,0.96746826,-0.117004395,-0.23486328,0.020507812,-0.0126953125,0.001953125,4.835172,5.2252812,-0.9518908,-20.01538,-0.9846802,-0.022033691,-0.15118408,-0.015625,0.026367188,0.016601562,2.477334,2.6203315,-57.871624,-18.399046,-0.2947998,0.64508057,0.70513916,0.001953125,-0.015625,-0.009765625,2.5851285,3.228538,-129.85428,-16.128832,0.0,0.0,0.0,0.0,0.0,0.0,0.0,20.05204,-129.6897,-5.3170204,0.0,0.0,0.0,0.0,0.0,0.0,0.0,5.7828093,44.63362,-0.6130049,
0.890624973457307,38,-0.016845703,-0.62561035,0.8331299,0.0107421875,0.01171875,0.021484375,0.0,0.0,0.0,0.0,0.0,0.0,0.0,0.0,0.0,0.0,0.0,-0.2522823,0.04637969,0.96679395,-0.89331055,-0.10290527,-0.33520508,-0.0048828125,0.025390625,0.036132812,5.879833,-5.2230253,0.9602032,20.01563,-0.9760132,-0.036499023,-0.1720581,0.04296875,-0.03125,-0.020507812,2.3506866,-7.3817244,-55.972076,18.101957,-0.4541626,-0.572937,0.7163696,0.021484375,-0.022460938,-0.0087890625,21.088404,-6.359236,-127.96884,16.692577,0.0,0.0,0.0,0.0,0.0,0.0,0.0,3.2914295,-127.77493,34.209156,0.0,0.0,0.0,0.0,0.0,0.0,0.0,0.2522823,-0.04637969,-0.96679395,0.98864746,-0.13873291,-0.23553467,0.01953125,0.005859375,0.001953125,4.8295774,5.2230253,-0.9602032,-20.01563,-0.9840698,-0.025939941,-0.111816406,-0.015625,0.045898438,0.016601562,2.4762275,2.6166222,-57.88465,-18.38836,-0.284729,0.651062,0.6824951,0.001953125,-0.015625,-0.009765625,2.6065433,3.2245798,-129.86578,-16.0831,0.0,0.0,0.0,0.0,0.0,0.0,0.0,20.044659,-129.69055,-5.2653265,0.0,0.0,0.0,0.0,0.0,0.0,0.0,5.7813187,44.633667,-0.6325767,
0.914062472758815,39,-0.045898438,-0.6298828,0.83374023,0.030273438,0.0126953125,-0.016601562,0.0,0.0,0.0,0.0,0.0,0.0,0.0,0.0,0.0,0.0,0.0,-0.25189808,0.046415016,0.96688133,-0.8713989,-0.09490967,-0.3675537,-0.0048828125,0.005859375,0.017578125,5.9299917,-5.2150707,0.9609347,20.01744,-0.96569824,-0.019958496,-0.19592285,0.0048828125,0.005859375,-9.765625E-4,2.3120685,-7.33501,-55.975597,18.085114,-0.42687988,-0.6050415,0.70111084,0.0029296875,-0.00390625,-0.0087890625,21.109285,-6.316207,-127.97739,16.67162,0.0,0.0,0.0,0.0,0.0,0.0,0.0,3.3273478,-127.775604,34.191666,0.0,0.0,0.0,0.0,0.0,0.0,0.0,0.25189808,-0.046415016,-0.96688133,0.97491455,-0.1762085,-0.23760986,9.765625E-4,0.005859375,0.001953125,4.8900843,5.2150707,-0.9609347,-20.01744,-0.9413452,-0.034729004,-0.09991455,0.0029296875,0.0068359375,-0.001953125,2.4373488,2.6657937,-57.88272,-18.397682,-0.30090332,0.6385498,0.6814575,9.765625E-4,0.00390625,0.009765625,2.596386,3.29561,-129.85843,-16.105923,0.0,0.0,0.0,0.0,0.0,0.0,0.0,20.117874,-129.68532,-5.2920837,0.0,0.0,0.0,0.0,0.0,0.0,0.0,5.785941,44.63255,-0.63518965,
0.9374999720603231,40,-0.028747559,-0.5939331,0.79644775,-0.0087890625,0.01171875,0.001953125,0.0,0.0,0.0,0.0,0.0,0.0,0.0,0.0,0.0,0.0,0.0,-0.2509108,0.04655871,0.96712554,-0.8845215,-0.110839844,-0.34643555,0.013671875,-0.051757812,-0.001953125,5.977338,-5.194631,0.9639097,20.022497,-0.986084,-0.025634766,-0.18389893,0.04296875,-0.03125,-0.0390625,2.3071535,-7.288817,-55.97556,18.07206,-0.41394043,-0.59973145,0.6690674,0.0234375,0.0146484375,0.02734375,21.09871,-6.248831,-127.97128,16.665363,0.0,0.0,0.0,0.0,0.0,0.0,0.0,3.395156,-127.765594,34.18634,0.0,0.0,0.0,0.0,0.0,0.0,0.0,0.2509108,-0.04655871,-0.96712554,0.96777344,-0.17016602,-0.21160889,0.01953125,0.005859375,0.020507812,4.9359417,5.194631,-0.9639097,-20.022497,-0.99938965,-0.025512695,-0.12072754,-0.017578125,-0.01171875,0.03515625,2.4470465,2.6749277,-57.89061,-18.359463,-0.30682373,0.6522217,0.6923828,9.765625E-4,0.00390625,0.009765625,2.5692554,3.3470829,-129.86371,-16.073586,0.0,0.0,0.0,0.0,0.0,0.0,0.0,20.170004,-129.69255,-5.2588882,0.0,0.0,0.0,0.0,0.0,0.0,0.0,5.7947364,44.631016,-0.64521146,
0.9609374713618312,41,-0.030883789,-0.6343994,0.82598877,0.0107421875,-0.0068359375,0.0029296875,0.0,0.0,0.0,0.0,0.0,0.0,0.0,0.0,0.0,0.0,0.0,-0.25153682,0.04632644,0.96696913,-0.8753662,-0.08081055,-0.37426758,-0.0234375,-0.051757812,-9.765625E-4,5.9720554,-5.2075925,0.95910096,20.019258,-0.98498535,-0.022583008,-0.20178223,0.0234375,-0.032226562,-9.765625E-4,2.2634752,-7.269344,-55.979626,18.079079,-0.41064453,-0.5932007,0.68304443,0.00390625,0.015625,0.0087890625,21.099232,-6.243101,-127.97302,16.67753,0.0,0.0,0.0,0.0,0.0,0.0,0.0,3.397747,-127.758125,34.198948,0.0,0.0,0.0,0.0,0.0,0.0,0.0,0.25153682,-0.04632644,-0.96696913,0.9594116,-0.12286377,-0.22283936,0.01953125,0.005859375,0.020507812,4.9129868,5.2075925,-0.95910096,-20.019258,-0.97210693,-0.013977051,-0.16485596,-0.03515625,0.0078125,0.016601562,2.4252734,2.6928544,-57.88289,-18.371788,-0.27575684,0.63916016,0.6854248,0.020507812,0.00390625,0.0087890625,2.5805058,3.3447897,-129.86197,-16.092503,0.0,0.0,0.0,0.0,0.0,0.0,0.0,20.169802,-129.68796,-5.2816954,0.0,0.0,0.0,0.0,0.0,0.0,0.0,5.7733855,44.633694,-0.63652587,
0.9843749706633392,42,-0.027770996,-0.6032715,0.81030273,0.0107421875,-0.025390625,0.0029296875,0.0,0.0,0.0,0.0,0.0,0.0,0.0,0.0,0.0,0.0,0.0,-0.25078803,0.046727087,0.9671572,-0.87731934,-0.101135254,-0.34655762,-0.0048828125,-0.0126953125,-0.01953125,6.0088034,-5.19209,0.96739566,20.023151,-0.98010254,-0.044128418,-0.1850586,0.0048828125,-0.08886719,-0.020507812,2.2715888,-7.2368307,-55.96882,18.071877,-0.42980957,-0.5999756,0.6981201,0.00390625,0.015625,0.0087890625,21.114462,-6.1843576,-127.96654,16.685299,0.0,0.0,0.0,0.0,0.0,0.0,0.0,3.4604254,-127.748085,34.204563,0.0,0.0,0.0,0.0,0.0,0.0,0.0,0.25078803,-0.046727087,-0.9671572,0.9453125,-0.122802734,-0.20269775,0.020507812,-0.0126953125,0.020507812,4.9189644,5.19209,-0.96739566,-20.023151,-0.9736328,-0.011230469,-0.1048584,0.0029296875,0.026367188,0.016601562,2.4360638,2.6833658,-57.889797,-18.369339,-0.3057251,0.6679077,0.68359375,0.001953125,-0.015625,-0.009765625,2.559638,3.3565454,-129.87161,-16.083727,0.0,0.0,0.0,0.0,0.0,0.0,0.0,20.181702,-129.69344,-5.2743053,0.0,0.0,0.0,0.0,0.0,0.0,0.0,5.77641,44.63354,-0.65857077,
1.0078124699648474,43,-0.055908203,-0.63067627,0.8227539,0.0107421875,-0.005859375,-0.03515625,0.0,0.0,0.0,0.0,0.0,0.0,0.0,0.0,0.0,0.0,0.0,-0.25016516,0.046505395,0.96729994,-0.8786011,-0.11383057,-0.35559082,-0.0048828125,0.005859375,0.036132812,6.0366,-5.179194,0.9628058,20.02611,-0.98516846,-0.037353516,-0.17602539,0.0234375,-0.0126953125,-9.765625E-4,2.260793,-7.2034273,-55.973995,18.06813,-0.42852783,-0.6256714,0.6940918,0.0029296875,-0.022460938,-0.0087890625,21.111826,-6.137265,-127.96652,16.66175,0.0,0.0,0.0,0.0,0.0,0.0,0.0,3.5053167,-127.74464,34.183247,0.0,0.0,0.0,0.0,0.0,0.0,0.0,0.25016516,-0.046505395,-0.96729994,0.9887085,-0.14367676,-0.23260498,-0.017578125,0.024414062,0.0029296875,4.986095,5.179194,-0.9628058,-20.02611,-0.9482422,-0.033996582,-0.12945557,-0.015625,0.045898438,0.036132812,2.378663,2.7191489,-57.88539,-18.350967,-0.303833,0.6641846,0.66485596,-0.018554688,0.022460938,0.009765625,2.5365162,3.3785858,-129.86325,-16.052177,0.0,0.0,0.0,0.0,0.0,0.0,0.0,20.208529,-129.69048,-5.2483387,0.0,0.0,0.0,0.0,0.0,0.0,0.0,5.7867928,44.631058,-0.64915824,
1.0312499692663555,44,0.0031738281,-0.6107788,0.8086548,0.0107421875,0.01171875,-0.016601562,0.0,0.0,0.0,0.0,0.0,0.0,0.0,0.0,0.0,0.0,0.0,-0.25009227,0.04665149,0.96731555,-0.8964844,-0.0925293,-0.35791016,0.033203125,0.005859375,-9.765625E-4,6.0523295,-5.1776857,0.9658303,20.026432,-0.9962158,-0.026428223,-0.18981934,0.0234375,0.005859375,-0.020507812,2.25125,-7.1904325,-55.97205,18.06457,-0.44067383,-0.5928345,0.7032471,0.0029296875,-0.022460938,0.009765625,21.08735,-6.124632,-127.965836,16.669714,0.0,0.0,0.0,0.0,0.0,0.0,0.0,3.5196333,-127.733376,34.189934,0.0,0.0,0.0,0.0,0.0,0.0,0.0,0.25009227,-0.04665149,-0.96731555,0.9688721,-0.17224121,-0.23345947,0.01953125,0.005859375,0.001953125,4.945736,5.1776857,-0.9658303,-20.026432,-0.9923706,-0.027954102,-0.104003906,-0.03515625,0.0078125,0.016601562,2.4247892,2.6771874,-57.886105,-18.33926,-0.26678467,0.6403198,0.6598511,9.765625E-4,0.00390625,0.009765625,2.5382905,3.3415473,-129.86818,-16.044952,0.0,0.0,0.0,0.0,0.0,0.0,0.0,20.170773,-129.68518,-5.2418385,0.0,0.0,0.0,0.0,0.0,0.0,0.0,5.786216,44.63119,-0.6564801,
1.0546874685678636,45,-0.041931152,-0.6341553,0.8129883,-0.0087890625,-0.0068359375,0.001953125,0.0,0.0,0.0,0.0,0.0,0.0,0.0,0.0,0.0,0.0,0.0,-0.2505491,0.04610517,0.96723586,-0.8847046,-0.11566162,-0.35546875,0.0146484375,0.005859375,0.017578125,6.0682125,-5.1871433,0.95452005,20.024782,-0.99823,-0.01965332,-0.18377686,0.0234375,-0.0703125,-9.765625E-4,2.2257192,-7.1680307,-55.98718,18.048573,-0.3937378,-0.6026001,0.68585205,0.0234375,0.015625,0.0087890625,21.074856,-6.0967007,-127.986725,16.645008,0.0,0.0,0.0,0.0,0.0,0.0,0.0,3.5426931,-127.749084,34.169624,0.0,0.0,0.0,0.0,0.0,0.0,0.0,0.2505491,-0.04610517,-0.96723586,0.9607544,-0.16040039,-0.22924805,0.01953125,0.005859375,0.001953125,4.9580793,5.1871433,-0.95452005,-20.024782,-0.9746704,-0.02746582,-0.1383667,-0.015625,0.026367188,-0.001953125,2.4360638,2.6934395,-57.882576,-18.322346,-0.31799316,0.6397705,0.6755371,0.017578125,0.080078125,0.009765625,2.550829,3.3707683,-129.86142,-16.075981,0.0,0.0,0.0,0.0,0.0,0.0,0.0,20.196724,-129.68102,-5.267082,0.0,0.0,0.0,0.0,0.0,0.0,0.0,5.783465,44.632477,-0.6293671,
1.0781249678693716,46,-0.030822754,-0.6080322,0.8032837,0.030273438,-0.024414062,-0.015625,0.0,0.0,0.0,0.0,0.0,0.0,0.0,0.0,0.0,0.0,0.0,-0.25087968,0.0461812,0.96720105,-0.8978882,-0.11016846,-0.3659668,-0.0048828125,0.005859375,0.017578125,6.083764,-5.193987,0.9560939,20.02406,-0.98809814,-0.018859863,-0.17285156,0.0048828125,0.005859375,-9.765625E-4,2.1990914,-7.13619,-55.98523,18.069,-0.4389038,-0.5975952,0.69226074,0.0029296875,-0.022460938,0.009765625,21.029898,-6.0477133,-127.98586,16.681532,0.0,0.0,0.0,0.0,0.0,0.0,0.0,3.590352,-127.74562,34.206596,0.0,0.0,0.0,0.0,0.0,0.0,0.0,0.25087968,-0.0461812,-0.96720105,0.96551514,-0.11804199,-0.24969482,-0.017578125,0.005859375,0.021484375,4.961397,5.193987,-0.9560939,-20.02406,-0.9661255,0.0017089844,-0.10772705,-0.015625,0.045898438,0.016601562,2.4227703,2.717302,-57.88554,-18.317783,-0.27062988,0.6557007,0.6875,0.0029296875,-0.053710938,-0.009765625,2.6363363,3.39658,-129.86446,-16.083399,0.0,0.0,0.0,0.0,0.0,0.0,0.0,20.211868,-129.68382,-5.2600403,0.0,0.0,0.0,0.0,0.0,0.0,0.0,5.773342,44.636112,-0.6337204,
1.1015624671708797,47,-0.0087890625,-0.6154785,0.82928467,0.030273438,-0.024414062,0.0029296875,0.0,0.0,0.0,0.0,0.0,0.0,0.0,0.0,0.0,0.0,0.0,-0.25101003,0.046199948,0.96707416,-0.87939453,-0.12121582,-0.32977295,0.0146484375,0.005859375,0.017578125,6.091332,-5.1966867,0.95648205,20.021433,-0.9851074,-0.038269043,-0.184021,0.0048828125,0.005859375,-0.020507812,2.1682596,-7.121281,-55.98844,18.069494,-0.4225464,-0.62561035,0.6820679,0.00390625,0.015625,0.0087890625,21.070326,-6.052028,-127.98266,16.69959,0.0,0.0,0.0,0.0,0.0,0.0,0.0,3.5723805,-127.73647,34.23252,0.0,0.0,0.0,0.0,0.0,0.0,0.0,0.25101003,-0.046199948,-0.96707416,0.9815674,-0.13671875,-0.21850586,0.01953125,0.005859375,0.020507812,4.972875,5.1966867,-0.95648205,-20.021433,-0.98883057,-0.019348145,-0.13641357,0.00390625,0.045898438,-0.001953125,2.414678,2.7434607,-57.876186,-18.327347,-0.3057251,0.66192627,0.69537354,0.0,0.022460938,-0.0087890625,2.6875155,3.4373467,-129.85966,-16.124954,0.0,0.0,0.0,0.0,0.0,0.0,0.0,20.246801,-129.67703,-5.290517,0.0,0.0,0.0,0.0,0.0,0.0,0.0,5.7658887,44.63301,-0.63567674,
1.1249999664723878,48,-0.018859863,-0.6251221,0.8182373,0.0107421875,-0.025390625,-0.016601562,0.0,0.0,0.0,0.0,0.0,0.0,0.0,0.0,0.0,0.0,0.0,-0.2512119,0.04634741,0.9670375,-0.8699341,-0.09466553,-0.3317871,-0.0048828125,0.005859375,-9.765625E-4,6.0899153,-5.2008667,0.9595349,20.020674,-0.986084,-0.024658203,-0.17791748,0.0048828125,-0.032226562,-0.020507812,2.158217,-7.1081905,-55.983135,18.101093,-0.43304443,-0.6068115,0.69818115,0.0029296875,-0.022460938,-0.0087890625,21.064968,-6.021035,-127.97589,16.724241,0.0,0.0,0.0,0.0,0.0,0.0,0.0,3.602457,-127.721825,34.256325,0.0,0.0,0.0,0.0,0.0,0.0,0.0,0.2512119,-0.04634741,-0.9670375,0.9552002,-0.10998535,-0.19683838,-0.018554688,0.061523438,0.0029296875,4.964279,5.2008667,-0.9595349,-20.020674,-0.97546387,-0.020324707,-0.1461792,-0.034179688,0.045898438,0.016601562,2.4094849,2.7487204,-57.88596,-18.333687,-0.32489014,0.6604004,0.6756592,0.0,0.041992188,-0.02734375,2.6324725,3.4424868,-129.86868,-16.113771,0.0,0.0,0.0,0.0,0.0,0.0,0.0,20.262428,-129.69179,-5.296055,0.0,0.0,0.0,0.0,0.0,0.0,0.0,5.7604756,44.6346,-0.6427853,
1.1484374657738958,49,-0.031921387,-0.635376,0.8250122,-0.0087890625,-0.025390625,0.0029296875,0.0,0.0,0.0,0.0,0.0,0.0,0.0,0.0,0.0,0.0,0.0,-0.25062752,0.04605621,0.9672537,-0.8800049,-0.06707764,-0.36010742,-0.0234375,-0.013671875,0.017578125,6.070829,-5.1887665,0.9535062,20.02515,-0.98913574,-0.028503418,-0.17993164,0.04296875,-0.03125,-9.765625E-4,2.1660018,-7.108104,-55.98934,18.111534,-0.44195557,-0.5942383,0.6773071,0.00390625,-0.00390625,0.009765625,21.082176,-6.0250945,-127.985886,16.736492,0.0,0.0,0.0,0.0,0.0,0.0,0.0,3.5984235,-127.73751,34.268982,0.0,0.0,0.0,0.0,0.0,0.0,0.0,0.25062752,-0.04605621,-0.9672537,0.9926758,-0.14074707,-0.23962402,0.020507812,-0.087890625,9.765625E-4,4.93058,5.1887665,-0.9535062,-20.02515,-0.96588135,-0.041931152,-0.120666504,-0.016601562,0.0068359375,0.03515625,2.4331696,2.7018366,-57.87506,-18.348076,-0.28582764,0.64123535,0.6873779,0.001953125,-0.015625,-0.009765625,2.6359649,3.383803,-129.85393,-16.126953,0.0,0.0,0.0,0.0,0.0,0.0,0.0,20.209053,-129.68073,-5.317569,0.0,0.0,0.0,0.0,0.0,0.0,0.0,5.7610097,44.63691,-0.6326562,
1.171874965075404,50,-0.024902344,-0.6286011,0.800354,-0.0087890625,-0.0068359375,-0.016601562,0.0,0.0,0.0,0.0,0.0,0.0,0.0,0.0,0.0,0.0,0.0,-0.2503169,0.046310358,0.9673024,-0.8972168,-0.08679199,-0.34295654,-0.0234375,-0.0126953125,-9.765625E-4,6.116127,-5.1823363,0.95876807,20.02616,-0.9790039,-0.031555176,-0.17700195,0.0048828125,0.005859375,-0.040039062,2.1385393,-7.0696845,-55.98571,18.101984,-0.43060303,-0.62976074,0.7020874,0.0029296875,-0.022460938,-0.0087890625,21.083391,-5.9875174,-127.98229,16.744406,0.0,0.0,0.0,0.0,0.0,0.0,0.0,3.635975,-127.728226,34.27649,0.0,0.0,0.0,0.0,0.0,0.0,0.0,0.2503169,-0.046310358,-0.9673024,0.9770508,-0.15661621,-0.28704834,0.057617188,-0.0126953125,0.01953125,4.8687243,5.1823363,-0.95876807,-20.02616,-0.9767456,-0.010437012,-0.09301758,-0.03515625,0.026367188,0.016601562,2.4877412,2.6261017,-57.875404,-18.32378,-0.3260498,0.6399536,0.6726074,-0.017578125,-0.015625,-0.0087890625,2.6402683,3.294366,-129.85764,-16.053417,0.0,0.0,0.0,0.0,0.0,0.0,0.0,20.116772,-129.68036,-5.240961,0.0,0.0,0.0,0.0,0.0,0.0,0.0,5.764916,44.635365,-0.6451179,
1.195312464376912,51,-0.018859863,-0.6321411,0.821228,-0.0087890625,-0.0068359375,0.001953125,0.0,0.0,0.0,0.0,0.0,0.0,0.0,0.0,0.0,0.0,0.0,-0.250244,0.046456467,0.96731794,-0.8811035,-0.09729004,-0.3345337,0.013671875,-0.051757812,-0.038085938,6.1410775,-5.1808276,0.96179277,20.026482,-0.97698975,-0.031555176,-0.18096924,0.04296875,0.044921875,-0.020507812,2.0993772,-7.047674,-55.983265,18.09566,-0.442688,-0.62298584,0.67626953,0.022460938,0.015625,-0.028320312,21.086117,-5.9916897,-127.98303,16.737747,0.0,0.0,0.0,0.0,0.0,0.0,0.0,3.6291704,-127.72945,34.271137,0.0,0.0,0.0,0.0,0.0,0.0,0.0,0.250244,-0.046456467,-0.96731794,0.96899414,-0.18310547,-0.2355957,0.021484375,-0.087890625,0.0390625,4.815359,5.1808276,-0.96179277,-20.026482,-0.9934082,-0.037475586,-0.124694824,0.0029296875,0.026367188,0.016601562,2.5711591,2.5587735,-57.874023,-18.249512,-0.31304932,0.6329346,0.6715698,9.765625E-4,0.00390625,-0.0087890625,2.642047,3.227754,-129.84882,-16.01649,0.0,0.0,0.0,0.0,0.0,0.0,0.0,20.054708,-129.67613,-5.208194,0.0,0.0,0.0,0.0,0.0,0.0,0.0,5.7643394,44.635494,-0.6524389,
1.21874996367842,52,-0.041809082,-0.6101074,0.8338623,-0.0087890625,-0.025390625,-0.016601562,0.0,0.0,0.0,0.0,0.0,0.0,0.0,0.0,0.0,0.0,0.0,-0.2496385,0.04637893,0.96740484,-0.8678589,-0.06439209,-0.3604126,-0.04296875,0.005859375,-9.765625E-4,6.165451,-5.1682906,0.96018773,20.02828,-0.9840088,-0.02166748,-0.19384766,0.0234375,-0.0126953125,-0.020507812,2.0873165,-7.035563,-55.987247,18.076538,-0.4440918,-0.5741577,0.715271,0.00390625,-0.00390625,0.02734375,21.048304,-5.9971113,-127.98056,16.701263,0.0,0.0,0.0,0.0,0.0,0.0,0.0,3.6333876,-127.72288,34.229004,0.0,0.0,0.0,0.0,0.0,0.0,0.0,0.2496385,-0.04637893,-0.96740484,0.98443604,-0.12683105,-0.20751953,0.020507812,-0.087890625,9.765625E-4,4.8022823,5.1682906,-0.96018773,-20.02828,-0.9810791,9.765625E-4,-0.15789795,-0.016601562,0.0068359375,0.016601562,2.5776978,2.5154152,-57.880802,-18.268173,-0.29656982,0.6784668,0.6954956,0.0,0.022460938,-0.0087890625,2.632547,3.1547117,-129.86272,-16.049257,0.0,0.0,0.0,0.0,0.0,0.0,0.0,19.984894,-129.69075,-5.2468414,0.0,0.0,0.0,0.0,0.0,0.0,0.0,5.779297,44.630405,-0.6483071,
1.242187462979928,53,-0.030822754,-0.6105957,0.8220825,0.0107421875,0.01171875,0.001953125,0.0,0.0,0.0,0.0,0.0,0.0,0.0,0.0,0.0,0.0,0.0,-0.24949074,0.04648514,0.96736634,-0.8744507,-0.10595703,-0.35760498,0.0146484375,0.005859375,0.017578125,6.174221,-5.165232,0.9623866,20.027483,-0.9829712,-0.02166748,-0.1998291,0.0234375,-0.0126953125,-0.020507812,2.076506,-7.0457172,-55.980156,18.059492,-0.43811035,-0.60113525,0.67230225,0.0029296875,-0.00390625,-0.0087890625,21.056707,-6.042189,-127.97717,16.682528,0.0,0.0,0.0,0.0,0.0,0.0,0.0,3.5857148,-127.72218,34.210705,0.0,0.0,0.0,0.0,0.0,0.0,0.0,0.24949074,-0.04648514,-0.96736634,0.9604492,-0.11993408,-0.2288208,0.001953125,-0.05078125,0.0390625,4.881102,5.165232,-0.9623866,-20.027483,-0.9766846,-0.018798828,-0.12261963,-0.053710938,0.02734375,-0.001953125,2.5626187,2.5628092,-57.86725,-18.179007,-0.28985596,0.64038086,0.6814575,-0.018554688,0.00390625,-0.0087890625,2.6328444,3.219307,-129.8483,-15.968102,0.0,0.0,0.0,0.0,0.0,0.0,0.0,20.046926,-129.66975,-5.1639414,0.0,0.0,0.0,0.0,0.0,0.0,0.0,5.788927,44.625973,-0.6514194,
1.2656249622814362,54,-0.03692627,-0.6311035,0.81207275,0.030273438,-0.005859375,-0.015625,0.0,0.0,0.0,0.0,0.0,0.0,0.0,0.0,0.0,0.0,0.0,-0.24947369,0.04670595,0.9673993,-0.8870239,-0.08520508,-0.3352661,0.0146484375,-0.013671875,0.016601562,6.196314,-5.1648774,0.96695805,20.028164,-0.9769287,-0.038269043,-0.2000122,0.024414062,-0.032226562,-0.0390625,2.0365355,-7.017709,-55.980186,18.06605,-0.42370605,-0.5980835,0.6970825,0.0029296875,-0.00390625,-0.0087890625,21.061005,-6.027555,-127.9736,16.682707,0.0,0.0,0.0,0.0,0.0,0.0,0.0,3.6025662,-127.72341,34.210876,0.0,0.0,0.0,0.0,0.0,0.0,0.0,0.24947369,-0.04670595,-0.9673993,0.9769287,-0.15063477,-0.26715088,-0.016601562,-0.049804688,0.020507812,4.7910514,5.1648774,-0.96695805,-20.028164,-0.9920654,-0.060058594,-0.097229004,0.00390625,0.045898438,-0.001953125,2.7369523,2.4791565,-57.87555,-18.168354,-0.28466797,0.67474365,0.66296387,0.001953125,-0.015625,-0.028320312,2.513026,3.2475743,-129.85507,-15.9839115,0.0,0.0,0.0,0.0,0.0,0.0,0.0,20.074297,-129.67577,-5.1756325,0.0,0.0,0.0,0.0,0.0,0.0,0.0,5.783062,44.628277,-0.66330945,
1.2890624615829442,55,-0.013793945,-0.61047363,0.8242798,0.030273438,0.0126953125,0.0029296875,0.0,0.0,0.0,0.0,0.0,0.0,0.0,0.0,0.0,0.0,0.0,-0.24942055,0.047182374,0.96742857,-0.887146,-0.09008789,-0.34124756,-0.0048828125,-0.033203125,0.03515625,6.206557,-5.1637774,0.97682136,20.028769,-0.99121094,-0.030395508,-0.18188477,0.0234375,-0.0126953125,-0.020507812,2.0383606,-7.015066,-55.96655,18.060453,-0.425354,-0.58636475,0.7061157,-0.015625,-0.00390625,0.009765625,21.035065,-6.019444,-127.964066,16.664679,0.0,0.0,0.0,0.0,0.0,0.0,0.0,3.6172233,-127.711945,34.18844,0.0,0.0,0.0,0.0,0.0,0.0,0.0,0.24942055,-0.047182374,-0.96742857,0.96691895,-0.16046143,-0.25512695,0.020507812,-0.0126953125,0.057617188,4.765099,5.1637774,-0.97682136,-20.028769,-0.9807129,-0.016723633,-0.124572754,-0.03515625,0.0078125,-0.001953125,2.7733288,2.4498265,-57.880127,-18.089506,-0.29089355,0.64764404,0.6421509,0.0,0.041992188,-0.0087890625,2.4836466,3.2137702,-129.86308,-15.873924,0.0,0.0,0.0,0.0,0.0,0.0,0.0,20.045664,-129.68582,-5.0740356,0.0,0.0,0.0,0.0,0.0,0.0,0.0,5.7762604,44.63049,-0.6874455,
1.3124999608844523,56,-0.030883789,-0.62835693,0.8220825,0.0107421875,-0.0068359375,0.0029296875,0.0,0.0,0.0,0.0,0.0,0.0,0.0,0.0,0.0,0.0,0.0,-0.24914575,0.04718095,0.9674806,-0.87298584,-0.0925293,-0.33465576,0.051757812,-0.013671875,-0.001953125,6.2281256,-5.1580896,0.97679204,20.029848,-0.9779663,-0.03338623,-0.19293213,0.04296875,-0.03125,-9.765625E-4,2.0294118,-7.0027113,-55.967304,18.040201,-0.43499756,-0.5950928,0.66430664,0.021484375,-0.022460938,-0.0087890625,21.057127,-6.0099945,-127.968124,16.619139,0.0,0.0,0.0,0.0,0.0,0.0,0.0,3.6275616,-127.71819,34.143337,0.0,0.0,0.0,0.0,0.0,0.0,0.0,0.24914575,-0.04718095,-0.9674806,0.98114014,-0.18811035,-0.2557373,0.020507812,-0.05078125,0.0390625,4.7194953,5.1580896,-0.97679204,-20.029848,-0.9946289,-0.0126953125,-0.16394043,-0.034179688,0.045898438,0.036132812,2.851766,2.374815,-57.877266,-18.021671,-0.31707764,0.6281128,0.6685791,-0.017578125,-0.015625,-0.02734375,2.475437,3.1293178,-129.86139,-15.81362,0.0,0.0,0.0,0.0,0.0,0.0,0.0,19.960167,-129.68555,-5.0117836,0.0,0.0,0.0,0.0,0.0,0.0,0.0,5.781094,44.629032,-0.6876681,
1.3359374601859604,57,-0.03277588,-0.6090088,0.8339844,0.0107421875,-0.0068359375,-0.016601562,0.0,0.0,0.0,0.0,0.0,0.0,0.0,0.0,0.0,0.0,0.0,-0.24936467,0.047107603,0.96741116,-0.8676758,-0.11383057,-0.36779785,0.0146484375,0.005859375,0.017578125,6.256456,-5.1626225,0.9752734,20.02841,-0.98205566,-0.03338623,-0.18896484,0.04296875,-0.03125,-0.020507812,2.001934,-6.9856005,-55.97203,18.014685,-0.43572998,-0.58428955,0.6682739,0.0029296875,-0.022460938,0.009765625,21.13133,-6.0005045,-127.97037,16.559591,0.0,0.0,0.0,0.0,0.0,0.0,0.0,3.6308985,-127.7192,34.085957,0.0,0.0,0.0,0.0,0.0,0.0,0.0,0.24936467,-0.047107603,-0.96741116,0.97180176,-0.17608643,-0.21179199,0.076171875,-0.0126953125,0.038085938,4.7208233,5.1626225,-0.9752734,-20.02841,-0.9815674,-0.009643555,-0.12652588,0.00390625,0.045898438,0.016601562,2.915644,2.3543324,-57.863827,-17.925879,-0.29766846,0.6826782,0.6659546,-0.018554688,0.00390625,-0.02734375,2.4602883,3.1245437,-129.84737,-15.723203,0.0,0.0,0.0,0.0,0.0,0.0,0.0,19.950647,-129.6628,-4.9156847,0.0,0.0,0.0,0.0,0.0,0.0,0.0,5.7815433,44.628323,-0.6828743,
1.3593749594874684,58,-0.031799316,-0.60357666,0.81817627,0.030273438,0.0126953125,0.0029296875,0.0,0.0,0.0,0.0,0.0,0.0,0.0,0.0,0.0,0.0,0.0,-0.24958533,0.046855405,0.96743405,-0.87475586,-0.11773682,-0.36364746,-0.061523438,0.08300781,0.055664062,6.2392907,-5.167188,0.9700522,20.028885,-0.9779663,-0.028564453,-0.18792725,0.061523438,-0.0126953125,-0.020507812,2.0099342,-6.989524,-55.973846,18.016832,-0.44317627,-0.6030884,0.67529297,-0.015625,0.015625,-0.009765625,21.13242,-5.996546,-127.97089,16.578697,0.0,0.0,0.0,0.0,0.0,0.0,0.0,3.6370506,-127.71883,34.104645,0.0,0.0,0.0,0.0,0.0,0.0,0.0,0.24958533,-0.046855405,-0.96743405,0.98095703,-0.16345215,-0.26141357,0.01953125,0.061523438,0.05859375,4.699988,5.167188,-0.9700522,-20.028885,-0.99938965,-0.06781006,-0.10321045,-0.03515625,0.0078125,-0.040039062,3.044011,2.3300056,-57.863472,-17.871305,-0.32086182,0.65930176,0.6855469,0.020507812,0.00390625,-0.028320312,2.3133378,3.2160716,-129.83923,-15.655834,0.0,0.0,0.0,0.0,0.0,0.0,0.0,20.048061,-129.66695,-4.855983,0.0,0.0,0.0,0.0,0.0,0.0,0.0,5.772498,44.632614,-0.6724472,
1.3828124587889765,59,-0.042907715,-0.63757324,0.82684326,0.0107421875,-0.0068359375,-0.016601562,0.0,0.0,0.0,0.0,0.0,0.0,0.0,0.0,0.0,0.0,0.0,-0.24941996,0.046817258,0.96745145,-0.9063721,-0.08148193,-0.35162354,0.0146484375,-0.013671875,0.016601562,6.2355504,-5.1637654,0.9692623,20.029243,-0.9963379,-0.04107666,-0.1819458,0.04296875,-0.0126953125,-9.765625E-4,1.9901681,-6.990075,-55.978508,18.027792,-0.44244385,-0.58184814,0.70129395,0.022460938,-0.00390625,-0.0087890625,21.147295,-6.023348,-127.97707,16.585632,0.0,0.0,0.0,0.0,0.0,0.0,0.0,3.612854,-127.71885,34.109875,0.0,0.0,0.0,0.0,0.0,0.0,0.0,0.24941996,-0.046817258,-0.96745145,0.99261475,-0.12109375,-0.25726318,0.09277344,0.2109375,0.07714844,4.9186854,5.1637654,-0.9692623,-20.029243,-0.95440674,-0.015808105,-0.08905029,-0.051757812,0.08496094,-0.020507812,2.9161136,2.5125422,-57.860287,-17.757626,-0.32000732,0.6467285,0.6677246,-0.0390625,0.041992188,0.009765625,2.2106311,3.4321995,-129.83745,-15.50075,0.0,0.0,0.0,0.0,0.0,0.0,0.0,20.265047,-129.67122,-4.701559,0.0,0.0,0.0,0.0,0.0,0.0,0.0,5.7775545,44.630802,-0.6702707,
1.4062499580904846,60,-0.028808594,-0.60284424,0.8270874,0.030273438,-0.0068359375,0.022460938,0.0,0.0,0.0,0.0,0.0,0.0,0.0,0.0,0.0,0.0,0.0,-0.24969253,0.046632677,0.96732974,-0.88171387,-0.11260986,-0.36242676,0.033203125,-0.051757812,-0.001953125,6.2665067,-5.169409,0.96544075,20.026724,-0.9779663,-0.022827148,-0.17694092,0.080078125,0.0068359375,-9.765625E-4,1.9660273,-6.967993,-55.97506,18.012253,-0.4356079,-0.6221924,0.67822266,0.00390625,0.015625,-0.028320312,21.239222,-5.9911604,-127.96728,16.523548,0.0,0.0,0.0,0.0,0.0,0.0,0.0,3.645052,-127.71042,34.05001,0.0,0.0,0.0,0.0,0.0,0.0,0.0,0.24969253,-0.046632677,-0.96732974,0.98620605,-0.13452148,-0.1560669,0.16699219,0.30371094,0.076171875,5.418878,5.169409,-0.96544075,-20.026724,-0.96069336,-0.020935059,-0.07928467,-0.109375,0.08496094,0.017578125,2.4650571,2.98388,-57.88054,-17.619057,-0.30187988,0.6383667,0.7001953,-0.018554688,0.00390625,-0.02734375,2.1354256,3.8396783,-129.85617,-15.287117,0.0,0.0,0.0,0.0,0.0,0.0,0.0,20.667452,-129.69287,-4.479578,0.0,0.0,0.0,0.0,0.0,0.0,0.0,5.7835093,44.627556,-0.65851724,
1.4296874573919927,61,-0.04284668,-0.61676025,0.79418945,0.049804688,-0.024414062,0.00390625,0.0,0.0,0.0,0.0,0.0,0.0,0.0,0.0,0.0,0.0,0.0,-0.24960187,0.04626946,0.96742404,-0.85076904,-0.10223389,-0.3234253,0.0146484375,0.025390625,0.017578125,6.2444735,-5.1675334,0.9579213,20.028677,-0.9688721,-0.03643799,-0.18908691,0.04296875,-0.05078125,-0.020507812,1.9677188,-6.981013,-55.985287,18.003653,-0.42016602,-0.5784302,0.7020874,-0.03515625,-0.0029296875,-0.0087890625,21.315659,-6.0160933,-127.97815,16.480932,0.0,0.0,0.0,0.0,0.0,0.0,0.0,3.6227407,-127.71945,34.003876,0.0,0.0,0.0,0.0,0.0,0.0,0.0,0.24960187,-0.04626946,-0.96742404,0.9725952,-0.16619873,-0.18786621,0.053710938,0.3232422,0.059570312,6.029549,5.1675334,-0.9579213,-20.028677,-0.99365234,-0.05987549,-0.15039062,-0.049804688,0.16113281,0.037109375,1.9295541,3.5517912,-57.883896,-17.409243,-0.28674316,0.6561279,0.66973877,9.765625E-4,0.022460938,0.009765625,2.018388,4.1246986,-129.8616,-15.11957,0.0,0.0,0.0,0.0,0.0,0.0,0.0,20.951197,-129.6931,-4.3100986,0.0,0.0,0.0,0.0,0.0,0.0,0.0,5.7796526,44.630627,-0.64338183,
1.4531249566935007,62,-0.0138549805,-0.61865234,0.8341675,0.030273438,-0.0068359375,0.041015625,0.0,0.0,0.0,0.0,0.0,0.0,0.0,0.0,0.0,0.0,0.0,-0.24941748,0.046266146,0.9674046,-0.88409424,-0.0871582,-0.34332275,0.033203125,-0.013671875,-0.001953125,6.2780724,-5.163715,0.9578526,20.028275,-0.9779663,-0.036376953,-0.18798828,0.0234375,-0.032226562,-0.020507812,1.9427954,-6.9547405,-55.98873,17.997482,-0.42889404,-0.5975342,0.6781616,0.022460938,0.015625,-0.028320312,21.328516,-5.993564,-127.98581,16.468794,0.0,0.0,0.0,0.0,0.0,0.0,0.0,3.644382,-127.72492,33.991295,0.0,0.0,0.0,0.0,0.0,0.0,0.0,0.24941748,-0.046266146,-0.9674046,0.9607544,-0.16235352,-0.2232666,0.017578125,0.2109375,0.059570312,6.4082065,5.163715,-0.9578526,-20.028275,-0.99957275,-0.04309082,-0.13952637,-0.0126953125,0.123046875,-0.01953125,1.7645836,3.872881,-57.878654,-17.231174,-0.29779053,0.6552124,0.67370605,-0.05859375,0.041992188,-0.0078125,2.0588055,4.232309,-129.85953,-14.978074,0.0,0.0,0.0,0.0,0.0,0.0,0.0,21.057104,-129.69049,-4.1675158,0.0,0.0,0.0,0.0,0.0,0.0,0.0,5.789641,44.62641,-0.6415665,
1.4765624559950088,63,-0.051879883,-0.63116455,0.8395996,0.049804688,-0.005859375,0.0029296875,0.0,0.0,0.0,0.0,0.0,0.0,0.0,0.0,0.0,0.0,0.0,-0.24969846,0.045360062,0.9673254,-0.8953247,-0.09075928,-0.3460083,0.033203125,-0.013671875,-0.001953125,6.251816,-5.1695323,0.93909395,20.026634,-0.99017334,-0.034240723,-0.19189453,0.061523438,-0.05078125,0.018554688,1.9338093,-6.936302,-56.001118,17.988142,-0.434021,-0.56915283,0.7022095,-0.015625,0.015625,-0.009765625,21.300535,-5.9523687,-127.99121,16.429441,0.0,0.0,0.0,0.0,0.0,0.0,0.0,3.6948013,-127.73151,33.947586,0.0,0.0,0.0,0.0,0.0,0.0,0.0,0.24969846,-0.045360062,-0.9673254,0.9557495,-0.17803955,-0.20349121,0.017578125,0.24804688,0.059570312,6.7431397,5.1695323,-0.93909395,-20.026634,-0.98791504,0.018981934,-0.15686035,-0.109375,0.08496094,0.017578125,1.7294089,4.1847806,-57.8556,-17.040522,-0.30285645,0.66033936,0.65600586,-0.057617188,0.041992188,0.0107421875,2.067059,4.301648,-129.83987,-14.776695,0.0,0.0,0.0,0.0,0.0,0.0,0.0,21.125732,-129.67804,-3.9656525,0.0,0.0,0.0,0.0,0.0,0.0,0.0,5.762896,44.628204,-0.60512424,
1.4999999552965169,64,-0.031799316,-0.6109009,0.83099365,0.049804688,-0.024414062,0.00390625,0.0,0.0,0.0,0.0,0.0,0.0,0.0,0.0,0.0,0.0,0.0,-0.2503381,0.045361046,0.9671498,-0.8800659,-0.115600586,-0.3118286,0.0146484375,-0.033203125,0.03515625,6.2874036,-5.182775,0.9391143,20.022999,-0.98516846,-0.035461426,-0.16204834,0.061523438,-0.0126953125,-9.765625E-4,1.9042343,-6.901207,-56.00404,17.987474,-0.42407227,-0.6057129,0.68115234,0.0048828125,0.034179688,-0.009765625,21.279675,-5.888916,-128.0004,16.40468,0.0,0.0,0.0,0.0,0.0,0.0,0.0,3.762188,-127.73714,33.920662,0.0,0.0,0.0,0.0,0.0,0.0,0.0,0.2503381,-0.045361046,-0.9671498,0.9605713,-0.1661377,-0.18164062,0.09277344,0.2109375,0.020507812,7.158509,5.182775,-0.9391143,-20.022999,-0.9684448,-0.02355957,-0.1373291,-0.051757812,0.08496094,-9.765625E-4,1.8367496,4.592216,-57.857414,-16.898813,-0.3109131,0.6465454,0.6765747,-0.038085938,0.022460938,-0.02734375,1.9817917,4.536124,-129.83873,-14.663722,0.0,0.0,0.0,0.0,0.0,0.0,0.0,21.360828,-129.68216,-3.8519163,0.0,0.0,0.0,0.0,0.0,0.0,0.0,5.758353,44.628376,-0.6026515,
1.523437454598025,65,-0.016845703,-0.6223755,0.82421875,0.049804688,-0.024414062,0.00390625,0.0,0.0,0.0,0.0,0.0,0.0,0.0,0.0,0.0,0.0,0.0,-0.2512717,0.045328364,0.96695834,-0.8933716,-0.09680176,-0.34613037,0.051757812,-0.013671875,0.03515625,6.3264804,-5.2021027,0.9384375,20.019035,-0.98010254,-0.03552246,-0.16308594,0.04296875,0.0068359375,-9.765625E-4,1.9035149,-6.8639746,-56.008602,17.968687,-0.4199829,-0.5767212,0.71307373,0.00390625,0.015625,-0.009765625,21.214905,-5.7853403,-128.00497,16.39058,0.0,0.0,0.0,0.0,0.0,0.0,0.0,3.871004,-127.73508,33.90355,0.0,0.0,0.0,0.0,0.0,0.0,0.0,0.2512717,-0.045328364,-0.96695834,0.982666,-0.16326904,-0.20391846,0.12988281,0.2109375,0.020507812,7.449217,5.2021027,-0.9384375,-20.019035,-1.0241699,0.0013427734,-0.1482544,-0.052734375,0.06542969,0.017578125,1.9982156,4.910842,-57.856796,-16.825375,-0.30511475,0.61328125,0.67144775,-0.018554688,0.00390625,-0.0087890625,2.0377846,4.69752,-129.84096,-14.6200695,0.0,0.0,0.0,0.0,0.0,0.0,0.0,21.518284,-129.69087,-3.8019075,0.0,0.0,0.0,0.0,0.0,0.0,0.0,5.74404,44.632416,-0.59961176,
1.546874953899533,66,-0.037902832,-0.6260376,0.80810547,0.049804688,-0.005859375,0.022460938,0.0,0.0,0.0,0.0,0.0,0.0,0.0,0.0,0.0,0.0,0.0,-0.2529903,0.04500386,0.9665582,-0.8913574,-0.10595703,-0.33428955,0.033203125,-0.033203125,0.053710938,6.338865,-5.2376833,0.93171954,20.010754,-0.9932251,-0.041015625,-0.19293213,0.0234375,0.005859375,-9.765625E-4,1.8854365,-6.8581343,-56.01889,17.944504,-0.4220581,-0.60894775,0.6911011,0.0029296875,-0.022460938,-0.0087890625,21.217216,-5.7528973,-128.01245,16.35888,0.0,0.0,0.0,0.0,0.0,0.0,0.0,3.9025927,-127.74741,33.87403,0.0,0.0,0.0,0.0,0.0,0.0,0.0,0.2529903,-0.04500386,-0.9665582,0.97961426,-0.15637207,-0.1998291,0.09375,0.080078125,0.01953125,7.6503983,5.2376833,-0.93171954,-20.010754,-0.9688721,-0.03314209,-0.110839844,-0.05078125,0.123046875,0.017578125,2.1375325,5.153046,-57.838028,-16.762527,-0.3059082,0.6325073,0.7020874,-0.0390625,0.041992188,-0.02734375,2.0631735,4.8299246,-129.8245,-14.545897,0.0,0.0,0.0,0.0,0.0,0.0,0.0,21.649456,-129.68332,-3.7245083,0.0,0.0,0.0,0.0,0.0,0.0,0.0,5.7263117,44.636402,-0.5794884,
1.570312453201041,67,-0.020874023,-0.63049316,0.7984009,0.049804688,0.013671875,-0.015625,0.0,0.0,0.0,0.0,0.0,0.0,0.0,0.0,0.0,0.0,0.0,-0.25389874,0.04490937,0.96629506,-0.90441895,-0.09661865,-0.3388672,0.0146484375,0.005859375,0.03515625,6.358445,-5.25649,0.9297633,20.005304,-0.9729614,-0.033569336,-0.17608643,0.041992188,-0.0126953125,0.017578125,1.8876152,-6.857405,-56.016582,17.95358,-0.42242432,-0.5904541,0.7090454,0.00390625,0.015625,-0.045898438,21.200365,-5.720924,-128.01141,16.365458,0.0,0.0,0.0,0.0,0.0,0.0,0.0,3.9375968,-127.74274,33.877068,0.0,0.0,0.0,0.0,0.0,0.0,0.0,0.25389874,-0.04490937,-0.96629506,1.0084839,-0.14654541,-0.19042969,0.01953125,0.061523438,0.021484375,7.8365664,5.25649,-0.9297633,-20.005304,-0.97332764,-0.0049438477,-0.12054443,-0.0146484375,0.083984375,0.017578125,2.2904658,5.3445816,-57.83863,-16.757698,-0.296875,0.642395,0.68444824,-0.07714844,0.022460938,-0.026367188,2.1094213,4.8287563,-129.82031,-14.554633,0.0,0.0,0.0,0.0,0.0,0.0,0.0,21.649664,-129.6835,-3.7366552,0.0,0.0,0.0,0.0,0.0,0.0,0.0,5.739931,44.63354,-0.5661863,
1.5937499525025491,68,-0.041931152,-0.63098145,0.8070679,0.030273438,0.0126953125,-0.03515625,0.0,0.0,0.0,0.0,0.0,0.0,0.0,0.0,0.0,0.0,0.0,-0.25497678,0.044219255,0.9660926,-0.8736572,-0.11578369,-0.3626709,-0.0234375,0.043945312,0.0546875,6.3360186,-5.278811,0.91547555,20.001112,-0.9677124,-0.017028809,-0.18688965,0.061523438,0.0068359375,0.037109375,1.8491737,-6.8739614,-56.031948,17.935886,-0.4055786,-0.56207275,0.7080078,0.00390625,0.03515625,-0.046875,21.249353,-5.78268,-128.01991,16.347975,0.0,0.0,0.0,0.0,0.0,0.0,0.0,3.8766637,-127.74416,33.85826,0.0,0.0,0.0,0.0,0.0,0.0,0.0,0.25497678,-0.044219255,-0.9660926,0.9907837,-0.1918335,-0.17663574,-0.018554688,0.13574219,0.078125,8.03871,5.278811,-0.91547555,-20.001112,-0.9838257,-0.05999756,-0.103149414,-0.032226562,0.123046875,0.055664062,2.4975567,5.557923,-57.81923,-16.689842,-0.296875,0.642395,0.68444824,-0.07714844,0.022460938,-0.026367188,2.0854404,4.9652395,-129.80338,-14.514844,0.0,0.0,0.0,0.0,0.0,0.0,0.0,21.786148,-129.66656,-3.696866,0.0,0.0,0.0,0.0,0.0,0.0,0.0,5.7279673,44.63768,-0.53136265,
1.6171874518040572,69,-0.044921875,-0.6314697,0.8208618,0.049804688,0.013671875,-0.03515625,0.0,0.0,0.0,0.0,0.0,0.0,0.0,0.0,0.0,0.0,0.0,-0.25686258,0.043841917,0.9656354,-0.869812,-0.093811035,-0.32385254,-0.0048828125,0.025390625,0.0546875,6.270104,-5.317853,0.90766346,19.991648,-0.9850464,-0.02746582,-0.19683838,0.0048828125,0.005859375,0.017578125,1.8318416,-6.927074,-56.040985,17.93097,-0.43847656,-0.5890503,0.7102051,-0.015625,0.015625,-0.045898438,21.288488,-5.880826,-128.03809,16.374456,0.0,0.0,0.0,0.0,0.0,0.0,0.0,3.7916803,-127.75998,33.87822,0.0,0.0,0.0,0.0,0.0,0.0,0.0,0.25686258,-0.043841917,-0.9656354,0.9801636,-0.12762451,-0.16082764,-9.765625E-4,0.2109375,0.078125,8.257829,5.317853,-0.90766346,-19.991648,-0.93743896,-0.041809082,-0.09698486,0.024414062,0.12207031,0.037109375,2.802188,5.8349347,-57.805332,-16.596151,-0.29785156,0.6503906,0.66973877,-0.038085938,0.022460938,-0.02734375,2.0388408,5.160912,-129.78763,-14.5124855,0.0,0.0,0.0,0.0,0.0,0.0,0.0,21.969067,-129.66118,-3.6742802,0.0,0.0,0.0,0.0,0.0,0.0,0.0,5.692849,44.643497,-0.5125915,
1.6406249511055653,70,-0.028869629,-0.6182251,0.814209,0.087890625,0.052734375,-0.07324219,0.0,0.0,0.0,0.0,0.0,0.0,0.0,0.0,0.0,0.0,0.0,-0.2580764,0.043763258,0.9652639,-0.8673706,-0.123413086,-0.33306885,0.0146484375,0.043945312,0.09082031,6.251408,-5.342981,0.90603507,19.983955,-0.986145,-0.045959473,-0.19500732,0.041992188,0.0068359375,0.037109375,1.831521,-6.9828405,-56.045826,17.962822,-0.4210205,-0.60375977,0.6810913,-0.0146484375,0.053710938,-0.028320312,21.307575,-5.957666,-128.03864,16.369658,0.0,0.0,0.0,0.0,0.0,0.0,0.0,3.7223039,-127.760056,33.872612,0.0,0.0,0.0,0.0,0.0,0.0,0.0,0.2580764,-0.043763258,-0.9652639,0.98413086,-0.13647461,-0.13720703,0.017578125,0.2109375,0.078125,8.665081,5.342981,-0.90603507,-19.983955,-0.96520996,-0.027038574,-0.16290283,0.025390625,0.16015625,0.056640625,3.2437117,6.2166824,-57.79618,-16.521227,-0.2937622,0.6469116,0.7149658,-0.05859375,0.061523438,-0.026367188,2.1622033,5.2842298,-129.78275,-14.473098,0.0,0.0,0.0,0.0,0.0,0.0,0.0,22.082891,-129.66405,-3.6204462,0.0,0.0,0.0,0.0,0.0,0.0,0.0,5.7242236,44.637455,-0.49332976,
1.6640624504070733,71,-0.05291748,-0.6292114,0.8098755,0.107421875,0.09082031,-0.091796875,0.0,0.0,0.0,0.0,0.0,0.0,0.0,0.0,0.0,0.0,0.0,-0.25798047,0.04407858,0.9653579,-0.880188,-0.13623047,-0.3746338,0.051757812,0.024414062,0.09082031,6.3120527,-5.340996,0.9125633,19.985903,-0.9769287,-0.032409668,-0.20092773,0.041992188,0.0068359375,0.037109375,1.8656107,-7.014571,-56.040413,17.994188,-0.43237305,-0.6185303,0.68914795,-0.015625,0.015625,-0.045898438,21.32595,-5.9737515,-128.03503,16.351244,0.0,0.0,0.0,0.0,0.0,0.0,0.0,3.7062259,-127.75781,33.85641,0.0,0.0,0.0,0.0,0.0,0.0,0.0,0.25798047,-0.04407858,-0.9653579,0.9841919,-0.124694824,-0.1638794,-0.01953125,0.2109375,0.13476562,9.122832,5.340996,-0.9125633,-19.985903,-0.9623413,-0.025634766,-0.13830566,0.005859375,0.14160156,0.055664062,3.688545,6.5165677,-57.789406,-16.363422,-0.34918213,0.63616943,0.6824341,-0.080078125,0.099609375,-0.044921875,2.1736686,5.413636,-129.77124,-14.348511,0.0,0.0,0.0,0.0,0.0,0.0,0.0,22.198448,-129.69138,-3.476306,0.0,0.0,0.0,0.0,0.0,0.0,0.0,5.8186674,44.628983,-0.4828049,
1.6874999497085814,72,-0.03387451,-0.6281738,0.8140869,0.14648438,0.091796875,-0.12988281,0.0,0.0,0.0,0.0,0.0,0.0,0.0,0.0,0.0,0.0,0.0,-0.2576473,0.04495646,0.9653372,-0.8911133,-0.14733887,-0.34960938,0.033203125,0.0625,0.12792969,6.4366307,-5.3340983,0.9307382,19.985474,-0.9812012,-0.053955078,-0.1642456,-0.0146484375,0.043945312,0.037109375,1.850126,-6.9766026,-56.01853,18.05346,-0.4703369,-0.5494385,0.7524414,-0.072265625,0.036132812,-0.06542969,21.27878,-5.903798,-128.00676,16.37587,0.0,0.0,0.0,0.0,0.0,0.0,0.0,3.781868,-127.71637,33.87458,0.0,0.0,0.0,0.0,0.0,0.0,0.0,0.2576473,-0.04495646,-0.9653372,0.9924927,-0.16418457,-0.16448975,0.017578125,0.22949219,0.115234375,9.554853,5.3340983,-0.9307382,-19.985474,-1.0050049,-0.021484375,-0.16497803,0.0068359375,0.16113281,0.056640625,4.180576,6.7972193,-57.790745,-16.210915,-0.3088379,0.6532593,0.6845093,-0.05859375,0.061523438,-0.026367188,2.2869596,5.470277,-129.76727,-14.274279,0.0,0.0,0.0,0.0,0.0,0.0,0.0,22.241032,-129.71054,-3.3808155,0.0,0.0,0.0,0.0,0.0,0.0,0.0,5.913653,44.61328,-0.4993267,
1.7109374490100895,73,-0.08093262,-0.6380615,0.79663086,0.16601562,0.07421875,-0.12890625,0.0,0.0,0.0,0.0,0.0,0.0,0.0,0.0,0.0,0.0,0.0,-0.2559423,0.045550115,0.9654795,-0.9420166,-0.15100098,-0.29858398,0.08984375,0.04296875,0.1640625,6.599152,-5.2988005,0.94302845,19.988417,-0.9885254,-0.07446289,-0.13647461,0.060546875,0.0068359375,0.056640625,1.9139729,-6.902446,-56.0154,18.100046,-0.41149902,-0.6289673,0.6879883,-0.015625,0.016601562,-0.064453125,21.128023,-5.691085,-128.00455,16.31333,0.0,0.0,0.0,0.0,0.0,0.0,0.0,4.001687,-127.70514,33.807545,0.0,0.0,0.0,0.0,0.0,0.0,0.0,0.2559423,-0.045550115,-0.9654795,0.9684448,-0.16412354,-0.15802002,-0.01953125,0.2109375,0.15332031,10.0444355,5.2988005,-0.94302845,-19.988417,-0.96936035,-0.085632324,-0.17504883,0.0234375,0.12207031,0.09375,4.7350345,7.0660114,-57.781013,-16.037899,-0.29608154,0.62005615,0.6685791,-0.057617188,0.022460938,-0.02734375,2.403629,5.4601274,-129.75833,-14.169768,0.0,0.0,0.0,0.0,0.0,0.0,0.0,22.229,-129.72272,-3.2727022,0.0,0.0,0.0,0.0,0.0,0.0,0.0,6.031339,44.585033,-0.50459695,
1.7343749483115976,74,-0.08886719,-0.6121216,0.8173828,0.14648438,0.091796875,-0.12988281,0.0,0.0,0.0,0.0,0.0,0.0,0.0,0.0,0.0,0.0,0.0,-0.25557885,0.04577221,0.9654306,-0.8967285,-0.13970947,-0.32452393,0.109375,0.0234375,0.1640625,6.8343177,-5.2912745,0.9476267,19.987408,-0.98339844,-0.058044434,-0.13336182,0.060546875,0.044921875,0.09472656,1.8751324,-6.728021,-56.01081,18.108166,-0.4116211,-0.62561035,0.6699829,-0.017578125,-0.041015625,-0.02734375,20.98317,-5.355089,-127.989555,16.266304,0.0,0.0,0.0,0.0,0.0,0.0,0.0,4.342514,-127.67623,33.75596,0.0,0.0,0.0,0.0,0.0,0.0,0.0,0.25557885,-0.04577221,-0.9654306,0.9593506,-0.15032959,-0.16558838,-0.018554688,0.13574219,0.115234375,10.334604,5.2912745,-0.9476267,-19.987408,-0.9801636,-0.014465332,-0.18359375,0.024414062,0.14160156,0.09375,5.1333947,7.2199965,-57.767002,-15.901016,-0.2738037,0.6312866,0.69226074,-0.038085938,0.022460938,0.009765625,2.59065,5.2971625,-129.73726,-14.005171,0.0,0.0,0.0,0.0,0.0,0.0,0.0,22.064787,-129.71057,-3.10491,0.0,0.0,0.0,0.0,0.0,0.0,0.0,6.103343,44.569412,-0.49734843,
1.7578124476131056,75,-0.08892822,-0.63116455,0.7955322,0.12695312,0.036132812,-0.12890625,0.0,0.0,0.0,0.0,0.0,0.0,0.0,0.0,0.0,0.0,0.0,-0.25510016,0.04639371,0.9655617,-0.90704346,-0.09814453,-0.3079834,0.109375,0.0234375,0.12695312,7.060359,-5.281363,0.9604938,19.990122,-0.991333,-0.035461426,-0.15405273,0.041992188,0.08300781,0.07519531,1.7939509,-6.5672984,-56.003475,18.171358,-0.4282837,-0.61883545,0.6990967,0.060546875,-0.00390625,-0.02734375,20.946373,-5.1087937,-127.98006,16.300335,0.0,0.0,0.0,0.0,0.0,0.0,0.0,4.5844893,-127.66996,33.79316,0.0,0.0,0.0,0.0,0.0,0.0,0.0,0.25510016,-0.04639371,-0.9655617,0.9763794,-0.16015625,-0.1541748,-0.055664062,0.13574219,0.15332031,10.603057,5.281363,-0.9604938,-19.990122,-0.9862671,-0.028686523,-0.21417236,-0.0146484375,0.103515625,0.09277344,5.445393,7.320192,-57.769966,-15.712558,-0.31689453,0.6433716,0.703125,9.765625E-4,0.022460938,0.028320312,2.7437384,5.123003,-129.72546,-13.673905,0.0,0.0,0.0,0.0,0.0,0.0,0.0,21.887218,-129.71385,-2.7666788,0.0,0.0,0.0,0.0,0.0,0.0,0.0,6.1888943,44.559013,-0.50589263,
1.7812499469146137,76,-0.057861328,-0.62005615,0.79797363,0.14648438,0.07421875,-0.1484375,0.0,0.0,0.0,0.0,0.0,0.0,0.0,0.0,0.0,0.0,0.0,-0.25550348,0.047097422,0.96538377,-0.899292,-0.119140625,-0.3083496,0.052734375,0.04296875,0.14648438,7.1795526,-5.2897153,0.97506267,19.986437,-0.9822998,-0.04925537,-0.14025879,0.041992188,0.1015625,0.09472656,1.6873683,-6.472603,-55.99902,18.306057,-0.41680908,-0.6054077,0.7050171,0.060546875,-0.00390625,-0.02734375,20.797215,-5.0229955,-127.98045,16.553812,0.0,0.0,0.0,0.0,0.0,0.0,0.0,4.6768203,-127.66547,34.04624,0.0,0.0,0.0,0.0,0.0,0.0,0.0,0.25550348,-0.047097422,-0.96538377,0.9923096,-0.14440918,-0.15631104,-0.017578125,0.061523438,0.115234375,10.759947,5.2897153,-0.97506267,-19.986437,-0.9623413,-0.044677734,-0.17974854,0.041992188,0.10253906,0.09375,5.695639,7.3820066,-57.764614,-15.560627,-0.3515625,0.5645752,0.7105713,0.0390625,0.041992188,0.046875,2.8292313,4.935751,-129.70619,-13.428744,0.0,0.0,0.0,0.0,0.0,0.0,0.0,21.696424,-129.72734,-2.5191946,0.0,0.0,0.0,0.0,0.0,0.0,0.0,6.239628,44.550125,-0.52201927,
1.8046874462161218,77,-0.0579834,-0.6503296,0.81866455,0.16601562,0.07421875,-0.12890625,0.0,0.0,0.0,0.0,0.0,0.0,0.0,0.0,0.0,0.0,0.0,-0.25460207,0.048736215,0.96538866,-0.9088745,-0.09942627,-0.2901001,0.0146484375,-0.0146484375,0.109375,7.32863,-5.2710514,1.0089908,19.986538,-0.99139404,-0.03753662,-0.13214111,0.060546875,0.13964844,0.09375,1.5582135,-6.362217,-55.97148,18.469736,-0.42840576,-0.6121216,0.6621704,0.060546875,0.015625,-0.045898438,20.681612,-4.964452,-127.95642,16.887709,0.0,0.0,0.0,0.0,0.0,0.0,0.0,4.739256,-127.63566,34.378822,0.0,0.0,0.0,0.0,0.0,0.0,0.0,0.25460207,-0.048736215,-0.96538866,0.96380615,-0.107788086,-0.12554932,-0.0546875,0.0048828125,0.115234375,10.885134,5.2710514,-1.0089908,-19.986538,-0.9649658,-0.014160156,-0.16088867,0.0234375,0.12207031,0.09375,5.8665504,7.3938932,-57.792294,-15.45603,-0.3100586,0.62908936,0.6627197,0.09863281,-0.015625,0.06347656,2.9697928,4.737784,-129.72453,-13.207973,0.0,0.0,0.0,0.0,0.0,0.0,0.0,21.506578,-129.74371,-2.3090296,0.0,0.0,0.0,0.0,0.0,0.0,0.0,6.3113747,44.532578,-0.58366156,
1.8281249455176298,78,-0.03491211,-0.626709,0.7982178,0.16601562,0.056640625,-0.18554688,0.0,0.0,0.0,0.0,0.0,0.0,0.0,0.0,0.0,0.0,0.0,-0.25412327,0.05045612,0.9654439,-0.94763184,-0.13427734,-0.2843628,0.033203125,0.0048828125,0.12792969,7.502971,-5.2611394,1.0445981,19.987682,-0.9954834,-0.03753662,-0.123168945,0.07910156,0.19726562,0.11328125,1.334422,-6.2220116,-55.939545,18.584133,-0.44329834,-0.6081543,0.6812744,0.09863281,-0.00390625,-0.0087890625,20.53077,-4.9448724,-127.93586,17.143461,0.0,0.0,0.0,0.0,0.0,0.0,0.0,4.7722774,-127.60159,34.6261,0.0,0.0,0.0,0.0,0.0,0.0,0.0,0.25412327,-0.05045612,-0.9654439,0.9923096,-0.17193604,-0.120910645,-0.07324219,-0.013671875,0.115234375,10.931676,5.2611394,-1.0445981,-19.987682,-0.94189453,-0.03363037,-0.15008545,0.00390625,0.083984375,0.09277344,5.956147,7.3772345,-57.81998,-15.376981,-0.30297852,0.6376953,0.673584,0.15722656,-0.03515625,0.10058594,3.1575892,4.5582957,-129.74086,-12.9965725,0.0,0.0,0.0,0.0,0.0,0.0,0.0,21.31725,-129.70464,-2.0850716,0.0,0.0,0.0,0.0,0.0,0.0,0.0,6.357907,44.525757,-0.6534866,
1.851562444819138,79,-0.03289795,-0.62945557,0.7932739,0.22363281,0.09472656,-0.14746094,0.0,0.0,0.0,0.0,0.0,0.0,0.0,0.0,0.0,0.0,0.0,-0.25339192,0.052095637,0.96579903,-0.93377686,-0.15045166,-0.28588867,0.12792969,-0.0146484375,0.08984375,7.779402,-5.2459984,1.0785412,19.995035,-0.9771118,-0.026977539,-0.13415527,0.022460938,0.21582031,0.11328125,1.0149071,-6.028842,-55.90926,18.682508,-0.44073486,-0.6207886,0.66430664,0.17675781,0.033203125,0.02734375,20.329533,-4.924478,-127.90399,17.419012,0.0,0.0,0.0,0.0,0.0,0.0,0.0,4.8039517,-127.55714,34.89359,0.0,0.0,0.0,0.0,0.0,0.0,0.0,0.25339192,-0.052095637,-0.96579903,0.9925537,-0.18383789,-0.14483643,-0.12792969,-0.087890625,0.15332031,10.983652,5.2459984,-1.0785412,-19.995035,-0.9761963,-0.051452637,-0.13555908,-0.015625,0.083984375,0.13085938,5.96759,7.2908397,-57.851967,-15.282181,-0.33319092,0.6194458,0.67840576,0.13769531,-0.015625,0.10058594,3.2866423,4.3468614,-129.76303,-12.744967,0.0,0.0,0.0,0.0,0.0,0.0,0.0,21.102678,-129.67183,-1.825408,0.0,0.0,0.0,0.0,0.0,0.0,0.0,6.4496536,44.522686,-0.70940983,
1.874999944120646,80,-0.0078125,-0.6143799,0.7946167,0.16601562,0.09375,-0.16699219,0.0,0.0,0.0,0.0,0.0,0.0,0.0,0.0,0.0,0.0,0.0,-0.25125486,0.053793356,0.96634096,-0.9178467,-0.111450195,-0.2720337,0.12792969,-0.07324219,0.14453125,8.0982,-5.2017555,1.1136892,20.006254,-0.9814453,-0.04272461,-0.09442139,-0.034179688,0.2919922,0.11230469,0.652521,-5.7639103,-55.87758,18.799786,-0.44592285,-0.60058594,0.7022705,0.19628906,0.032226562,0.045898438,20.00058,-4.836117,-127.880806,17.710238,0.0,0.0,0.0,0.0,0.0,0.0,0.0,4.9206543,-127.50882,35.17052,0.0,0.0,0.0,0.0,0.0,0.0,0.0,0.25125486,-0.053793356,-0.96634096,0.96014404,-0.16003418,-0.11810303,-0.24121094,-0.087890625,0.15527344,11.025463,5.2017555,-1.1136892,-20.006254,-0.94647217,0.0029296875,-0.13024902,-0.013671875,0.14160156,0.11230469,5.9552913,7.185157,-57.88153,-15.231323,-0.30078125,0.6711426,0.6520996,0.15722656,-0.015625,0.119140625,3.4475894,4.1038113,-129.78508,-12.490005,0.0,0.0,0.0,0.0,0.0,0.0,0.0,20.853317,-129.62834,-1.565175,0.0,0.0,0.0,0.0,0.0,0.0,0.0,6.539988,44.51174,-0.77739894,
1.898437443422154,81,-0.028808594,-0.616333,0.8161621,0.22363281,0.07714844,-0.20410156,0.0,0.0,0.0,0.0,0.0,0.0,0.0,0.0,0.0,0.0,0.0,-0.24919745,0.057178296,0.96686196,-0.9685669,-0.09509277,-0.23083496,0.14648438,-0.13183594,0.18066406,8.58419,-5.1591606,1.1837678,20.01704,-0.989563,-0.008911133,-0.05126953,-0.072265625,0.40527344,0.11230469,0.16902046,-5.3693223,-55.809753,19.006872,-0.43603516,-0.64123535,0.6871338,0.234375,0.0126953125,0.08300781,19.59969,-4.6872053,-127.82153,18.120005,0.0,0.0,0.0,0.0,0.0,0.0,0.0,5.0945177,-127.42274,35.566822,0.0,0.0,0.0,0.0,0.0,0.0,0.0,0.24919745,-0.057178296,-0.96686196,0.98724365,-0.17480469,-0.10095215,-0.27734375,-0.20019531,0.15527344,11.0228195,5.1591606,-1.1837678,-20.01704,-0.95947266,-0.018066406,-0.21398926,-0.072265625,0.103515625,0.13085938,5.964304,6.9978666,-57.941113,-15.101643,-0.29992676,0.6427002,0.6598511,0.13867188,-0.053710938,0.10058594,3.6642048,3.7144344,-129.82698,-12.171905,0.0,0.0,0.0,0.0,0.0,0.0,0.0,20.456392,-129.61229,-1.2350588,0.0,0.0,0.0,0.0,0.0,0.0,0.0,6.6620207,44.499077,-0.91452837,
1.921874942723662,82,-0.016723633,-0.5857544,0.7906494,0.16601562,0.076171875,-0.24316406,0.0,0.0,0.0,0.0,0.0,0.0,0.0,0.0,0.0,0.0,0.0,-0.24675292,0.06050201,0.9674276,-0.99768066,-0.0657959,-0.16918945,0.18457031,-0.2861328,0.19824219,9.309791,-5.108551,1.2525792,20.028751,-0.9928589,0.016723633,0.047607422,-0.16601562,0.5761719,0.07324219,0.750953,-4.697413,-55.747513,19.289839,-0.41015625,-0.58270264,0.7039795,0.2529297,0.0126953125,0.064453125,18.808529,-4.27221,-127.7537,18.705513,0.0,0.0,0.0,0.0,0.0,0.0,0.0,5.5351725,-127.329414,36.134914,0.0,0.0,0.0,0.0,0.0,0.0,0.0,0.24675292,-0.06050201,-0.9674276,0.96728516,-0.15618896,-0.14996338,-0.2763672,-0.23730469,0.1171875,10.84446,5.108551,-1.2525792,-20.028751,-0.96710205,-0.07556152,-0.1798706,-0.07128906,0.14160156,0.13183594,5.876932,6.6684723,-58.016853,-15.08585,-0.2939453,0.62060547,0.70495605,0.21777344,-0.111328125,0.09863281,3.8622422,3.1217518,-129.87915,-12.05666,0.0,0.0,0.0,0.0,0.0,0.0,0.0,19.865105,-129.59854,-1.1231594,0.0,0.0,0.0,0.0,0.0,0.0,0.0,6.776078,44.484978,-1.0537361,
1.9453124420251702,83,0.037231445,-0.6098633,0.7922363,0.06933594,0.017578125,-0.22558594,0.0,0.0,0.0,0.0,0.0,0.0,0.0,0.0,0.0,0.0,0.0,-0.24355188,0.06504613,0.96783996,-1.0689697,-0.07720947,-0.047180176,0.39160156,-0.6152344,0.19335938,10.428699,-5.0422783,1.3466566,20.037287,-0.99432373,0.015930176,0.1730957,-0.24121094,0.84277344,0.0146484375,2.1200645,-3.4671836,-55.63829,19.743095,-0.43988037,-0.60284424,0.70617676,0.33203125,0.049804688,0.119140625,17.614063,-3.2750473,-127.64816,19.44849,0.0,0.0,0.0,0.0,0.0,0.0,0.0,6.5495605,-127.204605,36.866795,0.0,0.0,0.0,0.0,0.0,0.0,0.0,0.24355188,-0.06504613,-0.96783996,0.9503784,-0.16503906,-0.15466309,-0.4638672,-0.27441406,0.045898438,10.378791,5.0422783,-1.3466566,-20.037287,-0.98864746,-0.01977539,-0.1619873,0.08105469,0.140625,0.13183594,5.636873,6.264297,-58.141174,-15.261524,-0.29589844,0.640625,0.66571045,0.25585938,-0.09277344,0.13574219,4.2038875,2.469582,-129.9965,-12.154452,0.0,0.0,0.0,0.0,0.0,0.0,0.0,19.223768,-129.60512,-1.2396193,0.0,0.0,0.0,0.0,0.0,0.0,0.0,6.7789354,44.47394,-1.2831001,
1.9687499413266782,84,0.004333496,-0.579834,0.7998657,0.030273438,0.051757812,-0.15039062,0.0,0.0,0.0,0.0,0.0,0.0,0.0,0.0,0.0,0.0,0.0,-0.24030712,0.06926039,0.9685996,-1.0906982,-0.07525635,0.14031982,0.7314453,-1.1582031,0.20507812,12.1216755,-4.975102,1.4339049,20.053015,-0.99432373,0.015930176,0.1730957,-0.24121094,0.84277344,0.0146484375,3.9518569,-1.6370015,-55.473457,20.222122,-0.4025879,-0.6331787,0.6889038,0.41015625,0.08691406,0.19335938,17.613523,-1.4448651,-127.48333,19.927517,0.0,0.0,0.0,0.0,0.0,0.0,0.0,8.381963,-127.03535,37.348297,0.0,0.0,0.0,0.0,0.0,0.0,0.0,0.24030712,-0.06926039,-0.9685996,0.9450073,-0.23706055,-0.16418457,-0.5,-0.38671875,0.064453125,9.715696,4.975102,-1.4339049,-20.053015,-0.9881592,0.07543945,-0.22845459,-0.0146484375,0.14160156,0.15039062,5.1894264,5.6517515,-58.2424,-15.379322,-0.2897339,0.6749878,0.6452637,0.19824219,-0.09277344,0.08105469,4.587957,1.5505972,-130.06079,-11.927678,0.0,0.0,0.0,0.0,0.0,0.0,0.0,18.317368,-129.54813,-1.0380058,0.0,0.0,0.0,0.0,0.0,0.0,0.0,6.75957,44.480614,-1.5035852,
1.9921874406281863,85,-0.043701172,-0.58062744,0.80718994,0.049804688,0.05078125,-0.0546875,0.0,0.0,0.0,0.0,0.0,0.0,0.0,0.0,0.0,0.0,0.0,-0.23938504,0.06997972,0.96877027,-1.0855713,-0.08514404,0.2374878,1.0712891,-1.7207031,0.29003906,14.43807,-4.9560127,1.4487972,20.056547,-1.0112305,0.09851074,0.20080566,-0.33496094,1.5664062,-0.0068359375,7.460956,0.7398014,-55.27024,20.717642,-0.40698242,-0.6680908,0.74768066,0.5878906,0.1796875,0.4140625,14.804543,-0.5513722,-127.26117,21.142015,0.0,0.0,0.0,0.0,0.0,0.0,0.0,9.265159,-126.846535,38.56967,0.0,0.0,0.0,0.0,0.0,0.0,0.0,0.23938504,-0.06997972,-0.96877027,0.9433594,-0.28735352,-0.15777588,-0.38671875,-0.4609375,0.04296875,9.115312,4.9560127,-1.4487972,-20.056547,-0.98223877,-0.020202637,-0.19146729,-0.12890625,0.103515625,0.14941406,4.636838,4.978942,-58.249283,-15.268954,-0.2935791,0.68847656,0.6660156,0.15917969,-0.09277344,0.08105469,4.762755,0.6866226,-130.03497,-11.38675,0.0,0.0,0.0,0.0,0.0,0.0,0.0,17.446129,-129.43025,-0.49002743,0.0,0.0,0.0,0.0,0.0,0.0,0.0,6.7658114,44.478123,-1.5410593,
2.0156249399296944,86,-0.021606445,-0.55511475,0.78967285,0.0107421875,0.12207031,0.07714844,0.0,0.0,0.0,0.0,0.0,0.0,0.0,0.0,0.0,0.0,0.0,-0.23922649,0.06828958,0.9688339,-1.2113647,-0.057739258,0.31652832,1.1835938,-2.1083984,0.453125,17.142294,-4.9527287,1.413806,20.057865,-1.1657715,0.14501953,0.04675293,-0.54296875,1.8886719,0.029296875,12.293693,3.427216,-54.96604,21.144506,-0.45617676,-0.6121216,0.8339844,0.5048828,0.48339844,0.6875,14.151682,-0.45790052,-126.882675,21.321495,0.0,0.0,0.0,0.0,0.0,0.0,0.0,9.338821,-126.627426,38.758743,0.0,0.0,0.0,0.0,0.0,0.0,0.0,0.23922649,-0.06828958,-0.9688339,0.9382324,-0.24108887,-0.20379639,-0.12402344,-0.53515625,9.765625E-4,8.525026,4.9527287,-1.413806,-20.057865,-0.9918213,-0.027648926,-0.16497803,0.1171875,0.1015625,0.13085938,4.0571437,4.267844,-58.212074,-15.208318,-0.2625122,0.6774292,0.66101074,0.15820312,-0.053710938,0.0625,4.9597387,-0.120700836,-129.98434,-11.17906,0.0,0.0,0.0,0.0,0.0,0.0,0.0,16.642271,-129.29822,-0.29526043,0.0,0.0,0.0,0.0,0.0,0.0,0.0,6.787015,44.473423,-1.4589062,
2.0390624392312025,87,-0.0048217773,-0.6091919,0.78674316,-0.047851562,0.119140625,0.171875,0.0,0.0,0.0,0.0,0.0,0.0,0.0,0.0,0.0,0.0,0.0,-0.2422606,0.06415713,0.9682984,-1.362854,-0.060913086,0.31451416,1.1083984,-2.2050781,0.58203125,20.07417,-5.015546,1.3282515,20.046778,-1.355835,0.035095215,-0.06365967,-0.65625,2.25,0.0087890625,18.093203,6.2555857,-54.531593,21.770844,-0.5933838,-0.6121826,0.81622314,0.2265625,1.2089844,1.0488281,13.378381,-1.0748444,-126.173035,21.406717,0.0,0.0,0.0,0.0,0.0,0.0,0.0,8.714899,-126.445465,38.845596,0.0,0.0,0.0,0.0,0.0,0.0,0.0,0.2422606,-0.06415713,-0.9682984,0.96606445,-0.23516846,-0.18054199,-0.12402344,-0.51660156,-0.036132812,7.9863763,5.015546,-1.3282515,-20.046778,-0.9748535,0.059570312,-0.14874268,0.21289062,0.12011719,0.13183594,3.4590418,3.6151357,-58.103405,-15.135155,-0.29077148,0.6611328,0.6638794,0.17871094,-0.09277344,0.08105469,5.233154,-0.89644,-129.85136,-10.849531,0.0,0.0,0.0,0.0,0.0,0.0,0.0,15.884748,-129.07616,3.8814545E-4,0.0,0.0,0.0,0.0,0.0,0.0,0.0,6.78571,44.47719,-1.2492211,
2.0624999385327105,88,-0.0059814453,-0.6578369,0.82525635,-0.14453125,0.09765625,0.18945312,0.0,0.0,0.0,0.0,0.0,0.0,0.0,0.0,0.0,0.0,0.0,-0.24737096,0.058260605,0.9672342,-1.3831787,0.043151855,0.34375,1.1455078,-2.3798828,0.5986328,23.12496,-5.1213465,1.206175,20.024744,-1.2232666,0.07220459,-0.16772461,-0.59765625,2.2695312,-0.125,24.405245,9.259526,-53.91119,22.337248,-0.37976074,-0.7145996,0.89404297,0.2529297,1.7568359,1.78125,12.49697,-1.766737,-125.06999,21.062279,0.0,0.0,0.0,0.0,0.0,0.0,0.0,7.948373,-126.25347,38.50895,0.0,0.0,0.0,0.0,0.0,0.0,0.0,0.24737096,-0.058260605,-0.9672342,0.94555664,-0.28845215,-0.19256592,-0.12402344,-0.5722656,-0.055664062,7.4132004,5.1213465,-1.206175,-20.024744,-0.9640503,0.093933105,-0.13085938,0.19433594,0.12011719,0.09375,2.8126466,3.0233493,-57.946835,-14.998596,-0.2814331,0.7060547,0.65625,0.15917969,-0.09277344,0.043945312,5.3853965,-1.5562081,-129.66374,-10.30056,0.0,0.0,0.0,0.0,0.0,0.0,0.0,15.240028,-128.81198,0.520854,0.0,0.0,0.0,0.0,0.0,0.0,0.0,6.641323,44.499313,-0.98185825,
2.0859374378342186,89,0.023864746,-0.7077637,0.7908325,0.08886719,0.0126953125,0.11816406,0.0,0.0,0.0,0.0,0.0,0.0,0.0,0.0,0.0,0.0,0.0,-0.25419337,0.054603815,0.9653637,-1.2265015,0.035217285,0.13781738,0.6923828,-1.8935547,0.47753906,26.125244,-5.2625904,1.1304684,19.986021,-1.4040527,-0.17022705,-0.23553467,-0.5595703,2.1748047,-0.16308594,30.613434,12.097357,-53.097595,22.85286,-0.6917114,-0.8796997,0.87145996,0.68847656,1.9775391,2.4072266,11.494628,-2.5713844,-123.569916,20.653656,0.0,0.0,0.0,0.0,0.0,0.0,0.0,6.9165773,-125.92934,38.10836,0.0,0.0,0.0,0.0,0.0,0.0,0.0,0.25419337,-0.054603815,-0.9653637,1.0025635,-0.3110962,-0.15234375,-0.048828125,-0.53515625,-0.018554688,6.996165,5.2625904,-1.1304684,-19.986021,-0.9519043,0.05407715,-0.09362793,0.15722656,0.15917969,0.09375,2.3404229,2.5079927,-57.818443,-14.716321,-0.27868652,0.6679077,0.65405273,0.1015625,-0.111328125,-0.01171875,5.4386954,-2.0775104,-129.51688,-9.713333,0.0,0.0,0.0,0.0,0.0,0.0,0.0,14.724695,-128.60782,1.0942268,0.0,0.0,0.0,0.0,0.0,0.0,0.0,6.512213,44.508205,-0.8027613,
2.1093749371357267,90,0.124938965,-0.6838989,0.6970825,0.12695312,0.033203125,0.041992188,0.0,0.0,0.0,0.0,0.0,0.0,0.0,0.0,0.0,0.0,0.0,-0.26360655,0.05801,0.9623275,-1.3831787,0.14361572,-0.15344238,1.1640625,-2.3398438,0.4326172,28.772076,-5.457472,1.200987,19.923162,-1.1604614,-0.07354736,-0.5886841,-0.44433594,2.1386719,-0.3544922,36.311085,14.496325,-52.096394,23.329824,-0.21209717,-1.994873,0.8903198,-0.12792969,0.8876953,1.0332031,10.9763365,-3.452753,-121.73863,19.536528,0.0,0.0,0.0,0.0,0.0,0.0,0.0,5.7163315,-125.041504,37.00784,0.0,0.0,0.0,0.0,0.0,0.0,0.0,0.26360655,-0.05801,-0.9623275,0.95654297,-0.20935059,-0.12054443,-0.12402344,-0.53515625,-0.07324219,6.427729,5.457472,-1.200987,-19.923162,-0.95544434,2.4414062E-4,-0.047668457,0.38867188,0.2529297,0.020507812,2.072071,2.170436,-57.859425,-14.562498,-0.2987671,0.6699829,0.6678467,0.12011719,-0.091796875,-0.01171875,5.4798326,-2.4047003,-129.55426,-9.507866,0.0,0.0,0.0,0.0,0.0,0.0,0.0,14.418426,-128.59825,1.2620764,0.0,0.0,0.0,0.0,0.0,0.0,0.0,6.401827,44.508224,-0.9293703,
2.1328124364372347,91,0.14276123,-0.7555542,0.78430176,-0.0859375,0.0107421875,-0.07519531,0.0,0.0,0.0,0.0,0.0,0.0,0.0,0.0,0.0,0.0,0.0,-0.27344555,0.061713003,0.9589356,-0.9882202,0.11767578,-0.5018921,0.12402344,-1.4599609,-0.23339844,30.814262,-5.6611714,1.2776506,19.85294,-1.0754395,-0.12408447,-0.58465576,0.3095703,1.2890625,-0.15917969,41.029045,16.6307,-51.088943,23.133718,0.68292236,-1.4598999,0.54455566,0.4375,1.6728516,-0.029296875,9.631331,-3.8830452,-119.95424,18.27988,0.0,0.0,0.0,0.0,0.0,0.0,0.0,5.4561796,-123.85522,35.5365,0.0,0.0,0.0,0.0,0.0,0.0,0.0,0.27344555,-0.061713003,-0.9589356,0.9202881,-0.17285156,-0.13824463,-0.4248047,-0.4609375,-0.049804688,5.4696307,5.6611714,-1.2776506,-19.85294,-0.9555054,0.110839844,-0.13275146,0.50390625,0.3095703,0.020507812,1.7941691,1.95738,-57.921352,-14.679012,-0.260437,0.69207764,0.6581421,0.099609375,-0.07324219,-0.0107421875,5.8581243,-2.7589967,-129.61057,-9.655912,0.0,0.0,0.0,0.0,0.0,0.0,0.0,14.083696,-128.60822,1.079361,0.0,0.0,0.0,0.0,0.0,0.0,0.0,6.0441294,44.535305,-1.1425866,
2.156249935738743,92,0.046447754,-0.83135986,0.8344116,-0.0078125,-0.059570312,-0.22558594,0.0,0.0,0.0,0.0,0.0,0.0,0.0,0.0,0.0,0.0,0.0,-0.27103662,0.062664725,0.9602106,-0.8311157,0.020751953,-0.19067383,-0.6142578,-1.6484375,-0.20898438,32.136147,-5.6112995,1.297354,19.879335,-1.0159912,0.058166504,-0.46881104,1.2197266,0.1171875,-0.44140625,43.286263,18.059473,-50.46373,23.095987,0.9666748,-1.1866455,0.829895,-0.1015625,1.3798828,-1.0976562,8.720014,-3.2028675,-119.015816,17.187433,0.0,0.0,0.0,0.0,0.0,0.0,0.0,6.6358585,-123.394264,34.047993,0.0,0.0,0.0,0.0,0.0,0.0,0.0,0.27103662,-0.062664725,-0.9602106,0.9636841,-0.19567871,-0.1661377,-0.46191406,-0.49804688,-0.048828125,4.743302,5.6112995,-1.297354,-19.879335,-0.93621826,0.083496094,-0.17211914,0.203125,0.38964844,0.021484375,1.3201207,1.4508085,-57.938354,-14.962568,-0.28259277,0.69073486,0.6296387,0.080078125,-0.053710938,-0.029296875,6.255171,-3.6855998,-129.57944,-9.686024,0.0,0.0,0.0,0.0,0.0,0.0,0.0,13.173283,-128.53748,1.021451,0.0,0.0,0.0,0.0,0.0,0.0,0.0,5.9076734,44.57944,-1.2417717,
2.179687435040251,93,-0.009338379,-0.75268555,0.7932739,0.22460938,-0.18164062,-0.2578125,0.0,0.0,0.0,0.0,0.0,0.0,0.0,0.0,0.0,0.0,0.0,-0.27002499,0.0688476,0.9602395,-0.88275146,-0.1716919,-0.06573486,-0.6328125,-1.7470703,0.10449219,34.261185,-5.590354,1.4253588,19.879936,-0.86676025,0.14501953,-0.3284912,1.2773438,-1.1220703,-0.5332031,44.242847,19.951458,-49.416065,23.282349,1.0153198,-0.9160156,1.1980591,-0.7236328,0.68359375,-1.6806641,8.0091305,0.20946693,-118.36578,16.724564,0.0,0.0,0.0,0.0,0.0,0.0,0.0,10.566037,-122.90689,33.22883,0.0,0.0,0.0,0.0,0.0,0.0,0.0,0.27002499,-0.0688476,-0.9602395,0.91741943,-0.27166748,-0.20562744,-0.6123047,-0.4609375,0.009765625,4.0650043,5.590354,-1.4253588,-19.879936,-0.940979,0.054504395,-0.1673584,0.29882812,0.38964844,-0.053710938,1.0673455,0.8919935,-58.03118,-15.064768,-0.26239014,0.71099854,0.62872314,-0.053710938,-0.091796875,-0.046875,6.6374354,-4.6982923,-129.62761,-9.671568,0.0,0.0,0.0,0.0,0.0,0.0,0.0,12.172073,-128.54465,1.0128975,0.0,0.0,0.0,0.0,0.0,0.0,0.0,5.9431663,44.573246,-1.5245755,
2.203124934341759,94,-0.0049438477,-0.6364136,0.7103882,0.3798828,-0.14160156,-0.1796875,0.0,0.0,0.0,0.0,0.0,0.0,0.0,0.0,0.0,0.0,0.0,-0.2774964,0.075381726,0.95714825,-0.84558105,-0.29638672,-0.020996094,-0.33007812,-1.5166016,0.029296875,36.336124,-5.745035,1.5606356,19.815935,-0.7815552,0.07940674,-0.40325928,0.53515625,-2.2578125,-0.16503906,43.83503,21.583305,-48.336143,23.49745,0.7536621,-0.84399414,1.4836426,-0.6503906,-0.5957031,-1.8691406,7.841524,4.902334,-118.0729,16.841654,0.0,0.0,0.0,0.0,0.0,0.0,0.0,15.68113,-122.283585,33.160896,0.0,0.0,0.0,0.0,0.0,0.0,0.0,0.2774964,-0.075381726,-0.95714825,0.94506836,-0.35351562,-0.19714355,-0.57421875,-0.47851562,-0.103515625,3.5092802,5.745035,-1.5606356,-19.815935,-0.9473877,0.09246826,-0.1642456,0.35839844,0.4658203,-0.09082031,1.0586939,0.4200945,-58.100864,-14.907108,-0.28363037,0.69366455,0.6256714,-0.15039062,-0.091796875,-0.1015625,6.9927435,-5.672593,-129.65399,-9.465092,0.0,0.0,0.0,0.0,0.0,0.0,0.0,11.2099905,-128.59065,1.2027254,0.0,0.0,0.0,0.0,0.0,0.0,0.0,5.9822297,44.538494,-1.7733319,
2.226562433643267,95,-7.9345703E-4,-0.59484863,0.6461792,0.39941406,-0.12402344,-0.06542969,0.0,0.0,0.0,0.0,0.0,0.0,0.0,0.0,0.0,0.0,0.0,-0.28119573,0.08123264,0.9557247,-0.6865845,-0.24438477,-0.041625977,0.21972656,-1.1142578,-0.029296875,38.37054,-5.8216243,1.6817676,19.786463,-0.77337646,0.0736084,-0.41931152,0.095703125,-3.1992188,0.20214844,41.782536,23.001429,-47.356148,23.604387,0.44274902,-0.7761841,1.3358154,-0.4765625,-1.703125,-2.040039,7.8737984,10.847537,-118.112335,17.939713,0.0,0.0,0.0,0.0,0.0,0.0,0.0,21.893478,-121.44368,34.283424,0.0,0.0,0.0,0.0,0.0,0.0,0.0,0.28119573,-0.08123264,-0.9557247,0.95861816,-0.34344482,-0.12194824,-0.20019531,-0.4970703,-0.16601562,3.3833296,5.8216243,-1.6817676,-19.786463,-0.94036865,0.06689453,-0.09454346,0.17089844,0.5449219,-0.08984375,1.2124074,0.07430506,-58.16561,-14.718959,-0.27770996,0.6690674,0.6373291,-0.18652344,-0.1875,-0.10253906,7.0924053,-6.562177,-129.67413,-9.269821,0.0,0.0,0.0,0.0,0.0,0.0,0.0,10.349108,-128.6623,1.3559685,0.0,0.0,0.0,0.0,0.0,0.0,0.0,6.2249575,44.503693,-1.9511068,
2.249999932944775,96,0.0211792,-0.60491943,0.62854004,0.28320312,-0.109375,-0.029296875,0.0,0.0,0.0,0.0,0.0,0.0,0.0,0.0,0.0,0.0,0.0,-0.28188023,0.085674435,0.9554833,-0.63061523,-0.14068604,-0.03918457,0.5800781,-0.828125,0.061523438,40.014187,-5.8357954,1.7737263,19.781466,-0.8062744,0.05505371,-0.34857178,0.016601562,-3.8496094,0.4345703,38.162647,24.07645,-46.614418,23.484825,-0.061401367,-0.925354,1.1752319,-0.359375,-2.1220703,-2.2753906,7.8936667,17.698982,-118.24989,19.711926,0.0,0.0,0.0,0.0,0.0,0.0,0.0,28.92575,-120.36079,36.136696,0.0,0.0,0.0,0.0,0.0,0.0,0.0,0.28188023,-0.085674435,-0.9554833,0.9838867,-0.22528076,-0.15301514,0.025390625,-0.53515625,-0.18847656,3.226768,5.8357954,-1.7737263,-19.781466,-0.94976807,0.010986328,-0.08795166,-0.0146484375,0.6816406,-0.06933594,1.26393,-0.26893568,-58.22503,-14.790715,-0.26776123,0.66119385,0.6274414,-0.16992188,-0.111328125,-0.1015625,7.1420465,-7.5903363,-129.66724,-9.450951,0.0,0.0,0.0,0.0,0.0,0.0,0.0,9.343227,-128.72084,1.1459923,0.0,0.0,0.0,0.0,0.0,0.0,0.0,6.52002,44.471478,-2.06409,
2.273437432246283,97,0.044921875,-0.6670532,0.63464355,0.12695312,-0.041015625,0.0625,0.0,0.0,0.0,0.0,0.0,0.0,0.0,0.0,0.0,0.0,0.0,-0.28688556,0.08775346,0.9535105,-0.6553955,-0.022155762,0.017089844,0.7705078,-0.65527344,0.09765625,41.09497,-5.9394207,1.8167684,19.740623,-0.89501953,0.032226562,-0.27453613,0.20507812,-4.1328125,0.5126953,33.979343,24.8501,-46.035934,23.258694,-0.4744873,-0.94873047,0.9143677,-0.36035156,-2.102539,-2.4052734,8.065601,24.643301,-118.04145,21.958103,0.0,0.0,0.0,0.0,0.0,0.0,0.0,35.9968,-118.7877,38.413616,0.0,0.0,0.0,0.0,0.0,0.0,0.0,0.28688556,-0.08775346,-0.9535105,0.9437866,-0.11859131,-0.113342285,0.08203125,-0.609375,-0.15234375,2.712527,5.9394207,-1.8167684,-19.740623,-0.9553833,0.010375977,-0.1459961,0.026367188,0.77734375,-0.10546875,1.3213061,-0.5080271,-58.261932,-15.108105,-0.27978516,0.64630127,0.66674805,-0.14941406,-0.12988281,-0.13867188,7.449507,-8.747164,-129.62866,-10.0708885,0.0,0.0,0.0,0.0,0.0,0.0,0.0,8.211618,-128.74664,0.49391747,0.0,0.0,0.0,0.0,0.0,0.0,0.0,6.557803,44.450672,-2.1178174,
2.296874931547791,98,0.058898926,-0.68304443,0.64471436,0.06933594,0.05078125,0.022460938,0.0,0.0,0.0,0.0,0.0,0.0,0.0,0.0,0.0,0.0,0.0,-0.3016769,0.08831706,0.9477357,-0.74261475,0.19543457,0.3720703,0.7705078,-0.77246094,0.20703125,41.644783,-6.245648,1.8284369,19.621067,-0.89501953,0.032226562,-0.27453613,0.20507812,-4.1328125,0.5126953,34.9876,25.396679,-45.464523,23.045479,-0.64941406,-0.9039917,0.70544434,-0.32617188,-1.6445312,-2.3925781,8.313755,25.18988,-117.47004,21.744888,0.0,0.0,0.0,0.0,0.0,0.0,0.0,36.6549,-116.9389,38.129818,0.0,0.0,0.0,0.0,0.0,0.0,0.0,0.3016769,-0.08831706,-0.9477357,0.92749023,-0.06439209,-0.14416504,-0.123046875,-0.6845703,-0.14941406,1.6624813,6.245648,-1.8284369,-19.621067,-0.9291382,0.016174316,-0.20098877,-0.048828125,0.81640625,-0.10546875,1.3866334,-0.63709736,-58.26181,-15.517353,-0.2805786,0.69348145,0.64141846,-0.16992188,-0.091796875,-0.1015625,7.961389,-9.95384,-129.5108,-10.737928,0.0,0.0,0.0,0.0,0.0,0.0,0.0,7.031872,-128.67929,-0.21202087,0.0,0.0,0.0,0.0,0.0,0.0,0.0,6.182908,44.452145,-2.1742792,
2.3203124308492993,99,0.08660889,-0.77197266,0.6884155,0.20410156,0.16503906,0.061523438,0.0,0.0,0.0,0.0,0.0,0.0,0.0,0.0,0.0,0.0,0.0,-0.31609264,0.087764256,0.9426396,-0.7659912,0.26513672,0.43988037,0.8457031,-0.69628906,0.2626953,42.799572,-6.544097,1.8169923,19.515564,-0.892334,0.107788086,-0.08465576,1.3417969,-4.0234375,0.3408203,26.222729,26.402847,-44.485218,23.865078,-0.8591919,-0.72528076,0.7225342,-0.23144531,-1.0732422,-2.3251953,10.063509,38.942432,-115.360275,26.409918,0.0,0.0,0.0,0.0,0.0,0.0,0.0,50.59727,-113.76665,42.590576,0.0,0.0,0.0,0.0,0.0,0.0,0.0,0.31609264,-0.087764256,-0.9426396,0.8946533,-0.039916992,-0.22058105,-0.421875,-0.77734375,-0.107421875,0.8292154,6.544097,-1.8169923,-19.515564,-0.9401245,-0.014404297,-0.3034668,-0.08496094,0.875,-0.10449219,1.6460377,-1.0325108,-58.20185,-15.934216,-0.28271484,0.645874,0.710083,-0.19042969,-0.07324219,-0.13769531,8.719653,-11.7693405,-129.27017,-11.403208,0.0,0.0,0.0,0.0,0.0,0.0,0.0,5.232197,-128.51161,-0.8998146,0.0,0.0,0.0,0.0,0.0,0.0,0.0,5.798057,44.484062,-2.1974332,
2.3437499301508073,100,0.08685303,-0.70977783,0.68859863,0.24316406,0.18457031,0.061523438,0.0,0.0,0.0,0.0,0.0,0.0,0.0,0.0,0.0,0.0,0.0,-0.3267827,0.08728199,0.93913347,-0.8572998,0.16577148,0.5169678,0.4296875,-0.63378906,0.0087890625,43.995045,-6.7654138,1.8070078,19.442972,-0.8569336,0.10131836,-0.050048828,0.96191406,-3.6083984,0.51171875,22.651382,27.308928,-43.610634,24.477413,-1.0441895,-0.49908447,0.9000244,-0.546875,-0.76464844,-2.3466797,10.914753,45.943817,-113.0683,28.350607,0.0,0.0,0.0,0.0,0.0,0.0,0.0,57.827713,-110.589485,44.249428,0.0,0.0,0.0,0.0,0.0,0.0,0.0,0.3267827,-0.08728199,-0.93913347,0.8718872,-0.115234375,-0.3439331,-0.57128906,-0.8330078,-0.16113281,1.5428156,6.7654138,-1.8070078,-19.442972,-0.9772949,-0.040222168,-0.33221436,-0.045898438,0.8935547,-0.123046875,1.7975475,-1.8494496,-58.072952,-16.498623,-0.27581787,0.6323242,0.68536377,-0.15429688,0.00390625,-0.119140625,9.629781,-14.157402,-128.90529,-12.240182,0.0,0.0,0.0,0.0,0.0,0.0,0.0,2.8567638,-128.23854,-1.7494879,0.0,0.0,0.0,0.0,0.0,0.0,0.0,5.5992327,44.514275,-2.188786,
2.3671874294523154,101,0.06304932,-0.6542969,0.7072754,0.30078125,0.20410156,0.08105469,0.0,0.0,0.0,0.0,0.0,0.0,0.0,0.0,0.0,0.0,0.0,-0.3348813,0.08669039,0.9366713,-0.8585205,0.17626953,0.48828125,-0.17578125,-0.3984375,-0.001953125,45.111523,-6.9330807,1.79476,19.392002,-0.8569336,0.11767578,-0.022033691,0.28125,-2.96875,0.546875,19.468618,27.996817,-42.892273,25.063974,-1.1468506,-0.34106445,0.77948,-0.47265625,-0.9589844,-1.9941406,11.376412,51.72631,-110.69315,30.340893,0.0,0.0,0.0,0.0,0.0,0.0,0.0,63.7318,-107.38096,45.99863,0.0,0.0,0.0,0.0,0.0,0.0,0.0,0.3348813,-0.08669039,-0.9366713,0.85809326,-0.2199707,-0.4260254,-0.6074219,-0.9267578,-0.23632812,2.9901574,6.9330807,-1.79476,-19.392002,-0.9481201,-0.0099487305,-0.31921387,0.087890625,0.93066406,-0.16015625,1.6984657,-3.0671406,-57.86001,-16.964348,-0.5128784,0.54559326,0.56378174,-0.08300781,0.17675781,-0.15527344,10.49567,-16.96605,-128.4148,-13.038119,0.0,0.0,0.0,0.0,0.0,0.0,0.0,0.078819275,-127.87158,-2.5971537,0.0,0.0,0.0,0.0,0.0,0.0,0.0,5.5730305,44.534935,-2.129293,
2.3906249287538235,102,0.05316162,-0.6325073,0.76464844,0.30078125,0.16699219,0.08203125,0.0,0.0,0.0,0.0,0.0,0.0,0.0,0.0,0.0,0.0,0.0,-0.34147704,0.08659541,0.9346545,-0.93115234,0.20288086,0.53808594,-0.66796875,-0.24023438,-0.0703125,46.133835,-7.069633,1.7927933,19.350245,-0.9038696,0.14575195,0.07611084,-0.05859375,-2.3623047,0.48632812,16.994362,28.468155,-42.291027,25.910316,-1.1317139,-0.08618164,0.35491943,-0.59277344,-0.86816406,-1.1445312,11.847678,56.01487,-108.49161,32.59199,0.0,0.0,0.0,0.0,0.0,0.0,0.0,67.95987,-104.50852,48.13672,0.0,0.0,0.0,0.0,0.0,0.0,0.0,0.34147704,-0.08659541,-0.9346545,0.9154663,-0.29284668,-0.3665161,-0.41992188,-0.9453125,-0.2763672,4.243302,7.069633,-1.7927933,-19.350245,-1.02948,-0.05230713,-0.24786377,-0.15527344,0.9921875,-0.31054688,1.7082314,-4.2647595,-57.61163,-17.191284,-0.3817749,0.71569824,0.69177246,-0.05078125,0.36914062,-0.20898438,11.781041,-19.816702,-127.83197,-13.423652,0.0,0.0,0.0,0.0,0.0,0.0,0.0,-2.8521023,-127.276695,-2.8468962,0.0,0.0,0.0,0.0,0.0,0.0,0.0,5.670424,44.541374,-2.0550466,
2.4140624280553316,103,0.039001465,-0.67926025,0.83374023,0.3203125,0.13183594,0.043945312,0.0,0.0,0.0,0.0,0.0,0.0,0.0,0.0,0.0,0.0,0.0,-0.3462136,0.08644849,0.93339074,-1.0800781,0.24890137,0.60595703,-1.0273438,-0.19921875,-0.17675781,46.54448,-7.167696,1.7897515,19.324083,-0.8223877,0.078125,0.1706543,-0.60253906,-1.4902344,0.099609375,14.711584,28.502546,-42.160126,26.08183,-1.5848999,-0.29577637,0.2177124,-0.46289062,-0.7421875,-0.29589844,12.658017,58.78119,-107.04771,33.79518,0.0,0.0,0.0,0.0,0.0,0.0,0.0,70.531235,-102.74733,49.40516,0.0,0.0,0.0,0.0,0.0,0.0,0.0,0.3462136,-0.08644849,-0.93339074,1.117981,-0.34240723,-0.33563232,-0.27148438,-0.90722656,-0.3720703,5.32318,7.167696,-1.7897515,-19.324083,-1.1063843,-0.10131836,-0.23754883,-0.15429688,1.0488281,-0.19726562,1.995079,-5.3514166,-57.38332,-17.810265,-0.2319336,0.70928955,0.7546997,0.047851562,0.8105469,-0.5029297,12.583227,-22.599037,-127.216385,-14.373302,0.0,0.0,0.0,0.0,0.0,0.0,0.0,-5.71385,-126.840775,-3.6630802,0.0,0.0,0.0,0.0,0.0,0.0,0.0,5.8291783,44.54481,-1.9634761,
2.4374999273568396,104,0.080566406,-0.8086548,0.87945557,0.24316406,0.12792969,0.119140625,0.0,0.0,0.0,0.0,0.0,0.0,0.0,0.0,0.0,0.0,0.0,-0.35074824,0.08506724,0.9319722,-1.0960693,0.10784912,0.69366455,-1.5966797,-0.46484375,-0.3017578,47.134724,-7.261576,1.7611556,19.294714,-0.8774414,-0.12359619,0.20605469,-0.6171875,-0.2685547,-0.19238281,14.021595,28.648409,-41.94838,26.379261,-1.5758057,0.021911621,-0.16882324,-0.041015625,-0.33007812,0.27148438,12.398868,60.09568,-106.26228,34.21394,0.0,0.0,0.0,0.0,0.0,0.0,0.0,71.63264,-101.82634,49.94534,0.0,0.0,0.0,0.0,0.0,0.0,0.0,0.35074824,-0.08506724,-0.9319722,1.2021484,-0.115600586,-0.30334473,-0.42089844,-0.8701172,-0.2763672,6.2750425,7.261576,-1.7611556,-19.294714,-1.2623901,-0.0107421875,-0.22387695,0.359375,1.1210938,-0.21484375,2.3993907,-6.3264136,-57.11303,-18.358152,-0.25402832,0.70965576,0.7468262,0.33496094,1.3876953,-0.9267578,13.072173,-25.34517,-126.505035,-15.401941,0.0,0.0,0.0,0.0,0.0,0.0,0.0,-8.544653,-126.50107,-4.5522003,0.0,0.0,0.0,0.0,0.0,0.0,0.0,5.9936895,44.53581,-1.8093486,
2.4609374266583477,105,0.10424805,-0.9137573,0.9647217,0.30078125,0.16601562,0.19628906,0.0,0.0,0.0,0.0,0.0,0.0,0.0,0.0,0.0,0.0,0.0,-0.3507438,0.08302858,0.9324664,-1.1077881,-0.10272217,0.5699463,-1.3691406,-0.42773438,-0.28515625,47.95477,-7.261483,1.718949,19.304945,-0.8186035,-0.10534668,-0.017211914,-0.0107421875,0.9794922,-0.2734375,15.105687,28.928871,-41.687954,26.804394,-1.7532349,0.007385254,-0.24810791,0.203125,0.60058594,0.70410156,12.345456,59.705795,-106.37645,34.24118,0.0,0.0,0.0,0.0,0.0,0.0,0.0,71.21643,-102.16806,50.05248,0.0,0.0,0.0,0.0,0.0,0.0,0.0,0.3507438,-0.08302858,-0.9324664,1.1844482,-0.04650879,-0.27844238,-0.49609375,-0.8886719,-0.25683594,7.1192946,7.261483,-1.718949,-19.304945,-1.1848145,-0.078430176,-0.23278809,0.30859375,1.2763672,-0.32617188,2.8835084,-7.439891,-56.79179,-18.892868,-0.307312,0.7072754,0.7546997,0.49121094,1.8496094,-1.2578125,13.232229,-28.438076,-125.640015,-16.48116,0.0,0.0,0.0,0.0,0.0,0.0,0.0,-11.758284,-126.21771,-5.463526,0.0,0.0,0.0,0.0,0.0,0.0,0.0,6.2683516,44.51887,-1.6062279,
2.4843749259598558,106,0.15100098,-0.9696655,0.8115845,0.4169922,0.22460938,0.21582031,0.0,0.0,0.0,0.0,0.0,0.0,0.0,0.0,0.0,0.0,0.0,-0.35125452,0.07997246,0.93271667,-0.9310913,-0.19787598,0.28424072,-0.7441406,-0.103515625,-0.29003906,48.636665,-7.2720575,1.6556778,19.310125,-0.76275635,-0.012145996,-0.4052124,0.10644531,2.0117188,-0.5644531,17.392427,29.005371,-41.672215,26.817225,-1.734436,0.07519531,-0.14941406,0.28808594,1.3222656,1.1210938,12.181621,57.454487,-107.524506,33.220222,0.0,0.0,0.0,0.0,0.0,0.0,0.0,69.16141,-103.873825,49.024944,0.0,0.0,0.0,0.0,0.0,0.0,0.0,0.35125452,-0.07997246,-0.93271667,1.1732178,-0.032592773,-0.2562256,-0.609375,-0.8330078,-0.31054688,7.807684,7.2720575,-1.6556778,-19.310125,-1.1571655,-0.078186035,-0.12347412,0.4091797,1.4677734,-0.3798828,3.5233674,-8.542943,-56.417126,-19.519032,-0.3371582,0.6060791,0.7423096,0.64746094,2.2919922,-1.5898438,13.24225,-31.706173,-124.58362,-17.78609,0.0,0.0,0.0,0.0,0.0,0.0,0.0,-15.189495,-125.902596,-6.585702,0.0,0.0,0.0,0.0,0.0,0.0,0.0,6.668638,44.478065,-1.3022509,
2.507812425261364,107,0.15081787,-0.786499,1.1777344,-0.18359375,0.080078125,0.055664062,0.0,0.0,0.0,0.0,0.0,0.0,0.0,0.0,0.0,0.0,0.0,-0.3501621,0.07699164,0.93347514,-1.0805664,-0.045898438,1.0488281,0.16503906,0.026367188,-0.1875,48.63916,-7.2494426,1.5939656,19.32583,-2.0,0.7640381,0.7503052,-0.5029297,2.2138672,-0.14355469,20.389086,28.8853,-41.910267,26.48991,0.73602295,0.035339355,1.7706299,-1.3193359,3.4199219,3.3134766,12.711579,53.754364,-109.320114,31.398197,0.0,0.0,0.0,0.0,0.0,0.0,0.0,65.865425,-107.09356,47.123306,0.0,0.0,0.0,0.0,0.0,0.0,0.0,0.3501621,-0.07699164,-0.93347514,1.1687012,-0.18408203,-0.1307373,-0.7988281,-0.60839844,-0.36132812,8.621359,7.2494426,-1.5939656,-19.32583,-1.1635742,-0.07208252,-0.07922363,0.7402344,1.6962891,-0.50878906,4.6172376,-9.4580345,-56.08401,-20.24488,-0.3574829,0.72772217,0.7262573,0.76464844,2.772461,-1.9384766,13.490228,-35.06583,-123.390594,-19.367805,0.0,0.0,0.0,0.0,0.0,0.0,0.0,-18.805788,-125.55138,-7.925541,0.0,0.0,0.0,0.0,0.0,0.0,0.0,6.8387613,44.461773,-1.1018072,
2.531249924562872,108,-0.25579834,-0.86938477,1.147522,-0.16210938,-0.45410156,-0.20410156,0.0,0.0,0.0,0.0,0.0,0.0,0.0,0.0,0.0,0.0,0.0,-0.35059956,0.08003114,0.93306,-1.6365356,0.053955078,0.41400146,0.9609375,0.5654297,-0.67089844,48.639732,-7.258499,1.6568928,19.317234,-1.454956,-0.022094727,-0.5118408,0.8173828,1.9052734,0.16503906,23.082714,29.150085,-41.745857,25.689053,-2.0,1.1887817,0.06329346,-0.83496094,1.1152344,1.9736328,15.440134,51.033142,-110.20912,30.247217,0.0,0.0,0.0,0.0,0.0,0.0,0.0,63.069565,-109.626465,46.21253,0.0,0.0,0.0,0.0,0.0,0.0,0.0,0.35059956,-0.08003114,-0.93306,1.427124,-0.43695068,-0.14678955,-0.46484375,-0.3466797,-0.4033203,9.744007,7.258499,-1.6568928,-19.317234,-1.3981323,0.070739746,0.24633789,0.29296875,1.875,-0.73339844,6.2550764,-10.088474,-55.93348,-20.959036,-0.41607666,0.8673096,0.6335449,0.484375,3.522461,-2.5595703,13.55229,-38.490154,-122.11491,-21.318373,0.0,0.0,0.0,0.0,0.0,0.0,0.0,-22.639126,-125.44362,-9.587247,0.0,0.0,0.0,0.0,0.0,0.0,0.0,6.6925497,44.478863,-1.3003336,
2.55468742386438,109,-0.18847656,-0.7862549,1.041626,-0.12011719,-1.0292969,-0.13964844,0.0,0.0,0.0,0.0,0.0,0.0,0.0,0.0,0.0,0.0,0.0,-0.35813203,0.09600078,0.9287879,-0.9110718,-0.18615723,-0.36724854,0.45214844,1.5302734,-0.3095703,46.031517,-7.4144425,1.9875141,19.228788,-0.67077637,-0.018737793,-0.29821777,0.7314453,2.2871094,-0.64160156,23.569643,27.286947,-42.92488,23.693563,-1.6673584,-1.9954834,0.30517578,0.3720703,-0.96191406,2.7373047,16.640223,45.809517,-112.45488,26.613373,0.0,0.0,0.0,0.0,0.0,0.0,0.0,57.541683,-112.34499,42.81694,0.0,0.0,0.0,0.0,0.0,0.0,0.0,0.35813203,-0.09600078,-0.9287879,1.5061646,-0.44232178,0.06768799,-0.022460938,0.30566406,-0.3125,10.447473,7.4144425,-1.9875141,-19.228788,-1.3277588,0.026977539,0.5198364,0.49316406,2.3144531,-0.5957031,9.102066,-9.881952,-56.256237,-21.392752,-0.52423096,0.95666504,0.53759766,0.005859375,4.3320312,-3.6972656,12.867593,-41.531113,-120.93465,-22.751947,0.0,0.0,0.0,0.0,0.0,0.0,0.0,-26.385784,-125.968956,-10.69979,0.0,0.0,0.0,0.0,0.0,0.0,0.0,6.566137,44.473225,-2.0649724,
