TOTAL_TIME,0m8s
TOTAL_FRAMES,334
SELECTED_FRAMES,334
NO_OF_JOINTS,12
FREQUENCY,42.666668
DESCRIPTION,Capture 15
TIME_STAMP,Jul 9, 2010

Time,Frame,Pelvis_accelX_Pelvis,Pelvis_accelY_Pelvis,Pelvis_accelZ_Pelvis,Pelvis_gyroX_Pelvis,Pelvis_gyroY_Pelvis,Pelvis_gyroZ_Pelvis,Pelvis_Joint angle_Pelvis,Pelvis_Relative pos X_Pelvis,Pelvis_Relative pos Y_Pelvis,Pelvis_Relative pos Z_Pelvis,RightPelvis_accelX_RightPelvis,RightPelvis_accelY_RightPelvis,RightPelvis_accelZ_RightPelvis,RightPelvis_gyroX_RightPelvis,RightPelvis_gyroY_RightPelvis,RightPelvis_gyroZ_RightPelvis,RightPelvis_Joint angle_RightPelvis,RightPelvis_Relative pos X_RightPelvis,RightPelvis_Relative pos Y_RightPelvis,RightPelvis_Relative pos Z_RightPelvis,RightUpLeg_accelX_RightUpLeg,RightUpLeg_accelY_RightUpLeg,RightUpLeg_accelZ_RightUpLeg,RightUpLeg_gyroX_RightUpLeg,RightUpLeg_gyroY_RightUpLeg,RightUpLeg_gyroZ_RightUpLeg,RightUpLeg_Joint angle_RightUpLeg,RightUpLeg_Relative pos X_RightUpLeg,RightUpLeg_Relative pos Y_RightUpLeg,RightUpLeg_Relative pos Z_RightUpLeg,RightLeg_accelX_RightLeg,RightLeg_accelY_RightLeg,RightLeg_accelZ_RightLeg,RightLeg_gyroX_RightLeg,RightLeg_gyroY_RightLeg,RightLeg_gyroZ_RightLeg,RightLeg_Joint angle_RightLeg,RightLeg_Relative pos X_RightLeg,RightLeg_Relative pos Y_RightLeg,RightLeg_Relative pos Z_RightLeg,RightFoot_accelX_RightFoot,RightFoot_accelY_RightFoot,RightFoot_accelZ_RightFoot,RightFoot_gyroX_RightFoot,RightFoot_gyroY_RightFoot,RightFoot_gyroZ_RightFoot,RightFoot_Joint angle_RightFoot,RightFoot_Relative pos X_RightFoot,RightFoot_Relative pos Y_RightFoot,RightFoot_Relative pos Z_RightFoot,RightFootEnd_accelX_RightFootEnd,RightFootEnd_accelY_RightFootEnd,RightFootEnd_accelZ_RightFootEnd,RightFootEnd_gyroX_RightFootEnd,RightFootEnd_gyroY_RightFootEnd,RightFootEnd_gyroZ_RightFootEnd,RightFootEnd_Joint angle_RightFootEnd,RightFootEnd_Relative pos X_RightFootEnd,RightFootEnd_Relative pos Y_RightFootEnd,RightFootEnd_Relative pos Z_RightFootEnd,LeftPelvis_accelX_LeftPelvis,LeftPelvis_accelY_LeftPelvis,LeftPelvis_accelZ_LeftPelvis,LeftPelvis_gyroX_LeftPelvis,LeftPelvis_gyroY_LeftPelvis,LeftPelvis_gyroZ_LeftPelvis,LeftPelvis_Joint angle_LeftPelvis,LeftPelvis_Relative pos X_LeftPelvis,LeftPelvis_Relative pos Y_LeftPelvis,LeftPelvis_Relative pos Z_LeftPelvis,LeftUpLeg_accelX_LeftUpLeg,LeftUpLeg_accelY_LeftUpLeg,LeftUpLeg_accelZ_LeftUpLeg,LeftUpLeg_gyroX_LeftUpLeg,LeftUpLeg_gyroY_LeftUpLeg,LeftUpLeg_gyroZ_LeftUpLeg,LeftUpLeg_Joint angle_LeftUpLeg,LeftUpLeg_Relative pos X_LeftUpLeg,LeftUpLeg_Relative pos Y_LeftUpLeg,LeftUpLeg_Relative pos Z_LeftUpLeg,LeftLeg_accelX_LeftLeg,LeftLeg_accelY_LeftLeg,LeftLeg_accelZ_LeftLeg,LeftLeg_gyroX_LeftLeg,LeftLeg_gyroY_LeftLeg,LeftLeg_gyroZ_LeftLeg,LeftLeg_Joint angle_LeftLeg,LeftLeg_Relative pos X_LeftLeg,LeftLeg_Relative pos Y_LeftLeg,LeftLeg_Relative pos Z_LeftLeg,LeftFoot_accelX_LeftFoot,LeftFoot_accelY_LeftFoot,LeftFoot_accelZ_LeftFoot,LeftFoot_gyroX_LeftFoot,LeftFoot_gyroY_LeftFoot,LeftFoot_gyroZ_LeftFoot,LeftFoot_Joint angle_LeftFoot,LeftFoot_Relative pos X_LeftFoot,LeftFoot_Relative pos Y_LeftFoot,LeftFoot_Relative pos Z_LeftFoot,LeftFootEnd_accelX_LeftFootEnd,LeftFootEnd_accelY_LeftFootEnd,LeftFootEnd_accelZ_LeftFootEnd,LeftFootEnd_gyroX_LeftFootEnd,LeftFootEnd_gyroY_LeftFootEnd,LeftFootEnd_gyroZ_LeftFootEnd,LeftFootEnd_Joint angle_LeftFootEnd,LeftFootEnd_Relative pos X_LeftFootEnd,LeftFootEnd_Relative pos Y_LeftFootEnd,LeftFootEnd_Relative pos Z_LeftFootEnd,Spine_accelX_Spine,Spine_accelY_Spine,Spine_accelZ_Spine,Spine_gyroX_Spine,Spine_gyroY_Spine,Spine_gyroZ_Spine,Spine_Joint angle_Spine,Spine_Relative pos X_Spine,Spine_Relative pos Y_Spine,Spine_Relative pos Z_Spine,
0.0,0,0.0,0.0,0.0,0.0,0.0,0.0,0.0,0.0,0.0,0.0,0.0,0.0,0.0,0.0,0.0,0.0,0.0,0.0,0.0,0.0,0.0,0.0,0.0,0.0,0.0,0.0,NaN,0.0,0.0,0.0,0.0,0.0,0.0,0.0,0.0,0.0,NaN,0.0,0.0,0.0,0.0,0.0,0.0,0.0,0.0,0.0,NaN,0.0,0.0,0.0,0.0,0.0,0.0,0.0,0.0,0.0,0.0,0.0,0.0,0.0,0.0,0.0,0.0,0.0,0.0,0.0,0.0,0.0,0.0,0.0,0.0,0.0,0.0,0.0,0.0,0.0,NaN,0.0,0.0,0.0,0.0,0.0,0.0,0.0,0.0,0.0,NaN,0.0,0.0,0.0,0.0,0.0,0.0,0.0,0.0,0.0,NaN,0.0,0.0,0.0,0.0,0.0,0.0,0.0,0.0,0.0,0.0,0.0,0.0,0.0,0.0,0.0,0.0,0.0,0.0,0.0,0.0,0.0,0.0,0.0,
0.02343749930150809,1,0.0,0.0,0.0,0.0,0.0,0.0,0.0,0.0,0.0,0.0,0.0,0.0,0.0,0.0,0.0,0.0,0.0,0.0,0.0,0.0,0.0,0.0,0.0,0.0,0.0,0.0,NaN,0.0,0.0,0.0,0.0,0.0,0.0,0.0,0.0,0.0,NaN,0.0,0.0,0.0,0.0,0.0,0.0,0.0,0.0,0.0,NaN,0.0,0.0,0.0,0.0,0.0,0.0,0.0,0.0,0.0,0.0,0.0,0.0,0.0,0.0,0.0,0.0,0.0,0.0,0.0,0.0,0.0,0.0,0.0,0.0,0.0,0.0,0.0,0.0,0.0,NaN,0.0,0.0,0.0,0.0,0.0,0.0,0.0,0.0,0.0,NaN,0.0,0.0,0.0,0.0,0.0,0.0,0.0,0.0,0.0,NaN,0.0,0.0,0.0,0.0,0.0,0.0,0.0,0.0,0.0,0.0,0.0,0.0,0.0,0.0,0.0,0.0,0.0,0.0,0.0,0.0,0.0,0.0,0.0,
0.04687499860301618,2,0.0,0.0,0.0,0.0,0.0,0.0,0.0,0.0,0.0,0.0,0.0,0.0,0.0,0.0,0.0,0.0,0.0,0.0,0.0,0.0,0.0,0.0,0.0,0.0,0.0,0.0,NaN,0.0,0.0,0.0,0.0,0.0,0.0,0.0,0.0,0.0,NaN,0.0,0.0,0.0,0.0,0.0,0.0,0.0,0.0,0.0,NaN,0.0,0.0,0.0,0.0,0.0,0.0,0.0,0.0,0.0,0.0,0.0,0.0,0.0,0.0,0.0,0.0,0.0,0.0,0.0,0.0,0.0,0.0,0.0,0.0,0.0,0.0,0.0,0.0,0.0,NaN,0.0,0.0,0.0,0.0,0.0,0.0,0.0,0.0,0.0,NaN,0.0,0.0,0.0,0.0,0.0,0.0,0.0,0.0,0.0,NaN,0.0,0.0,0.0,0.0,0.0,0.0,0.0,0.0,0.0,0.0,0.0,0.0,0.0,0.0,0.0,0.0,0.0,0.0,0.0,0.0,0.0,0.0,0.0,
0.07031249790452426,3,-0.04663086,-0.5610962,0.84484863,0.0107421875,-0.025390625,0.0029296875,0.0,0.0,0.0,0.0,0.0,0.0,0.0,0.0,0.0,0.0,0.0,-0.10964346,0.051533446,-0.9927353,-0.89434814,-0.1560669,-0.35650635,-0.79785156,0.7792969,0.43652344,9.676459,-2.26996,1.0669022,-20.552698,-0.97924805,-0.054992676,-0.15527344,0.0048828125,0.15917969,-0.020507812,3.8688784,1.8436131,-55.685658,-17.106503,-0.43963623,-0.6243286,0.689209,0.022460938,-0.022460938,0.009765625,37.824947,1.185844,-127.55672,-12.550514,0.0,0.0,0.0,0.0,0.0,0.0,0.0,-15.0672455,-127.46791,-0.8958626,0.0,0.0,0.0,0.0,0.0,0.0,0.0,0.10964346,-0.051533446,0.9927353,0.97875977,-0.15057373,-0.23443604,-0.09277344,0.0068359375,-0.10839844,10.1009445,2.26996,-1.0669022,20.552698,-0.9673462,-0.018676758,-0.13336182,-0.049804688,0.5595703,1.0048828,1.6325479,2.4037173,-57.953293,16.94497,-0.3170166,0.64593506,0.6480713,0.020507812,-0.015625,-0.009765625,0.8886743,1.489583,-129.92395,14.631861,0.0,0.0,0.0,0.0,0.0,0.0,0.0,-18.263145,-130.00237,11.523707,0.0,0.0,0.0,0.0,0.0,0.0,0.0,-7.988139,44.17593,3.175454,
0.09374999720603236,4,-0.040649414,-0.5637207,0.8676758,0.0107421875,-0.025390625,0.0029296875,0.0,0.0,0.0,0.0,0.0,0.0,0.0,0.0,0.0,0.0,0.0,-0.10917434,0.05233585,-0.99273515,-0.8530884,-0.10571289,-0.34527588,-0.66503906,0.66308594,0.34179688,8.457747,-2.2602477,1.0835142,-20.552694,-0.98010254,-0.043151855,-0.18408203,0.0048828125,-0.05078125,-9.765625E-4,4.568833,2.3739762,-55.689552,-18.310574,-0.4348755,-0.59228516,0.6722412,0.0048828125,0.015625,0.02734375,37.769447,1.7285112,-127.56527,-13.781208,0.0,0.0,0.0,0.0,0.0,0.0,0.0,-14.530343,-127.48086,-2.1331768,0.0,0.0,0.0,0.0,0.0,0.0,0.0,0.10917434,-0.05233585,0.99273515,0.97351074,-0.13964844,-0.2144165,-0.017578125,0.024414062,0.0029296875,10.020067,2.2602477,-1.0835142,20.552694,-0.9562988,-0.030761719,-0.13635254,-0.0703125,0.3701172,0.6435547,0.309643,2.4989824,-57.982494,17.067612,-0.32104492,0.64398193,0.651001,9.765625E-4,0.00390625,0.009765625,1.0555469,1.7824003,-129.89124,13.2501545,0.0,0.0,0.0,0.0,0.0,0.0,0.0,-17.976416,-129.97174,10.165315,0.0,0.0,0.0,0.0,0.0,0.0,0.0,-7.999816,44.170982,3.2084093,
0.11718749650754046,5,-0.03668213,-0.578125,0.88653564,0.0107421875,-0.0068359375,0.0029296875,0.0,0.0,0.0,0.0,0.0,0.0,0.0,0.0,0.0,0.0,0.0,-0.10825428,0.052851565,-0.9927635,-0.9012451,-0.13793945,-0.36016846,-0.3251953,0.37304688,0.18945312,7.668898,-2.2411993,1.0941913,-20.553284,-0.99243164,-0.062561035,-0.17120361,0.0048828125,0.005859375,-0.040039062,5.145899,2.7594116,-55.675644,-19.067026,-0.45892334,-0.59210205,0.69140625,0.00390625,0.015625,0.0087890625,37.786102,2.145434,-127.54963,-14.565255,0.0,0.0,0.0,0.0,0.0,0.0,0.0,-14.116495,-127.47304,-2.9208593,0.0,0.0,0.0,0.0,0.0,0.0,0.0,0.10825428,-0.052851565,0.9927635,0.9737549,-0.15838623,-0.2244873,0.01953125,0.005859375,0.001953125,10.013313,2.2411993,-1.0941913,20.553284,-0.9523926,-0.020751953,-0.0949707,-0.06933594,0.18066406,0.09375,0.18451747,2.495894,-57.98358,17.063332,-0.34716797,0.6461792,0.6618042,9.765625E-4,0.00390625,-0.02734375,1.0273631,1.9555572,-129.86465,12.649567,0.0,0.0,0.0,0.0,0.0,0.0,0.0,-17.806591,-129.9416,9.583772,0.0,0.0,0.0,0.0,0.0,0.0,0.0,-8.005893,44.166676,3.2242827,
0.14062499580904855,6,-0.02557373,-0.560791,0.87384033,-0.0087890625,0.0107421875,0.021484375,0.0,0.0,0.0,0.0,0.0,0.0,0.0,0.0,0.0,0.0,0.0,-0.107001245,0.05335716,-0.9929507,-0.9020996,-0.14215088,-0.34625244,0.0146484375,0.025390625,0.036132812,7.48852,-2.2152576,1.1046588,-20.557156,-0.9761963,-0.06951904,-0.17437744,0.0048828125,0.005859375,0.017578125,5.253334,2.8571882,-55.662426,-19.310768,-0.43237305,-0.61328125,0.67419434,0.022460938,-0.00390625,0.009765625,37.870537,2.3035302,-127.540726,-14.85108,0.0,0.0,0.0,0.0,0.0,0.0,0.0,-13.956934,-127.46472,-3.2037268,0.0,0.0,0.0,0.0,0.0,0.0,0.0,0.107001245,-0.05335716,0.9929507,0.975708,-0.14465332,-0.24328613,0.020507812,-0.0126953125,0.001953125,10.022677,2.2152576,-1.1046588,20.557156,-0.9841919,-0.04333496,-0.13647461,-0.015625,0.045898438,0.016601562,0.09891172,2.5055811,-57.996307,17.072113,-0.3330078,0.6658325,0.6373291,0.001953125,-0.015625,-0.009765625,1.0759279,1.918932,-129.879,12.7400675,0.0,0.0,0.0,0.0,0.0,0.0,0.0,-17.84524,-129.95395,9.680573,0.0,0.0,0.0,0.0,0.0,0.0,0.0,-8.040146,44.162903,3.23955,
0.16406249511055665,7,-0.016601562,-0.555603,0.86901855,-0.0087890625,0.01171875,0.001953125,0.0,0.0,0.0,0.0,0.0,0.0,0.0,0.0,0.0,0.0,0.0,-0.107016,0.054119032,-0.9928968,-0.8555298,-0.14556885,-0.33258057,-0.04296875,0.025390625,0.036132812,7.600806,-2.2155633,1.1204318,-20.556042,-0.9852295,-0.052856445,-0.1751709,0.0234375,0.025390625,0.017578125,5.139612,2.8012686,-55.651997,-19.240343,-0.4418335,-0.6248169,0.6692505,0.0029296875,-0.022460938,0.009765625,37.907345,2.2834425,-127.53003,-14.800411,0.0,0.0,0.0,0.0,0.0,0.0,0.0,-13.981637,-127.459335,-3.1615868,0.0,0.0,0.0,0.0,0.0,0.0,0.0,0.107016,-0.054119032,0.9928968,0.9885864,-0.12597656,-0.24633789,-0.018554688,0.061523438,0.021484375,10.022186,2.2155633,-1.1204318,20.556042,-0.9907837,-0.018981934,-0.15216064,-0.034179688,0.045898438,0.016601562,0.04423466,2.4992905,-58.013256,17.083397,-0.31481934,0.67822266,0.642334,0.001953125,-0.015625,-0.028320312,1.0098816,1.9157517,-129.90294,12.855653,0.0,0.0,0.0,0.0,0.0,0.0,0.0,-17.852482,-129.97797,9.808844,0.0,0.0,0.0,0.0,0.0,0.0,0.0,-8.031496,44.16153,3.2727249,
0.18749999441206475,8,-0.02154541,-0.5492554,0.85510254,0.0107421875,0.01171875,0.021484375,0.0,0.0,0.0,0.0,0.0,0.0,0.0,0.0,0.0,0.0,0.0,-0.106741875,0.055108868,-0.99290943,-0.8798218,-0.12658691,-0.35864258,-0.0234375,0.025390625,-9.765625E-4,7.6926866,-2.2098866,1.1409243,-20.556305,-0.98327637,-0.05682373,-0.16821289,0.0048828125,0.005859375,-0.020507812,5.0614796,2.7693386,-55.63356,-19.215796,-0.45141602,-0.61206055,0.6883545,0.0029296875,-0.00390625,-0.0087890625,37.92152,2.2882907,-127.5162,-14.7936735,0.0,0.0,0.0,0.0,0.0,0.0,0.0,-13.984624,-127.45044,-3.165059,0.0,0.0,0.0,0.0,0.0,0.0,0.0,0.106741875,-0.055108868,0.99290943,0.9515381,-0.13470459,-0.23071289,0.01953125,0.005859375,0.001953125,10.027033,2.2098866,-1.1409243,20.556305,-0.99005127,-0.02166748,-0.120666504,-0.016601562,0.0078125,-0.001953125,0.10835236,2.5021584,-58.032017,17.053782,-0.31298828,0.64678955,0.6559448,0.001953125,-0.015625,0.0087890625,0.9628648,1.9057809,-129.93105,12.955582,0.0,0.0,0.0,0.0,0.0,0.0,0.0,-17.865067,-129.99895,9.929943,0.0,0.0,0.0,0.0,0.0,0.0,0.0,-8.040746,44.158382,3.31531,
0.21093749371357284,9,-0.028686523,-0.58825684,0.86676025,-0.0087890625,-0.0068359375,0.001953125,0.0,0.0,0.0,0.0,0.0,0.0,0.0,0.0,0.0,0.0,0.0,-0.107081145,0.055527795,-0.9928022,-0.8553467,-0.13970947,-0.32562256,-0.080078125,0.064453125,0.037109375,7.781849,-2.216911,1.1495976,-20.554085,-0.9741211,-0.06463623,-0.18328857,0.0234375,0.025390625,-0.020507812,4.925969,2.6935694,-55.62867,-19.15073,-0.41760254,-0.61712646,0.65112305,0.0029296875,-0.00390625,-0.0087890625,37.98444,2.271425,-127.51165,-14.737852,0.0,0.0,0.0,0.0,0.0,0.0,0.0,-14.009262,-127.44794,-3.1221676,0.0,0.0,0.0,0.0,0.0,0.0,0.0,0.107081145,-0.055527795,0.9928022,0.9606323,-0.14556885,-0.2300415,-0.017578125,0.024414062,0.0029296875,9.963006,2.216911,-1.1495976,20.554085,-0.98028564,3.6621094E-4,-0.1303711,-0.016601562,0.0068359375,0.03515625,0.17582937,2.544271,-58.04803,17.06815,-0.32208252,0.63720703,0.65093994,-0.038085938,0.022460938,-0.0087890625,1.0357099,1.9230309,-129.94722,13.064373,0.0,0.0,0.0,0.0,0.0,0.0,0.0,-17.847876,-130.02077,10.031714,0.0,0.0,0.0,0.0,0.0,0.0,0.0,-8.015432,44.15939,3.3343756,
0.23437499301508094,10,-0.03869629,-0.5765991,0.86865234,-0.0087890625,0.0107421875,0.021484375,0.0,0.0,0.0,0.0,0.0,0.0,0.0,0.0,0.0,0.0,0.0,-0.10711765,0.056160536,-0.9927975,-0.87786865,-0.13873291,-0.35083008,0.0146484375,-0.013671875,-9.765625E-4,7.8415995,-2.2176685,1.1626972,-20.553986,-0.9851074,-0.04309082,-0.19000244,0.0048828125,-0.0126953125,-9.765625E-4,4.846665,2.660059,-55.615696,-19.119598,-0.41314697,-0.6088257,0.6750488,0.001953125,-0.041992188,0.009765625,37.996437,2.2756395,-127.49983,-14.732901,0.0,0.0,0.0,0.0,0.0,0.0,0.0,-14.018931,-127.43742,-3.1345282,0.0,0.0,0.0,0.0,0.0,0.0,0.0,0.10711765,-0.056160536,0.9927975,0.9688721,-0.1663208,-0.2354126,0.01953125,0.005859375,0.001953125,9.92761,2.2176685,-1.1626972,20.553986,-0.9672241,-0.0060424805,-0.11859131,-0.03515625,0.026367188,0.016601562,0.27339762,2.5666633,-58.06043,17.06075,-0.36712646,0.66607666,0.6530762,0.001953125,-0.03515625,0.0087890625,1.1412388,1.9216737,-129.96869,13.159645,0.0,0.0,0.0,0.0,0.0,0.0,0.0,-17.84091,-130.04945,10.108503,0.0,0.0,0.0,0.0,0.0,0.0,0.0,-8.003312,44.161106,3.3616197,
0.25781249231658904,11,-0.02368164,-0.57818604,0.86291504,-0.0087890625,-0.0068359375,-0.016601562,0.0,0.0,0.0,0.0,0.0,0.0,0.0,0.0,0.0,0.0,0.0,-0.10726902,0.05680145,-0.99272746,-0.901062,-0.13110352,-0.3571167,-0.04296875,0.025390625,0.036132812,7.8905334,-2.220801,1.1759661,-20.552536,-0.98931885,-0.061523438,-0.18218994,0.0048828125,0.005859375,-0.020507812,4.779302,2.631132,-55.605225,-19.087742,-0.42315674,-0.6043091,0.663147,0.022460938,-0.022460938,0.009765625,38.070236,2.2822468,-127.4876,-14.715511,0.0,0.0,0.0,0.0,0.0,0.0,0.0,-14.016889,-127.427284,-3.1225128,0.0,0.0,0.0,0.0,0.0,0.0,0.0,0.10726902,-0.05680145,0.99272746,0.97650146,-0.122924805,-0.22717285,0.01953125,0.005859375,0.001953125,9.870896,2.220801,-1.1759661,20.552536,-0.98413086,-0.03265381,-0.1217041,-0.015625,0.045898438,-0.001953125,0.40007392,2.6028268,-58.067852,17.046398,-0.34118652,0.6403198,0.6558838,0.001953125,-0.015625,0.0087890625,1.2319411,1.9209788,-129.98126,13.26725,0.0,0.0,0.0,0.0,0.0,0.0,0.0,-17.838947,-130.06773,10.197747,0.0,0.0,0.0,0.0,0.0,0.0,0.0,-7.9833617,44.161804,3.389472,
0.2812499916180971,12,-0.036621094,-0.5656128,0.8657837,-0.0087890625,0.01171875,0.001953125,0.0,0.0,0.0,0.0,0.0,0.0,0.0,0.0,0.0,0.0,0.0,-0.10782212,0.05708252,-0.9926688,-0.86572266,-0.14111328,-0.34521484,0.0146484375,0.005859375,0.03515625,7.9433937,-2.2322538,1.181785,-20.55132,-0.97717285,-0.06463623,-0.17034912,0.0048828125,0.005859375,0.017578125,4.700613,2.574608,-55.607582,-19.069572,-0.46453857,-0.61273193,0.68743896,0.0029296875,-0.0029296875,-0.02734375,38.05017,2.254508,-127.49462,-14.723712,0.0,0.0,0.0,0.0,0.0,0.0,0.0,-14.04849,-127.43828,-3.1361895,0.0,0.0,0.0,0.0,0.0,0.0,0.0,0.10782212,-0.05708252,0.9926688,0.96466064,-0.1505127,-0.2232666,0.01953125,0.005859375,0.001953125,9.831574,2.2322538,-1.181785,20.55132,-0.9789429,-0.03265381,-0.12658691,-0.03515625,0.0078125,0.016601562,0.51510286,2.6450677,-58.07207,17.031364,-0.31292725,0.6465454,0.67858887,-0.018554688,0.00390625,0.009765625,1.3177468,1.9143264,-129.99023,13.350861,0.0,0.0,0.0,0.0,0.0,0.0,0.0,-17.845543,-130.07675,10.285561,0.0,0.0,0.0,0.0,0.0,0.0,0.0,-7.9764256,44.16259,3.4059162,
0.3046874909196052,13,-0.040649414,-0.5639038,0.84191895,0.0107421875,-0.043945312,0.0029296875,0.0,0.0,0.0,0.0,0.0,0.0,0.0,0.0,0.0,0.0,0.0,-0.107777655,0.057340533,-0.9925691,-0.88482666,-0.12963867,-0.34960938,-0.0048828125,0.025390625,0.036132812,8.025609,-2.2313309,1.1871268,-20.54926,-0.98516846,-0.041259766,-0.1720581,0.0234375,0.025390625,-0.020507812,4.6075544,2.5100822,-55.60288,-19.041372,-0.4487915,-0.5892334,0.68536377,-0.034179688,0.015625,0.0087890625,38.04432,2.2075992,-127.49248,-14.722774,0.0,0.0,0.0,0.0,0.0,0.0,0.0,-14.101913,-127.4418,-3.1449518,0.0,0.0,0.0,0.0,0.0,0.0,0.0,0.107777655,-0.057340533,0.9925691,1.0045776,-0.12005615,-0.24359131,9.765625E-4,0.024414062,0.0029296875,9.840671,2.2313309,-1.1871268,20.54926,-0.97631836,-0.012329102,-0.14520264,-0.016601562,0.0068359375,0.03515625,0.5417637,2.6505919,-58.080208,17.07588,-0.33215332,0.6331787,0.67059326,-0.018554688,0.022460938,-0.0087890625,1.4073651,1.8860453,-130.00397,13.470019,0.0,0.0,0.0,0.0,0.0,0.0,0.0,-17.873835,-130.10039,10.397678,0.0,0.0,0.0,0.0,0.0,0.0,0.0,-7.9833784,44.156334,3.4177744,
0.32812499022111324,14,-0.042663574,-0.5685425,0.8637085,0.0107421875,0.01171875,0.021484375,0.0,0.0,0.0,0.0,0.0,0.0,0.0,0.0,0.0,0.0,0.0,-0.10812122,0.058000192,-0.9925768,-0.8726196,-0.137146,-0.33605957,-0.0048828125,0.043945312,0.036132812,8.104573,-2.2384446,1.2007838,-20.549416,-0.9710083,-0.057861328,-0.17828369,-0.0146484375,-0.013671875,-9.765625E-4,4.5332813,2.4856222,-55.59293,-19.0028,-0.42004395,-0.60162354,0.6711426,0.0234375,0.015625,-0.009765625,38.061817,2.225499,-127.48549,-14.719568,0.0,0.0,0.0,0.0,0.0,0.0,0.0,-14.088187,-127.438805,-3.1462069,0.0,0.0,0.0,0.0,0.0,0.0,0.0,0.10812122,-0.058000192,0.9925768,0.96069336,-0.13482666,-0.25274658,-0.017578125,0.024414062,0.0029296875,9.811794,2.2384446,-1.2007838,20.549416,-0.9667969,-0.036865234,-0.12463379,-0.034179688,0.045898438,0.036132812,0.64315766,2.7013798,-58.09474,17.074549,-0.3157959,0.67614746,0.6571045,-0.018554688,0.00390625,0.009765625,1.4510435,1.9110637,-130.02515,13.565799,0.0,0.0,0.0,0.0,0.0,0.0,0.0,-17.852272,-130.11661,10.50266,0.0,0.0,0.0,0.0,0.0,0.0,0.0,-7.992464,44.155914,3.4508224,
0.3515624895226213,15,-0.051635742,-0.5565796,0.8557129,-0.0087890625,-0.0068359375,0.001953125,0.0,0.0,0.0,0.0,0.0,0.0,0.0,0.0,0.0,0.0,0.0,-0.107301265,0.058314122,-0.9925592,-0.9033203,-0.13977051,-0.36608887,0.0146484375,-0.013671875,-9.765625E-4,8.178268,-2.2214684,1.207283,-20.549053,-0.9729614,-0.037475586,-0.17810059,0.0048828125,0.005859375,-9.765625E-4,4.466071,2.4716449,-55.585125,-18.965328,-0.44085693,-0.59020996,0.6743164,0.022460938,-0.00390625,0.009765625,38.10363,2.2320457,-127.47392,-14.710306,0.0,0.0,0.0,0.0,0.0,0.0,0.0,-14.0858135,-127.43122,-3.1414099,0.0,0.0,0.0,0.0,0.0,0.0,0.0,0.107301265,-0.058314122,0.9925592,0.96551514,-0.13079834,-0.22705078,0.01953125,0.024414062,0.001953125,9.839411,2.2214684,-1.207283,20.549053,-0.98706055,-0.03326416,-0.13842773,-0.016601562,0.0068359375,0.016601562,0.70803547,2.6809406,-58.10385,17.061367,-0.3369751,0.673645,0.6403198,9.765625E-4,0.00390625,0.009765625,1.4585762,1.8805035,-130.03839,13.624365,0.0,0.0,0.0,0.0,0.0,0.0,0.0,-17.88203,-130.13194,10.568978,0.0,0.0,0.0,0.0,0.0,0.0,0.0,-8.010529,44.14793,3.4597306,
0.3749999888241294,16,-0.037597656,-0.56134033,0.8548584,0.0107421875,0.01171875,0.001953125,0.0,0.0,0.0,0.0,0.0,0.0,0.0,0.0,0.0,0.0,0.0,-0.10659066,0.05850713,-0.9926773,-0.90008545,-0.13409424,-0.35620117,0.0146484375,-0.013671875,-9.765625E-4,8.232395,-2.206756,1.2112789,-20.551498,-0.9690552,-0.06958008,-0.17840576,0.0234375,-0.0126953125,0.017578125,4.3700914,2.442418,-55.584167,-18.943682,-0.4543457,-0.611145,0.6933594,-0.0146484375,0.015625,0.0087890625,38.107056,2.2522159,-127.477936,-14.7188635,0.0,0.0,0.0,0.0,0.0,0.0,0.0,-14.0683,-127.43693,-3.1541853,0.0,0.0,0.0,0.0,0.0,0.0,0.0,0.10659066,-0.05850713,0.9926773,0.95983887,-0.16040039,-0.24707031,0.01953125,0.024414062,0.001953125,9.87924,2.206756,-1.2112789,20.551498,-0.96875,-0.028076172,-0.114746094,-0.034179688,0.045898438,0.016601562,0.7589877,2.6348267,-58.108566,17.09187,-0.34210205,0.6571045,0.6392212,9.765625E-4,0.022460938,0.009765625,1.4666041,1.8055317,-130.04489,13.765402,0.0,0.0,0.0,0.0,0.0,0.0,0.0,-17.959047,-130.13919,10.714954,0.0,0.0,0.0,0.0,0.0,0.0,0.0,-8.015068,44.149273,3.4627352,
0.39843748812563745,17,-0.041625977,-0.55615234,0.84588623,0.0107421875,0.01171875,0.001953125,0.0,0.0,0.0,0.0,0.0,0.0,0.0,0.0,0.0,0.0,0.0,-0.10597944,0.05849849,-0.99275106,-0.88568115,-0.12878418,-0.3395996,-0.0048828125,0.025390625,0.036132812,8.289747,-2.1941037,1.2111001,-20.553022,-0.991333,-0.05859375,-0.18511963,0.04296875,0.0068359375,-9.765625E-4,4.287473,2.403418,-55.590336,-18.930202,-0.43920898,-0.6397095,0.6672363,0.00390625,0.015625,0.0087890625,38.169914,2.2565076,-127.48352,-14.693472,0.0,0.0,0.0,0.0,0.0,0.0,0.0,-14.0685005,-127.44172,-3.1368942,0.0,0.0,0.0,0.0,0.0,0.0,0.0,0.10597944,-0.05849849,0.99275106,0.97680664,-0.1515503,-0.24334717,0.01953125,0.024414062,0.020507812,9.894297,2.1941037,-1.2111001,20.553022,-0.9541626,-0.0029907227,-0.082092285,0.001953125,0.0068359375,0.016601562,0.84348726,2.6271744,-58.10396,17.089264,-0.33398438,0.673645,0.6383667,9.765625E-4,0.00390625,0.009765625,1.5349312,1.7458987,-130.04074,13.8467655,0.0,0.0,0.0,0.0,0.0,0.0,0.0,-18.021275,-130.1337,10.814617,0.0,0.0,0.0,0.0,0.0,0.0,0.0,-8.031454,44.146965,3.4587722,
0.4218749874271455,18,-0.03466797,-0.5790405,0.85388184,0.0107421875,0.01171875,0.001953125,0.0,0.0,0.0,0.0,0.0,0.0,0.0,0.0,0.0,0.0,0.0,-0.1057567,0.058807444,-0.99269515,-0.854187,-0.1607666,-0.3675537,-0.0234375,0.005859375,-9.765625E-4,8.3642645,-2.1894922,1.2174965,-20.551867,-0.97613525,-0.056884766,-0.17028809,0.0234375,-0.0126953125,-9.765625E-4,4.1950264,2.3609986,-55.584435,-18.883627,-0.44763184,-0.5812378,0.6803589,-0.0126953125,0.07324219,0.0087890625,38.155457,2.248641,-127.47789,-14.66481,0.0,0.0,0.0,0.0,0.0,0.0,0.0,-14.0853815,-127.44729,-3.118291,0.0,0.0,0.0,0.0,0.0,0.0,0.0,0.1057567,-0.058807444,0.99269515,0.99194336,-0.16442871,-0.24481201,-0.017578125,0.005859375,0.0029296875,9.871016,2.1894922,-1.2174965,20.551867,-0.963501,-0.029724121,-0.13439941,0.0029296875,0.026367188,0.016601562,0.9136455,2.6417007,-58.1101,17.063679,-0.31713867,0.6351929,0.6459961,0.001953125,-0.015625,-0.009765625,1.488852,1.7672274,-130.05042,13.876765,0.0,0.0,0.0,0.0,0.0,0.0,0.0,-18.000523,-130.1427,10.85517,0.0,0.0,0.0,0.0,0.0,0.0,0.0,-8.028443,44.143803,3.4703972,
0.4453124867286536,19,-0.06072998,-0.58447266,0.85943604,0.0107421875,-0.0068359375,0.0029296875,0.0,0.0,0.0,0.0,0.0,0.0,0.0,0.0,0.0,0.0,0.0,-0.10493761,0.058626253,-0.9928694,-0.87420654,-0.14434814,-0.3718872,-0.04296875,0.025390625,-9.765625E-4,8.405226,-2.172534,1.2137451,-20.555473,-0.98327637,-0.05206299,-0.15924072,0.0048828125,0.005859375,-9.765625E-4,4.1279655,2.3616467,-55.586594,-18.854694,-0.42999268,-0.60046387,0.67718506,-0.015625,-0.00390625,0.009765625,38.193806,2.2984176,-127.47928,-14.64682,0.0,0.0,0.0,0.0,0.0,0.0,0.0,-14.036379,-127.44487,-3.102129,0.0,0.0,0.0,0.0,0.0,0.0,0.0,0.10493761,-0.058626253,0.9928694,0.94873047,-0.14367676,-0.25457764,0.01953125,0.005859375,0.001953125,9.849518,2.172534,-1.2137451,20.555473,-0.9833374,-0.049438477,-0.13256836,-0.016601562,0.0068359375,0.016601562,0.9787881,2.6714263,-58.107906,17.067799,-0.31713867,0.6351929,0.6459961,0.001953125,-0.015625,-0.009765625,1.4956712,1.7995073,-130.05313,13.944062,0.0,0.0,0.0,0.0,0.0,0.0,0.0,-17.968243,-130.14542,10.922467,0.0,0.0,0.0,0.0,0.0,0.0,0.0,-8.04983,44.144417,3.457405,
0.46874998603016166,20,-0.040649414,-0.5776367,0.8696289,0.030273438,0.0126953125,-0.016601562,0.0,0.0,0.0,0.0,0.0,0.0,0.0,0.0,0.0,0.0,0.0,-0.10428402,0.059071496,-0.9928576,-0.89178467,-0.12762451,-0.34344482,-0.0048828125,0.005859375,0.017578125,8.462994,-2.159001,1.2229633,-20.555227,-0.98327637,-0.05883789,-0.16229248,0.0234375,0.025390625,-9.765625E-4,4.0463176,2.3268378,-55.58304,-18.839052,-0.41644287,-0.6185913,0.67303467,-0.015625,-0.0029296875,-0.02734375,38.179214,2.3010156,-127.477905,-14.639731,0.0,0.0,0.0,0.0,0.0,0.0,0.0,-14.040497,-127.43909,-3.1047125,0.0,0.0,0.0,0.0,0.0,0.0,0.0,0.10428402,-0.059071496,0.9928576,0.95965576,-0.12695312,-0.25561523,-0.017578125,0.024414062,0.0029296875,9.838232,2.159001,-1.2229633,20.555227,-0.99645996,-0.028808594,-0.10992432,-0.015625,0.026367188,-0.001953125,1.0501571,2.6713524,-58.114418,17.078777,-0.30895996,0.65283203,0.63726807,0.001953125,-0.015625,-0.009765625,1.5348037,1.7542157,-130.06085,14.037159,0.0,0.0,0.0,0.0,0.0,0.0,0.0,-18.013412,-130.15038,11.025378,0.0,0.0,0.0,0.0,0.0,0.0,0.0,-8.048817,44.141014,3.4716344,
0.4921874853316697,21,-0.03765869,-0.5631714,0.8508911,0.0107421875,-0.0068359375,0.0029296875,0.0,0.0,0.0,0.0,0.0,0.0,0.0,0.0,0.0,0.0,0.0,-0.10445613,0.059387375,-0.99282205,-0.8932495,-0.14709473,-0.35943604,-0.04296875,0.005859375,0.036132812,8.509186,-2.1625664,1.2295027,-20.554495,-0.9760742,-0.051086426,-0.17224121,0.0048828125,-0.0126953125,-9.765625E-4,4.002963,2.2926614,-55.578686,-18.82529,-0.45629883,-0.60272217,0.67541504,0.00390625,0.015625,0.0087890625,38.171146,2.2794852,-127.47534,-14.626476,0.0,0.0,0.0,0.0,0.0,0.0,0.0,-14.064119,-127.44026,-3.0982208,0.0,0.0,0.0,0.0,0.0,0.0,0.0,0.10445613,-0.059387375,0.99282205,0.9717407,-0.14666748,-0.24719238,0.01953125,0.005859375,0.0390625,9.838632,2.1625664,-1.2295027,20.554495,-0.9656372,-0.026123047,-0.114746094,-0.03515625,0.026367188,0.036132812,1.1131148,2.67737,-58.12344,17.07352,-0.3258667,0.6713867,0.6589966,9.765625E-4,0.00390625,-0.0087890625,1.5613501,1.7445263,-130.06976,14.10433,0.0,0.0,0.0,0.0,0.0,0.0,0.0,-18.025814,-130.15097,11.103776,0.0,0.0,0.0,0.0,0.0,0.0,0.0,-8.049795,44.13967,3.4872208,
0.5156249846331779,22,-0.03277588,-0.5968628,0.8568115,0.0107421875,-0.025390625,0.0029296875,0.0,0.0,0.0,0.0,0.0,0.0,0.0,0.0,0.0,0.0,0.0,-0.10575691,0.059583176,-0.99275416,-0.8848877,-0.13757324,-0.34765625,-0.0048828125,0.005859375,-9.765625E-4,8.535939,-2.1894963,1.2335565,-20.553087,-0.9873047,-0.054870605,-0.16320801,0.0048828125,-0.032226562,-0.020507812,3.9590359,2.2364929,-55.574688,-18.802135,-0.44952393,-0.6084595,0.65740967,0.00390625,-0.00390625,0.02734375,38.185333,2.232779,-127.46968,-14.607961,0.0,0.0,0.0,0.0,0.0,0.0,0.0,-14.117012,-127.44425,-3.0890036,0.0,0.0,0.0,0.0,0.0,0.0,0.0,0.10575691,-0.059583176,0.99275416,0.9918213,-0.15655518,-0.24371338,0.020507812,-0.0126953125,0.001953125,9.797716,2.1894963,-1.2335565,20.553087,-0.9553833,-0.010986328,-0.08117676,-0.03515625,0.0078125,0.016601562,1.1843209,2.7108266,-58.123447,17.06896,-0.32281494,0.66516113,0.6875,-0.017578125,-0.015625,-0.02734375,1.6777145,1.7358063,-130.07939,14.169997,0.0,0.0,0.0,0.0,0.0,0.0,0.0,-18.03797,-130.16133,11.175826,0.0,0.0,0.0,0.0,0.0,0.0,0.0,-8.022314,44.14704,3.5042272,
0.5390624839346859,23,-0.038635254,-0.5598755,0.8410034,-0.0087890625,0.0107421875,0.021484375,0.0,0.0,0.0,0.0,0.0,0.0,0.0,0.0,0.0,0.0,0.0,-0.10624498,0.05969886,-0.9925805,-0.87323,-0.121520996,-0.3209839,0.0146484375,0.025390625,-9.765625E-4,8.567151,-2.1996012,1.2359514,-20.549492,-0.98321533,-0.055786133,-0.1762085,0.0048828125,0.005859375,-9.765625E-4,3.9250574,2.204198,-55.57532,-18.780447,-0.460083,-0.59906006,0.6934204,0.0234375,0.015625,-0.009765625,38.16525,2.199902,-127.47128,-14.607319,0.0,0.0,0.0,0.0,0.0,0.0,0.0,-14.151482,-127.44621,-3.0905437,0.0,0.0,0.0,0.0,0.0,0.0,0.0,0.10624498,-0.05969886,0.9925805,0.98669434,-0.1427002,-0.24047852,0.01953125,0.061523438,0.001953125,9.794243,2.1996012,-1.2359514,20.549492,-0.9395752,-0.0064086914,-0.11846924,-0.016601562,0.026367188,0.036132812,1.2381206,2.7157469,-58.130913,17.052143,-0.30706787,0.63116455,0.6479492,-0.020507812,0.080078125,0.0107421875,1.7369741,1.6956544,-130.0838,14.193079,0.0,0.0,0.0,0.0,0.0,0.0,0.0,-18.078718,-130.16078,11.209482,0.0,0.0,0.0,0.0,0.0,0.0,0.0,-8.014747,44.14251,3.5128477,
0.562499983236194,24,-0.044677734,-0.5812378,0.85668945,0.0107421875,0.048828125,0.001953125,0.0,0.0,0.0,0.0,0.0,0.0,0.0,0.0,0.0,0.0,0.0,-0.10667682,0.059786648,-0.99262947,-0.8718262,-0.1449585,-0.3430786,-0.0048828125,0.005859375,0.036132812,8.588239,-2.2085407,1.237769,-20.550508,-0.98724365,-0.052856445,-0.18011475,0.0048828125,0.005859375,-9.765625E-4,3.8785336,2.1714203,-55.57519,-18.757782,-0.42456055,-0.5857544,0.67718506,-0.034179688,0.015625,0.0087890625,38.162807,2.17829,-127.46915,-14.60803,0.0,0.0,0.0,0.0,0.0,0.0,0.0,-14.178423,-127.44714,-3.0938253,0.0,0.0,0.0,0.0,0.0,0.0,0.0,0.10667682,-0.059786648,0.99262947,0.9706421,-0.12890625,-0.2548828,0.020507812,-0.0126953125,0.001953125,9.768412,2.2085407,-1.237769,20.550508,-0.9644165,-0.016235352,-0.11071777,-0.016601562,0.026367188,0.036132812,1.3095537,2.7260659,-58.132328,17.05872,-0.31481934,0.6783447,0.63446045,0.001953125,-0.015625,-0.028320312,1.787722,1.6288474,-130.08698,14.266334,0.0,0.0,0.0,0.0,0.0,0.0,0.0,-18.148748,-130.15764,11.30742,0.0,0.0,0.0,0.0,0.0,0.0,0.0,-7.995551,44.150127,3.5184608,
0.5859374825377021,25,-0.04260254,-0.55407715,0.8428955,0.0107421875,0.030273438,0.001953125,0.0,0.0,0.0,0.0,0.0,0.0,0.0,0.0,0.0,0.0,0.0,-0.10673377,0.06006656,-0.99257946,-0.8718872,-0.14685059,-0.34710693,-0.0234375,0.025390625,-9.765625E-4,8.659027,-2.2097182,1.2435639,-20.549473,-0.9852295,-0.05670166,-0.18218994,0.0048828125,0.005859375,0.017578125,3.8185961,2.1427808,-55.57005,-18.705185,-0.4371338,-0.60009766,0.66729736,-0.015625,-0.00390625,0.009765625,38.12968,2.1626203,-127.471466,-14.575151,0.0,0.0,0.0,0.0,0.0,0.0,0.0,-14.196598,-127.446175,-3.0673885,0.0,0.0,0.0,0.0,0.0,0.0,0.0,0.10673377,-0.06006656,0.99257946,0.96765137,-0.14263916,-0.2390747,0.01953125,0.005859375,0.001953125,9.766862,2.2097182,-1.2435639,20.549473,-0.97454834,-0.013916016,-0.119628906,-0.016601562,0.0068359375,0.03515625,1.3323673,2.73521,-58.14147,17.07817,-0.31750488,0.7161865,0.66516113,-0.001953125,0.080078125,-0.0087890625,1.8758628,1.5834907,-130.09558,14.308405,0.0,0.0,0.0,0.0,0.0,0.0,0.0,-18.196762,-130.16345,11.362203,0.0,0.0,0.0,0.0,0.0,0.0,0.0,-7.99716,44.147556,3.5315652,
0.6093749818392101,26,-0.026672363,-0.57806396,0.8251953,-0.0078125,-0.08105469,0.0029296875,0.0,0.0,0.0,0.0,0.0,0.0,0.0,0.0,0.0,0.0,0.0,-0.10758141,0.06050038,-0.99242663,-0.8911743,-0.15228271,-0.3486328,-0.0048828125,0.005859375,0.017578125,8.695607,-2.2272675,1.2525455,-20.546307,-0.98413086,-0.037353516,-0.17504883,0.0234375,0.005859375,0.017578125,3.7777128,2.105768,-55.55965,-18.666565,-0.44403076,-0.5938721,0.6643677,0.0029296875,-0.00390625,-0.0087890625,38.124477,2.1354458,-127.46095,-14.546345,0.0,0.0,0.0,0.0,0.0,0.0,0.0,-14.227387,-127.44169,-3.0455933,0.0,0.0,0.0,0.0,0.0,0.0,0.0,0.10758141,-0.06050038,0.99242663,0.95770264,-0.13677979,-0.2546997,0.01953125,0.061523438,0.001953125,9.711163,2.2272675,-1.2525455,20.546307,-0.99102783,-0.028198242,-0.14038086,-0.016601562,0.0068359375,0.03515625,1.3517603,2.7756784,-58.144127,17.08497,-0.31072998,0.66693115,0.6904907,0.0,0.041992188,-0.0087890625,1.8089427,1.6819562,-130.1056,14.368676,0.0,0.0,0.0,0.0,0.0,0.0,0.0,-18.094816,-130.17552,11.41892,0.0,0.0,0.0,0.0,0.0,0.0,0.0,-7.9679384,44.149357,3.5551794,
0.6328124811407182,27,-0.037597656,-0.55804443,0.87768555,-0.0087890625,-0.0068359375,-0.016601562,0.0,0.0,0.0,0.0,0.0,0.0,0.0,0.0,0.0,0.0,0.0,-0.10694155,0.060987145,-0.99245834,-0.8689575,-0.1508789,-0.34918213,-0.0234375,0.025390625,0.036132812,8.736352,-2.214022,1.262623,-20.546963,-0.97302246,-0.053955078,-0.18218994,0.0234375,-0.0126953125,-0.020507812,3.734391,2.0999982,-55.5524,-18.66505,-0.44000244,-0.60046387,0.6882324,0.0029296875,-0.00390625,-0.0087890625,38.135704,2.153509,-127.45348,-14.568701,0.0,0.0,0.0,0.0,0.0,0.0,0.0,-14.21191,-127.43379,-3.0716734,0.0,0.0,0.0,0.0,0.0,0.0,0.0,0.10694155,-0.060987145,0.99245834,0.96484375,-0.15454102,-0.25506592,0.01953125,0.024414062,0.001953125,9.705897,2.214022,-1.262623,20.546963,-0.96325684,-0.032043457,-0.16394043,-0.016601562,0.0068359375,0.03515625,1.4133315,2.7824578,-58.1585,17.067982,-0.34228516,0.6366577,0.6342163,0.020507812,0.00390625,-0.009765625,1.8210194,1.7016344,-130.11682,14.409808,0.0,0.0,0.0,0.0,0.0,0.0,0.0,-18.076035,-130.18622,11.445198,0.0,0.0,0.0,0.0,0.0,0.0,0.0,-7.978821,44.145645,3.572527,
0.6562499804422263,28,-0.023620605,-0.56726074,0.8609619,-0.0087890625,0.01171875,0.001953125,0.0,0.0,0.0,0.0,0.0,0.0,0.0,0.0,0.0,0.0,0.0,-0.10643098,0.061524,-0.9924676,-0.8754883,-0.14135742,-0.31811523,-0.0048828125,0.005859375,0.036132812,8.842157,-2.2034512,1.2737375,-20.547155,-0.9822998,-0.061706543,-0.1652832,0.0234375,0.005859375,-0.020507812,3.6631896,2.06875,-55.54226,-18.605663,-0.44818115,-0.59991455,0.67333984,-0.0146484375,0.015625,0.0087890625,38.108532,2.1343703,-127.44192,-14.516835,0.0,0.0,0.0,0.0,0.0,0.0,0.0,-14.236427,-127.42846,-3.0255556,0.0,0.0,0.0,0.0,0.0,0.0,0.0,0.10643098,-0.061524,0.9924676,0.96850586,-0.13671875,-0.21923828,-0.018554688,0.061523438,0.0029296875,9.713226,2.2034512,-1.2737375,20.547155,-0.9851074,-0.03729248,-0.13842773,-0.015625,0.045898438,-0.001953125,1.4767102,2.7850642,-58.162575,17.051525,-0.322937,0.6705322,0.64227295,-0.017578125,-0.015625,-0.0087890625,1.8029828,1.6706597,-130.12231,14.434317,0.0,0.0,0.0,0.0,0.0,0.0,0.0,-18.108137,-130.19312,11.489458,0.0,0.0,0.0,0.0,0.0,0.0,0.0,-7.993763,44.140663,3.5935628,
0.6796874797437343,29,-0.035583496,-0.55963135,0.8657837,0.0107421875,-0.0068359375,0.021484375,0.0,0.0,0.0,0.0,0.0,0.0,0.0,0.0,0.0,0.0,0.0,-0.10731432,0.061870873,-0.9924076,-0.895813,-0.11328125,-0.36108398,-0.0048828125,0.043945312,0.036132812,8.874093,-2.22174,1.2809188,-20.545914,-0.9841919,-0.04901123,-0.17114258,0.0234375,-0.032226562,-0.020507812,3.6118374,2.0376766,-55.533287,-18.574568,-0.4227295,-0.5938721,0.68310547,0.022460938,-0.00390625,0.009765625,38.138454,2.1274452,-127.43838,-14.52883,0.0,0.0,0.0,0.0,0.0,0.0,0.0,-14.237894,-127.42649,-3.0278997,0.0,0.0,0.0,0.0,0.0,0.0,0.0,0.10731432,-0.061870873,0.9924076,1.0089722,-0.14782715,-0.28167725,-0.017578125,0.005859375,0.0029296875,9.685233,2.22174,-1.2809188,20.545914,-0.9935913,0.0015869141,-0.13238525,-0.03515625,0.045898438,0.0546875,1.5227711,2.8087347,-58.171383,17.063799,-0.30688477,0.6595459,0.64715576,0.001953125,-0.015625,0.0087890625,1.8422817,1.668446,-130.13702,14.511366,0.0,0.0,0.0,0.0,0.0,0.0,0.0,-18.113808,-130.20425,11.572913,0.0,0.0,0.0,0.0,0.0,0.0,0.0,-7.9729223,44.145317,3.6143596,
0.7031249790452424,30,-0.03857422,-0.55633545,0.8855591,-0.0087890625,-0.0068359375,-0.036132812,0.0,0.0,0.0,0.0,0.0,0.0,0.0,0.0,0.0,0.0,0.0,-0.10761523,0.062236726,-0.9923492,-0.88604736,-0.1383667,-0.35760498,-0.061523438,0.025390625,0.036132812,8.92775,-2.227969,1.2884934,-20.544706,-0.99139404,-0.056762695,-0.16223145,0.0048828125,-0.032226562,-0.0390625,3.570893,2.0092857,-55.52849,-18.552153,-0.4352417,-0.6051636,0.67022705,0.0029296875,-0.022460938,0.028320312,38.075314,2.111477,-127.43367,-14.519157,0.0,0.0,0.0,0.0,0.0,0.0,0.0,-14.260075,-127.42631,-3.0263014,0.0,0.0,0.0,0.0,0.0,0.0,0.0,0.10761523,-0.062236726,0.9923492,0.96069336,-0.13287354,-0.2597046,0.01953125,0.024414062,0.001953125,9.654329,2.227969,-1.2884934,20.544706,-0.9612427,-0.02166748,-0.13830566,-0.03515625,0.045898438,0.0546875,1.573212,2.8565202,-58.175957,17.071407,-0.347229,0.6414795,0.644104,-0.017578125,-0.015625,0.009765625,1.8631964,1.7127538,-130.14041,14.569954,0.0,0.0,0.0,0.0,0.0,0.0,0.0,-18.06877,-130.21687,11.629361,0.0,0.0,0.0,0.0,0.0,0.0,0.0,-7.9779115,44.142696,3.6336424,
0.7265624783467505,31,-0.042541504,-0.53692627,0.86279297,0.0107421875,0.01171875,0.001953125,0.0,0.0,0.0,0.0,0.0,0.0,0.0,0.0,0.0,0.0,0.0,-0.10775119,0.06266749,-0.9922986,-0.8820801,-0.15045166,-0.35180664,0.0146484375,-0.013671875,0.03515625,8.964754,-2.2307827,1.2974113,-20.543657,-0.97198486,-0.03942871,-0.1741333,0.04296875,-0.0126953125,-9.765625E-4,3.5440345,1.9890268,-55.520573,-18.543152,-0.43780518,-0.6270752,0.6762085,-0.0146484375,0.015625,0.0087890625,38.04915,2.0916235,-127.42326,-14.5395565,0.0,0.0,0.0,0.0,0.0,0.0,0.0,-14.2866535,-127.41869,-3.0581226,0.0,0.0,0.0,0.0,0.0,0.0,0.0,0.10775119,-0.06266749,0.9922986,0.98358154,-0.12786865,-0.23529053,0.01953125,0.024414062,0.001953125,9.673493,2.2307827,-1.2974113,20.543657,-0.93573,-0.018371582,-0.1204834,-0.015625,0.026367188,0.016601562,1.5828849,2.845992,-58.19181,17.091671,-0.3109131,0.6505127,0.673645,-0.017578125,-0.015625,0.009765625,1.8450415,1.6777222,-130.16,14.626514,0.0,0.0,0.0,0.0,0.0,0.0,0.0,-18.105738,-130.24266,11.696594,0.0,0.0,0.0,0.0,0.0,0.0,0.0,-7.9776344,44.14068,3.653925,
0.7499999776482585,32,-0.023498535,-0.53741455,0.854126,-0.0087890625,0.01171875,0.001953125,0.0,0.0,0.0,0.0,0.0,0.0,0.0,0.0,0.0,0.0,0.0,-0.10777226,0.06306231,-0.99223405,-0.8812866,-0.11016846,-0.33361816,0.0146484375,-0.013671875,0.03515625,8.97785,-2.2312198,1.3055853,-20.54232,-0.9781494,-0.057800293,-0.1772461,0.0234375,0.005859375,-9.765625E-4,3.5208104,1.9837236,-55.511906,-18.552498,-0.4407959,-0.5936279,0.6942749,0.00390625,0.015625,0.0087890625,38.065746,2.1044235,-127.418655,-14.581224,0.0,0.0,0.0,0.0,0.0,0.0,0.0,-14.270134,-127.416176,-3.0947542,0.0,0.0,0.0,0.0,0.0,0.0,0.0,0.10777226,-0.06306231,0.99223405,0.98791504,-0.15167236,-0.26940918,0.01953125,0.005859375,0.020507812,9.640778,2.2312198,-1.3055853,20.54232,-0.97332764,-0.056762695,-0.1227417,-0.016601562,0.0068359375,0.016601562,1.6165262,2.8818111,-58.200333,17.079865,-0.31188965,0.6723633,0.63934326,9.765625E-4,0.00390625,0.009765625,1.8348304,1.6942197,-130.16522,14.612564,0.0,0.0,0.0,0.0,0.0,0.0,0.0,-18.092508,-130.25005,11.69888,0.0,0.0,0.0,0.0,0.0,0.0,0.0,-7.978018,44.137432,3.671732,
0.7734374769497666,33,-0.034606934,-0.5584717,0.86083984,0.0107421875,0.01171875,0.001953125,0.0,0.0,0.0,0.0,0.0,0.0,0.0,0.0,0.0,0.0,0.0,-0.107427984,0.063010365,-0.99235004,-0.88494873,-0.13146973,-0.35754395,-0.061523438,0.044921875,0.0546875,8.980192,-2.224094,1.30451,-20.544722,-0.9749756,-0.025817871,-0.17297363,0.041992188,-0.03125,0.018554688,3.519976,1.9926748,-55.514774,-18.563385,-0.4524536,-0.5774536,0.694397,0.0234375,0.015625,0.0087890625,38.03789,2.108027,-127.42331,-14.629981,0.0,0.0,0.0,0.0,0.0,0.0,0.0,-14.267857,-127.42836,-3.1484556,0.0,0.0,0.0,0.0,0.0,0.0,0.0,0.107427984,-0.063010365,0.99235004,0.98217773,-0.16851807,-0.29327393,0.020507812,0.005859375,0.07714844,9.515538,2.224094,-1.30451,20.544722,-0.991333,-0.02508545,-0.09906006,-0.0546875,0.0078125,0.016601562,1.8131572,3.0098543,-58.192425,17.003748,-0.34906006,0.65997314,0.6550293,0.020507812,0.00390625,0.0087890625,2.007206,1.7833774,-130.16039,14.592522,0.0,0.0,0.0,0.0,0.0,0.0,0.0,-18.002863,-130.24878,11.662614,0.0,0.0,0.0,0.0,0.0,0.0,0.0,-7.994366,44.138214,3.6680443,
0.7968749762512747,34,-0.052734375,-0.5814209,0.8595581,-0.0087890625,0.01171875,0.001953125,0.0,0.0,0.0,0.0,0.0,0.0,0.0,0.0,0.0,0.0,0.0,-0.1072129,0.062428687,-0.9924009,-0.86505127,-0.1416626,-0.36810303,0.0146484375,0.06347656,0.036132812,8.961072,-2.2196379,1.2924674,-20.545776,-0.98028564,-0.07531738,-0.168396,0.061523438,0.0068359375,-9.765625E-4,3.5189748,1.9954958,-55.525436,-18.558868,-0.4364624,-0.61206055,0.6692505,-0.0146484375,0.015625,0.0087890625,38.01834,2.116808,-127.435234,-14.598037,0.0,0.0,0.0,0.0,0.0,0.0,0.0,-14.256845,-127.4364,-3.1073065,0.0,0.0,0.0,0.0,0.0,0.0,0.0,0.1072129,-0.062428687,0.9924009,0.97424316,-0.112976074,-0.1953125,-0.09082031,-0.16210938,0.07714844,9.445708,2.2196379,-1.2924674,20.545776,-1.001709,-0.033813477,-0.10406494,0.020507812,-0.0126953125,0.016601562,2.010713,3.0602062,-58.16606,16.88752,-0.32495117,0.6726074,0.635376,9.765625E-4,0.00390625,-0.0087890625,2.0781074,1.814088,-130.13554,14.564885,0.0,0.0,0.0,0.0,0.0,0.0,0.0,-17.968756,-130.22743,11.624366,0.0,0.0,0.0,0.0,0.0,0.0,0.0,-7.9965177,44.139675,3.6405768,
0.8203124755527827,35,-0.04260254,-0.5631714,0.88153076,0.0107421875,-0.025390625,0.0029296875,0.0,0.0,0.0,0.0,0.0,0.0,0.0,0.0,0.0,0.0,0.0,-0.1074141,0.062248703,-0.9924072,-0.8878174,-0.13562012,-0.34259033,0.07128906,-0.013671875,0.016601562,8.986403,-2.2238052,1.2887411,-20.545904,-0.9902344,-0.045043945,-0.17803955,0.11816406,-0.01171875,-9.765625E-4,3.487116,1.9773362,-55.529804,-18.537682,-0.44628906,-0.6425171,0.6682739,0.0029296875,-0.0029296875,-0.02734375,37.87489,2.1399918,-127.43173,-14.497471,0.0,0.0,0.0,0.0,0.0,0.0,0.0,-14.233322,-127.43211,-3.010971,0.0,0.0,0.0,0.0,0.0,0.0,0.0,0.1074141,-0.062248703,0.9924072,0.97424316,-0.112976074,-0.1953125,-0.09082031,-0.16210938,0.07714844,9.453093,2.2238052,-1.2887411,20.545904,-0.9850464,-0.015197754,-0.09802246,-0.07324219,0.02734375,0.03515625,2.0304723,3.0643735,-58.162334,16.887648,-0.32714844,0.6392212,0.64801025,0.001953125,-0.015625,-0.009765625,2.1824746,1.7649215,-130.1328,14.56073,0.0,0.0,0.0,0.0,0.0,0.0,0.0,-18.018011,-130.22615,11.613147,0.0,0.0,0.0,0.0,0.0,0.0,0.0,-8.002999,44.13974,3.634875,
0.8437499748542908,36,-0.024597168,-0.56481934,0.87683105,0.0107421875,0.01171875,0.021484375,0.0,0.0,0.0,0.0,0.0,0.0,0.0,0.0,0.0,0.0,0.0,-0.107528746,0.062256675,-0.9923421,-0.861084,-0.15985107,-0.3564453,0.033203125,-0.013671875,0.016601562,9.011402,-2.2261782,1.2889062,-20.54456,-0.9801636,-0.052001953,-0.16821289,0.04296875,0.025390625,-9.765625E-4,3.4511087,1.9570155,-55.526535,-18.511276,-0.45977783,-0.58709717,0.6894531,0.0029296875,-0.00390625,-0.0087890625,37.717335,2.1305003,-127.42892,-14.482548,0.0,0.0,0.0,0.0,0.0,0.0,0.0,-14.260956,-127.429596,-3.0190945,0.0,0.0,0.0,0.0,0.0,0.0,0.0,0.107528746,-0.062256675,0.9923421,0.9720459,-0.15466309,-0.28497314,-0.12890625,-0.013671875,0.11621094,9.667598,2.2261782,-1.2889062,20.54456,-0.9752197,-0.032592773,-0.086242676,-0.016601562,0.026367188,0.036132812,2.1496756,2.824529,-58.16265,16.695148,-0.3619995,0.67767334,0.6560669,-0.01953125,0.060546875,0.028320312,2.251163,1.4657115,-130.13281,14.438788,0.0,0.0,0.0,0.0,0.0,0.0,0.0,-18.315903,-130.22209,11.485474,0.0,0.0,0.0,0.0,0.0,0.0,0.0,-7.9951553,44.138737,3.6354797,
0.8671874741557989,37,-0.0036010742,-0.55493164,0.8533325,0.030273438,-0.005859375,0.0029296875,0.0,0.0,0.0,0.0,0.0,0.0,0.0,0.0,0.0,0.0,0.0,-0.107004404,0.06277956,-0.9923874,-0.8792114,-0.14733887,-0.36480713,0.0146484375,-0.013671875,0.053710938,9.058398,-2.2153218,1.2997314,-20.545496,-0.99035645,-0.05670166,-0.17816162,0.061523438,0.0068359375,-0.020507812,3.4380925,1.9685342,-55.51595,-18.485743,-0.4192505,-0.61376953,0.68304443,0.00390625,-0.00390625,0.009765625,37.657856,2.148405,-127.41716,-14.459014,0.0,0.0,0.0,0.0,0.0,0.0,0.0,-14.247732,-127.420074,-3.0033903,0.0,0.0,0.0,0.0,0.0,0.0,0.0,0.107004404,-0.06277956,0.9923874,0.9682007,-0.16851807,-0.30090332,0.01953125,0.080078125,0.05859375,9.709279,2.2153218,-1.2997314,20.545496,-0.95513916,0.010559082,-0.06237793,0.0029296875,0.045898438,0.036132812,2.3061352,2.7800612,-58.164787,16.610826,-0.3137207,0.69592285,0.6335449,9.765625E-4,0.00390625,0.009765625,2.3549292,1.3238058,-130.13388,14.435438,0.0,0.0,0.0,0.0,0.0,0.0,0.0,-18.459633,-130.21678,11.505412,0.0,0.0,0.0,0.0,0.0,0.0,0.0,-8.005409,44.136215,3.6552923,
0.890624973457307,38,-0.04663086,-0.555603,0.8587036,0.030273438,0.030273438,0.021484375,0.0,0.0,0.0,0.0,0.0,0.0,0.0,0.0,0.0,0.0,0.0,-0.107162,0.06305331,-0.992308,-0.87213135,-0.10748291,-0.33184814,0.033203125,-0.013671875,0.03515625,9.0685005,-2.2185864,1.305399,-20.543854,-0.98223877,-0.05682373,-0.17321777,0.061523438,0.025390625,0.017578125,3.4266841,1.9458499,-55.512802,-18.492075,-0.44451904,-0.612854,0.6702881,0.00390625,0.015625,-0.009765625,37.620167,2.1189778,-127.42192,-14.465466,0.0,0.0,0.0,0.0,0.0,0.0,0.0,-14.275569,-127.430336,-3.0056934,0.0,0.0,0.0,0.0,0.0,0.0,0.0,0.107162,-0.06305331,0.992308,0.9885864,-0.13970947,-0.22167969,0.0546875,0.26660156,0.09667969,9.923628,2.2185864,-1.305399,20.543854,-0.96795654,-0.039123535,-0.110839844,-0.072265625,0.06542969,0.036132812,2.1145182,2.5655317,-58.176758,16.709597,-0.35925293,0.64849854,0.64312744,9.765625E-4,0.00390625,0.028320312,2.5133376,1.1032153,-130.14438,14.510895,0.0,0.0,0.0,0.0,0.0,0.0,0.0,-18.680193,-130.2344,11.579431,0.0,0.0,0.0,0.0,0.0,0.0,0.0,-7.9944706,44.13512,3.6677806,
0.914062472758815,39,-0.03668213,-0.567749,0.8399658,0.0107421875,0.01171875,0.001953125,0.0,0.0,0.0,0.0,0.0,0.0,0.0,0.0,0.0,0.0,0.0,-0.10765812,0.06250268,-0.99233484,-0.90411377,-0.15631104,-0.32940674,0.07128906,-0.013671875,0.053710938,9.10103,-2.2288558,1.2939992,-20.544407,-0.98223877,-0.052001953,-0.16522217,0.099609375,0.0068359375,-0.0390625,3.3457386,1.8719327,-55.526806,-18.454409,-0.43725586,-0.6135254,0.6921997,0.0048828125,0.034179688,-0.009765625,37.38336,2.0505557,-127.434616,-14.442431,0.0,0.0,0.0,0.0,0.0,0.0,0.0,-14.349583,-127.446434,-2.9901056,0.0,0.0,0.0,0.0,0.0,0.0,0.0,0.10765812,-0.06250268,0.99233484,0.9472046,-0.12670898,-0.18292236,0.017578125,0.24804688,0.022460938,10.288013,2.2288558,-1.2939992,20.544407,-0.98828125,9.765625E-4,-0.15203857,-0.109375,0.10449219,0.055664062,1.6736269,2.212698,-58.190823,17.005686,-0.3300171,0.6637573,0.6432495,-0.01953125,0.060546875,0.028320312,2.4283383,0.86523116,-130.16173,14.762569,0.0,0.0,0.0,0.0,0.0,0.0,0.0,-18.91892,-130.25389,11.827593,0.0,0.0,0.0,0.0,0.0,0.0,0.0,-7.9748144,44.142593,3.6455274,
0.9374999720603231,40,-0.027709961,-0.57891846,0.8222656,-0.0087890625,-0.0068359375,-0.016601562,0.0,0.0,0.0,0.0,0.0,0.0,0.0,0.0,0.0,0.0,0.0,-0.10853422,0.062440988,-0.99222374,-0.8643799,-0.17053223,-0.36340332,0.051757812,-0.013671875,0.03515625,9.134111,-2.2469964,1.292722,-20.542109,-0.9884033,-0.078063965,-0.18634033,0.080078125,0.0068359375,0.017578125,3.267525,1.8102422,-55.53279,-18.422775,-0.44586182,-0.59228516,0.68530273,0.041992188,0.015625,-0.009765625,37.33834,2.040927,-127.43195,-14.358591,0.0,0.0,0.0,0.0,0.0,0.0,0.0,-14.356568,-127.442085,-2.902029,0.0,0.0,0.0,0.0,0.0,0.0,0.0,0.10853422,-0.062440988,0.99222374,0.9762573,-0.1326294,-0.17175293,0.017578125,0.2109375,0.059570312,10.640261,2.2469964,-1.292722,20.542109,-0.9458618,-0.016174316,-0.12445068,0.0234375,0.083984375,0.017578125,1.4063915,1.87941,-58.196404,17.260763,-0.33624268,0.62957764,0.64501953,-0.037109375,0.00390625,-0.0087890625,2.394001,0.6778556,-130.16875,15.0196295,0.0,0.0,0.0,0.0,0.0,0.0,0.0,-19.1029,-130.26724,12.072625,0.0,0.0,0.0,0.0,0.0,0.0,0.0,-7.951082,44.145798,3.647838,
0.9609374713618312,41,-0.026611328,-0.5587158,0.8708496,-0.0087890625,0.01171875,-0.036132812,0.0,0.0,0.0,0.0,0.0,0.0,0.0,0.0,0.0,0.0,0.0,-0.110248774,0.06298524,-0.9919506,-0.8621216,-0.1385498,-0.38110352,0.051757812,0.024414062,0.03515625,9.138307,-2.282492,1.3039899,-20.53645,-0.97094727,-0.049072266,-0.19012451,0.061523438,-0.0126953125,0.037109375,3.2103448,1.8039815,-55.514366,-18.387444,-0.45056152,-0.5814209,0.6923828,-0.015625,-0.00390625,0.009765625,37.376934,2.123668,-127.419044,-14.360007,0.0,0.0,0.0,0.0,0.0,0.0,0.0,-14.269982,-127.4311,-2.895977,0.0,0.0,0.0,0.0,0.0,0.0,0.0,0.110248774,-0.06298524,0.9919506,0.9920654,-0.17138672,-0.26275635,-0.055664062,0.09863281,0.041015625,10.888534,2.282492,-1.3039899,20.53645,-0.9421387,-0.030395508,-0.11468506,0.0048828125,0.12207031,0.055664062,1.4167887,1.6338215,-58.21019,17.327936,-0.31384277,0.6734009,0.63934326,-0.018554688,0.022460938,-0.0087890625,2.341844,0.6012076,-130.18193,15.036259,0.0,0.0,0.0,0.0,0.0,0.0,0.0,-19.182205,-130.27763,12.101965,0.0,0.0,0.0,0.0,0.0,0.0,0.0,-7.913418,44.147404,3.6827238,
0.9843749706633392,42,-0.033691406,-0.57318115,0.85687256,0.0107421875,0.03125,-0.0546875,0.0,0.0,0.0,0.0,0.0,0.0,0.0,0.0,0.0,0.0,0.0,-0.11067903,0.063625574,-0.9919629,-0.8734131,-0.10101318,-0.35760498,0.0146484375,0.005859375,0.03515625,9.126278,-2.2913995,1.3172468,-20.536707,-0.99542236,-0.05279541,-0.17211914,0.0234375,0.005859375,0.017578125,3.2057679,1.8179579,-55.502693,-18.41288,-0.43548584,-0.6173096,0.6812134,0.0029296875,-0.022460938,0.009765625,37.409054,2.1602225,-127.410645,-14.456804,0.0,0.0,0.0,0.0,0.0,0.0,0.0,-14.220858,-127.41859,-2.9754238,0.0,0.0,0.0,0.0,0.0,0.0,0.0,0.11067903,-0.063625574,0.9919629,0.9606323,-0.14654541,-0.22711182,-0.01953125,0.15527344,0.022460938,11.050684,2.2913995,-1.3172468,20.536707,-0.9581299,-0.0064697266,-0.103759766,0.005859375,0.12207031,0.037109375,1.4357232,1.4833791,-58.228127,17.393724,-0.33215332,0.6351929,0.666687,-0.018554688,0.022460938,-0.0087890625,2.483016,0.5885904,-130.19818,15.002708,0.0,0.0,0.0,0.0,0.0,0.0,0.0,-19.192259,-130.30086,12.047277,0.0,0.0,0.0,0.0,0.0,0.0,0.0,-7.9051857,44.150867,3.7139115,
1.0078124699648474,43,-0.062683105,-0.5777588,0.86639404,0.049804688,-0.041992188,-0.034179688,0.0,0.0,0.0,0.0,0.0,0.0,0.0,0.0,0.0,0.0,0.0,-0.11120376,0.063103646,-0.9919171,-0.8824463,-0.12915039,-0.3248291,-0.0234375,0.005859375,0.0546875,9.124125,-2.3022618,1.3064408,-20.535759,-0.9934082,-0.04901123,-0.15716553,0.04296875,0.0068359375,-9.765625E-4,3.1619263,1.7308545,-55.519714,-18.445465,-0.45611572,-0.63031006,0.66638184,-0.015625,0.015625,-0.009765625,37.293907,2.0512981,-127.425644,-14.475519,0.0,0.0,0.0,0.0,0.0,0.0,0.0,-14.334084,-127.43772,-3.0010576,0.0,0.0,0.0,0.0,0.0,0.0,0.0,0.11120376,-0.063103646,0.9919171,0.9755249,-0.13867188,-0.21343994,0.017578125,0.2109375,0.041015625,11.208815,2.3022618,-1.3064408,20.535759,-0.9725952,-0.027404785,-0.14227295,-0.033203125,0.103515625,0.017578125,1.4793582,1.3373487,-58.217487,17.517609,-0.32891846,0.66448975,0.66485596,-0.037109375,-0.015625,0.028320312,2.5565007,0.5280253,-130.18892,15.089886,0.0,0.0,0.0,0.0,0.0,0.0,0.0,-19.250128,-130.30435,12.118888,0.0,0.0,0.0,0.0,0.0,0.0,0.0,-7.8949614,44.15343,3.6940496,
1.0312499692663555,44,-0.05871582,-0.5803833,0.8892212,-0.0087890625,-0.0068359375,0.001953125,0.0,0.0,0.0,0.0,0.0,0.0,0.0,0.0,0.0,0.0,0.0,-0.11106911,0.06192462,-0.9919886,-0.8881836,-0.12237549,-0.30767822,-0.0048828125,0.005859375,0.036132812,9.1586685,-2.2994761,1.2820315,-20.53724,-0.98931885,-0.054748535,-0.17816162,0.061523438,0.0068359375,0.017578125,3.0693088,1.651943,-55.548016,-18.423561,-0.43469238,-0.58966064,0.68725586,0.00390625,0.015625,-0.028320312,37.178017,1.9818971,-127.456696,-14.451651,0.0,0.0,0.0,0.0,0.0,0.0,0.0,-14.413401,-127.47121,-2.9903097,0.0,0.0,0.0,0.0,0.0,0.0,0.0,0.11106911,-0.06192462,0.9919886,0.96777344,-0.18200684,-0.19586182,0.055664062,0.13671875,0.040039062,11.454319,2.2994761,-1.2820315,20.53724,-0.9766846,-0.030273438,-0.14624023,-0.033203125,0.083984375,0.017578125,1.6841177,1.1197488,-58.202652,17.678493,-0.35107422,0.6688843,0.6472168,-0.01953125,0.041992188,0.028320312,2.4950476,0.5077325,-130.17624,15.225969,0.0,0.0,0.0,0.0,0.0,0.0,0.0,-19.264393,-130.2952,12.228819,0.0,0.0,0.0,0.0,0.0,0.0,0.0,-7.908669,44.154503,3.641836,
1.0546874685678636,45,-0.060668945,-0.5663452,0.8496094,0.030273438,-0.0068359375,0.022460938,0.0,0.0,0.0,0.0,0.0,0.0,0.0,0.0,0.0,0.0,0.0,-0.11117855,0.061000884,-0.99198735,-0.86621094,-0.18084717,-0.338562,0.0146484375,0.043945312,0.036132812,9.161072,-2.301741,1.2629073,-20.537214,-0.9822998,-0.054992676,-0.15826416,0.0234375,0.025390625,-0.020507812,3.0303466,1.6254044,-55.570816,-18.372587,-0.4199829,-0.5996094,0.6711426,0.00390625,0.015625,-0.028320312,37.19175,1.9602109,-127.478584,-14.383888,0.0,0.0,0.0,0.0,0.0,0.0,0.0,-14.433466,-127.485535,-2.9186134,0.0,0.0,0.0,0.0,0.0,0.0,0.0,0.11117855,-0.061000884,0.99198735,0.9486084,-0.18579102,-0.16772461,-0.018554688,0.061523438,0.021484375,11.607615,2.301741,-1.2629073,20.537214,-1.0128784,-0.038146973,-0.12872314,0.0234375,0.083984375,0.036132812,1.9153018,0.9534099,-58.17715,17.756727,-0.29278564,0.66308594,0.66485596,-0.018554688,0.022460938,0.009765625,2.4411204,0.5164945,-130.14946,15.251764,0.0,0.0,0.0,0.0,0.0,0.0,0.0,-19.255589,-130.27109,12.257514,0.0,0.0,0.0,0.0,0.0,0.0,0.0,-7.8941755,44.158405,3.6002119,
1.0781249678693716,46,-0.034729004,-0.598999,0.8597412,0.049804688,0.0126953125,0.0029296875,0.0,0.0,0.0,0.0,0.0,0.0,0.0,0.0,0.0,0.0,0.0,-0.112564415,0.060956754,-0.99182874,-0.8925781,-0.16992188,-0.3587036,0.0146484375,0.043945312,0.0546875,9.204129,-2.3304331,1.2619936,-20.533928,-0.98327637,-0.060668945,-0.17327881,0.04296875,0.12109375,-0.001953125,2.952207,1.5755575,-55.571392,-18.30706,-0.4505005,-0.6117554,0.6713867,0.00390625,-0.00390625,0.009765625,37.16301,1.9621745,-127.47444,-14.31848,0.0,0.0,0.0,0.0,0.0,0.0,0.0,-14.435668,-127.48536,-2.8576899,0.0,0.0,0.0,0.0,0.0,0.0,0.0,0.112564415,-0.060956754,0.99182874,0.9855957,-0.15142822,-0.20288086,-0.017578125,0.024414062,0.0029296875,11.64185,2.3304331,-1.2619936,20.533928,-0.9763794,-0.0095825195,-0.13433838,-0.034179688,0.083984375,0.07421875,2.0807426,0.91207063,-58.180046,17.74524,-0.32513428,0.64019775,0.64801025,9.765625E-4,0.00390625,0.009765625,2.4480062,0.62963194,-130.15286,15.166854,0.0,0.0,0.0,0.0,0.0,0.0,0.0,-19.143085,-130.27094,12.180373,0.0,0.0,0.0,0.0,0.0,0.0,0.0,-7.86658,44.16255,3.606976,
1.1015624671708797,47,-0.027648926,-0.5755005,0.83807373,0.06933594,0.013671875,-0.03515625,0.0,0.0,0.0,0.0,0.0,0.0,0.0,0.0,0.0,0.0,0.0,-0.11406359,0.061500296,-0.9916472,-0.85339355,-0.12145996,-0.35131836,-0.0048828125,0.005859375,0.036132812,9.232396,-2.3614695,1.2732468,-20.53017,-0.9770508,-0.05480957,-0.19317627,0.0048828125,0.005859375,0.017578125,2.9488235,1.562599,-55.555637,-18.273855,-0.41864014,-0.59729004,0.6980591,0.00390625,-0.00390625,0.02734375,37.230923,1.9637392,-127.46158,-14.292345,0.0,0.0,0.0,0.0,0.0,0.0,0.0,-14.4234295,-127.46397,-2.8200073,0.0,0.0,0.0,0.0,0.0,0.0,0.0,0.11406359,-0.061500296,0.9916472,0.9779053,-0.17614746,-0.22479248,0.057617188,-0.0126953125,0.01953125,11.662869,2.3614695,-1.2732468,20.53017,-0.99591064,-0.022766113,-0.15710449,-0.051757812,0.103515625,-9.765625E-4,2.2293217,0.90119433,-58.187828,17.707773,-0.29870605,0.6779785,0.6482544,0.020507812,0.00390625,-0.009765625,2.290124,0.77573305,-130.15717,15.039219,0.0,0.0,0.0,0.0,0.0,0.0,0.0,-19.004725,-130.26802,12.1092825,0.0,0.0,0.0,0.0,0.0,0.0,0.0,-7.8492804,44.16383,3.6418254,
1.1249999664723878,48,-0.035705566,-0.5883179,0.8666992,0.0107421875,-0.0068359375,0.0029296875,0.0,0.0,0.0,0.0,0.0,0.0,0.0,0.0,0.0,0.0,0.0,-0.11584988,0.061818525,-0.9913981,-0.85601807,-0.14483643,-0.37036133,-0.061523438,0.044921875,0.0,9.222175,-2.3984504,1.2798351,-20.525013,-0.98217773,-0.057739258,-0.18017578,-0.0146484375,-0.013671875,0.017578125,2.9082491,1.5207767,-55.548943,-18.279213,-0.45269775,-0.62713623,0.6983032,0.0234375,0.0146484375,0.02734375,37.32136,1.9688251,-127.45473,-14.310955,0.0,0.0,0.0,0.0,0.0,0.0,0.0,-14.412904,-127.44878,-2.8323631,0.0,0.0,0.0,0.0,0.0,0.0,0.0,0.11584988,-0.061818525,0.9913981,0.97058105,-0.124938965,-0.24291992,0.07714844,-0.087890625,0.0,11.545296,2.3984504,-1.2798351,20.525013,-0.973999,-0.020263672,-0.19537354,0.00390625,0.083984375,0.07421875,2.2917473,1.013257,-58.197296,17.681053,-0.35705566,0.65789795,0.6746826,9.765625E-4,-0.015625,-0.046875,2.3442664,1.0732976,-130.16682,14.943632,0.0,0.0,0.0,0.0,0.0,0.0,0.0,-18.701887,-130.29309,11.981285,0.0,0.0,0.0,0.0,0.0,0.0,0.0,-7.8140354,44.166973,3.6671362,
1.1484374657738958,49,-0.03277588,-0.59783936,0.8568115,0.030273438,-0.024414062,-0.015625,0.0,0.0,0.0,0.0,0.0,0.0,0.0,0.0,0.0,0.0,0.0,-0.11790416,0.061545484,-0.9912241,-0.88897705,-0.13446045,-0.35253906,-0.04296875,0.025390625,-9.765625E-4,9.130583,-2.4409804,1.2741823,-20.521414,-0.9973755,-0.053649902,-0.18902588,-0.052734375,0.024414062,0.037109375,2.918261,1.5023551,-55.55809,-18.322584,-0.4356079,-0.6242676,0.68218994,0.00390625,-0.00390625,0.009765625,37.363785,1.9711442,-127.46552,-14.401558,0.0,0.0,0.0,0.0,0.0,0.0,0.0,-14.406975,-127.46694,-2.921606,0.0,0.0,0.0,0.0,0.0,0.0,0.0,0.11790416,-0.061545484,0.9912241,0.9598999,-0.15454102,-0.26086426,-0.0546875,-0.049804688,0.0029296875,11.379945,2.4409804,-1.2741823,20.521414,-0.9822998,-0.01373291,-0.16784668,0.00390625,0.064453125,0.036132812,2.313507,1.1623347,-58.19285,17.677742,-0.3703003,0.63568115,0.6607666,0.001953125,-0.03515625,0.0087890625,2.2347584,1.3910904,-130.1558,14.91193,0.0,0.0,0.0,0.0,0.0,0.0,0.0,-18.381527,-130.2934,11.924184,0.0,0.0,0.0,0.0,0.0,0.0,0.0,-7.7677336,44.177483,3.666953,
1.171874965075404,50,-0.052734375,-0.59851074,0.87042236,0.049804688,-0.005859375,0.022460938,0.0,0.0,0.0,0.0,0.0,0.0,0.0,0.0,0.0,0.0,0.0,-0.11994618,0.060484994,-0.99102575,-0.9098511,-0.1282959,-0.3340454,-0.061523438,0.025390625,0.0,9.045396,-2.483258,1.252227,-20.517305,-0.967041,-0.060913086,-0.1673584,-0.013671875,0.025390625,-0.020507812,2.9298427,1.4381161,-55.5789,-18.354832,-0.4397583,-0.5883789,0.6793213,0.005859375,0.072265625,0.02734375,37.236042,1.876377,-127.48692,-14.437789,0.0,0.0,0.0,0.0,0.0,0.0,0.0,-14.504774,-127.48812,-2.9629793,0.0,0.0,0.0,0.0,0.0,0.0,0.0,0.11994618,-0.060484994,0.99102575,0.9725342,-0.13769531,-0.2163086,-0.0546875,-0.03125,0.0029296875,11.177816,2.483258,-1.252227,20.517305,-0.9517212,-0.0115356445,-0.15002441,-0.052734375,0.08496094,0.036132812,2.271244,1.3422552,-58.167885,17.664766,-0.34320068,0.64141846,0.64208984,0.001953125,-0.015625,-0.009765625,2.1862378,1.7006179,-130.13002,14.83405,0.0,0.0,0.0,0.0,0.0,0.0,0.0,-18.06924,-130.27464,11.837835,0.0,0.0,0.0,0.0,0.0,0.0,0.0,-7.7231293,44.187374,3.6316247,
1.195312464376912,51,-0.05267334,-0.5720215,0.84375,0.06933594,-0.0048828125,0.022460938,0.0,0.0,0.0,0.0,0.0,0.0,0.0,0.0,0.0,0.0,0.0,-0.12002671,0.059887104,-0.99104464,-0.8833008,-0.16235352,-0.3508911,-0.0234375,0.064453125,-9.765625E-4,9.036072,-2.4849262,1.2398487,-20.517698,-0.96502686,-0.06585693,-0.16046143,0.0048828125,0.043945312,-9.765625E-4,2.9415786,1.443821,-55.59432,-18.342718,-0.42633057,-0.6091919,0.6621704,0.0234375,0.015625,0.0087890625,37.190376,1.874521,-127.50156,-14.413633,0.0,0.0,0.0,0.0,0.0,0.0,0.0,-14.5085335,-127.503136,-2.9399872,0.0,0.0,0.0,0.0,0.0,0.0,0.0,0.12002671,-0.059887104,0.99104464,0.99298096,-0.17230225,-0.2399292,0.020507812,-0.06933594,0.020507812,11.174204,2.4849262,-1.2398487,20.517698,-1.0006104,-0.005554199,-0.16687012,-0.015625,0.026367188,0.016601562,2.3331358,1.3461636,-58.156372,17.594603,-0.34423828,0.6414795,0.6401367,9.765625E-4,0.00390625,0.009765625,2.1502218,1.7731636,-130.11752,14.736426,0.0,0.0,0.0,0.0,0.0,0.0,0.0,-17.99672,-130.26637,11.735989,0.0,0.0,0.0,0.0,0.0,0.0,0.0,-7.734758,44.187016,3.606912,
1.21874996367842,52,-0.04272461,-0.58099365,0.85076904,0.06933594,0.05078125,0.0029296875,0.0,0.0,0.0,0.0,0.0,0.0,0.0,0.0,0.0,0.0,0.0,-0.12165603,0.059933793,-0.9908707,-0.89801025,-0.13018799,-0.35424805,0.0146484375,0.043945312,0.036132812,8.997066,-2.5186563,1.2408153,-20.514097,-0.96698,-0.059814453,-0.18530273,-0.013671875,0.024414062,-9.765625E-4,2.9790068,1.4639812,-55.5864,-18.332138,-0.4472046,-0.5998535,0.668396,0.022460938,-0.00390625,0.009765625,37.18156,1.9023824,-127.50029,-14.434404,0.0,0.0,0.0,0.0,0.0,0.0,0.0,-14.485607,-127.50203,-2.9670687,0.0,0.0,0.0,0.0,0.0,0.0,0.0,0.12165603,-0.059933793,0.9908707,0.9720459,-0.18609619,-0.24359131,0.095703125,-0.087890625,0.0,11.136747,2.5186563,-1.2408153,20.514097,-0.9851074,0.01550293,-0.13427734,-0.034179688,0.06542969,0.036132812,2.3390846,1.3713272,-58.149715,17.476748,-0.315979,0.6647949,0.6225586,0.040039062,-0.015625,-0.009765625,2.2116048,1.7696104,-130.1048,14.575695,0.0,0.0,0.0,0.0,0.0,0.0,0.0,-18.001709,-130.25368,11.572449,0.0,0.0,0.0,0.0,0.0,0.0,0.0,-7.71052,44.191463,3.6196377,
1.242187462979928,53,-0.043640137,-0.56884766,0.87158203,0.08886719,-0.0234375,0.0234375,0.0,0.0,0.0,0.0,0.0,0.0,0.0,0.0,0.0,0.0,0.0,-0.12205374,0.060671855,-0.99080765,-0.8658447,-0.12780762,-0.3659668,-0.0048828125,0.08300781,0.0546875,9.033267,-2.5268912,1.2560954,-20.512789,-0.9780884,-0.037475586,-0.16809082,-0.033203125,0.043945312,-0.020507812,3.0298944,1.4873695,-55.57176,-18.345715,-0.42633057,-0.6081543,0.6602173,0.0029296875,-0.022460938,-0.0087890625,37.04688,1.8905079,-127.484665,-14.498044,0.0,0.0,0.0,0.0,0.0,0.0,0.0,-14.504678,-127.49014,-3.0403357,0.0,0.0,0.0,0.0,0.0,0.0,0.0,0.12205374,-0.060671855,0.99080765,0.9727783,-0.16625977,-0.21765137,0.07714844,-0.06933594,0.038085938,11.094979,2.5268912,-1.2560954,20.512789,-0.9790039,-0.03753662,-0.13250732,-0.034179688,0.06542969,0.036132812,2.2677946,1.459693,-58.158585,17.379833,-0.33807373,0.64904785,0.65789795,0.040039062,-0.015625,-0.028320312,2.3333876,1.8241427,-130.11713,14.490303,0.0,0.0,0.0,0.0,0.0,0.0,0.0,-17.945133,-130.2681,11.480708,0.0,0.0,0.0,0.0,0.0,0.0,0.0,-7.7453203,44.18348,3.6596804,
1.2656249622814362,54,-0.053710938,-0.59020996,0.85754395,0.08886719,-0.0048828125,0.00390625,0.0,0.0,0.0,0.0,0.0,0.0,0.0,0.0,0.0,0.0,0.0,-0.12257406,0.060877517,-0.9907336,-0.87823486,-0.109313965,-0.33270264,-0.061523438,0.064453125,0.037109375,9.071945,-2.5376627,1.2603536,-20.511261,-0.9760132,-0.044189453,-0.1821289,-0.0146484375,0.024414062,0.017578125,3.0342846,1.4862163,-55.56921,-18.387749,-0.45562744,-0.583313,0.694397,-0.015625,-0.0029296875,-0.02734375,37.05647,1.9002383,-127.48399,-14.577523,0.0,0.0,0.0,0.0,0.0,0.0,0.0,-14.496445,-127.49686,-3.121314,0.0,0.0,0.0,0.0,0.0,0.0,0.0,0.12257406,-0.060877517,0.9907336,0.9602661,-0.107055664,-0.21478271,0.076171875,-0.0126953125,0.01953125,11.130929,2.5376627,-1.2603536,20.511261,-0.9805298,-0.023010254,-0.15704346,-0.034179688,0.06542969,0.036132812,2.1838195,1.528511,-58.171265,17.399845,-0.30194092,0.6506958,0.64611816,0.020507812,0.00390625,-0.028320312,2.3419275,1.8429892,-130.13281,14.5669155,0.0,0.0,0.0,0.0,0.0,0.0,0.0,-17.93099,-130.28023,11.577824,0.0,0.0,0.0,0.0,0.0,0.0,0.0,-7.8130093,44.16994,3.680736,
1.2890624615829442,55,-0.05670166,-0.57647705,0.8585205,0.107421875,0.0146484375,-0.0146484375,0.0,0.0,0.0,0.0,0.0,0.0,0.0,0.0,0.0,0.0,0.0,-0.122483104,0.061419766,-0.99068904,-0.8754883,-0.085632324,-0.38128662,-0.061523438,0.064453125,0.037109375,9.096689,-2.5357797,1.2715795,-20.510336,-0.9708252,-0.014221191,-0.16992188,-0.0146484375,0.043945312,0.037109375,3.1121266,1.5363162,-55.556187,-18.495441,-0.4638672,-0.5911865,0.6994629,-0.07421875,-0.021484375,-0.02734375,36.93354,1.9221574,-127.47542,-14.778931,0.0,0.0,0.0,0.0,0.0,0.0,0.0,-14.4739,-127.49089,-3.3196144,0.0,0.0,0.0,0.0,0.0,0.0,0.0,0.122483104,-0.061419766,0.99068904,0.97662354,-0.13873291,-0.23724365,0.01953125,0.024414062,0.0390625,11.27463,2.5357797,-1.2715795,20.510336,-0.9602051,-0.0045776367,-0.09887695,-0.072265625,0.06542969,0.036132812,2.1641939,1.5400957,-58.182606,17.377478,-0.36694336,0.6724243,0.7003784,0.020507812,0.00390625,0.0087890625,2.459652,1.8205942,-130.1433,14.581598,0.0,0.0,0.0,0.0,0.0,0.0,0.0,-17.951164,-130.29689,11.598918,0.0,0.0,0.0,0.0,0.0,0.0,0.0,-7.9324217,44.144547,3.7175493,
1.3124999608844523,56,-0.06774902,-0.58947754,0.859375,0.107421875,0.052734375,-0.034179688,0.0,0.0,0.0,0.0,0.0,0.0,0.0,0.0,0.0,0.0,0.0,-0.12262386,0.061458003,-0.99063027,-0.8824463,-0.105895996,-0.35046387,-0.0048828125,0.08203125,0.091796875,9.068826,-2.5386949,1.272371,-20.509119,-0.98846436,-0.072387695,-0.16040039,-0.052734375,0.13867188,0.036132812,3.120356,1.5365615,-55.561867,-18.666609,-0.43634033,-0.6134033,0.68621826,-0.13183594,-0.020507812,-0.1015625,36.789745,1.952235,-127.483475,-15.042517,0.0,0.0,0.0,0.0,0.0,0.0,0.0,-14.455169,-127.49466,-3.5953693,0.0,0.0,0.0,0.0,0.0,0.0,0.0,0.12262386,-0.061458003,0.99063027,0.98443604,-0.1307373,-0.20562744,0.018554688,0.13671875,0.040039062,11.475092,2.5386949,-1.272371,20.509119,-0.9655762,-0.06542969,-0.095214844,-0.07128906,0.08496094,0.055664062,2.2192907,1.4902472,-58.185997,17.486542,-0.3461914,0.6453247,0.64801025,0.020507812,0.022460938,0.046875,2.6802223,1.8330727,-130.14516,14.672952,0.0,0.0,0.0,0.0,0.0,0.0,0.0,-17.935402,-130.30652,11.666995,0.0,0.0,0.0,0.0,0.0,0.0,0.0,-8.032436,44.12349,3.7316751,
1.3359374601859604,57,-0.051696777,-0.5784302,0.8595581,0.107421875,0.052734375,-0.034179688,0.0,0.0,0.0,0.0,0.0,0.0,0.0,0.0,0.0,0.0,0.0,-0.12325409,0.061865684,-0.9905678,-0.8613281,-0.18884277,-0.34075928,0.0146484375,0.08203125,0.11035156,9.1446905,-2.551741,1.2808115,-20.507824,-0.9691162,-0.07543945,-0.17443848,0.061523438,0.08300781,0.017578125,2.987013,1.4781187,-55.558712,-18.747307,-0.44586182,-0.6246338,0.6663208,-0.16894531,0.017578125,-0.064453125,36.90716,2.0441725,-127.484665,-15.13208,0.0,0.0,0.0,0.0,0.0,0.0,0.0,-14.362455,-127.48112,-3.6863174,0.0,0.0,0.0,0.0,0.0,0.0,0.0,0.12325409,-0.061865684,0.9905678,1.0185547,-0.1583252,-0.1828003,0.017578125,0.22949219,0.078125,11.934789,2.551741,-1.2808115,20.507824,-0.9558716,0.018737793,-0.07318115,0.005859375,0.14160156,0.055664062,2.558108,1.1737528,-58.190083,17.616234,-0.30895996,0.66070557,0.62945557,0.040039062,0.00390625,-0.009765625,2.90697,1.5931112,-130.14514,14.77132,0.0,0.0,0.0,0.0,0.0,0.0,0.0,-18.182173,-130.2924,11.792198,0.0,0.0,0.0,0.0,0.0,0.0,0.0,-8.11467,44.107536,3.7644153,
1.3593749594874684,58,-0.036743164,-0.5965576,0.8458252,0.12695312,0.053710938,-0.052734375,0.0,0.0,0.0,0.0,0.0,0.0,0.0,0.0,0.0,0.0,0.0,-0.1259197,0.062074345,-0.9901365,-0.88031006,-0.17041016,-0.34906006,0.052734375,0.1015625,0.109375,9.132542,-2.6069293,1.2851313,-20.498894,-0.98132324,-0.07720947,-0.17340088,0.041992188,0.12109375,0.037109375,2.9933634,1.5626416,-55.545334,-18.769745,-0.4383545,-0.64886475,0.67718506,-0.18945312,-9.765625E-4,-0.13867188,36.90355,2.300735,-127.47027,-15.18432,0.0,0.0,0.0,0.0,0.0,0.0,0.0,-14.115025,-127.465935,-3.756734,0.0,0.0,0.0,0.0,0.0,0.0,0.0,0.1259197,-0.062074345,0.9901365,0.984375,-0.1817627,-0.11883545,-0.020507812,0.30371094,0.17285156,12.579683,2.6069293,-1.2851313,20.498894,-0.97613525,-0.020935059,-0.07141113,-0.06738281,0.21875,0.056640625,3.0650325,0.7076255,-58.187157,17.729307,-0.366333,0.6348877,0.64404297,0.0390625,0.022460938,0.0087890625,3.4444647,1.1560258,-130.14062,14.75313,0.0,0.0,0.0,0.0,0.0,0.0,0.0,-18.617317,-130.2916,11.756271,0.0,0.0,0.0,0.0,0.0,0.0,0.0,-8.191178,44.086082,3.8055818,
1.3828124587889765,59,-0.034729004,-0.5895996,0.87561035,0.107421875,0.109375,-0.111328125,0.0,0.0,0.0,0.0,0.0,0.0,0.0,0.0,0.0,0.0,0.0,-0.1308091,0.061962277,-0.989607,-0.869751,-0.17144775,-0.3076172,0.0146484375,0.1015625,0.14746094,9.158947,-2.708154,1.2828112,-20.487932,-0.9743042,-0.07067871,-0.14648438,0.041992188,0.15917969,0.055664062,2.9396482,1.5202034,-55.544712,-18.844194,-0.44122314,-0.6480713,0.69018555,-0.16992188,-0.001953125,-0.08300781,36.80483,2.4382005,-127.46973,-15.277165,0.0,0.0,0.0,0.0,0.0,0.0,0.0,-13.981104,-127.450645,-3.8529081,0.0,0.0,0.0,0.0,0.0,0.0,0.0,0.1308091,-0.061962277,0.989607,0.9602051,-0.12664795,-0.17327881,0.016601562,0.39746094,0.17285156,13.394016,2.708154,-1.2828112,20.487932,-0.9604492,-0.10107422,-0.06585693,-0.0087890625,0.29589844,0.07714844,3.8607209,0.151541,-58.170906,17.909233,-0.31695557,0.65563965,0.657959,0.040039062,0.00390625,0.02734375,3.8065774,0.78614974,-130.12091,14.915564,0.0,0.0,0.0,0.0,0.0,0.0,0.0,-18.982351,-130.26845,11.912226,0.0,0.0,0.0,0.0,0.0,0.0,0.0,-8.285225,44.06869,3.8544383,
1.4062499580904846,60,-0.07562256,-0.55114746,0.831604,0.20410156,0.09375,-0.14746094,0.0,0.0,0.0,0.0,0.0,0.0,0.0,0.0,0.0,0.0,0.0,-0.13679487,0.06303246,-0.9886537,-0.91101074,-0.17254639,-0.3005371,0.09082031,0.10058594,0.16503906,9.389043,-2.8320777,1.3049674,-20.468197,-0.98339844,-0.0647583,-0.14141846,0.060546875,0.140625,0.055664062,2.7364516,1.3269441,-55.527763,-18.822721,-0.4239502,-0.64367676,0.6930542,-0.13085938,-0.001953125,-0.08300781,36.68768,2.4231026,-127.45345,-15.273355,0.0,0.0,0.0,0.0,0.0,0.0,0.0,-13.992942,-127.41917,-3.8483458,0.0,0.0,0.0,0.0,0.0,0.0,0.0,0.13679487,-0.06303246,0.9886537,0.96520996,-0.14239502,-0.1517334,0.053710938,0.37890625,0.171875,14.118329,2.8320777,-1.3049674,20.468197,-0.9630127,-0.035217285,-0.20129395,0.10546875,0.31347656,0.095703125,4.7408643,-0.2684791,-58.1738,18.162712,-0.33520508,0.6375122,0.6342163,9.765625E-4,0.022460938,0.028320312,4.050623,0.77362645,-130.11316,15.04052,0.0,0.0,0.0,0.0,0.0,0.0,0.0,-18.994276,-130.25441,12.032203,0.0,0.0,0.0,0.0,0.0,0.0,0.0,-8.36901,44.039524,3.9657538,
1.4296874573919927,61,-0.08673096,-0.5753174,0.80963135,0.14648438,0.055664062,-0.16699219,0.0,0.0,0.0,0.0,0.0,0.0,0.0,0.0,0.0,0.0,0.0,-0.14196977,0.06486127,-0.987864,-0.91882324,-0.13934326,-0.31500244,0.052734375,0.10058594,0.14648438,9.532237,-2.9392138,1.3428295,-20.451849,-0.97631836,-0.061950684,-0.13946533,-0.0146484375,0.17773438,0.07519531,2.6129937,1.1681256,-55.497993,-18.917751,-0.42663574,-0.6482544,0.6331787,-0.053710938,0.036132812,-0.083984375,36.574505,2.4083571,-127.417175,-15.418516,0.0,0.0,0.0,0.0,0.0,0.0,0.0,-13.99954,-127.36657,-3.9801655,0.0,0.0,0.0,0.0,0.0,0.0,0.0,0.14196977,-0.06486127,0.987864,0.9711304,-0.11682129,-0.17144775,-0.1328125,0.28515625,0.17480469,14.729351,2.9392138,-1.3428295,20.451849,-0.93933105,-0.027709961,-0.19433594,0.047851562,0.31347656,0.115234375,5.673988,-0.6186254,-58.196445,18.339132,-0.32391357,0.6555176,0.6727295,0.021484375,-0.015625,0.045898438,3.9930687,0.96221805,-130.11269,14.856643,0.0,0.0,0.0,0.0,0.0,0.0,0.0,-18.807867,-130.256,11.84206,0.0,0.0,0.0,0.0,0.0,0.0,0.0,-8.435682,44.01694,4.102393,
1.4531249566935007,62,-0.08666992,-0.5666504,0.84924316,0.087890625,0.036132812,-0.18652344,0.0,0.0,0.0,0.0,0.0,0.0,0.0,0.0,0.0,0.0,0.0,-0.14691526,0.06587381,-0.9869983,-0.9121094,-0.119262695,-0.28619385,0.033203125,0.08203125,0.109375,9.6843195,-3.041601,1.3637922,-20.433926,-0.9783325,-0.0657959,-0.14343262,-0.034179688,0.234375,0.09375,2.3517687,0.8977635,-55.485615,-19.023178,-0.4397583,-0.6218262,0.6652832,-0.015625,0.015625,-0.045898438,36.34061,2.3180947,-127.40898,-15.6324625,0.0,0.0,0.0,0.0,0.0,0.0,0.0,-14.106684,-127.36814,-4.219494,0.0,0.0,0.0,0.0,0.0,0.0,0.0,0.14691526,-0.06587381,0.9869983,0.97247314,-0.15234375,-0.18572998,-0.22558594,0.2109375,0.15722656,15.024012,3.041601,-1.3637922,20.433926,-0.96154785,-0.021972656,-0.21502686,0.028320312,0.27539062,0.11425781,6.4219303,-0.7352228,-58.203495,18.356148,-0.33813477,0.6552124,0.62939453,0.020507812,0.00390625,0.02734375,3.845271,1.4549942,-130.08603,14.506565,0.0,0.0,0.0,0.0,0.0,0.0,0.0,-18.315157,-130.22806,11.486271,0.0,0.0,0.0,0.0,0.0,0.0,0.0,-8.470325,43.99792,4.197303,
1.4765624559950088,63,-0.062805176,-0.59814453,0.82373047,0.06933594,0.03515625,-0.1875,0.0,0.0,0.0,0.0,0.0,0.0,0.0,0.0,0.0,0.0,0.0,-0.15369251,0.066488534,-0.98599505,-0.899353,-0.14129639,-0.28967285,-0.00390625,0.12109375,0.11035156,9.653312,-3.1819098,1.3765187,-20.413153,-0.9835205,-0.06109619,-0.11151123,-0.052734375,0.27246094,0.07421875,2.1143332,0.6531725,-55.482723,-19.120163,-0.3918457,-0.61499023,0.70477295,0.0029296875,-0.0029296875,-0.045898438,36.10138,2.293544,-127.40805,-15.868904,0.0,0.0,0.0,0.0,0.0,0.0,0.0,-14.127427,-127.35317,-4.451458,0.0,0.0,0.0,0.0,0.0,0.0,0.0,0.15369251,-0.066488534,0.98599505,0.94976807,-0.1819458,-0.19744873,-0.12988281,0.0234375,0.17285156,14.985534,3.1819098,-1.3765187,20.413153,-0.9588623,-0.010009766,-0.26220703,0.047851562,0.31445312,0.095703125,6.9831715,-0.69001055,-58.20581,18.207859,-0.33087158,0.67926025,0.6590576,0.001953125,0.0029296875,0.06542969,3.8233619,2.0565014,-130.04318,13.979363,0.0,0.0,0.0,0.0,0.0,0.0,0.0,-17.708183,-130.18239,10.946303,0.0,0.0,0.0,0.0,0.0,0.0,0.0,-8.372271,44.012604,4.272931,
1.4999999552965169,64,-0.046875,-0.61883545,0.82684326,0.107421875,0.036132812,-0.16796875,0.0,0.0,0.0,0.0,0.0,0.0,0.0,0.0,0.0,0.0,0.0,-0.16106361,0.06757523,-0.98466575,-0.8937988,-0.16906738,-0.29797363,0.07128906,0.08203125,0.12792969,9.741888,-3.334517,1.3990166,-20.385632,-0.977478,-0.07470703,-0.11462402,-0.034179688,0.33007812,0.07421875,1.7787228,0.35067606,-55.475746,-19.151087,-0.430542,-0.6171875,0.670166,0.061523438,0.0146484375,0.0087890625,35.805637,2.2552288,-127.40029,-16.057045,0.0,0.0,0.0,0.0,0.0,0.0,0.0,-14.164002,-127.34396,-4.6356945,0.0,0.0,0.0,0.0,0.0,0.0,0.0,0.16106361,-0.06757523,0.98466575,0.93621826,-0.1482544,-0.15716553,-0.12890625,-0.05078125,0.11621094,14.896615,3.334517,-1.3990166,20.385632,-0.9435425,-0.044128418,-0.21704102,0.0087890625,0.25683594,0.11425781,7.3951006,-0.5518694,-58.216595,18.029049,-0.3540039,0.6715698,0.6688843,0.040039062,0.0029296875,0.08300781,3.9963045,2.674727,-130.01375,13.464505,0.0,0.0,0.0,0.0,0.0,0.0,0.0,-17.08213,-130.15167,10.374906,0.0,0.0,0.0,0.0,0.0,0.0,0.0,-8.292947,44.013855,4.377057,
1.523437454598025,65,-0.051757812,-0.60272217,0.84661865,0.12695312,0.07421875,-0.20605469,0.0,0.0,0.0,0.0,0.0,0.0,0.0,0.0,0.0,0.0,0.0,-0.16958079,0.06912756,-0.9831302,-0.901062,-0.16503906,-0.23815918,0.109375,0.0625,0.12695312,9.952677,-3.5108473,1.4311548,-20.353842,-0.9744873,-0.06616211,-0.09069824,-0.07128906,0.4248047,0.03515625,1.3068612,-2.0337105E-4,-55.4515,-19.053495,-0.43273926,-0.6281738,0.67718506,0.13769531,-0.0048828125,0.02734375,35.493404,2.2220762,-127.374245,-16.150593,0.0,0.0,0.0,0.0,0.0,0.0,0.0,-14.189713,-127.29814,-4.7127075,0.0,0.0,0.0,0.0,0.0,0.0,0.0,0.16958079,-0.06912756,0.9831302,0.95025635,-0.16693115,-0.13183594,-0.12792969,-0.16308594,0.15332031,14.89271,3.5108473,-1.4311548,20.353842,-0.94641113,-0.022644043,-0.19335938,-0.029296875,0.23828125,0.076171875,7.837117,-0.48355436,-58.23653,17.839275,-0.31677246,0.6881714,0.63256836,0.041015625,-0.015625,0.064453125,4.2127295,3.1632369,-129.99742,13.032976,0.0,0.0,0.0,0.0,0.0,0.0,0.0,-16.588455,-130.10146,9.920772,0.0,0.0,0.0,0.0,0.0,0.0,0.0,-8.203905,44.01726,4.5101147,
1.546874953899533,66,-0.033691406,-0.5704956,0.835083,0.20410156,0.1328125,-0.24316406,0.0,0.0,0.0,0.0,0.0,0.0,0.0,0.0,0.0,0.0,0.0,-0.17900541,0.070984155,-0.98139924,-0.90930176,-0.17163086,-0.24694824,0.18457031,-0.053710938,0.14453125,10.377899,-3.7059677,1.4695919,-20.318008,-0.9602661,-0.049987793,-0.06072998,-0.14746094,0.5576172,0.07324219,0.66793245,-0.43855453,-55.42566,-18.863846,-0.4161377,-0.6442871,0.6680298,0.17675781,-0.005859375,0.08300781,35.103573,2.1480334,-127.34554,-16.219215,0.0,0.0,0.0,0.0,0.0,0.0,0.0,-14.262173,-127.25233,-4.775812,0.0,0.0,0.0,0.0,0.0,0.0,0.0,0.17900541,-0.070984155,0.98139924,0.9487915,-0.2310791,-0.13250732,-0.12695312,-0.23730469,0.17089844,14.848877,3.7059677,-1.4695919,20.318008,-0.9432373,0.0178833,-0.22363281,-0.16308594,0.20117188,0.09472656,8.05871,-0.27691126,-58.26292,17.510082,-0.3411255,0.65130615,0.63427734,0.040039062,0.022460938,0.1015625,4.4113092,3.6706853,-129.98932,12.349966,0.0,0.0,0.0,0.0,0.0,0.0,0.0,-16.079342,-130.05461,9.215848,0.0,0.0,0.0,0.0,0.0,0.0,0.0,-8.192491,44.005287,4.6771765,
1.570312453201041,67,0.007385254,-0.5716553,0.82366943,0.24316406,0.13476562,-0.28027344,0.0,0.0,0.0,0.0,0.0,0.0,0.0,0.0,0.0,0.0,0.0,-0.19159776,0.07392237,-0.97882885,-0.9655762,-0.12554932,-0.1963501,0.18457031,-0.13183594,0.16210938,10.996622,-3.966666,1.5304222,-20.26479,-0.9788208,-0.04547119,0.020080566,-0.24121094,0.6328125,0.034179688,0.18557489,-1.0550103,-55.37397,-18.63116,-0.41131592,-0.6178589,0.6790161,0.27246094,-0.026367188,0.15722656,34.76329,1.861871,-127.28189,-16.293486,0.0,0.0,0.0,0.0,0.0,0.0,0.0,-14.533389,-127.18424,-4.8327923,0.0,0.0,0.0,0.0,0.0,0.0,0.0,0.19159776,-0.07392237,0.97882885,0.9827881,-0.20361328,-0.16467285,-0.14355469,-0.38671875,0.15136719,14.745286,3.966666,-1.5304222,20.26479,-0.9447632,0.003479004,-0.20306396,-0.37109375,0.22265625,0.056640625,8.189808,0.0839355,-58.310814,17.062115,-0.30273438,0.6800537,0.6442871,-0.076171875,0.022460938,0.08496094,4.420845,4.3620596,-129.9974,11.6221895,0.0,0.0,0.0,0.0,0.0,0.0,0.0,-15.383506,-130.03937,8.449298,0.0,0.0,0.0,0.0,0.0,0.0,0.0,-8.201139,43.977695,4.9265556,
1.5937499525025491,68,0.014404297,-0.56152344,0.7861328,0.20410156,0.13378906,-0.31933594,0.0,0.0,0.0,0.0,0.0,0.0,0.0,0.0,0.0,0.0,0.0,-0.20540836,0.07792551,-0.97565395,-1.0162964,-0.10662842,-0.08154297,0.33496094,-0.38378906,0.17773438,12.153915,-4.252591,1.6132997,-20.199062,-0.9781494,-0.008483887,0.16186523,-0.3359375,0.8984375,0.033203125,1.3549415,-2.0583916,-55.303333,-18.04135,-0.42700195,-0.60266113,0.68115234,0.3310547,-0.02734375,0.23144531,34.17374,1.1572821,-127.202515,-16.042416,0.0,0.0,0.0,0.0,0.0,0.0,0.0,-15.233263,-127.10483,-4.576702,0.0,0.0,0.0,0.0,0.0,0.0,0.0,0.20540836,-0.07792551,0.97565395,0.9439087,-0.10784912,-0.15393066,-0.19921875,-0.42382812,0.15234375,14.391839,4.252591,-1.6132997,20.199062,-0.96173096,-0.029907227,-0.21704102,-0.44726562,0.24121094,0.16992188,8.081116,0.72071934,-58.396416,16.632154,-0.31225586,0.60461426,0.6665039,-0.076171875,0.0029296875,0.046875,4.266271,5.3140116,-130.02808,10.799767,0.0,0.0,0.0,0.0,0.0,0.0,0.0,-14.431014,-130.0692,7.610752,0.0,0.0,0.0,0.0,0.0,0.0,0.0,-8.188221,43.94199,5.2335477,
1.6171874518040572,69,0.020629883,-0.5041504,0.81811523,0.12695312,0.076171875,-0.30078125,0.0,0.0,0.0,0.0,0.0,0.0,0.0,0.0,0.0,0.0,0.0,-0.21708956,0.08276695,-0.9727846,-1.0747681,-0.13049316,0.105651855,0.65625,-0.86816406,0.2265625,13.872608,-4.4944277,1.7135322,-20.139656,-0.99017334,-0.03186035,0.34100342,-0.25976562,1.2236328,0.032226562,3.303931,-3.4779754,-55.188835,-17.060581,-0.43237305,-0.6239624,0.70910645,0.3720703,0.047851562,0.3046875,33.428825,0.20072818,-127.0603,-15.365002,0.0,0.0,0.0,0.0,0.0,0.0,0.0,-16.188028,-126.96393,-3.8979225,0.0,0.0,0.0,0.0,0.0,0.0,0.0,0.21708956,-0.08276695,0.9727846,0.95080566,-0.055786133,-0.21203613,-0.3486328,-0.49902344,0.080078125,13.681653,4.4944277,-1.7135322,20.139656,-0.947876,-0.113464355,-0.23706055,-0.20214844,0.20019531,0.16992188,7.736241,1.616663,-58.51313,16.267477,-0.29901123,0.6207886,0.69317627,0.0234375,-0.07324219,0.08300781,4.2814393,6.6305914,-130.10214,10.274515,0.0,0.0,0.0,0.0,0.0,0.0,0.0,-13.102187,-130.14587,7.033448,0.0,0.0,0.0,0.0,0.0,0.0,0.0,-8.115093,43.91982,5.547797,
1.6406249511055653,70,0.0076904297,-0.47973633,0.82196045,-0.028320312,-0.0048828125,-0.16894531,0.0,0.0,0.0,0.0,0.0,0.0,0.0,0.0,0.0,0.0,0.0,-0.2223998,0.086751804,-0.9711352,-1.1057129,-0.11206055,0.27160645,1.1660156,-1.4892578,0.3095703,15.660847,-4.6043653,1.7960314,-20.105509,-1.0264282,0.056640625,0.39379883,-0.22167969,1.7011719,0.030273438,5.9864473,-4.868817,-55.06265,-15.952668,-0.41156006,-0.640625,0.72088623,0.53222656,0.17871094,0.52441406,32.698853,-0.1735797,-126.903625,-14.992612,0.0,0.0,0.0,0.0,0.0,0.0,0.0,-16.55798,-126.856186,-3.521473,0.0,0.0,0.0,0.0,0.0,0.0,0.0,0.2223998,-0.086751804,0.9711352,0.9281616,-0.082458496,-0.24359131,-0.6298828,-0.53515625,0.028320312,12.699499,4.6043653,-1.7960314,20.105509,-0.9767456,-0.08081055,-0.2546997,0.3486328,0.21484375,0.1328125,7.2153964,2.6254885,-58.614662,15.996855,-0.32006836,0.6409912,0.6578369,0.17773438,-0.07324219,0.08105469,4.776924,8.15652,-130.17017,10.045111,0.0,0.0,0.0,0.0,0.0,0.0,0.0,-11.575885,-130.15964,6.7891235,0.0,0.0,0.0,0.0,0.0,0.0,0.0,-8.021631,43.905247,5.759104,
1.6640624504070733,71,-0.093322754,-0.46520996,0.8256836,-0.06640625,-0.009765625,0.0390625,0.0,0.0,0.0,0.0,0.0,0.0,0.0,0.0,0.0,0.0,0.0,-0.21844953,0.08632156,-0.9720854,-1.2044678,-0.08135986,0.4046631,1.6376953,-2.265625,0.484375,18.458601,-4.5225825,1.787124,-20.125183,-1.1528931,0.21173096,0.21960449,-0.35351562,2.1767578,-0.009765625,11.397965,-6.8184686,-54.86708,-14.209859,-0.4338379,-0.74261475,0.7836914,0.546875,0.55859375,0.796875,33.25232,0.51278543,-126.500404,-15.367004,0.0,0.0,0.0,0.0,0.0,0.0,0.0,-15.867788,-126.66867,-3.892353,0.0,0.0,0.0,0.0,0.0,0.0,0.0,0.21844953,-0.08632156,0.9720854,0.9458008,-0.26696777,-0.2677002,-0.5722656,-0.6660156,-0.029296875,11.928859,4.5225825,-1.787124,20.125183,-0.9724121,0.07897949,-0.26281738,0.40429688,0.17578125,0.11328125,6.5312586,3.3822725,-58.59024,15.523535,-0.32867432,0.7127075,0.6365967,0.21777344,-0.09277344,0.1171875,5.440857,9.140703,-130.1022,9.271736,0.0,0.0,0.0,0.0,0.0,0.0,0.0,-10.600008,-129.97498,6.063443,0.0,0.0,0.0,0.0,0.0,0.0,0.0,-8.162832,43.883568,5.73125,
1.6874999497085814,72,-0.09442139,-0.50097656,0.83148193,-0.22265625,0.14941406,0.28222656,0.0,0.0,0.0,0.0,0.0,0.0,0.0,0.0,0.0,0.0,0.0,-0.21116638,0.079131946,-0.9743753,-1.4138794,0.024291992,0.48950195,1.5996094,-2.8085938,0.8125,21.867567,-4.3717976,1.6382765,-20.172588,-1.5021973,0.30212402,0.07897949,-0.9765625,2.7226562,-0.06933594,18.413723,-9.497888,-54.5577,-12.051917,-0.54559326,-0.87835693,0.8632202,0.60253906,1.5283203,1.2851562,34.415825,1.069005,-125.689766,-15.894152,0.0,0.0,0.0,0.0,0.0,0.0,0.0,-15.280267,-126.450424,-4.3987293,0.0,0.0,0.0,0.0,0.0,0.0,0.0,0.21116638,-0.079131946,0.9743753,0.9221802,-0.43267822,-0.2927246,-0.16015625,-0.6845703,-0.055664062,11.485609,4.3717976,-1.6382765,20.172588,-0.9439697,0.13739014,-0.2142334,0.080078125,0.12109375,0.15039062,6.104898,3.611534,-58.36541,14.654989,-0.32104492,0.66192627,0.62060547,0.17773438,-0.07324219,0.08105469,5.8990703,9.344439,-129.81564,7.7375803,0.0,0.0,0.0,0.0,0.0,0.0,0.0,-10.399405,-129.56976,4.572362,0.0,0.0,0.0,0.0,0.0,0.0,0.0,-8.306029,43.906094,5.3658257,
1.7109374490100895,73,-0.14276123,-0.58532715,0.88812256,-0.2607422,0.1640625,0.453125,0.0,0.0,0.0,0.0,0.0,0.0,0.0,0.0,0.0,0.0,0.0,-0.20260978,0.065729976,-0.9771586,-1.6727295,0.3184204,0.52752686,1.1640625,-3.0585938,1.0371094,25.53314,-4.1946516,1.3608142,-20.230213,-1.4610596,0.0032348633,-0.21173096,-1.1074219,2.9121094,-0.18554688,26.406134,-12.68599,-54.052418,-9.86067,-0.3494873,-0.9941406,0.9361572,0.37597656,2.4199219,2.2910156,35.810436,1.8069592,-124.296036,-16.405945,0.0,0.0,0.0,0.0,0.0,0.0,0.0,-14.498539,-126.22703,-4.981558,0.0,0.0,0.0,0.0,0.0,0.0,0.0,0.20260978,-0.065729976,0.9771586,0.9119873,-0.43255615,-0.26080322,0.32714844,-0.6845703,-0.119140625,11.561972,4.1946516,-1.3608142,20.230213,-0.93530273,0.09991455,-0.2399292,-0.12695312,0.18066406,0.13183594,6.028899,3.4545712,-57.985184,13.755268,-0.28234863,0.7177124,0.66619873,0.13867188,-0.053710938,0.044921875,6.0474043,9.121141,-129.36938,6.1294723,0.0,0.0,0.0,0.0,0.0,0.0,0.0,-10.631205,-129.04715,3.0216756,0.0,0.0,0.0,0.0,0.0,0.0,0.0,-8.441372,43.95467,4.706958,
1.7343749483115976,74,-0.078125,-0.69873047,0.9055176,-0.0859375,9.765625E-4,0.4765625,0.0,0.0,0.0,0.0,0.0,0.0,0.0,0.0,0.0,0.0,0.0,-0.1944702,0.057483867,-0.97926253,-1.6536865,0.085754395,0.37994385,0.67285156,-2.5527344,0.89746094,29.255926,-4.026136,1.1900944,-20.273773,-1.2172852,-0.19372559,-0.23583984,-0.34765625,2.7695312,-0.4716797,34.21403,-15.893169,-53.18576,-7.9231853,-0.5625,-1.0466309,0.8201904,0.62109375,3.3300781,2.8710938,36.28057,2.5297565,-122.23297,-16.832615,0.0,0.0,0.0,0.0,0.0,0.0,0.0,-13.630821,-125.855064,-5.6083612,0.0,0.0,0.0,0.0,0.0,0.0,0.0,0.1944702,-0.057483867,0.97926253,0.95410156,-0.31622314,-0.25646973,0.70214844,-0.75878906,-0.12597656,11.567474,4.026136,-1.1900944,20.273773,-0.9734497,0.048034668,-0.2166748,-0.14550781,0.16210938,0.11230469,5.8589272,3.4823394,-57.71781,12.970488,-0.322937,0.67858887,0.6226196,0.061523438,-0.07324219,0.026367188,6.096961,9.151102,-129.0378,4.762027,0.0,0.0,0.0,0.0,0.0,0.0,0.0,-10.607065,-128.68277,1.6974573,0.0,0.0,0.0,0.0,0.0,0.0,0.0,-8.49317,43.986397,4.268698,
1.7578124476131056,75,0.036743164,-0.7432251,0.7918701,0.24414062,-0.061523438,0.36914062,0.0,0.0,0.0,0.0,0.0,0.0,0.0,0.0,0.0,0.0,0.0,-0.19154587,0.053243622,-0.98014873,-0.99261475,0.05078125,-1.0023193,0.40820312,-1.8691406,0.12988281,32.51818,-3.9655933,1.102308,-20.292116,-1.0267334,-0.044067383,-0.7207031,0.4033203,2.2626953,-0.047851562,40.88997,-18.260647,-52.209324,-6.0323544,-0.29608154,-1.0991211,1.1409912,1.4726562,3.53125,3.165039,35.857018,3.6368828,-119.92926,-17.065525,0.0,0.0,0.0,0.0,0.0,0.0,0.0,-12.1739645,-125.42293,-6.1085606,0.0,0.0,0.0,0.0,0.0,0.0,0.0,0.19154587,-0.053243622,0.98014873,0.9397583,-0.12695312,-0.28198242,0.43945312,-0.6845703,-0.140625,11.326512,3.9655933,-1.102308,20.292116,-0.97680664,-0.04864502,-0.17388916,0.06347656,0.19824219,0.09472656,5.4291024,4.0021367,-57.55726,12.398528,-0.27478027,0.6470947,0.673645,0.119140625,-0.07324219,0.0078125,6.2444735,9.764364,-128.85385,4.031082,0.0,0.0,0.0,0.0,0.0,0.0,0.0,-9.993103,-128.48679,0.96018314,0.0,0.0,0.0,0.0,0.0,0.0,0.0,-8.625032,43.982307,4.0747557,
1.7812499469146137,76,0.13067627,-0.78326416,0.81378174,0.08886719,-0.08300781,0.25195312,0.0,0.0,0.0,0.0,0.0,0.0,0.0,0.0,0.0,0.0,0.0,-0.19781622,0.051320337,-0.9789422,-0.8129883,0.3595581,-0.4119873,-1.0898438,-2.28125,-0.33789062,32.5261,-4.0954084,1.0624902,-20.26714,-1.0493164,0.33862305,-0.6524658,0.42578125,1.0234375,-0.3876953,43.23879,-19.002495,-51.661373,-6.9028435,0.91516113,-2.0,0.97454834,0.17773438,0.62402344,0.16796875,34.430813,5.3004456,-118.38893,-18.877834,0.0,0.0,0.0,0.0,0.0,0.0,0.0,-10.353943,-124.808716,-8.204596,0.0,0.0,0.0,0.0,0.0,0.0,0.0,0.19781622,-0.051320337,0.9789422,0.87957764,-0.039855957,-0.20837402,0.0087890625,-0.75878906,-0.095703125,10.359285,4.0954084,-1.0624902,20.26714,-0.9456177,0.08129883,-0.15740967,0.17773438,0.19726562,0.056640625,4.645617,5.0363827,-57.47674,12.166476,-0.2989502,0.65875244,0.62054443,0.13867188,-0.07324219,0.025390625,6.676381,10.873222,-128.76137,3.7502546,0.0,0.0,0.0,0.0,0.0,0.0,0.0,-8.887943,-128.34962,0.7149458,0.0,0.0,0.0,0.0,0.0,0.0,0.0,-8.496511,44.009144,4.024049,
1.8046874462161218,77,0.11456299,-0.8083496,0.8511963,0.26367188,-0.18554688,0.046875,0.0,0.0,0.0,0.0,0.0,0.0,0.0,0.0,0.0,0.0,0.0,-0.19419476,0.054157503,-0.97958803,-0.97576904,0.020690918,-0.21081543,-1.6748047,-2.3427734,0.4794922,33.35958,-4.0204334,1.1212282,-20.280508,-0.87280273,0.2277832,-0.49804688,-0.44433594,-0.4951172,-0.5175781,43.945103,-21.076256,-51.99387,-8.805952,1.3652954,-1.2734375,1.1555176,-0.8886719,0.48632812,-0.68066406,34.628506,3.2254143,-118.69678,-20.859596,0.0,0.0,0.0,0.0,0.0,0.0,0.0,-12.222795,-125.34085,-10.024733,0.0,0.0,0.0,0.0,0.0,0.0,0.0,0.19419476,-0.054157503,0.97958803,0.9727173,-0.16430664,-0.21362305,-0.27246094,-0.6845703,-0.03515625,9.863682,4.0204334,-1.1212282,20.280508,-0.9573364,0.1161499,-0.14550781,0.049804688,0.33398438,0.040039062,3.8474088,5.6995707,-57.476414,11.880656,-0.25360107,0.685791,0.5980835,0.041015625,-0.053710938,-0.028320312,7.1805363,11.416169,-128.72008,3.0983543,0.0,0.0,0.0,0.0,0.0,0.0,0.0,-8.352542,-128.25117,0.11999035,0.0,0.0,0.0,0.0,0.0,0.0,0.0,-8.634312,43.97461,4.142857,
1.8281249455176298,78,-0.00793457,-0.6519165,0.79455566,0.4580078,-0.32617188,-0.10058594,0.0,0.0,0.0,0.0,0.0,0.0,0.0,0.0,0.0,0.0,0.0,-0.19850135,0.062463455,-0.978174,-0.9804077,-0.18029785,-0.11395264,-1.4667969,-2.0722656,0.2578125,35.922043,-4.1095934,1.293187,-20.251234,-0.76342773,-0.008728027,-0.48083496,-0.4638672,-1.9072266,-0.5126953,44.392452,-23.659107,-51.032097,-8.929802,1.0829468,-0.92510986,1.354065,-1.0371094,-0.8808594,-1.5507812,35.658443,-1.0409355,-118.56432,-19.62724,0.0,0.0,0.0,0.0,0.0,0.0,0.0,-16.479752,-124.93477,-8.612751,0.0,0.0,0.0,0.0,0.0,0.0,0.0,0.19850135,-0.062463455,0.978174,0.9736328,-0.33166504,-0.13903809,-0.42285156,-0.6660156,-0.05078125,9.610367,4.1095934,-1.293187,20.251234,-0.94714355,0.105895996,-0.049072266,0.08984375,0.39160156,0.0029296875,3.4506547,6.070209,-57.569546,11.408071,-0.2774048,0.7139282,0.64453125,-0.0546875,-0.07324219,-0.046875,7.762961,11.522051,-128.78583,2.3033314,0.0,0.0,0.0,0.0,0.0,0.0,0.0,-8.253572,-128.2842,-0.62603474,0.0,0.0,0.0,0.0,0.0,0.0,0.0,-8.6714325,43.92303,4.5645,
1.851562444819138,79,-0.051635742,-0.53686523,0.6991577,0.38085938,-0.40234375,-0.12011719,0.0,0.0,0.0,0.0,0.0,0.0,0.0,0.0,0.0,0.0,0.0,-0.20299038,0.07383557,-0.97653735,-0.71899414,-0.42114258,-0.08892822,-1.1630859,-1.7431641,-0.038085938,38.337257,-4.2025294,1.5286251,-20.217352,-0.694397,-0.016235352,-0.49224854,-0.14648438,-3.1826172,-0.18164062,43.030163,-25.755634,-49.955387,-8.601194,0.6221924,-0.947937,1.4017944,-0.9042969,-1.8896484,-2.1308594,36.516644,-6.373707,-118.86064,-16.542595,0.0,0.0,0.0,0.0,0.0,0.0,0.0,-21.97192,-124.37432,-5.2949924,0.0,0.0,0.0,0.0,0.0,0.0,0.0,0.20299038,-0.07383557,0.97653735,0.9938965,-0.3848877,-0.10430908,-0.2919922,-0.5908203,-0.052734375,9.64775,4.2025294,-1.5286251,20.217352,-0.9232788,0.08679199,-0.009765625,0.171875,0.60253906,-0.032226562,3.5640326,5.988331,-57.755623,11.049054,-0.2904663,0.72509766,0.62194824,-0.09277344,-0.111328125,-0.15820312,8.543253,11.303822,-128.95433,1.7326136,0.0,0.0,0.0,0.0,0.0,0.0,0.0,-8.483646,-128.46584,-1.1046171,0.0,0.0,0.0,0.0,0.0,0.0,0.0,-8.656362,43.868694,5.1162686,
1.874999944120646,80,-0.028686523,-0.5552368,0.6627197,0.38085938,-0.33007812,-0.025390625,0.0,0.0,0.0,0.0,0.0,0.0,0.0,0.0,0.0,0.0,0.0,-0.20025182,0.084139764,-0.9762043,-0.5809326,-0.43237305,-0.09362793,-0.3857422,-1.1884766,0.013671875,40.50399,-4.145833,1.7419538,-20.210455,-0.7220459,-0.051940918,-0.4824829,-0.13183594,-4.0029297,0.18554688,39.875767,-27.211735,-48.986214,-8.175053,0.11932373,-0.9977417,1.3241577,-0.5878906,-2.5371094,-2.7148438,37.300713,-12.858874,-119.40903,-12.841505,0.0,0.0,0.0,0.0,0.0,0.0,0.0,-28.660877,-123.57592,-1.3023224,0.0,0.0,0.0,0.0,0.0,0.0,0.0,0.20025182,-0.084139764,0.9762043,0.9608154,-0.274292,-0.07171631,-0.048828125,-0.5732422,0.0,9.961564,4.145833,-1.7419538,20.210455,-0.9416504,0.08679199,-0.13574219,-0.052734375,0.71972656,0.0068359375,3.8576255,5.692689,-57.946144,10.844503,-0.2855835,0.70758057,0.6090088,-0.22851562,-0.091796875,-0.19335938,9.214649,11.207026,-129.0788,1.0896559,0.0,0.0,0.0,0.0,0.0,0.0,0.0,-8.597082,-128.64862,-1.645031,0.0,0.0,0.0,0.0,0.0,0.0,0.0,-8.79859,43.781048,5.5784025,
1.898437443422154,81,0.011169434,-0.59436035,0.635376,0.22558594,-0.26171875,0.06640625,0.0,0.0,0.0,0.0,0.0,0.0,0.0,0.0,0.0,0.0,0.0,-0.19740683,0.09207527,-0.97605044,-0.5692749,-0.3378296,-0.07623291,0.3720703,-0.84765625,0.22949219,42.174152,-4.0869336,1.9062434,-20.20727,-0.77716064,-0.06237793,-0.4204712,0.16699219,-4.553711,0.4951172,35.272976,-28.233599,-48.21641,-7.7851267,-0.44158936,-1.0044556,1.1563721,-0.39160156,-2.8222656,-3.0996094,37.953945,-20.327423,-119.79468,-8.915739,0.0,0.0,0.0,0.0,0.0,0.0,0.0,-36.265244,-122.262436,2.9221516,0.0,0.0,0.0,0.0,0.0,0.0,0.0,0.19740683,-0.09207527,0.97605044,0.8778076,-0.17602539,-0.23358154,0.0087890625,-0.7402344,-0.05859375,9.972812,4.0869336,-1.9062434,20.20727,-0.93963623,0.021911621,-0.27478027,-0.20117188,0.8173828,-0.01171875,4.3375216,5.771385,-58.05016,10.512005,-0.32312012,0.6381836,0.64801025,-0.19042969,-0.091796875,-0.23144531,9.418909,12.1679535,-129.02727,0.15553093,0.0,0.0,0.0,0.0,0.0,0.0,0.0,-7.650337,-128.687,-2.497714,0.0,0.0,0.0,0.0,0.0,0.0,0.0,-8.935423,43.70626,5.9302063,
1.921874942723662,82,0.026062012,-0.64501953,0.6800537,0.10839844,-0.2109375,0.15917969,0.0,0.0,0.0,0.0,0.0,0.0,0.0,0.0,0.0,0.0,0.0,-0.19954172,0.09433891,-0.9754113,-0.626709,-0.07714844,0.11035156,1.0166016,-0.7363281,0.33398438,43.120026,-4.1311326,1.953108,-20.194035,-0.8613281,0.028381348,-0.3345337,0.5830078,-4.7773438,0.5341797,30.366928,-29.133638,-47.65005,-7.3608837,-0.796875,-0.91656494,0.82141113,-0.5048828,-2.8027344,-3.0439453,38.496307,-27.921913,-119.614334,-5.01517,0.0,0.0,0.0,0.0,0.0,0.0,0.0,-43.91001,-120.28316,6.9933624,0.0,0.0,0.0,0.0,0.0,0.0,0.0,0.19954172,-0.09433891,0.9754113,0.8470459,-0.12609863,-0.36431885,-0.064453125,-0.8339844,-0.095703125,9.047263,4.1311326,-1.953108,20.194035,-0.9293823,-0.0037841797,-0.3378296,-0.20019531,0.8173828,-0.06738281,4.629482,6.665047,-57.96126,9.898973,-0.32086182,0.67926025,0.6442871,-0.095703125,-0.034179688,-0.19433594,9.573126,14.445347,-128.72621,-0.99012375,0.0,0.0,0.0,0.0,0.0,0.0,0.0,-5.3774605,-128.48444,-3.6088333,0.0,0.0,0.0,0.0,0.0,0.0,0.0,-8.762093,43.729332,6.0218506,
1.9453124420251702,83,0.09490967,-0.70751953,0.7461548,0.12792969,-0.099609375,0.21484375,0.0,0.0,0.0,0.0,0.0,0.0,0.0,0.0,0.0,0.0,0.0,-0.20994699,0.093504235,-0.9733743,-0.77697754,0.19537354,0.526062,1.6035156,-0.97265625,0.5292969,44.00283,-4.3465524,1.9358275,-20.151863,-0.9022827,0.038879395,-0.23461914,0.90527344,-4.6972656,0.43847656,25.841427,-30.342146,-46.917927,-6.6212196,-0.95666504,-0.9100952,0.6222534,-0.640625,-2.3642578,-2.7714844,38.47649,-35.75043,-118.494125,-0.7995558,0.0,0.0,0.0,0.0,0.0,0.0,0.0,-51.724003,-117.54071,11.208065,0.0,0.0,0.0,0.0,0.0,0.0,0.0,0.20994699,-0.093504235,0.9733743,0.8798828,-0.08288574,-0.39135742,-0.044921875,-0.98339844,-0.13378906,7.5502663,4.3465524,-1.9358275,20.151863,-0.9378052,-0.047973633,-0.4118042,-0.125,0.8359375,-0.048828125,4.7215285,8.140328,-57.748306,9.207152,-0.30090332,0.6574707,0.65008545,-9.765625E-4,0.0234375,-0.15722656,9.857182,17.500927,-128.24483,-2.1514559,0.0,0.0,0.0,0.0,0.0,0.0,0.0,-2.325306,-128.08241,-4.7608356,0.0,0.0,0.0,0.0,0.0,0.0,0.0,-8.294811,43.826588,5.999174,
1.9687499413266782,84,0.09490967,-0.70751953,0.7461548,0.12792969,-0.099609375,0.21484375,0.0,0.0,0.0,0.0,0.0,0.0,0.0,0.0,0.0,0.0,0.0,-0.20994699,0.093504235,-0.9733743,-0.663208,0.18334961,0.43554688,1.4707031,-0.71972656,0.421875,45.59854,-4.3465524,1.9358275,-20.151863,-0.82354736,0.018859863,-0.13165283,0.6611328,-4.3945312,0.30273438,21.466585,-31.354883,-46.123596,-5.636322,-1.0107422,-0.93341064,0.61572266,-0.8457031,-1.5986328,-2.7441406,38.020065,-43.156006,-116.52363,3.9329844,0.0,0.0,0.0,0.0,0.0,0.0,0.0,-59.014862,-114.26956,15.918859,0.0,0.0,0.0,0.0,0.0,0.0,0.0,0.20994699,-0.093504235,0.9733743,0.89715576,-0.09185791,-0.42755127,-0.15722656,-0.98339844,-0.15039062,6.655787,4.3465524,-1.9358275,20.151863,-0.93341064,-0.004638672,-0.3427124,-0.048828125,0.83496094,-0.029296875,4.642875,9.574469,-57.49924,8.561528,-0.3411255,0.6421509,0.6637573,0.13378906,0.04296875,-0.140625,10.460064,20.45014,-127.712265,-3.2015123,0.0,0.0,0.0,0.0,0.0,0.0,0.0,0.6230488,-127.609985,-5.8199472,0.0,0.0,0.0,0.0,0.0,0.0,0.0,-8.294811,43.826588,5.999174,
1.9921874406281863,85,0.14312744,-0.6635132,0.8112793,0.5722656,0.08105469,0.14453125,0.0,0.0,0.0,0.0,0.0,0.0,0.0,0.0,0.0,0.0,0.0,-0.23933715,0.09649831,-0.9662838,-0.7550659,0.17907715,0.5194092,0.5058594,-0.48046875,0.13769531,46.4362,-4.955021,1.9978144,-20.005072,-0.8485718,-0.061828613,-0.078430176,0.32128906,-3.788086,0.28125,17.022663,-32.501274,-45.52406,-4.881565,-1.1191406,-0.39300537,0.5338135,-0.7636719,-0.87597656,-2.5673828,38.422134,-49.89811,-114.18077,8.20475,0.0,0.0,0.0,0.0,0.0,0.0,0.0,-65.50031,-110.86923,20.281498,0.0,0.0,0.0,0.0,0.0,0.0,0.0,0.23933715,-0.09649831,0.9662838,0.92492676,-0.09863281,-0.36468506,-0.36328125,-0.98339844,-0.14746094,5.514164,4.955021,-1.9978144,20.005072,-0.9589844,-0.039794922,-0.31744385,0.08496094,0.8730469,-0.047851562,4.5676317,11.461056,-57.30278,7.8293114,-0.31384277,0.66625977,0.6668701,0.22460938,0.19628906,-0.21386719,11.161579,23.646463,-127.23493,-4.313986,0.0,0.0,0.0,0.0,0.0,0.0,0.0,3.8161182,-127.18008,-6.8958817,0.0,0.0,0.0,0.0,0.0,0.0,0.0,-7.9829464,43.83484,6.354866,
2.0156249399296944,86,0.0993042,-0.6084595,0.8019409,0.5527344,0.15625,0.0859375,0.0,0.0,0.0,0.0,0.0,0.0,0.0,0.0,0.0,0.0,0.0,-0.25418878,0.09979228,-0.96214515,-0.8286743,0.27752686,0.6533203,-0.49804688,-0.24121094,-0.08984375,48.133205,-5.262497,2.0660093,-19.919388,-0.86657715,-0.11004639,0.040771484,0.6591797,-3.0214844,0.56640625,13.675356,-33.415466,-44.681946,-3.6970615,-1.659729,-0.35406494,0.48059082,-0.3046875,-0.5410156,-1.8876953,39.143074,-55.56898,-111.37877,12.038037,0.0,0.0,0.0,0.0,0.0,0.0,0.0,-70.87779,-107.29912,24.253525,0.0,0.0,0.0,0.0,0.0,0.0,0.0,0.25418878,-0.09979228,0.96214515,0.9654541,-0.17059326,-0.34649658,-0.71875,-0.98339844,-0.12207031,5.0603957,5.262497,-2.0660093,19.919388,-1.0009766,0.1237793,-0.28625488,0.48535156,0.96484375,-0.046875,4.4301834,12.855486,-57.106655,7.20356,0.12597656,0.5966797,0.7314453,0.28808594,0.5996094,-0.2841797,12.098608,26.121754,-126.74437,-5.4678984,0.0,0.0,0.0,0.0,0.0,0.0,0.0,6.2982445,-126.774,-8.017963,0.0,0.0,0.0,0.0,0.0,0.0,0.0,-8.087593,43.76773,6.6761827,
2.0390624392312025,87,0.056274414,-0.6094971,0.8192749,0.37890625,0.18847656,0.08300781,0.0,0.0,0.0,0.0,0.0,0.0,0.0,0.0,0.0,0.0,0.0,-0.26679876,0.10125262,-0.9584872,-1.0662231,0.32403564,0.8120117,-1.5009766,-0.23339844,-0.3935547,48.59399,-5.5235624,2.0962434,-19.843657,-0.80633545,0.0024414062,0.12408447,0.5859375,-1.78125,0.42773438,10.672616,-33.923088,-44.633453,-3.7370548,-1.8787231,0.046325684,-0.20013428,0.10644531,-0.453125,-1.3164062,39.14606,-59.399136,-109.72413,13.610428,0.0,0.0,0.0,0.0,0.0,0.0,0.0,-74.45451,-104.9871,25.905071,0.0,0.0,0.0,0.0,0.0,0.0,0.0,0.26679876,-0.10125262,0.9584872,1.1407471,-0.17089844,-0.35021973,-0.86816406,-1.0947266,-0.13964844,5.101847,5.5235624,-2.0962434,19.843657,-1.137085,0.12719727,-0.17651367,0.47265625,1.1386719,-0.10058594,4.676841,14.126285,-56.81633,6.402853,-0.13928223,0.7817383,0.6380005,0.22851562,1.1376953,-0.6875,12.976661,28.717468,-126.11339,-6.694626,0.0,0.0,0.0,0.0,0.0,0.0,0.0,8.881733,-126.299736,-9.132224,0.0,0.0,0.0,0.0,0.0,0.0,0.0,-8.240074,43.699192,6.909952,
2.0624999385327105,88,0.021850586,-0.7300415,0.9017334,0.24316406,0.1484375,-0.0146484375,0.0,0.0,0.0,0.0,0.0,0.0,0.0,0.0,0.0,0.0,0.0,-0.2740166,0.100651786,-0.956552,-1.1724854,0.11590576,0.7871704,-1.9375,-0.4404297,-0.6669922,49.14208,-5.6729927,2.0838041,-19.803593,-0.75097656,-0.061523438,0.15509033,0.34570312,-0.27539062,-0.095703125,9.812615,-34.327557,-44.453163,-3.574358,-2.0,0.23486328,-0.5628662,0.028320312,0.30371094,-0.29003906,39.205193,-60.959568,-108.84979,14.610689,0.0,0.0,0.0,0.0,0.0,0.0,0.0,-75.8609,-103.8832,26.999872,0.0,0.0,0.0,0.0,0.0,0.0,0.0,0.2740166,-0.100651786,0.956552,1.2467041,-0.24945068,-0.19854736,-0.7949219,-0.87109375,-0.1015625,5.45237,5.6729927,-2.0838041,19.803593,-1.185669,0.0076293945,-0.061157227,0.4970703,1.3115234,-0.15527344,5.084999,15.423798,-56.43659,5.676693,-0.32513428,0.6221924,0.68530273,0.40234375,1.6572266,-1.0732422,13.432176,31.925491,-125.18417,-8.027006,0.0,0.0,0.0,0.0,0.0,0.0,0.0,12.096756,-125.83496,-10.534214,0.0,0.0,0.0,0.0,0.0,0.0,0.0,-8.374056,43.662243,6.9931517,
2.0859374378342186,89,0.070251465,-0.89508057,0.95544434,0.22363281,0.12988281,-0.052734375,0.0,0.0,0.0,0.0,0.0,0.0,0.0,0.0,0.0,0.0,0.0,-0.2764252,0.099908665,-0.9558874,-1.0169678,-0.32861328,0.6561279,-1.5400391,-0.3095703,-0.48632812,49.764355,-5.7228584,2.0684187,-19.789831,-0.65545654,-0.09649658,-0.16851807,0.14257812,1.2685547,-0.48535156,11.142492,-34.64606,-44.2716,-3.4680023,-2.0,0.34429932,-0.43798828,0.20019531,1.1748047,0.5498047,39.61876,-60.10636,-109.14774,14.68689,0.0,0.0,0.0,0.0,0.0,0.0,0.0,-74.90084,-104.464966,27.311592,0.0,0.0,0.0,0.0,0.0,0.0,0.0,0.2764252,-0.099908665,0.9558874,1.2369995,-0.25653076,-0.24401855,-0.7216797,-0.7216797,-0.064453125,5.999107,5.7228584,-2.0684187,19.789831,-1.21875,-0.06060791,-0.06652832,0.5048828,1.5429688,-0.24707031,5.8546767,16.376806,-56.08675,5.0328465,-0.38433838,0.77111816,0.72058105,0.5185547,2.1191406,-1.5341797,13.655422,35.13792,-124.105194,-9.390364,0.0,0.0,0.0,0.0,0.0,0.0,0.0,15.347979,-125.42561,-11.952379,0.0,0.0,0.0,0.0,0.0,0.0,0.0,-8.595634,43.608845,7.0436654,
2.1093749371357267,90,0.13397217,-0.9840088,0.9163208,0.20410156,0.16699219,-0.072265625,0.0,0.0,0.0,0.0,0.0,0.0,0.0,0.0,0.0,0.0,0.0,-0.27921242,0.09940332,-0.95516986,-0.8029175,-0.37316895,0.3171997,-0.42089844,0.39746094,-0.36328125,50.097088,-5.780561,2.0579572,-19.774977,-0.560791,-0.10028076,-0.49780273,-0.11816406,2.5634766,-0.796875,13.921423,-34.46289,-44.27355,-3.0697918,-2.0,-0.07531738,-0.16638184,0.7470703,1.8515625,1.3369141,40.39136,-56.737617,-110.595184,14.016811,0.0,0.0,0.0,0.0,0.0,0.0,0.0,-71.440575,-106.63278,26.991676,0.0,0.0,0.0,0.0,0.0,0.0,0.0,0.27921242,-0.09940332,0.95516986,1.2400513,-0.13128662,-0.2487793,-0.72265625,-0.6464844,-0.12011719,6.464081,5.780561,-2.0579572,19.774977,-1.2506714,-1.8310547E-4,-0.026000977,0.6279297,1.8310547,-0.31835938,6.874065,17.324398,-55.754185,4.5135946,-0.3895874,0.7720947,0.6369629,0.51660156,2.6582031,-2.0673828,13.6620455,38.725803,-122.81229,-10.724536,0.0,0.0,0.0,0.0,0.0,0.0,0.0,19.023819,-125.0217,-13.327409,0.0,0.0,0.0,0.0,0.0,0.0,0.0,-8.837632,43.55053,7.115639,
2.1328124364372347,91,-0.05456543,-0.89038086,1.3898315,-0.3955078,-0.25585938,-0.24902344,0.0,0.0,0.0,0.0,0.0,0.0,0.0,0.0,0.0,0.0,0.0,-0.2815655,0.10052725,-0.9543432,-1.5310059,-0.45843506,0.31854248,1.2050781,-0.5361328,-0.68066406,50.31405,-5.829279,2.0812256,-19.757864,-1.5706177,-0.5856323,-0.018066406,-0.41308594,1.8134766,0.22167969,17.443016,-34.393745,-43.997593,-2.1291332,1.954834,-2.0,-1.9798584,0.484375,3.3886719,5.4208984,42.44196,-53.499187,-111.84003,12.669049,0.0,0.0,0.0,0.0,0.0,0.0,0.0,-68.260605,-110.01407,26.050383,0.0,0.0,0.0,0.0,0.0,0.0,0.0,0.2815655,-0.10052725,0.9543432,1.4671631,-0.48217773,-0.07470703,-0.7236328,-0.57128906,-0.23242188,6.9666915,5.829279,-2.0812256,19.757864,-1.3641357,0.24188232,0.1538086,0.8466797,2.118164,-0.5410156,8.399944,18.116478,-55.519314,4.1939354,-0.27770996,0.9540405,0.6862793,0.19042969,3.6191406,-2.7226562,13.659848,42.572952,-121.32289,-11.870411,0.0,0.0,0.0,0.0,0.0,0.0,0.0,23.098846,-124.81093,-14.819663,0.0,0.0,0.0,0.0,0.0,0.0,0.0,-8.580753,43.599667,7.12427,
2.156249935738743,92,-0.31878662,-0.85375977,1.0982056,-0.140625,-0.953125,-0.3125,0.0,0.0,0.0,0.0,0.0,0.0,0.0,0.0,0.0,0.0,0.0,-0.27774563,0.11437431,-0.9539355,-1.2651978,-0.2243042,0.7062378,2.397461,-0.3486328,-0.765625,49.751644,-5.750196,2.3679028,-19.749422,-0.6220093,-0.19445801,-0.5540161,2.3173828,2.1347656,-0.390625,20.063599,-33.106064,-43.764206,-0.42006493,-1.47052,-0.8535156,-0.006652832,-0.24707031,1.6845703,1.7265625,40.707226,-49.049915,-112.730705,12.858601,0.0,0.0,0.0,0.0,0.0,0.0,0.0,-63.800575,-111.83241,26.344843,0.0,0.0,0.0,0.0,0.0,0.0,0.0,0.27774563,-0.11437431,0.9539355,1.4713745,-0.6320801,-0.07836914,-0.4326172,0.21289062,-0.25097656,6.926737,5.750196,-2.3679028,19.749422,-1.2072754,0.04486084,0.49279785,0.20800781,2.3740234,-0.3876953,10.671694,18.476574,-55.74434,4.304674,-0.347229,0.9627075,0.5917969,-0.040039062,4.5810547,-3.5458984,12.916619,46.3893,-119.92527,-12.66678,0.0,0.0,0.0,0.0,0.0,0.0,0.0,27.383629,-125.07502,-16.178469,0.0,0.0,0.0,0.0,0.0,0.0,0.0,-7.77581,43.688602,7.502133,
2.179687435040251,93,-0.03137207,-0.80773926,1.1248169,-0.25683594,-0.96191406,0.028320312,0.0,0.0,0.0,0.0,0.0,0.0,0.0,0.0,0.0,0.0,0.0,-0.26700824,0.13417861,-0.9544347,-0.5342407,0.072631836,-1.0220337,2.1396484,2.3476562,0.103515625,47.0082,-5.5279,2.7779133,-19.759756,-0.8569336,0.3017578,-0.55029297,1.4511719,2.696289,-0.71875,20.86394,-30.357464,-44.921776,-0.8547306,-1.3880005,0.30371094,0.7557373,0.78808594,-0.8857422,2.163086,37.75344,-41.977528,-114.756134,10.809519,0.0,0.0,0.0,0.0,0.0,0.0,0.0,-56.826115,-114.317245,24.204533,0.0,0.0,0.0,0.0,0.0,0.0,0.0,0.26700824,-0.13417861,0.9544347,1.5188599,-0.25054932,0.22814941,0.6064453,1.1445312,0.055664062,5.500357,5.5279,-2.7779133,19.759756,-1.4100342,-0.00982666,0.7023926,0.375,2.9296875,-0.3046875,14.624906,17.684378,-56.515648,5.135582,-0.69018555,0.9614258,0.46380615,0.017578125,5.486328,-4.8183594,12.894647,49.390823,-118.47655,-13.367088,0.0,0.0,0.0,0.0,0.0,0.0,0.0,31.296955,-125.74888,-17.831373,0.0,0.0,0.0,0.0,0.0,0.0,0.0,-7.2218356,43.66652,8.159179,
2.203124934341759,94,0.19104004,-0.45239258,1.091919,0.3623047,-0.51660156,0.033203125,0.0,0.0,0.0,0.0,0.0,0.0,0.0,0.0,0.0,0.0,0.0,-0.25722164,0.1498395,-0.95471656,-0.39666748,0.049865723,-0.037719727,-0.8544922,0.8173828,0.5107422,44.497517,-5.3252854,3.102142,-19.76559,-0.9267578,-0.7848511,-0.8423462,0.9003906,2.1171875,-0.50683594,21.193537,-28.532152,-46.096546,-2.7193642,-0.8226929,-1.3105469,0.44189453,1.0625,-0.7451172,0.90527344,34.642975,-36.82496,-116.94766,7.1808796,0.0,0.0,0.0,0.0,0.0,0.0,0.0,-52.104504,-116.48959,20.083977,0.0,0.0,0.0,0.0,0.0,0.0,0.0,0.25722164,-0.1498395,0.95471656,1.213501,-0.1439209,0.43023682,0.6386719,1.7402344,0.39453125,2.829508,5.3252854,-3.102142,19.76559,-1.4180908,-0.18322754,0.9760132,0.3642578,3.3134766,-0.0546875,20.533497,15.767069,-57.521004,6.4016,-0.69525146,1.0971069,0.49316406,0.10546875,6.5664062,-6.4228516,14.768722,51.3917,-116.62898,-14.196011,0.0,0.0,0.0,0.0,0.0,0.0,0.0,34.86636,-126.40978,-19.806671,0.0,0.0,0.0,0.0,0.0,0.0,0.0,-7.0930395,43.569946,8.749176,
2.226562433643267,95,0.018676758,-0.25097656,1.0922241,-1.2480469,-0.31835938,-0.18652344,0.0,0.0,0.0,0.0,0.0,0.0,0.0,0.0,0.0,0.0,0.0,-0.25170913,0.1539996,-0.9555807,-0.92962646,-0.48797607,-0.37530518,-0.51464844,1.703125,-1.8671875,40.93862,-5.2111597,3.188269,-19.783485,-0.91259766,0.128479,-0.8562622,2.1455078,1.4833984,-0.25390625,20.714077,-26.371387,-47.296997,-4.20212,-0.69226074,-0.48443604,0.76342773,1.0556641,-0.18847656,0.5292969,31.064987,-31.809128,-118.53699,4.8393536,0.0,0.0,0.0,0.0,0.0,0.0,0.0,-47.185905,-117.991,17.616657,0.0,0.0,0.0,0.0,0.0,0.0,0.0,0.25170913,-0.1539996,0.9555807,1.5234985,0.22961426,0.5326538,1.0341797,3.1972656,0.15429688,0.5188877,5.2111597,-3.188269,19.783485,-1.5598755,0.20666504,0.20019531,2.024414,4.3740234,0.03515625,28.423485,13.269537,-58.425953,8.232609,-2.0,1.4641113,1.7519531,0.24121094,4.3964844,-5.5927734,18.730083,53.34304,-113.56755,-15.008562,0.0,0.0,0.0,0.0,0.0,0.0,0.0,38.876083,-125.608925,-21.784025,0.0,0.0,0.0,0.0,0.0,0.0,0.0,-6.3736396,43.6894,8.719779,
2.249999932944775,96,-0.16790771,-0.34503174,0.87060547,-1.2285156,-0.41015625,-0.22265625,0.0,0.0,0.0,0.0,0.0,0.0,0.0,0.0,0.0,0.0,0.0,-0.22793695,0.14663585,-0.9625868,-0.99780273,-0.32592773,-0.20318604,-1.4404297,2.633789,-1.703125,36.66327,-4.7190003,3.0358164,-19.928532,-0.9746094,0.04071045,-0.6923218,-0.390625,1.2802734,-0.140625,19.618076,-21.845688,-49.025467,-4.2968607,-0.5196533,-0.53448486,0.71398926,0.69433594,-0.0107421875,0.21289062,31.653648,-24.467802,-120.62028,2.621893,0.0,0.0,0.0,0.0,0.0,0.0,0.0,-39.879135,-120.05838,15.357624,0.0,0.0,0.0,0.0,0.0,0.0,0.0,0.22793695,-0.14663585,0.9625868,1.3739624,-0.045166016,0.23736572,1.2080078,4.3554688,0.046875,4.4972324,4.7190003,-3.0358164,19.928532,-1.7733154,0.5109863,-0.7749634,0.01953125,3.7421875,-0.31445312,39.245064,8.758237,-59.403473,12.477825,-0.7316284,-1.9179077,1.2246094,-1.953125,4.203125,-5.720703,21.917439,53.248947,-109.845764,-13.262527,0.0,0.0,0.0,0.0,0.0,0.0,0.0,41.117096,-123.85458,-20.790998,0.0,0.0,0.0,0.0,0.0,0.0,0.0,-5.883783,43.87711,8.077286,
2.273437432246283,97,-0.0034179688,-0.5373535,1.0188599,-0.453125,-0.36621094,-0.41992188,0.0,0.0,0.0,0.0,0.0,0.0,0.0,0.0,0.0,0.0,0.0,-0.21949553,0.14674897,-0.964637,-1.1063232,-0.29559326,-0.35717773,-0.16894531,2.5732422,0.14648438,32.548676,-4.544238,3.038159,-19.970976,-0.92401123,0.2052002,-0.67626953,-0.84375,1.0068359,-0.15917969,17.619537,-18.612782,-50.30051,-5.572871,-0.40960693,-0.4647827,0.75408936,0.13769531,0.052734375,-0.06542969,32.944477,-19.818312,-122.084015,0.1024766,0.0,0.0,0.0,0.0,0.0,0.0,0.0,-35.120766,-121.49182,12.965965,0.0,0.0,0.0,0.0,0.0,0.0,0.0,0.21949553,-0.14674897,0.964637,1.6607666,-0.15264893,-1.1963501,1.3310547,3.6425781,0.7128906,8.746689,4.544238,-3.038159,19.970976,-1.4486084,-0.526062,-0.9588623,-1.0410156,2.7861328,0.46484375,48.379677,4.5290833,-59.88307,15.698288,0.11114502,-1.8932495,-2.0,0.36816406,0.984375,-0.8017578,22.902735,51.542458,-106.46918,-12.697744,0.0,0.0,0.0,0.0,0.0,0.0,0.0,40.836693,-121.147354,-21.059967,0.0,0.0,0.0,0.0,0.0,0.0,0.0,-5.111087,44.018044,7.859396,
2.296874931547791,98,0.0357666,-0.47528076,0.94226074,-0.123046875,-0.3720703,-0.6044922,0.0,0.0,0.0,0.0,0.0,0.0,0.0,0.0,0.0,0.0,0.0,-0.22104883,0.15883648,-0.96226925,-0.7832031,0.020324707,-0.22973633,0.19042969,2.6669922,0.125,29.194765,-4.576395,3.2884073,-19.921955,-0.96417236,-0.11254883,-0.45568848,0.2734375,0.7919922,-0.36816406,15.543598,-15.680687,-51.213715,-7.436943,-0.4130249,-0.50775146,0.7271118,-0.30273438,0.07714844,-0.1953125,34.661343,-15.0608635,-123.04185,-2.7919927,0.0,0.0,0.0,0.0,0.0,0.0,0.0,-30.31277,-122.43325,10.132858,0.0,0.0,0.0,0.0,0.0,0.0,0.0,0.22104883,-0.15883648,0.96226925,1.7537842,-0.008483887,-0.44091797,1.6582031,4.317383,0.09472656,14.702503,4.576395,-3.2884073,19.921955,-1.6405029,-0.45672607,-0.53912354,0.22363281,0.75097656,0.7246094,56.278282,-0.09777737,-60.096664,19.2296,0.86920166,1.4967651,1.7504883,0.46679688,-0.36523438,1.3935547,21.484606,47.626587,-104.58411,-11.260693,0.0,0.0,0.0,0.0,0.0,0.0,0.0,36.601818,-118.96976,-19.716463,0.0,0.0,0.0,0.0,0.0,0.0,0.0,-4.7373567,43.966114,8.34549,
2.3203124308492993,99,0.099853516,-0.4553833,0.77264404,-0.24121094,0.0078125,-0.17285156,0.0,0.0,0.0,0.0,0.0,0.0,0.0,0.0,0.0,0.0,0.0,-0.22092697,0.16511339,-0.9613065,-0.77020264,-0.024841309,-0.11413574,0.01953125,2.4960938,-0.05859375,26.1279,-4.5738726,3.418359,-19.902023,-0.9824829,-0.024780273,-0.3173828,0.9189453,0.57128906,-0.55859375,13.591292,-12.670957,-51.923138,-8.861898,-0.42749023,-0.62042236,0.677124,-0.3984375,0.078125,-0.25,34.631424,-9.97967,-123.75154,-4.480793,0.0,0.0,0.0,0.0,0.0,0.0,0.0,-25.235443,-123.141205,8.439302,0.0,0.0,0.0,0.0,0.0,0.0,0.0,0.22092697,-0.16511339,0.9613065,1.4035645,0.20532227,-0.049316406,1.2431641,4.432617,-0.42089844,20.56886,4.5738726,-3.418359,19.902023,-1.2392578,-0.20263672,-0.7303467,0.60839844,-0.87109375,1.1572266,61.696407,-4.294112,-59.613205,23.45113,0.41992188,1.7528687,1.8080444,1.2714844,-2.2490234,2.6279297,20.051908,42.357994,-104.46373,-8.142471,0.0,0.0,0.0,0.0,0.0,0.0,0.0,30.251839,-118.28788,-16.038853,0.0,0.0,0.0,0.0,0.0,0.0,0.0,-4.3609557,43.967903,8.554131,
2.3437499301508073,100,0.14611816,-0.35162354,0.5366821,0.5517578,0.5048828,0.31054688,0.0,0.0,0.0,0.0,0.0,0.0,0.0,0.0,0.0,0.0,0.0,-0.22356811,0.16036947,-0.9614908,-0.85821533,-0.12408447,-0.09674072,-0.8701172,2.8701172,-0.34277344,23.202507,-4.6285543,3.3201454,-19.905842,-0.85369873,0.013977051,-0.22814941,-0.7470703,0.5126953,-0.44433594,10.992951,-9.545676,-52.692123,-10.488642,-0.4144287,-0.7199707,0.631958,-0.07324219,-0.022460938,0.009765625,34.356922,-5.517467,-124.48535,-6.451812,0.0,0.0,0.0,0.0,0.0,0.0,0.0,-20.905712,-123.89806,6.304558,0.0,0.0,0.0,0.0,0.0,0.0,0.0,0.22356811,-0.16036947,0.9614908,1.4534912,-0.06378174,3.6621094E-4,0.34179688,4.5820312,-0.40429688,27.053383,4.6285543,-3.3201454,19.905842,-0.9899292,-0.11999512,-0.92388916,1.1142578,-2.3017578,1.3847656,65.119,-8.169738,-58.269,28.025524,0.023010254,1.2849731,1.4863892,0.95996094,-4.2851562,3.6875,18.810087,35.750298,-105.5452,-3.9481964,0.0,0.0,0.0,0.0,0.0,0.0,0.0,22.081388,-118.488434,-10.711479,0.0,0.0,0.0,0.0,0.0,0.0,0.0,-4.801312,43.942608,8.445711,
2.3671874294523154,101,-0.018859863,-0.3017578,0.45941162,0.25976562,0.7373047,0.37890625,0.0,0.0,0.0,0.0,0.0,0.0,0.0,0.0,0.0,0.0,0.0,-0.22664604,0.14817157,-0.9627036,-0.8869629,-0.26348877,-0.13397217,-1.8164062,3.2070312,-0.69921875,19.982529,-4.692276,3.0676112,-19.930948,-1.0117188,-0.19592285,-0.10058594,-2.2421875,0.6660156,-0.35058594,7.5269685,-5.8478403,-53.410057,-12.23722,-0.41601562,-0.63934326,0.6670532,0.040039062,-0.10058594,0.10253906,36.360928,-1.1151981,-125.17614,-8.588003,0.0,0.0,0.0,0.0,0.0,0.0,0.0,-16.58414,-124.58451,4.075592,0.0,0.0,0.0,0.0,0.0,0.0,0.0,0.22664604,-0.14817157,0.9627036,1.1860962,-0.3036499,-0.20776367,-0.5371094,4.5810547,-0.109375,33.690945,4.692276,-3.0676112,19.930948,-0.7402344,-0.054382324,-0.9788208,0.8330078,-3.4355469,1.5214844,66.9889,-11.905315,-56.129433,32.52303,-0.080322266,0.6295166,0.9107666,0.9169922,-5.283203,3.7714844,17.507748,27.980434,-107.22592,1.1415081,0.0,0.0,0.0,0.0,0.0,0.0,0.0,12.623861,-118.93596,-4.0667286,0.0,0.0,0.0,0.0,0.0,0.0,0.0,-5.639287,43.909718,8.085868,
2.3906249287538235,102,-0.15899658,-0.32104492,0.48632812,-0.12695312,0.5986328,0.22167969,0.0,0.0,0.0,0.0,0.0,0.0,0.0,0.0,0.0,0.0,0.0,-0.23052987,0.13242811,-0.9641272,-0.8416748,-0.2947998,-0.109558105,-2.024414,3.3046875,-0.67871094,16.475716,-4.7726846,2.7416725,-19.960419,-1.0299072,-0.3657837,-0.097961426,-0.7470703,0.6845703,-0.3876953,4.335128,-1.9137082,-53.866856,-13.875736,-0.385437,-0.6744385,0.6946411,0.17578125,-0.08300781,0.1953125,38.209667,3.7739348,-125.58072,-10.659767,0.0,0.0,0.0,0.0,0.0,0.0,0.0,-11.775652,-124.95805,1.9046249,0.0,0.0,0.0,0.0,0.0,0.0,0.0,0.23052987,-0.13242811,0.9641272,0.88275146,-0.3970337,-0.27764893,-0.3251953,4.0947266,0.10839844,38.264015,4.7726846,-2.7416725,19.960419,-0.51538086,-0.123535156,-0.96759033,0.5761719,-4.395508,1.6787109,66.123405,-14.869183,-53.875923,35.49673,-0.37597656,0.74157715,0.9163208,0.98339844,-5.5703125,3.6933594,16.069843,19.611115,-109.59569,5.6130085,0.0,0.0,0.0,0.0,0.0,0.0,0.0,2.765791,-119.79549,2.0969524,0.0,0.0,0.0,0.0,0.0,0.0,0.0,-6.080142,43.95857,7.4917555,
2.4140624280553316,103,-0.23919678,-0.37127686,0.54663086,-0.37695312,0.12792969,0.16601562,0.0,0.0,0.0,0.0,0.0,0.0,0.0,0.0,0.0,0.0,0.0,-0.2312155,0.12198015,-0.96528757,-0.82751465,-0.5321655,-0.0015869141,-1.5117188,3.5078125,9.765625E-4,13.706177,-4.7868776,2.5253673,-19.984446,-1.0283203,-0.17645264,-0.23077393,1.2929688,0.5566406,-0.17480469,1.7406881,1.9369774,-53.881603,-15.307642,-0.4472046,-0.57696533,0.7122803,0.2548828,-0.046875,0.34277344,37.396076,8.9815035,-125.45769,-11.525022,0.0,0.0,0.0,0.0,0.0,0.0,0.0,-6.6565905,-124.83459,0.9291887,0.0,0.0,0.0,0.0,0.0,0.0,0.0,0.2312155,-0.12198015,0.96528757,0.6644287,-0.27697754,-0.45428467,0.49023438,3.2714844,0.33203125,42.413933,4.7868776,-2.5253673,19.984446,-0.3619995,-0.10192871,-1.0023804,0.28515625,-5.258789,1.7246094,64.73976,-17.927692,-51.534134,38.17646,-0.46795654,0.85443115,0.7988281,0.9267578,-5.5527344,3.991211,13.758154,11.353214,-111.67244,11.561493,0.0,0.0,0.0,0.0,0.0,0.0,0.0,-6.758606,-119.95187,9.64462,0.0,0.0,0.0,0.0,0.0,0.0,0.0,-6.03615,44.041462,7.011212,
2.4374999273568396,104,-0.20349121,-0.44744873,0.56170654,-0.22070312,-0.2578125,0.17285156,0.0,0.0,0.0,0.0,0.0,0.0,0.0,0.0,0.0,0.0,0.0,-0.22640878,0.12027151,-0.9666794,-0.96209717,-0.40637207,-0.24255371,0.23046875,3.2236328,0.5527344,12.259498,-4.6873646,2.4899929,-20.01326,-0.9069214,0.30706787,-0.22821045,0.27246094,0.63964844,-0.21386719,3.6397562,5.6348114,-53.484837,-16.877645,-0.4451294,-0.57836914,0.72924805,0.16210938,0.0107421875,0.39746094,34.592396,13.300281,-124.964584,-14.033262,0.0,0.0,0.0,0.0,0.0,0.0,0.0,-2.418931,-124.42418,-1.6784697,0.0,0.0,0.0,0.0,0.0,0.0,0.0,0.22640878,-0.12027151,0.9666794,0.47961426,-0.20172119,-0.45550537,1.0791016,2.5986328,0.37402344,46.09968,4.6873646,-2.4899929,20.01326,-0.27716064,-0.2635498,-1.0078125,-0.49414062,-5.9628906,1.7529297,62.73976,-20.837473,-49.3376,40.084282,-0.55841064,0.97406006,0.8713379,0.96972656,-4.959961,4.553711,10.847308,3.6171741,-113.271866,17.868835,0.0,0.0,0.0,0.0,0.0,0.0,0.0,-15.47271,-119.22594,17.196331,0.0,0.0,0.0,0.0,0.0,0.0,0.0,-5.848246,44.09301,6.8556614,
2.4609374266583477,105,-0.08355713,-0.49230957,0.5581665,-0.37597656,-0.28222656,0.28515625,0.0,0.0,0.0,0.0,0.0,0.0,0.0,0.0,0.0,0.0,0.0,-0.21736065,0.12023125,-0.9687021,-1.0512085,-0.1854248,-0.27618408,0.07714844,2.5488281,0.5683594,11.551505,-4.5000396,2.4891593,-20.055136,-1.0828857,-0.13647461,0.0029907227,-1.1630859,0.94628906,-0.38964844,6.2862806,8.909113,-52.907303,-19.016197,-0.46246338,-0.61602783,0.7003784,-0.0029296875,0.1640625,0.5800781,33.573883,17.09848,-124.42879,-17.271425,0.0,0.0,0.0,0.0,0.0,0.0,0.0,1.2445011,-124.0457,-5.084612,0.0,0.0,0.0,0.0,0.0,0.0,0.0,0.21736065,-0.12023125,0.9687021,0.28845215,-0.14593506,-0.37145996,1.0488281,1.9267578,0.29589844,48.90267,4.5000396,-2.4891593,20.055136,-0.23876953,-0.30004883,-1.1455688,-0.3076172,-6.6015625,2.046875,57.982185,-23.285276,-47.471645,41.353027,-0.72772217,1.045227,1.2644653,1.2724609,-4.635742,5.258789,9.941506,-7.2868977,-115.30078,23.180813,0.0,0.0,0.0,0.0,0.0,0.0,0.0,-27.03512,-118.509514,23.265831,0.0,0.0,0.0,0.0,0.0,0.0,0.0,-5.609647,44.13972,6.7371483,
2.4843749259598558,106,-0.014892578,-0.6016846,0.60632324,-0.6464844,-0.36523438,0.35742188,0.0,0.0,0.0,0.0,0.0,0.0,0.0,0.0,0.0,0.0,0.0,-0.20592192,0.11730728,-0.9716221,-1.2492065,-0.34020996,-0.11425781,-0.30273438,1.9335938,0.5126953,11.726135,-4.263223,2.4286242,-20.115591,-1.2406616,-0.45654297,0.18334961,-0.38378906,1.1289062,-0.71484375,7.199554,11.249903,-52.423832,-21.001347,-0.25683594,-0.59594727,0.76452637,-0.4501953,0.35546875,1.0400391,33.88776,21.290503,-123.72931,-19.866482,0.0,0.0,0.0,0.0,0.0,0.0,0.0,5.258936,-123.67597,-7.909544,0.0,0.0,0.0,0.0,0.0,0.0,0.0,0.20592192,-0.11730728,0.9716221,0.15374756,-0.08166504,-0.3718872,0.6074219,1.1435547,0.29785156,50.274586,4.263223,-2.4286242,20.115591,-0.30908203,-0.2954712,-1.1723633,-0.4404297,-7.236328,2.1328125,50.825554,-25.072584,-46.070263,42.120697,-1.15625,0.9867554,1.6380615,1.4443359,-4.616211,5.165039,9.513865,-20.342133,-116.56773,28.174221,0.0,0.0,0.0,0.0,0.0,0.0,0.0,-40.33797,-116.763214,28.787746,0.0,0.0,0.0,0.0,0.0,0.0,0.0,-5.1159725,44.24884,6.4265757,
2.507812425261364,107,-0.053344727,-0.7470703,0.7550659,-0.80078125,-0.6123047,0.453125,0.0,0.0,0.0,0.0,0.0,0.0,0.0,0.0,0.0,0.0,0.0,-0.19276196,0.110024855,-0.9751062,-1.267334,-0.10491943,-0.056152344,-0.5136719,1.3818359,-0.35546875,13.143117,-3.9907703,2.2778556,-20.187721,-1.1599731,0.028137207,0.22595215,-0.3876953,1.5478516,-0.3330078,7.283649,13.202856,-52.04065,-22.148216,-0.37329102,-0.65649414,0.76641846,-0.5058594,0.9267578,1.2363281,33.37731,25.480888,-123.00295,-21.853613,0.0,0.0,0.0,0.0,0.0,0.0,0.0,9.298107,-123.50988,-10.105261,0.0,0.0,0.0,0.0,0.0,0.0,0.0,0.19276196,-0.110024855,0.9751062,0.19769287,-0.04333496,-0.40222168,-0.28222656,0.32226562,0.2705078,49.98208,3.9907703,-2.2778556,20.187721,-0.4091797,-0.03881836,-1.0770264,-0.66503906,-7.3271484,1.6982422,42.156925,-26.128012,-45.30334,42.345806,-1.8757324,0.9326172,1.758728,1.2578125,-4.251953,5.0029297,8.502144,-33.127487,-116.43303,33.463463,0.0,0.0,0.0,0.0,0.0,0.0,0.0,-52.93007,-113.71643,34.328735,0.0,0.0,0.0,0.0,0.0,0.0,0.0,-4.3483524,44.40526,5.8700056,
2.531249924562872,108,-0.0848999,-0.92803955,1.0653076,-0.49023438,-0.734375,0.47851562,0.0,0.0,0.0,0.0,0.0,0.0,0.0,0.0,0.0,0.0,0.0,-0.17383534,0.108292885,-0.9788747,-1.3674927,0.48901367,0.2854004,-1.9912109,1.3183594,-0.9316406,15.48782,-3.5989318,2.2419984,-20.26574,-1.2912598,0.020568848,0.2744751,-1.671875,2.008789,-0.4892578,6.9427743,15.42244,-51.44429,-22.716156,-0.41552734,-0.69525146,0.77667236,-0.76953125,1.4794922,1.6923828,34.015324,30.27581,-121.899475,-24.079645,0.0,0.0,0.0,0.0,0.0,0.0,0.0,13.967016,-123.3171,-12.583198,0.0,0.0,0.0,0.0,0.0,0.0,0.0,0.17383534,-0.108292885,0.9788747,0.30743408,-0.13165283,-0.20111084,-1.2529297,0.022460938,0.4716797,49.117023,3.5989318,-2.2419984,20.26574,-0.9489746,0.27868652,-0.70147705,-1.5136719,-6.5009766,0.08496094,33.78012,-26.749487,-45.200916,42.240124,-2.0,0.54364014,1.3361816,0.23925781,-2.8300781,4.0625,6.8956027,-43.213425,-115.217865,38.985733,0.0,0.0,0.0,0.0,0.0,0.0,0.0,-62.547695,-110.13586,39.712852,0.0,0.0,0.0,0.0,0.0,0.0,0.0,-3.6430013,44.50821,5.5708923,
2.55468742386438,109,-0.067871094,-0.934021,1.1695557,0.8876953,-0.9951172,0.6767578,0.0,0.0,0.0,0.0,0.0,0.0,0.0,0.0,0.0,0.0,0.0,-0.15149584,0.11739129,-0.9816118,-1.2915039,0.3685913,0.048828125,-3.5625,1.1533203,-0.8613281,16.802929,-3.1364326,2.4303637,-20.322407,-1.2906494,0.15637207,0.3135376,-1.5234375,2.4296875,-0.24121094,6.0540137,17.47078,-50.621624,-23.625774,-0.45043945,-0.61572266,0.809021,-0.9296875,2.2597656,2.2558594,34.90439,35.3541,-120.295456,-27.172892,0.0,0.0,0.0,0.0,0.0,0.0,0.0,18.996761,-122.981415,-15.975512,0.0,0.0,0.0,0.0,0.0,0.0,0.0,0.15149584,-0.11739129,0.9816118,0.9259033,-0.24761963,0.24084473,-1.6953125,-0.46484375,0.8310547,48.907623,3.1364326,-2.4303637,20.322407,-1.3887329,-0.13012695,-0.34484863,-2.7490234,-5.1728516,-1.2021484,25.46522,-27.282036,-45.763412,41.4421,-2.0,0.6188965,0.06011963,-2.3017578,-1.4853516,3.0625,4.4502106,-50.856266,-113.75651,44.38291,0.0,0.0,0.0,0.0,0.0,0.0,0.0,-69.83424,-107.43739,44.485924,0.0,0.0,0.0,0.0,0.0,0.0,0.0,-3.7990725,44.455795,5.902809,
