TOTAL_TIME,0m7s
TOTAL_FRAMES,308
SELECTED_FRAMES,308
NO_OF_JOINTS,12
FREQUENCY,42.666668
DESCRIPTION,Capture 14
TIME_STAMP,Jul 9, 2010

Time,Frame,Pelvis_accelX_Pelvis,Pelvis_accelY_Pelvis,Pelvis_accelZ_Pelvis,Pelvis_gyroX_Pelvis,Pelvis_gyroY_Pelvis,Pelvis_gyroZ_Pelvis,Pelvis_Joint angle_Pelvis,Pelvis_Relative pos X_Pelvis,Pelvis_Relative pos Y_Pelvis,Pelvis_Relative pos Z_Pelvis,RightPelvis_accelX_RightPelvis,RightPelvis_accelY_RightPelvis,RightPelvis_accelZ_RightPelvis,RightPelvis_gyroX_RightPelvis,RightPelvis_gyroY_RightPelvis,RightPelvis_gyroZ_RightPelvis,RightPelvis_Joint angle_RightPelvis,RightPelvis_Relative pos X_RightPelvis,RightPelvis_Relative pos Y_RightPelvis,RightPelvis_Relative pos Z_RightPelvis,RightUpLeg_accelX_RightUpLeg,RightUpLeg_accelY_RightUpLeg,RightUpLeg_accelZ_RightUpLeg,RightUpLeg_gyroX_RightUpLeg,RightUpLeg_gyroY_RightUpLeg,RightUpLeg_gyroZ_RightUpLeg,RightUpLeg_Joint angle_RightUpLeg,RightUpLeg_Relative pos X_RightUpLeg,RightUpLeg_Relative pos Y_RightUpLeg,RightUpLeg_Relative pos Z_RightUpLeg,RightLeg_accelX_RightLeg,RightLeg_accelY_RightLeg,RightLeg_accelZ_RightLeg,RightLeg_gyroX_RightLeg,RightLeg_gyroY_RightLeg,RightLeg_gyroZ_RightLeg,RightLeg_Joint angle_RightLeg,RightLeg_Relative pos X_RightLeg,RightLeg_Relative pos Y_RightLeg,RightLeg_Relative pos Z_RightLeg,RightFoot_accelX_RightFoot,RightFoot_accelY_RightFoot,RightFoot_accelZ_RightFoot,RightFoot_gyroX_RightFoot,RightFoot_gyroY_RightFoot,RightFoot_gyroZ_RightFoot,RightFoot_Joint angle_RightFoot,RightFoot_Relative pos X_RightFoot,RightFoot_Relative pos Y_RightFoot,RightFoot_Relative pos Z_RightFoot,RightFootEnd_accelX_RightFootEnd,RightFootEnd_accelY_RightFootEnd,RightFootEnd_accelZ_RightFootEnd,RightFootEnd_gyroX_RightFootEnd,RightFootEnd_gyroY_RightFootEnd,RightFootEnd_gyroZ_RightFootEnd,RightFootEnd_Joint angle_RightFootEnd,RightFootEnd_Relative pos X_RightFootEnd,RightFootEnd_Relative pos Y_RightFootEnd,RightFootEnd_Relative pos Z_RightFootEnd,LeftPelvis_accelX_LeftPelvis,LeftPelvis_accelY_LeftPelvis,LeftPelvis_accelZ_LeftPelvis,LeftPelvis_gyroX_LeftPelvis,LeftPelvis_gyroY_LeftPelvis,LeftPelvis_gyroZ_LeftPelvis,LeftPelvis_Joint angle_LeftPelvis,LeftPelvis_Relative pos X_LeftPelvis,LeftPelvis_Relative pos Y_LeftPelvis,LeftPelvis_Relative pos Z_LeftPelvis,LeftUpLeg_accelX_LeftUpLeg,LeftUpLeg_accelY_LeftUpLeg,LeftUpLeg_accelZ_LeftUpLeg,LeftUpLeg_gyroX_LeftUpLeg,LeftUpLeg_gyroY_LeftUpLeg,LeftUpLeg_gyroZ_LeftUpLeg,LeftUpLeg_Joint angle_LeftUpLeg,LeftUpLeg_Relative pos X_LeftUpLeg,LeftUpLeg_Relative pos Y_LeftUpLeg,LeftUpLeg_Relative pos Z_LeftUpLeg,LeftLeg_accelX_LeftLeg,LeftLeg_accelY_LeftLeg,LeftLeg_accelZ_LeftLeg,LeftLeg_gyroX_LeftLeg,LeftLeg_gyroY_LeftLeg,LeftLeg_gyroZ_LeftLeg,LeftLeg_Joint angle_LeftLeg,LeftLeg_Relative pos X_LeftLeg,LeftLeg_Relative pos Y_LeftLeg,LeftLeg_Relative pos Z_LeftLeg,LeftFoot_accelX_LeftFoot,LeftFoot_accelY_LeftFoot,LeftFoot_accelZ_LeftFoot,LeftFoot_gyroX_LeftFoot,LeftFoot_gyroY_LeftFoot,LeftFoot_gyroZ_LeftFoot,LeftFoot_Joint angle_LeftFoot,LeftFoot_Relative pos X_LeftFoot,LeftFoot_Relative pos Y_LeftFoot,LeftFoot_Relative pos Z_LeftFoot,LeftFootEnd_accelX_LeftFootEnd,LeftFootEnd_accelY_LeftFootEnd,LeftFootEnd_accelZ_LeftFootEnd,LeftFootEnd_gyroX_LeftFootEnd,LeftFootEnd_gyroY_LeftFootEnd,LeftFootEnd_gyroZ_LeftFootEnd,LeftFootEnd_Joint angle_LeftFootEnd,LeftFootEnd_Relative pos X_LeftFootEnd,LeftFootEnd_Relative pos Y_LeftFootEnd,LeftFootEnd_Relative pos Z_LeftFootEnd,Spine_accelX_Spine,Spine_accelY_Spine,Spine_accelZ_Spine,Spine_gyroX_Spine,Spine_gyroY_Spine,Spine_gyroZ_Spine,Spine_Joint angle_Spine,Spine_Relative pos X_Spine,Spine_Relative pos Y_Spine,Spine_Relative pos Z_Spine,
0.0,0,0.0,0.0,0.0,0.0,0.0,0.0,0.0,0.0,0.0,0.0,0.0,0.0,0.0,0.0,0.0,0.0,0.0,0.0,0.0,0.0,0.0,0.0,0.0,0.0,0.0,0.0,NaN,0.0,0.0,0.0,0.0,0.0,0.0,0.0,0.0,0.0,NaN,0.0,0.0,0.0,0.0,0.0,0.0,0.0,0.0,0.0,NaN,0.0,0.0,0.0,0.0,0.0,0.0,0.0,0.0,0.0,0.0,0.0,0.0,0.0,0.0,0.0,0.0,0.0,0.0,0.0,0.0,0.0,0.0,0.0,0.0,0.0,0.0,0.0,0.0,0.0,NaN,0.0,0.0,0.0,0.0,0.0,0.0,0.0,0.0,0.0,NaN,0.0,0.0,0.0,0.0,0.0,0.0,0.0,0.0,0.0,NaN,0.0,0.0,0.0,0.0,0.0,0.0,0.0,0.0,0.0,0.0,0.0,0.0,0.0,0.0,0.0,0.0,0.0,0.0,0.0,0.0,0.0,0.0,0.0,
0.02343749930150809,1,0.0,0.0,0.0,0.0,0.0,0.0,0.0,0.0,0.0,0.0,0.0,0.0,0.0,0.0,0.0,0.0,0.0,0.0,0.0,0.0,0.0,0.0,0.0,0.0,0.0,0.0,NaN,0.0,0.0,0.0,0.0,0.0,0.0,0.0,0.0,0.0,NaN,0.0,0.0,0.0,0.0,0.0,0.0,0.0,0.0,0.0,NaN,0.0,0.0,0.0,0.0,0.0,0.0,0.0,0.0,0.0,0.0,0.0,0.0,0.0,0.0,0.0,0.0,0.0,0.0,0.0,0.0,0.0,0.0,0.0,0.0,0.0,0.0,0.0,0.0,0.0,NaN,0.0,0.0,0.0,0.0,0.0,0.0,0.0,0.0,0.0,NaN,0.0,0.0,0.0,0.0,0.0,0.0,0.0,0.0,0.0,NaN,0.0,0.0,0.0,0.0,0.0,0.0,0.0,0.0,0.0,0.0,0.0,0.0,0.0,0.0,0.0,0.0,0.0,0.0,0.0,0.0,0.0,0.0,0.0,
0.04687499860301618,2,0.0,0.0,0.0,0.0,0.0,0.0,0.0,0.0,0.0,0.0,0.0,0.0,0.0,0.0,0.0,0.0,0.0,0.0,0.0,0.0,0.0,0.0,0.0,0.0,0.0,0.0,NaN,0.0,0.0,0.0,0.0,0.0,0.0,0.0,0.0,0.0,NaN,0.0,0.0,0.0,0.0,0.0,0.0,0.0,0.0,0.0,NaN,0.0,0.0,0.0,0.0,0.0,0.0,0.0,0.0,0.0,0.0,0.0,0.0,0.0,0.0,0.0,0.0,0.0,0.0,0.0,0.0,0.0,0.0,0.0,0.0,0.0,0.0,0.0,0.0,0.0,NaN,0.0,0.0,0.0,0.0,0.0,0.0,0.0,0.0,0.0,NaN,0.0,0.0,0.0,0.0,0.0,0.0,0.0,0.0,0.0,NaN,0.0,0.0,0.0,0.0,0.0,0.0,0.0,0.0,0.0,0.0,0.0,0.0,0.0,0.0,0.0,0.0,0.0,0.0,0.0,0.0,0.0,0.0,0.0,
0.07031249790452426,3,-0.030639648,-0.5623169,0.8588867,-0.0087890625,-0.025390625,-0.016601562,0.0,0.0,0.0,0.0,0.0,0.0,0.0,0.0,0.0,0.0,0.0,-0.45011735,0.06888677,0.89025813,-0.87841797,-0.15814209,-0.3708496,-0.79785156,0.7792969,0.43652344,10.359057,-9.318825,1.4261696,18.431103,-0.9881592,-0.047790527,-0.20300293,0.0234375,0.19726562,0.017578125,3.3742905,-11.194555,-55.25615,12.649081,-0.46148682,-0.5740967,0.68847656,0.021484375,-0.022460938,-0.0087890625,16.46402,-10.938224,-127.21193,9.758421,0.0,0.0,0.0,0.0,0.0,0.0,0.0,-1.3645391,-127.54521,27.315878,0.0,0.0,0.0,0.0,0.0,0.0,0.0,0.45011735,-0.06888677,-0.89025813,0.961792,-0.14569092,-0.26080322,-0.12988281,-0.049804688,-0.12695312,6.9667478,9.318825,-1.4261696,-18.431103,-0.9736328,-0.01977539,-0.124572754,-0.068359375,0.57910156,1.0048828,4.3887854,4.65954,-58.22201,-17.339584,-0.31384277,0.65625,0.6894531,-0.017578125,-0.015625,-0.0087890625,3.2158895,4.958855,-130.1931,-14.848624,0.0,0.0,0.0,0.0,0.0,0.0,0.0,19.762175,-130.27638,-1.4032898,0.0,0.0,0.0,0.0,0.0,0.0,0.0,8.763752,44.124622,1.0166874,
0.09374999720603236,4,-0.03857422,-0.5460205,0.8717041,0.0107421875,-0.0068359375,0.0029296875,0.0,0.0,0.0,0.0,0.0,0.0,0.0,0.0,0.0,0.0,0.0,-0.44874302,0.06901504,0.8909125,-0.88623047,-0.1340332,-0.3764038,-0.66503906,0.6826172,0.34179688,9.05382,-9.290372,1.4288251,18.44465,-0.9851074,-0.045898438,-0.20599365,-0.0146484375,0.005859375,-9.765625E-4,3.6533947,-12.376697,-55.258427,13.2369585,-0.4298706,-0.60510254,0.7070923,0.0029296875,-0.022460938,0.028320312,16.538816,-12.10354,-127.214935,10.3592005,0.0,0.0,0.0,0.0,0.0,0.0,0.0,-2.5571346,-127.518326,27.931839,0.0,0.0,0.0,0.0,0.0,0.0,0.0,0.44874302,-0.06901504,-0.8909125,0.9700928,-0.18902588,-0.24658203,-0.055664062,0.024414062,0.00390625,7.034193,9.290372,-1.4288251,-18.44465,-0.98706055,-0.02947998,-0.12860107,-0.06933594,0.38867188,0.6435547,3.7553062,4.697394,-58.235455,-17.462563,-0.28967285,0.6637573,0.6875,9.765625E-4,0.00390625,-0.0087890625,3.489193,3.97618,-130.15277,-13.776264,0.0,0.0,0.0,0.0,0.0,0.0,0.0,18.752598,-130.2193,-0.29878998,0.0,0.0,0.0,0.0,0.0,0.0,0.0,8.797752,44.116722,1.0138066,
0.11718749650754046,5,-0.03656006,-0.55059814,0.8925781,0.0107421875,0.01171875,0.001953125,0.0,0.0,0.0,0.0,0.0,0.0,0.0,0.0,0.0,0.0,0.0,-0.44739795,0.06913255,0.8916098,-0.8723755,-0.14611816,-0.38482666,-0.34472656,0.37304688,0.18945312,8.19999,-9.262523,1.4312582,18.459087,-0.9771118,-0.05871582,-0.18920898,0.0234375,-0.0703125,-0.020507812,4.053474,-13.124281,-55.239925,13.639057,-0.43481445,-0.5621948,0.7012329,0.0029296875,-0.022460938,-0.0087890625,16.64411,-12.851722,-127.19888,10.772613,0.0,0.0,0.0,0.0,0.0,0.0,0.0,-3.341384,-127.4729,28.365883,0.0,0.0,0.0,0.0,0.0,0.0,0.0,0.44739795,-0.06913255,-0.8916098,0.98376465,-0.15447998,-0.23162842,0.01953125,0.024414062,0.001953125,7.0785894,9.262523,-1.4312582,-18.459087,-0.9836426,-0.008666992,-0.12548828,-0.068359375,0.20019531,0.09472656,3.471585,4.7020426,-58.240044,-17.442621,-0.29992676,0.63861084,0.67456055,0.020507812,0.00390625,-0.028320312,3.5091126,3.4475064,-130.1286,-13.324542,0.0,0.0,0.0,0.0,0.0,0.0,0.0,18.209288,-130.18655,0.1679182,0.0,0.0,0.0,0.0,0.0,0.0,0.0,8.805317,44.116817,0.997715,
0.14062499580904855,6,-0.03149414,-0.53985596,0.8986206,0.030273438,0.0126953125,0.0029296875,0.0,0.0,0.0,0.0,0.0,0.0,0.0,0.0,0.0,0.0,0.0,-0.4458155,0.069356754,0.89236677,-0.861084,-0.14971924,-0.36627197,0.0146484375,0.025390625,0.036132812,8.0043,-9.22976,1.4358996,18.474756,-0.9769287,-0.03918457,-0.20794678,0.04296875,0.0068359375,-9.765625E-4,4.176264,-13.282185,-55.23257,13.768253,-0.41174316,-0.60131836,0.69299316,-0.015625,-0.00390625,0.009765625,16.7786,-12.997679,-127.19029,10.911267,0.0,0.0,0.0,0.0,0.0,0.0,0.0,-3.5136833,-127.425316,28.519268,0.0,0.0,0.0,0.0,0.0,0.0,0.0,0.4458155,-0.069356754,-0.89236677,0.9779053,-0.16638184,-0.24554443,0.01953125,0.024414062,0.001953125,7.117889,9.22976,-1.4358996,-18.474756,-0.9885864,-0.008239746,-0.14227295,-0.015625,0.026367188,0.016601562,3.430396,4.6894765,-58.246067,-17.417467,-0.32885742,0.6721802,0.67871094,9.765625E-4,0.00390625,0.009765625,3.5008452,3.465311,-130.13954,-13.365456,0.0,0.0,0.0,0.0,0.0,0.0,0.0,18.22094,-130.18889,0.1326971,0.0,0.0,0.0,0.0,0.0,0.0,0.0,8.817821,44.114048,0.9766309,
0.16406249511055665,7,-0.032470703,-0.5297241,0.8569946,-0.0087890625,0.01171875,0.001953125,0.0,0.0,0.0,0.0,0.0,0.0,0.0,0.0,0.0,0.0,0.0,-0.44433206,0.06939833,0.8931312,-0.85150146,-0.12542725,-0.35339355,-0.0048828125,0.005859375,0.036132812,8.095218,-9.19905,1.4367608,18.490585,-0.98498535,-0.03326416,-0.20788574,0.0234375,-0.0126953125,-0.020507812,4.096725,-13.165642,-55.23842,13.791519,-0.42297363,-0.5963745,0.66119385,-0.015625,-0.0029296875,-0.02734375,16.87328,-12.88648,-127.19826,10.94413,0.0,0.0,0.0,0.0,0.0,0.0,0.0,-3.4219246,-127.41022,28.562792,0.0,0.0,0.0,0.0,0.0,0.0,0.0,0.44433206,-0.06939833,-0.8931312,0.95892334,-0.16638184,-0.25500488,-0.017578125,0.024414062,0.0029296875,7.171432,9.19905,-1.4367608,-18.490585,-0.99542236,0.001159668,-0.15795898,-0.034179688,0.045898438,0.016601562,3.3748705,4.7107854,-58.24866,-17.430517,-0.28863525,0.6826782,0.6561279,0.0390625,0.022460938,-0.009765625,3.547734,3.5120368,-130.14246,-13.44899,0.0,0.0,0.0,0.0,0.0,0.0,0.0,18.259874,-130.17911,0.05811882,0.0,0.0,0.0,0.0,0.0,0.0,0.0,8.82524,44.11402,0.9627893,
0.18749999441206475,8,-0.028442383,-0.5209961,0.86499023,-0.0087890625,0.01171875,-0.036132812,0.0,0.0,0.0,0.0,0.0,0.0,0.0,0.0,0.0,0.0,0.0,-0.44257897,0.06966911,0.89395666,-0.87384033,-0.11047363,-0.38250732,0.0146484375,-0.013671875,-9.765625E-4,8.230153,-9.162757,1.442367,18.507673,-0.9769287,-0.034362793,-0.19598389,0.0234375,-0.10839844,-0.01953125,4.029877,-13.046588,-55.24111,13.817078,-0.41992188,-0.6102905,0.70599365,0.022460938,-0.00390625,-0.0087890625,16.956417,-12.754487,-127.20206,10.973024,0.0,0.0,0.0,0.0,0.0,0.0,0.0,-3.3080454,-127.38792,28.601511,0.0,0.0,0.0,0.0,0.0,0.0,0.0,0.44257897,-0.06966911,-0.89395666,0.9647217,-0.15252686,-0.23516846,9.765625E-4,0.005859375,0.001953125,7.276427,9.162757,-1.442367,-18.507673,-0.9581909,-0.010437012,-0.105773926,-0.036132812,0.0078125,0.03515625,3.3357174,4.706403,-58.263405,-17.406586,-0.3109131,0.64642334,0.6854248,0.001953125,-0.015625,-0.009765625,3.4780648,3.5676603,-130.1637,-13.524123,0.0,0.0,0.0,0.0,0.0,0.0,0.0,18.311989,-130.19025,-0.012732506,0.0,0.0,0.0,0.0,0.0,0.0,0.0,8.876335,44.10293,0.9573927,
0.21093749371357284,9,-0.042541504,-0.5366211,0.8855591,-0.0087890625,-0.0068359375,-0.036132812,0.0,0.0,0.0,0.0,0.0,0.0,0.0,0.0,0.0,0.0,0.0,-0.44090357,0.069953695,0.89481795,-0.8710327,-0.11022949,-0.39849854,0.013671875,-0.051757812,-0.001953125,8.338847,-9.128072,1.4482584,18.525505,-0.98101807,-0.048828125,-0.20800781,0.061523438,0.0068359375,-9.765625E-4,3.972467,-12.950238,-55.23753,13.838903,-0.42895508,-0.60491943,0.6981201,-0.015625,-0.00390625,0.009765625,17.049404,-12.662483,-127.202896,10.998346,0.0,0.0,0.0,0.0,0.0,0.0,0.0,-3.2395287,-127.35687,28.641954,0.0,0.0,0.0,0.0,0.0,0.0,0.0,0.44090357,-0.069953695,-0.89481795,0.9595337,-0.12982178,-0.2368164,-0.017578125,0.024414062,0.0029296875,7.345371,9.128072,-1.4482584,-18.525505,-1.0007324,-0.04345703,-0.12084961,-0.017578125,-0.03125,-0.0029296875,3.3123348,4.6945133,-58.263897,-17.420118,-0.29766846,0.6647339,0.69537354,-0.018554688,0.00390625,-0.0087890625,3.5066566,3.5830913,-130.17152,-13.600756,0.0,0.0,0.0,0.0,0.0,0.0,0.0,18.31894,-130.19241,-0.07778072,0.0,0.0,0.0,0.0,0.0,0.0,0.0,8.917881,44.097073,0.9467535,
0.23437499301508094,10,-0.040527344,-0.5391846,0.8727417,0.0107421875,-0.0068359375,-0.016601562,0.0,0.0,0.0,0.0,0.0,0.0,0.0,0.0,0.0,0.0,0.0,-0.43896547,0.07000765,0.8956709,-0.85772705,-0.17102051,-0.39733887,-0.061523438,0.10253906,0.037109375,8.436871,-9.087945,1.4493753,18.543163,-0.9658203,-0.05102539,-0.20013428,0.0234375,-0.0126953125,-0.020507812,3.903997,-12.842691,-55.238808,13.847824,-0.43914795,-0.5805054,0.72717285,-0.0146484375,0.015625,0.0087890625,17.17437,-12.5624,-127.200966,10.984709,0.0,0.0,0.0,0.0,0.0,0.0,0.0,-3.1652212,-127.330444,28.641161,0.0,0.0,0.0,0.0,0.0,0.0,0.0,0.43896547,-0.07000765,-0.8956709,0.9859619,-0.16052246,-0.25952148,-0.017578125,0.024414062,0.0029296875,7.4193125,9.087945,-1.4493753,-18.543163,-0.9871826,-0.024047852,-0.10394287,0.001953125,0.0068359375,0.016601562,3.2996619,4.6976852,-58.269455,-17.408482,-0.2949829,0.6298828,0.6627197,9.765625E-4,0.00390625,-0.0087890625,3.4944637,3.6660025,-130.18307,-13.647499,0.0,0.0,0.0,0.0,0.0,0.0,0.0,18.388096,-130.19026,-0.10993767,0.0,0.0,0.0,0.0,0.0,0.0,0.0,8.939663,44.088993,0.93520546,
0.25781249231658904,11,-0.024536133,-0.5467529,0.8689575,-0.0087890625,-0.0068359375,0.001953125,0.0,0.0,0.0,0.0,0.0,0.0,0.0,0.0,0.0,0.0,0.0,-0.43769902,0.070137665,0.8962853,-0.87268066,-0.13098145,-0.3449707,-0.0048828125,-0.013671875,-9.765625E-4,8.510132,-9.061728,1.452067,18.555885,-0.9749756,-0.039367676,-0.17907715,0.04296875,0.0068359375,-9.765625E-4,3.8595035,-12.757862,-55.239975,13.865542,-0.44433594,-0.579834,0.7033081,0.0029296875,-0.022460938,0.009765625,17.186937,-12.464311,-127.19922,11.00233,0.0,0.0,0.0,0.0,0.0,0.0,0.0,-3.077529,-127.31125,28.663494,0.0,0.0,0.0,0.0,0.0,0.0,0.0,0.43769902,-0.070137665,-0.8962853,1.0037842,-0.15258789,-0.23999023,0.01953125,0.024414062,-0.03515625,7.4818096,9.061728,-1.452067,-18.555885,-0.9660034,-0.0018310547,-0.1293335,-0.016601562,0.0068359375,0.03515625,3.2691424,4.722721,-58.273827,-17.40879,-0.27978516,0.63726807,0.6883545,0.001953125,-0.015625,-0.009765625,3.5130162,3.7363057,-130.1903,-13.685589,0.0,0.0,0.0,0.0,0.0,0.0,0.0,18.44587,-130.19022,-0.13541222,0.0,0.0,0.0,0.0,0.0,0.0,0.0,8.951961,44.086987,0.92169976,
0.2812499916180971,12,-0.032592773,-0.56188965,0.8757324,-0.0087890625,0.01171875,0.001953125,0.0,0.0,0.0,0.0,0.0,0.0,0.0,0.0,0.0,0.0,0.0,-0.4364105,0.070466265,0.89692634,-0.87731934,-0.12994385,-0.39453125,0.0146484375,-0.013671875,-9.765625E-4,8.6122875,-9.035051,1.45887,18.569157,-0.97698975,-0.045043945,-0.19506836,0.0234375,-0.0126953125,-9.765625E-4,3.76728,-12.646623,-55.241856,13.874026,-0.43823242,-0.58013916,0.7112427,-0.015625,-0.00390625,0.009765625,17.269394,-12.374198,-127.19762,10.994506,0.0,0.0,0.0,0.0,0.0,0.0,0.0,-3.0070114,-127.28304,28.665077,0.0,0.0,0.0,0.0,0.0,0.0,0.0,0.4364105,-0.070466265,-0.89692634,0.9649048,-0.16046143,-0.25115967,0.01953125,0.024414062,0.001953125,7.5518517,9.035051,-1.45887,-18.569157,-0.96435547,-0.008361816,-0.10479736,-0.016601562,0.0078125,-0.001953125,3.196717,4.756967,-58.291115,-17.38214,-0.3088379,0.66729736,0.65405273,0.0,0.022460938,-0.0087890625,3.5114553,3.803638,-130.21188,-13.743449,0.0,0.0,0.0,0.0,0.0,0.0,0.0,18.509764,-130.20694,-0.18905258,0.0,0.0,0.0,0.0,0.0,0.0,0.0,8.959715,44.087543,0.8957591,
0.3046874909196052,13,-0.01550293,-0.53741455,0.8562012,-0.028320312,-0.0078125,-0.016601562,0.0,0.0,0.0,0.0,0.0,0.0,0.0,0.0,0.0,0.0,0.0,-0.4346741,0.07084808,0.89767015,-0.8808594,-0.11242676,-0.37438965,-0.0234375,-0.0126953125,-9.765625E-4,8.674981,-8.999103,1.466775,18.584553,-0.9790039,-0.04309082,-0.19903564,0.0234375,-0.0126953125,-9.765625E-4,3.7108264,-12.558895,-55.239742,13.902148,-0.41851807,-0.5933838,0.70202637,0.00390625,-0.00390625,0.02734375,17.326029,-12.290097,-127.19908,11.016539,0.0,0.0,0.0,0.0,0.0,0.0,0.0,-2.9346457,-127.26587,28.694386,0.0,0.0,0.0,0.0,0.0,0.0,0.0,0.4346741,-0.07084808,-0.89767015,0.98187256,-0.15063477,-0.2553711,0.01953125,0.005859375,0.001953125,7.650681,8.999103,-1.466775,-18.584553,-0.9776001,-0.008056641,-0.11071777,0.001953125,0.0068359375,0.016601562,3.0986989,4.8274407,-58.30128,-17.36433,-0.28271484,0.651001,0.68743896,0.001953125,-0.015625,-0.009765625,3.5250342,3.9059467,-130.22067,-13.760666,0.0,0.0,0.0,0.0,0.0,0.0,0.0,18.6008,-130.20389,-0.19541454,0.0,0.0,0.0,0.0,0.0,0.0,0.0,8.960155,44.08534,0.8593204,
0.32812499022111324,14,-0.028503418,-0.53045654,0.85009766,0.0107421875,-0.0068359375,0.021484375,0.0,0.0,0.0,0.0,0.0,0.0,0.0,0.0,0.0,0.0,0.0,-0.43432614,0.07098706,0.89788705,-0.89904785,-0.12408447,-0.36309814,-0.0048828125,-0.033203125,0.03515625,8.729492,-8.991899,1.4696523,18.589045,-0.961853,-0.048217773,-0.1842041,0.024414062,0.005859375,-0.0390625,3.6547344,-12.486091,-55.238907,13.911849,-0.4133911,-0.5852051,0.68603516,0.00390625,0.015625,0.0087890625,17.40522,-12.218149,-127.197525,11.034086,0.0,0.0,0.0,0.0,0.0,0.0,0.0,-2.8828306,-127.24302,28.722597,0.0,0.0,0.0,0.0,0.0,0.0,0.0,0.43432614,-0.07098706,-0.89788705,0.9807739,-0.1486206,-0.24145508,0.01953125,0.024414062,0.001953125,7.682449,8.991899,-1.4696523,-18.589045,-0.9802246,-4.272461E-4,-0.14019775,-0.03515625,0.0078125,0.016601562,3.0629241,4.866297,-58.309246,-17.350018,-0.296875,0.64227295,0.6923218,-0.038085938,0.022460938,0.009765625,3.5423768,3.9766831,-130.23676,-13.780313,0.0,0.0,0.0,0.0,0.0,0.0,0.0,18.659708,-130.21753,-0.20153713,0.0,0.0,0.0,0.0,0.0,0.0,0.0,8.950726,44.09,0.84388614,
0.3515624895226213,15,-0.042541504,-0.54797363,0.86968994,-0.0087890625,0.01171875,-0.036132812,0.0,0.0,0.0,0.0,0.0,0.0,0.0,0.0,0.0,0.0,0.0,-0.43305442,0.07085191,0.89850706,-0.868103,-0.13952637,-0.37200928,-0.0048828125,-0.013671875,0.017578125,8.793747,-8.9655695,1.4668541,18.601881,-0.96777344,-0.02960205,-0.19799805,0.024414062,-0.032226562,-0.0390625,3.6008697,-12.39233,-55.24408,13.916285,-0.4421997,-0.57385254,0.6992798,0.00390625,-0.00390625,0.009765625,17.470486,-12.124525,-127.20112,11.036785,0.0,0.0,0.0,0.0,0.0,0.0,0.0,-2.8027706,-127.227005,28.733013,0.0,0.0,0.0,0.0,0.0,0.0,0.0,0.43305442,-0.07085191,-0.89850706,0.9750366,-0.17529297,-0.2574463,-0.055664062,0.024414062,0.00390625,7.7881017,8.9655695,-1.4668541,-18.601881,-0.97424316,1.8310547E-4,-0.12542725,-0.03515625,0.0078125,-0.001953125,2.9900918,4.9477296,-58.31966,-17.325005,-0.3260498,0.63793945,0.673584,-0.018554688,0.00390625,-0.0087890625,3.5293639,4.118166,-130.24811,-13.764773,0.0,0.0,0.0,0.0,0.0,0.0,0.0,18.796448,-130.2205,-0.17990208,0.0,0.0,0.0,0.0,0.0,0.0,0.0,8.945705,44.091003,0.83476925,
0.3749999888241294,16,-0.042541504,-0.54797363,0.86968994,-0.0087890625,0.01171875,-0.036132812,0.0,0.0,0.0,0.0,0.0,0.0,0.0,0.0,0.0,0.0,0.0,-0.43305442,0.07085191,0.89850706,-0.8699951,-0.12646484,-0.38079834,-0.0048828125,0.005859375,0.036132812,8.831664,-8.9655695,1.4668541,18.601881,-0.9749756,-0.044128418,-0.19506836,0.0234375,0.005859375,-0.020507812,3.562329,-12.346924,-55.24795,13.925478,-0.39733887,-0.5886841,0.6889038,-0.0146484375,0.015625,0.0087890625,17.55619,-12.080161,-127.2099,11.058997,0.0,0.0,0.0,0.0,0.0,0.0,0.0,-2.7714987,-127.21092,28.761662,0.0,0.0,0.0,0.0,0.0,0.0,0.0,0.43305442,-0.07085191,-0.89850706,0.9838257,-0.15655518,-0.24749756,0.01953125,0.024414062,0.001953125,7.85163,8.9655695,-1.4668541,-18.601881,-1.0054321,-0.01953125,-0.116760254,-0.03515625,0.0078125,0.016601562,2.9496863,4.9998302,-58.31688,-17.279224,-0.296875,0.65057373,0.6500244,-0.017578125,-0.015625,0.009765625,3.5280876,4.22463,-130.24187,-13.789562,0.0,0.0,0.0,0.0,0.0,0.0,0.0,18.901525,-130.21117,-0.20504665,0.0,0.0,0.0,0.0,0.0,0.0,0.0,8.945705,44.091003,0.83476925,
0.39843748812563745,17,-0.035583496,-0.5482178,0.87872314,-0.0087890625,0.01171875,-0.016601562,0.0,0.0,0.0,0.0,0.0,0.0,0.0,0.0,0.0,0.0,0.0,-0.4297552,0.070978016,0.9000233,-0.86242676,-0.11224365,-0.35302734,-0.061523438,0.044921875,0.037109375,8.932414,-8.8972645,1.4694651,18.63327,-0.98095703,-0.03717041,-0.20391846,0.0234375,-0.0126953125,-0.020507812,3.5316377,-12.244017,-55.24947,13.955917,-0.414917,-0.6051636,0.69104004,0.00390625,0.015625,0.0087890625,17.628752,-11.977529,-127.2083,11.08597,0.0,0.0,0.0,0.0,0.0,0.0,0.0,-2.6811361,-127.19458,28.795013,0.0,0.0,0.0,0.0,0.0,0.0,0.0,0.4297552,-0.070978016,-0.9000233,0.9526367,-0.14855957,-0.230896,-0.017578125,0.005859375,0.0029296875,7.949496,8.8972645,-1.4694651,-18.63327,-0.9633789,-0.020019531,-0.12060547,-0.016601562,0.0078125,-0.001953125,2.924158,4.96393,-58.32074,-17.280169,-0.27575684,0.651001,0.67663574,0.001953125,-0.015625,-0.028320312,3.5519812,4.224188,-130.25179,-13.8440695,0.0,0.0,0.0,0.0,0.0,0.0,0.0,18.89333,-130.21364,-0.25068283,0.0,0.0,0.0,0.0,0.0,0.0,0.0,8.9964905,44.078613,0.819618,
0.4218749874271455,18,-0.037597656,-0.5509033,0.869751,-0.0087890625,0.01171875,-0.016601562,0.0,0.0,0.0,0.0,0.0,0.0,0.0,0.0,0.0,0.0,0.0,-0.42867345,0.070172265,0.9006564,-0.8581543,-0.14257812,-0.3812256,0.013671875,-0.032226562,-0.001953125,8.943822,-8.87487,1.4527838,18.64638,-0.9688721,-0.05480957,-0.20617676,0.0234375,-0.0126953125,-0.020507812,3.489193,-12.174595,-55.271126,13.987021,-0.40948486,-0.5892334,0.68304443,-0.0146484375,0.03515625,-0.028320312,17.665499,-11.894316,-127.23179,11.112554,0.0,0.0,0.0,0.0,0.0,0.0,0.0,-2.603942,-127.19553,28.824162,0.0,0.0,0.0,0.0,0.0,0.0,0.0,0.42867345,-0.070172265,-0.9006564,0.975708,-0.16235352,-0.21569824,0.01953125,0.024414062,0.001953125,8.006115,8.87487,-1.4527838,-18.64638,-0.9661255,-0.0040283203,-0.12054443,-0.016601562,0.0078125,-0.001953125,2.873784,4.9828444,-58.310448,-17.22397,-0.30090332,0.64056396,0.673584,-0.037109375,-0.015625,-0.0087890625,3.583209,4.2635593,-130.24239,-13.821281,0.0,0.0,0.0,0.0,0.0,0.0,0.0,18.925117,-130.20729,-0.21912098,0.0,0.0,0.0,0.0,0.0,0.0,0.0,8.985952,44.08258,0.8423457,
0.4453124867286536,19,-0.037597656,-0.5509033,0.869751,-0.0087890625,0.01171875,-0.016601562,0.0,0.0,0.0,0.0,0.0,0.0,0.0,0.0,0.0,0.0,0.0,-0.42867345,0.070172265,0.9006564,-0.86590576,-0.11151123,-0.38970947,-0.0048828125,-0.032226562,-9.765625E-4,8.983517,-8.87487,1.4527838,18.64638,-0.9902344,-0.038269043,-0.17199707,0.0048828125,0.005859375,-0.020507812,3.4572303,-12.132688,-55.271587,13.984359,-0.42730713,-0.5812378,0.7011719,0.00390625,0.015625,-0.009765625,17.712053,-11.848518,-127.23036,11.10809,0.0,0.0,0.0,0.0,0.0,0.0,0.0,-2.5550022,-127.18044,28.817638,0.0,0.0,0.0,0.0,0.0,0.0,0.0,0.42867345,-0.070172265,-0.9006564,0.9746704,-0.1338501,-0.25006104,-0.018554688,0.061523438,0.0029296875,8.037781,8.87487,-1.4527838,-18.64638,-0.9552002,-0.024841309,-0.13336182,-0.0546875,0.0078125,-0.001953125,2.8428977,5.010165,-58.300182,-17.204098,-0.30078125,0.66503906,0.67474365,0.001953125,-0.015625,0.0087890625,3.636581,4.3011436,-130.23506,-13.842547,0.0,0.0,0.0,0.0,0.0,0.0,0.0,18.956242,-130.19606,-0.23339939,0.0,0.0,0.0,0.0,0.0,0.0,0.0,8.985952,44.08258,0.8423457,
0.46874998603016166,20,-0.024597168,-0.5593262,0.8282471,-0.0087890625,-0.026367188,0.021484375,0.0,0.0,0.0,0.0,0.0,0.0,0.0,0.0,0.0,0.0,0.0,-0.4283105,0.06996368,0.90085614,-0.8638916,-0.12872314,-0.37298584,-0.0048828125,-0.032226562,0.017578125,9.064859,-8.867356,1.4484655,18.650513,-0.9689331,-0.054870605,-0.1921997,0.0048828125,-0.0126953125,-0.020507812,3.3959215,-12.049448,-55.279453,13.990978,-0.43884277,-0.6040039,0.71417236,-0.015625,0.015625,-0.028320312,17.750504,-11.750777,-127.23923,11.100601,0.0,0.0,0.0,0.0,0.0,0.0,0.0,-2.4629278,-127.17851,28.812689,0.0,0.0,0.0,0.0,0.0,0.0,0.0,0.4283105,-0.06996368,-0.90085614,0.97680664,-0.14276123,-0.26312256,9.765625E-4,0.024414062,0.0029296875,8.050155,8.867356,-1.4484655,-18.650513,-0.97302246,0.013793945,-0.1105957,-0.016601562,0.0068359375,0.016601562,2.8946881,4.989211,-58.30403,-17.213623,-0.3250122,0.6408081,0.6795044,0.001953125,-0.015625,0.0087890625,3.6489437,4.327347,-130.24109,-13.842498,0.0,0.0,0.0,0.0,0.0,0.0,0.0,18.977196,-130.19647,-0.22819805,0.0,0.0,0.0,0.0,0.0,0.0,0.0,9.002667,44.079338,0.8569448,
0.4921874853316697,21,-0.025512695,-0.54644775,0.8897095,-0.0087890625,0.01171875,0.001953125,0.0,0.0,0.0,0.0,0.0,0.0,0.0,0.0,0.0,0.0,0.0,-0.42653146,0.07030922,0.9016496,-0.8685303,-0.14398193,-0.3998413,-0.0234375,0.025390625,-9.765625E-4,9.126149,-8.8305235,1.4556189,18.666943,-0.96673584,-0.03540039,-0.20996094,0.0048828125,0.005859375,-9.765625E-4,3.3820562,-11.99927,-55.27236,14.011106,-0.42010498,-0.6099243,0.6880493,0.00390625,-0.00390625,0.009765625,17.829699,-11.711075,-127.23082,11.134768,0.0,0.0,0.0,0.0,0.0,0.0,0.0,-2.4386482,-127.153206,28.856249,0.0,0.0,0.0,0.0,0.0,0.0,0.0,0.42653146,-0.07030922,-0.9016496,0.9668579,-0.16143799,-0.25115967,0.01953125,0.005859375,0.001953125,8.1396475,8.8305235,-1.4556189,-18.666943,-0.96569824,-0.02331543,-0.103881836,-0.03515625,0.026367188,0.036132812,2.8616338,5.0087957,-58.313942,-17.228321,-0.29693604,0.63952637,0.67755127,-0.018554688,0.00390625,0.009765625,3.6082575,4.387614,-130.25224,-13.907142,0.0,0.0,0.0,0.0,0.0,0.0,0.0,19.034996,-130.20863,-0.29132843,0.0,0.0,0.0,0.0,0.0,0.0,0.0,9.036865,44.071728,0.8383062,
0.5156249846331779,22,-0.02154541,-0.5385742,0.8601074,0.0107421875,0.030273438,0.040039062,0.0,0.0,0.0,0.0,0.0,0.0,0.0,0.0,0.0,0.0,0.0,-0.42539814,0.0705135,0.9021873,-0.85839844,-0.15637207,-0.38531494,-0.04296875,-0.0126953125,-9.765625E-4,9.15047,-8.80706,1.459848,18.678074,-0.96984863,-0.035461426,-0.19006348,0.0048828125,-0.0126953125,-0.020507812,3.3900933,-11.96499,-55.27161,14.043249,-0.41290283,-0.60510254,0.68603516,0.00390625,-0.00390625,0.009765625,17.859043,-11.64251,-127.22899,11.181337,0.0,0.0,0.0,0.0,0.0,0.0,0.0,-2.3850527,-127.13714,28.910448,0.0,0.0,0.0,0.0,0.0,0.0,0.0,0.42539814,-0.0705135,-0.9021873,0.9758911,-0.13787842,-0.27990723,-0.037109375,0.061523438,0.0029296875,8.130815,8.80706,-1.459848,-18.678074,-0.987854,-0.017456055,-0.13049316,-0.03515625,0.0078125,-0.001953125,2.9267676,4.9659023,-58.31488,-17.235682,-0.3098755,0.65130615,0.6884155,-0.018554688,0.022460938,-0.02734375,3.5427084,4.411856,-130.25153,-13.945805,0.0,0.0,0.0,0.0,0.0,0.0,0.0,19.05488,-130.20818,-0.32542324,0.0,0.0,0.0,0.0,0.0,0.0,0.0,9.0491705,44.070267,0.822392,
0.5390624839346859,23,-0.035583496,-0.550354,0.88464355,0.0107421875,-0.0068359375,0.021484375,0.0,0.0,0.0,0.0,0.0,0.0,0.0,0.0,0.0,0.0,0.0,-0.42529118,0.07054402,0.90223163,-0.90527344,-0.13983154,-0.36108398,-0.0234375,-0.0126953125,-9.765625E-4,9.186562,-8.804846,1.46048,18.678991,-0.9821167,-0.054748535,-0.1940918,0.024414062,-0.0126953125,-0.05859375,3.3487804,-11.924553,-55.276676,14.046022,-0.41156006,-0.5964966,0.7000122,-0.015625,-0.00390625,0.009765625,17.89632,-11.594527,-127.23811,11.1544075,0.0,0.0,0.0,0.0,0.0,0.0,0.0,-2.3480844,-127.13416,28.889471,0.0,0.0,0.0,0.0,0.0,0.0,0.0,0.42529118,-0.07054402,-0.90223163,0.9807129,-0.12896729,-0.26104736,9.765625E-4,0.024414062,0.0029296875,8.1687565,8.804846,-1.46048,-18.678991,-0.9724121,-0.021362305,-0.14422607,-0.03515625,0.026367188,0.036132812,2.895094,5.0000987,-58.32197,-17.224401,-0.30603027,0.631897,0.6696167,-0.037109375,0.00390625,-0.0087890625,3.5947204,4.4613547,-130.265,-13.962829,0.0,0.0,0.0,0.0,0.0,0.0,0.0,19.088882,-130.21487,-0.32485676,0.0,0.0,0.0,0.0,0.0,0.0,0.0,9.049194,44.07016,0.81980824,
0.562499983236194,24,-0.038635254,-0.5651245,0.8815918,-0.0087890625,-0.0068359375,0.001953125,0.0,0.0,0.0,0.0,0.0,0.0,0.0,0.0,0.0,0.0,0.0,-0.4252235,0.070178956,0.90233374,-0.8756714,-0.13201904,-0.34088135,-0.0048828125,0.005859375,0.017578125,9.204812,-8.803445,1.4529221,18.681105,-0.9790039,-0.04888916,-0.20306396,0.0048828125,0.005859375,-0.040039062,3.3503585,-11.889331,-55.280712,14.046354,-0.4196167,-0.58569336,0.670166,0.00390625,0.015625,0.0087890625,17.936485,-11.535499,-127.239746,11.183207,0.0,0.0,0.0,0.0,0.0,0.0,0.0,-2.3009462,-127.1215,28.923769,0.0,0.0,0.0,0.0,0.0,0.0,0.0,0.4252235,-0.070178956,-0.90233374,0.97406006,-0.18218994,-0.25354004,-0.017578125,0.005859375,0.0029296875,8.224186,8.803445,-1.4529221,-18.681105,-0.9683838,-0.01586914,-0.12451172,-0.03515625,0.026367188,0.036132812,2.8906956,5.050991,-58.304867,-17.203535,-0.3187256,0.67578125,0.694458,-0.018554688,0.00390625,-0.0087890625,3.58452,4.5821915,-130.24991,-13.96734,0.0,0.0,0.0,0.0,0.0,0.0,0.0,19.202976,-130.2006,-0.32104874,0.0,0.0,0.0,0.0,0.0,0.0,0.0,9.044031,44.072678,0.8342376,
0.5859374825377021,25,-0.036499023,-0.5303955,0.8460083,-0.0087890625,0.0107421875,0.021484375,0.0,0.0,0.0,0.0,0.0,0.0,0.0,0.0,0.0,0.0,0.0,-0.4233852,0.07019648,0.9031261,-0.8834839,-0.110961914,-0.34350586,-0.0234375,-0.013671875,0.017578125,9.286117,-8.765387,1.4532846,18.69751,-0.9710083,-0.062683105,-0.18530273,0.0048828125,-0.05078125,-0.020507812,3.2800236,-11.785311,-55.291126,14.092093,-0.41870117,-0.5928345,0.6781006,-0.015625,-0.00390625,0.009765625,17.990456,-11.422132,-127.247665,11.219263,0.0,0.0,0.0,0.0,0.0,0.0,0.0,-2.1990337,-127.119194,28.965748,0.0,0.0,0.0,0.0,0.0,0.0,0.0,0.4233852,-0.07019648,-0.9031261,0.9668579,-0.14477539,-0.2748413,0.01953125,0.024414062,0.001953125,8.257114,8.765387,-1.4532846,-18.69751,-0.97088623,-0.035888672,-0.120666504,-0.016601562,0.0078125,-0.001953125,2.8959727,5.019328,-58.31279,-17.211628,-0.27770996,0.65179443,0.69433594,-0.037109375,0.00390625,0.009765625,3.6009786,4.5755515,-130.25586,-14.020892,0.0,0.0,0.0,0.0,0.0,0.0,0.0,19.188066,-130.20189,-0.36668396,0.0,0.0,0.0,0.0,0.0,0.0,0.0,9.065721,44.065475,0.8249688,
0.6093749818392101,26,-0.03552246,-0.5307617,0.85791016,-0.0087890625,0.01171875,0.001953125,0.0,0.0,0.0,0.0,0.0,0.0,0.0,0.0,0.0,0.0,0.0,-0.422105,0.070016265,0.9037262,-0.8619385,-0.13476562,-0.36914062,-0.061523438,-0.0126953125,0.017578125,9.339993,-8.738883,1.449554,18.709934,-0.97802734,-0.051757812,-0.20806885,0.0048828125,0.005859375,-9.765625E-4,3.2504041,-11.721016,-55.290928,14.103577,-0.44396973,-0.60791016,0.7161865,-0.015625,-0.00390625,0.009765625,18.028486,-11.347359,-127.24878,11.2167225,0.0,0.0,0.0,0.0,0.0,0.0,0.0,-2.1414719,-127.10698,28.971218,0.0,0.0,0.0,0.0,0.0,0.0,0.0,0.422105,-0.070016265,-0.9037262,0.97698975,-0.17822266,-0.24761963,0.01953125,0.024414062,0.001953125,8.359733,8.738883,-1.449554,-18.709934,-0.9987793,-0.0012817383,-0.13342285,-0.0146484375,0.06542969,-0.001953125,2.8474386,5.064549,-58.314445,-17.186504,-0.29693604,0.6356201,0.67749023,9.765625E-4,0.00390625,-0.0087890625,3.623582,4.661805,-130.26292,-14.0211735,0.0,0.0,0.0,0.0,0.0,0.0,0.0,19.264515,-130.20262,-0.3557434,0.0,0.0,0.0,0.0,0.0,0.0,0.0,9.0824585,44.061428,0.82849693,
0.6328124811407182,27,-0.03955078,-0.5465088,0.85388184,-0.02734375,-0.026367188,0.021484375,0.0,0.0,0.0,0.0,0.0,0.0,0.0,0.0,0.0,0.0,0.0,-0.4212575,0.069757745,0.9041611,-0.86535645,-0.14123535,-0.39196777,-0.04296875,0.025390625,0.036132812,9.346114,-8.721336,1.4442016,18.718939,-0.9668579,-0.05102539,-0.19415283,0.0048828125,0.005859375,-0.040039062,3.2154024,-11.68163,-55.30243,14.132244,-0.43499756,-0.6026001,0.6882324,-0.015625,-0.0029296875,-0.0087890625,18.059534,-11.301273,-127.26363,11.223521,0.0,0.0,0.0,0.0,0.0,0.0,0.0,-2.102045,-127.11,28.982304,0.0,0.0,0.0,0.0,0.0,0.0,0.0,0.4212575,-0.069757745,-0.9041611,0.9768677,-0.17028809,-0.2355957,-0.017578125,0.024414062,0.0029296875,8.462204,8.721336,-1.4442016,-18.718939,-1.012146,-0.04736328,-0.1159668,-0.03515625,0.0078125,0.016601562,2.749867,5.1464043,-58.314537,-17.152662,-0.29174805,0.64697266,0.7061157,-0.018554688,0.00390625,-0.0087890625,3.5889964,4.759502,-130.26237,-14.032967,0.0,0.0,0.0,0.0,0.0,0.0,0.0,19.365768,-130.21217,-0.37178898,0.0,0.0,0.0,0.0,0.0,0.0,0.0,9.0773735,44.063267,0.8296728,
0.6562499804422263,28,-0.04852295,-0.54119873,0.87060547,-0.0087890625,-0.0078125,0.021484375,0.0,0.0,0.0,0.0,0.0,0.0,0.0,0.0,0.0,0.0,0.0,-0.4200534,0.06943922,0.90473944,-0.8502197,-0.15466309,-0.38153076,-0.061523438,0.025390625,0.0,9.392433,-8.696406,1.4376068,18.730911,-0.96984863,-0.042236328,-0.20007324,0.0234375,-0.032226562,-0.020507812,3.1986148,-11.616436,-55.313965,14.160656,-0.42773438,-0.5970459,0.6991577,0.00390625,0.015625,0.0087890625,18.1185,-11.202218,-127.26942,11.261127,0.0,0.0,0.0,0.0,0.0,0.0,0.0,-2.0153513,-127.109055,29.025805,0.0,0.0,0.0,0.0,0.0,0.0,0.0,0.4200534,-0.06943922,-0.90473944,0.95648193,-0.13275146,-0.2189331,0.01953125,0.024414062,0.001953125,8.548699,8.696406,-1.4376068,-18.730911,-0.9747925,-0.03149414,-0.13641357,-0.015625,0.026367188,-0.001953125,2.7342334,5.185033,-58.314724,-17.16306,-0.3209839,0.6437378,0.6746216,9.765625E-4,0.00390625,0.009765625,3.5779593,4.86472,-130.2628,-14.090197,0.0,0.0,0.0,0.0,0.0,0.0,0.0,19.46019,-130.20612,-0.41739464,0.0,0.0,0.0,0.0,0.0,0.0,0.0,9.094027,44.05936,0.84060526,
0.6796874797437343,29,-0.030578613,-0.5453491,0.85302734,-0.028320312,0.0107421875,0.001953125,0.0,0.0,0.0,0.0,0.0,0.0,0.0,0.0,0.0,0.0,0.0,-0.41989338,0.0695633,0.9048343,-0.8858032,-0.111450195,-0.36730957,-0.0048828125,-0.013671875,0.017578125,9.406256,-8.693094,1.4401761,18.732876,-0.98114014,-0.058654785,-0.19415283,0.024414062,-0.0126953125,-0.0390625,3.1736684,-11.598676,-55.310677,14.158635,-0.43499756,-0.57336426,0.71417236,0.00390625,0.015625,-0.009765625,18.170095,-11.196175,-127.268974,11.241772,0.0,0.0,0.0,0.0,0.0,0.0,0.0,-2.016407,-127.10063,29.009832,0.0,0.0,0.0,0.0,0.0,0.0,0.0,0.41989338,-0.0695633,-0.9048343,0.9688721,-0.15844727,-0.24725342,0.01953125,0.024414062,0.001953125,8.646791,8.693094,-1.4401761,-18.732876,-0.9733887,-0.0625,-0.13360596,-0.016601562,0.0068359375,0.016601562,2.6522512,5.286828,-58.31699,-17.139551,-0.3088379,0.6491089,0.7061157,-0.018554688,0.00390625,-0.02734375,3.5547912,5.0044875,-130.26999,-14.121757,0.0,0.0,0.0,0.0,0.0,0.0,0.0,19.596231,-130.21889,-0.44569397,0.0,0.0,0.0,0.0,0.0,0.0,0.0,9.0893135,44.061787,0.8304932,
0.7031249790452424,30,-0.04156494,-0.5449219,0.86676025,0.0107421875,-0.0068359375,0.021484375,0.0,0.0,0.0,0.0,0.0,0.0,0.0,0.0,0.0,0.0,0.0,-0.41960272,0.06976199,0.90494287,-0.86535645,-0.14923096,-0.38604736,-0.0048828125,-0.013671875,-9.765625E-4,9.446062,-8.6870775,1.4442897,18.735123,-0.9779663,-0.043029785,-0.20898438,0.04296875,-0.03125,-9.765625E-4,3.1505134,-11.557778,-55.309,14.158516,-0.42767334,-0.6338501,0.70306396,0.0029296875,-0.00390625,-0.0087890625,18.248728,-11.146783,-127.2641,11.239794,0.0,0.0,0.0,0.0,0.0,0.0,0.0,-1.9829597,-127.08081,29.017195,0.0,0.0,0.0,0.0,0.0,0.0,0.0,0.41960272,-0.06976199,-0.90494287,0.9559326,-0.16638184,-0.25299072,0.01953125,0.024414062,0.001953125,8.650471,8.6870775,-1.4442897,-18.735123,-0.9748535,-0.041259766,-0.14630127,-0.0546875,0.0078125,0.03515625,2.6582224,5.2912393,-58.31778,-17.146553,-0.28363037,0.65960693,0.7032471,0.020507812,-0.015625,-0.009765625,3.55936,5.0333753,-130.27155,-14.181138,0.0,0.0,0.0,0.0,0.0,0.0,0.0,19.615612,-130.2118,-0.49305058,0.0,0.0,0.0,0.0,0.0,0.0,0.0,9.089458,44.06153,0.8178873,
0.7265624783467505,31,-0.038513184,-0.5414429,0.8826294,-0.0087890625,0.01171875,0.001953125,0.0,0.0,0.0,0.0,0.0,0.0,0.0,0.0,0.0,0.0,0.0,-0.41837883,0.06953207,0.90550137,-0.87542725,-0.15924072,-0.36999512,-0.0048828125,-0.032226562,0.017578125,9.462839,-8.66174,1.4395293,18.746685,-0.973938,-0.046081543,-0.19207764,0.0234375,-0.0126953125,-0.020507812,3.1171548,-11.503777,-55.319706,14.199026,-0.42016602,-0.61395264,0.6930542,-0.0146484375,0.015625,0.0087890625,18.305202,-11.078993,-127.27667,11.275764,0.0,0.0,0.0,0.0,0.0,0.0,0.0,-1.9289112,-127.08747,29.060778,0.0,0.0,0.0,0.0,0.0,0.0,0.0,0.41837883,-0.06953207,-0.90550137,0.95825195,-0.10809326,-0.21673584,-0.037109375,0.061523438,0.0029296875,8.704773,8.66174,-1.4395293,-18.746685,-0.96484375,-0.03326416,-0.10687256,-0.03515625,0.026367188,-0.001953125,2.6461926,5.324168,-58.32442,-17.162432,-0.29595947,0.6307373,0.67456055,-0.037109375,0.00390625,0.009765625,3.5005655,5.1278553,-130.28401,-14.238617,0.0,0.0,0.0,0.0,0.0,0.0,0.0,19.708294,-130.2235,-0.5495949,0.0,0.0,0.0,0.0,0.0,0.0,0.0,9.089197,44.060555,0.81624055,
0.7499999776482585,32,-0.04156494,-0.550354,0.8498535,0.030273438,-0.005859375,-0.015625,0.0,0.0,0.0,0.0,0.0,0.0,0.0,0.0,0.0,0.0,0.0,-0.41880062,0.06925878,0.90537953,-0.8882446,-0.13397217,-0.37835693,0.0146484375,-0.013671875,0.03515625,9.458165,-8.670471,1.4338716,18.744164,-0.97906494,-0.048950195,-0.19207764,0.04296875,-0.03125,-9.765625E-4,3.1224887,-11.501862,-55.32489,14.199121,-0.39770508,-0.6057739,0.69885254,0.0048828125,0.034179688,0.0087890625,18.364662,-11.050021,-127.28068,11.271219,0.0,0.0,0.0,0.0,0.0,0.0,0.0,-1.9220953,-127.08098,29.068058,0.0,0.0,0.0,0.0,0.0,0.0,0.0,0.41880062,-0.06925878,-0.90537953,0.9849243,-0.16540527,-0.24267578,-0.018554688,0.080078125,0.040039062,8.778566,8.670471,-1.4338716,-18.744164,-0.9852905,0.003540039,-0.1362915,-0.034179688,0.045898438,0.036132812,2.5920095,5.4099445,-58.32222,-17.157328,-0.3048706,0.6555176,0.65496826,0.001953125,-0.015625,-0.009765625,3.4773328,5.2438846,-130.27809,-14.242616,0.0,0.0,0.0,0.0,0.0,0.0,0.0,19.825188,-130.22104,-0.556324,0.0,0.0,0.0,0.0,0.0,0.0,0.0,9.084191,44.063473,0.8313446,
0.7734374769497666,33,-0.006591797,-0.5685425,0.87701416,0.0107421875,0.01171875,0.001953125,0.0,0.0,0.0,0.0,0.0,0.0,0.0,0.0,0.0,0.0,0.0,-0.4187003,0.06944035,0.90536934,-0.85180664,-0.12799072,-0.37628174,0.0146484375,-0.013671875,0.016601562,9.5085335,-8.668393,1.4376307,18.74395,-0.99316406,-0.045776367,-0.2109375,0.061523438,-0.0126953125,-9.765625E-4,3.070074,-11.454718,-55.32002,14.203226,-0.4099121,-0.60406494,0.6810303,0.00390625,-0.00390625,0.009765625,18.412619,-11.005125,-127.27771,11.25004,0.0,0.0,0.0,0.0,0.0,0.0,0.0,-1.8833656,-127.06546,29.048096,0.0,0.0,0.0,0.0,0.0,0.0,0.0,0.4187003,-0.06944035,-0.90536934,0.9585571,-0.121032715,-0.25256348,0.01953125,0.061523438,0.001953125,8.8458,8.668393,-1.4376307,-18.74395,-1.0040894,-0.011230469,-0.13250732,-0.036132812,0.0078125,0.03515625,2.4955182,5.4751344,-58.330906,-17.161007,-0.32995605,0.65649414,0.6845093,-0.016601562,-0.053710938,0.0087890625,3.5040317,5.274332,-130.28934,-14.266484,0.0,0.0,0.0,0.0,0.0,0.0,0.0,19.859453,-130.23193,-0.58349895,0.0,0.0,0.0,0.0,0.0,0.0,0.0,9.08914,44.060814,0.824003,
0.7968749762512747,34,-0.028625488,-0.559021,0.87976074,-0.0087890625,-0.0068359375,0.001953125,0.0,0.0,0.0,0.0,0.0,0.0,0.0,0.0,0.0,0.0,0.0,-0.41875082,0.06924078,0.90538454,-0.8876343,-0.16888428,-0.36871338,0.033203125,0.025390625,-9.765625E-4,9.555511,-8.669441,1.4334991,18.744267,-0.9780884,-0.05670166,-0.19714355,0.04296875,-0.03125,-0.020507812,3.0120742,-11.379034,-55.327087,14.199011,-0.42736816,-0.6218262,0.6980591,0.0048828125,0.015625,0.02734375,18.42896,-10.930287,-127.28408,11.25366,0.0,0.0,0.0,0.0,0.0,0.0,0.0,-1.8107214,-127.06509,29.052572,0.0,0.0,0.0,0.0,0.0,0.0,0.0,0.41875082,-0.06924078,-0.90538454,0.9768677,-0.15161133,-0.25823975,-0.018554688,0.061523438,0.0029296875,8.775926,8.669441,-1.4334991,-18.744267,-0.97442627,-0.0012817383,-0.10479736,-0.016601562,0.026367188,0.036132812,2.5310314,5.4407964,-58.329567,-17.189594,-0.32617188,0.62042236,0.66760254,0.0,0.022460938,-0.0087890625,3.5697415,5.2385583,-130.28731,-14.294661,0.0,0.0,0.0,0.0,0.0,0.0,0.0,19.819847,-130.2355,-0.6063118,0.0,0.0,0.0,0.0,0.0,0.0,0.0,9.067177,44.06631,0.8236294,
0.8203124755527827,35,-0.025512695,-0.53149414,0.8858032,0.0107421875,0.01171875,-0.016601562,0.0,0.0,0.0,0.0,0.0,0.0,0.0,0.0,0.0,0.0,0.0,-0.41785666,0.06960145,0.90585184,-0.88079834,-0.1428833,-0.3348999,0.013671875,-0.032226562,-0.001953125,9.645752,-8.650928,1.4409659,18.753942,-0.98413086,-0.045043945,-0.18408203,0.0234375,-0.032226562,-0.020507812,3.003809,-11.317613,-55.32057,14.170728,-0.43414307,-0.57421875,0.7052002,0.00390625,0.015625,-0.009765625,18.4761,-10.855385,-127.27634,11.217307,0.0,0.0,0.0,0.0,0.0,0.0,0.0,-1.7384701,-127.05217,29.017056,0.0,0.0,0.0,0.0,0.0,0.0,0.0,0.41785666,-0.06960145,-0.90585184,0.9768677,-0.15161133,-0.25823975,-0.018554688,0.061523438,0.0029296875,8.799754,8.650928,-1.4409659,-18.753942,-0.9684448,-0.014038086,-0.11663818,0.0029296875,0.045898438,0.036132812,2.5235188,5.4222827,-58.337036,-17.19927,-0.3017578,0.6729126,0.66986084,0.001953125,-0.015625,0.0087890625,3.6186073,5.212228,-130.29608,-14.3308735,0.0,0.0,0.0,0.0,0.0,0.0,0.0,19.790958,-130.24005,-0.6409607,0.0,0.0,0.0,0.0,0.0,0.0,0.0,9.09178,44.06494,0.8081641,
0.8437499748542908,36,-0.03149414,-0.5368042,0.86291504,-0.0087890625,0.030273438,-0.017578125,0.0,0.0,0.0,0.0,0.0,0.0,0.0,0.0,0.0,0.0,0.0,-0.41807097,0.06954026,0.905764,-0.8932495,-0.15014648,-0.35351562,0.0146484375,-0.013671875,0.016601562,9.744793,-8.655364,1.4396992,18.752123,-0.9750366,-0.05291748,-0.18615723,0.061523438,-0.03125,-0.020507812,2.9572423,-11.229883,-55.319473,14.127025,-0.43652344,-0.5911255,0.71118164,0.022460938,-0.00390625,0.009765625,18.52134,-10.753183,-127.276245,11.159443,0.0,0.0,0.0,0.0,0.0,0.0,0.0,-1.6446877,-127.04749,28.963411,0.0,0.0,0.0,0.0,0.0,0.0,0.0,0.41807097,-0.06954026,-0.905764,1.0006104,-0.12109375,-0.25146484,-0.018554688,0.061523438,0.0029296875,8.71945,8.655364,-1.4396992,-18.752123,-0.97473145,-0.030517578,-0.13543701,-0.03515625,0.0078125,-0.001953125,2.639082,5.3507013,-58.33187,-17.227913,-0.29083252,0.6373291,0.69525146,0.001953125,-0.015625,-0.009765625,3.6030986,5.19128,-130.29611,-14.392793,0.0,0.0,0.0,0.0,0.0,0.0,0.0,19.76951,-130.23715,-0.7015381,0.0,0.0,0.0,0.0,0.0,0.0,0.0,9.091743,44.065117,0.8133402,
0.8671874741557989,37,-0.018554688,-0.54608154,0.84820557,-0.0087890625,0.048828125,-0.036132812,0.0,0.0,0.0,0.0,0.0,0.0,0.0,0.0,0.0,0.0,0.0,-0.41818494,0.06966086,0.9056659,-0.8897705,-0.11450195,-0.3572998,0.0146484375,-0.013671875,0.053710938,9.812535,-8.657724,1.4421954,18.750092,-0.97094727,-0.04711914,-0.18914795,0.061523438,-0.05078125,-0.0390625,2.9277709,-11.165627,-55.324863,14.130472,-0.42266846,-0.59191895,0.6851196,0.0048828125,0.034179688,0.0087890625,18.518974,-10.658956,-127.28493,11.180815,0.0,0.0,0.0,0.0,0.0,0.0,0.0,-1.5553513,-127.053314,28.9882,0.0,0.0,0.0,0.0,0.0,0.0,0.0,0.41818494,-0.06966086,-0.9056659,0.97680664,-0.1486206,-0.25524902,0.01953125,0.005859375,0.0390625,8.73109,8.657724,-1.4421954,-18.750092,-0.99438477,0.003967285,-0.14910889,0.001953125,0.0068359375,0.03515625,2.661019,5.3566847,-58.324593,-17.215874,-0.29675293,0.65802,0.6855469,0.001953125,-0.015625,0.0087890625,3.6378732,5.228102,-130.28621,-14.341557,0.0,0.0,0.0,0.0,0.0,0.0,0.0,19.79404,-130.2124,-0.63900757,0.0,0.0,0.0,0.0,0.0,0.0,0.0,9.096664,44.062637,0.81116843,
0.890624973457307,38,-0.022644043,-0.5595093,0.8342285,-0.0087890625,0.01171875,-0.016601562,0.0,0.0,0.0,0.0,0.0,0.0,0.0,0.0,0.0,0.0,0.0,-0.41836175,0.06934148,0.9056558,-0.864624,-0.10681152,-0.37579346,0.07128906,-0.013671875,0.03515625,9.829273,-8.661385,1.4355836,18.749882,-0.97003174,-0.056884766,-0.18127441,0.04296875,0.0068359375,-9.765625E-4,2.9389155,-11.132369,-55.33302,14.142482,-0.42211914,-0.6130371,0.6970825,0.00390625,0.015625,-0.009765625,18.514748,-10.570506,-127.29227,11.220004,0.0,0.0,0.0,0.0,0.0,0.0,0.0,-1.4682283,-127.05807,29.02781,0.0,0.0,0.0,0.0,0.0,0.0,0.0,0.41836175,-0.06934148,-0.9056558,0.97680664,-0.12506104,-0.28674316,-0.072265625,-0.087890625,0.09667969,8.5948,8.661385,-1.4355836,-18.749882,-1.0152588,-0.008972168,-0.13745117,-0.053710938,0.0078125,-0.021484375,2.8558133,5.1908426,-58.311996,-17.126392,-0.28894043,0.63879395,0.64801025,0.0,0.041992188,-0.0087890625,3.6632965,5.101705,-130.26848,-14.260984,0.0,0.0,0.0,0.0,0.0,0.0,0.0,19.660124,-130.20302,-0.54972744,0.0,0.0,0.0,0.0,0.0,0.0,0.0,9.091608,44.06536,0.82594657,
0.914062472758815,39,-0.042541504,-0.54467773,0.8588257,-0.0087890625,0.048828125,-0.036132812,0.0,0.0,0.0,0.0,0.0,0.0,0.0,0.0,0.0,0.0,0.0,-0.41795576,0.06926286,0.9058044,-0.86035156,-0.1315918,-0.3293457,0.051757812,0.024414062,0.053710938,9.908874,-8.652977,1.4339559,18.75296,-0.98431396,-0.05493164,-0.15826416,0.11816406,-0.01171875,0.037109375,2.8994856,-11.04902,-55.338196,14.134343,-0.44250488,-0.5869751,0.7092285,0.0029296875,-0.0029296875,-0.02734375,18.52035,-10.430124,-127.29322,11.165984,0.0,0.0,0.0,0.0,0.0,0.0,0.0,-1.3345222,-127.055145,28.977592,0.0,0.0,0.0,0.0,0.0,0.0,0.0,0.41795576,-0.06926286,-0.9058044,1.0141602,-0.09527588,-0.19989014,-0.016601562,-0.05078125,0.15136719,8.4965515,8.652977,-1.4339559,-18.75296,-0.98651123,-0.020996094,-0.061645508,-0.016601562,0.0078125,-0.021484375,3.0938303,5.043096,-58.300777,-17.042841,-0.26867676,0.65374756,0.6864624,-9.765625E-4,0.061523438,-0.02734375,3.5088894,5.0798807,-130.25928,-14.197521,0.0,0.0,0.0,0.0,0.0,0.0,0.0,19.63198,-130.19475,-0.47710037,0.0,0.0,0.0,0.0,0.0,0.0,0.0,9.0963335,44.06248,0.82796144,
0.9374999720603231,40,-0.028625488,-0.57110596,0.8866577,0.0107421875,0.030273438,-0.016601562,0.0,0.0,0.0,0.0,0.0,0.0,0.0,0.0,0.0,0.0,0.0,-0.4176804,0.06910971,0.9059395,-0.8666992,-0.15429688,-0.32641602,0.12792969,-0.052734375,0.052734375,9.998061,-8.647279,1.4307852,18.755754,-0.9741211,-0.05505371,-0.16131592,0.17480469,0.045898438,0.037109375,2.9137633,-10.958686,-55.341286,14.103874,-0.4222412,-0.57818604,0.69311523,-0.03515625,0.016601562,-0.064453125,18.607218,-10.214074,-127.290184,11.09874,0.0,0.0,0.0,0.0,0.0,0.0,0.0,-1.1188898,-127.050285,28.90902,0.0,0.0,0.0,0.0,0.0,0.0,0.0,0.4176804,-0.06910971,-0.9059395,1.020874,-0.17523193,-0.21478271,-0.09277344,0.13574219,0.22851562,8.654398,8.647279,-1.4307852,-18.755754,-1.010376,0.007080078,0.038757324,-0.013671875,0.103515625,0.037109375,3.301975,5.095214,-58.29291,-16.748259,-0.29174805,0.6470337,0.69921875,0.057617188,0.041992188,0.045898438,3.1467206,5.4577107,-130.24286,-13.776728,0.0,0.0,0.0,0.0,0.0,0.0,0.0,20.009193,-130.18825,-0.05586815,0.0,0.0,0.0,0.0,0.0,0.0,0.0,9.096199,44.062275,0.83247614,
0.9609374713618312,41,-0.006713867,-0.5897217,0.89086914,0.049804688,0.05078125,-0.03515625,0.0,0.0,0.0,0.0,0.0,0.0,0.0,0.0,0.0,0.0,0.0,-0.41830894,0.06943518,0.9057067,-0.9053955,-0.11376953,-0.32110596,0.16601562,-0.053710938,0.0703125,10.097829,-8.660293,1.4375234,18.750937,-0.97283936,-0.014160156,-0.17388916,0.19433594,0.08496094,-9.765625E-4,2.828678,-10.846265,-55.339848,14.13426,-0.43426514,-0.5802002,0.7091675,-0.111328125,0.036132812,-0.10253906,18.686995,-10.050904,-127.291595,11.138003,0.0,0.0,0.0,0.0,0.0,0.0,0.0,-0.926425,-127.02463,28.93288,0.0,0.0,0.0,0.0,0.0,0.0,0.0,0.41830894,-0.06943518,-0.9057067,1.0204468,-0.13470459,-0.1885376,0.0107421875,0.8457031,0.15722656,9.35427,8.660293,-1.4375234,-18.750937,-0.9317627,-1.8310547E-4,0.048828125,-0.06640625,0.2578125,9.765625E-4,2.7758684,5.68958,-58.31513,-16.268015,-0.32989502,0.6782837,0.65509033,-0.037109375,0.0029296875,0.046875,2.834692,6.0438375,-130.264,-13.226757,0.0,0.0,0.0,0.0,0.0,0.0,0.0,20.588722,-130.19067,0.49967766,0.0,0.0,0.0,0.0,0.0,0.0,0.0,9.086868,44.06788,0.8184297,
0.9843749706633392,42,-0.020568848,-0.56134033,0.8937378,0.068359375,0.12695312,-0.09277344,0.0,0.0,0.0,0.0,0.0,0.0,0.0,0.0,0.0,0.0,0.0,-0.41693178,0.06866944,0.90638214,-0.85772705,-0.13110352,-0.35925293,0.24121094,-0.015625,0.107421875,10.165814,-8.631782,1.4216701,18.76492,-0.9658203,-0.049072266,-0.20111084,0.15625,0.103515625,-0.020507812,2.5438366,-10.700262,-55.37039,14.241798,-0.4050293,-0.61761475,0.704895,-0.13183594,-9.765625E-4,-0.15722656,18.925323,-10.076404,-127.323395,11.191285,0.0,0.0,0.0,0.0,0.0,0.0,0.0,-0.93106365,-127.036125,28.979115,0.0,0.0,0.0,0.0,0.0,0.0,0.0,0.41693178,-0.06866944,-0.90638214,1.0548706,-0.15014648,-0.05456543,-0.140625,1.0322266,0.19824219,10.958979,8.631782,-1.4216701,-18.76492,-0.96447754,-0.030029297,-0.026184082,-0.025390625,0.37304688,0.078125,1.560974,7.1405954,-58.321526,-15.709877,-0.33691406,0.6704712,0.6639404,-0.0390625,0.060546875,0.06640625,2.2859323,7.301338,-130.26447,-12.582521,0.0,0.0,0.0,0.0,0.0,0.0,0.0,21.848343,-130.19527,1.1414986,0.0,0.0,0.0,0.0,0.0,0.0,0.0,9.086198,44.06686,0.84101295,
1.0078124699648474,43,-0.01763916,-0.5742798,0.86694336,0.068359375,0.12792969,-0.16894531,0.0,0.0,0.0,0.0,0.0,0.0,0.0,0.0,0.0,0.0,0.0,-0.4148048,0.06886387,0.9074395,-0.86138916,-0.15026855,-0.39111328,0.20410156,0.0234375,0.107421875,10.238985,-8.587745,1.4256955,18.786812,-0.9831543,-0.062438965,-0.20214844,0.21289062,0.123046875,0.037109375,2.3978403,-10.661984,-55.364952,14.244862,-0.42321777,-0.5866699,0.7180786,-0.24511719,0.056640625,-0.17578125,19.159546,-10.210317,-127.31357,11.081713,0.0,0.0,0.0,0.0,0.0,0.0,0.0,-1.0406723,-127.01628,28.854176,0.0,0.0,0.0,0.0,0.0,0.0,0.0,0.4148048,-0.06886387,-0.9074395,0.9597168,-0.1381836,-0.060302734,-0.0625,0.8076172,0.3076172,12.74687,8.587745,-1.4256955,-18.786812,-0.95654297,-0.007507324,-0.05657959,0.18457031,0.4091797,0.041015625,2.224048,8.626057,-58.301476,-14.949453,-0.2705078,0.6812134,0.6777954,-0.020507812,0.080078125,0.047851562,2.102172,8.316537,-130.25528,-11.9759445,0.0,0.0,0.0,0.0,0.0,0.0,0.0,22.85476,-130.17413,1.7579365,0.0,0.0,0.0,0.0,0.0,0.0,0.0,9.144646,44.05888,0.83661556,
1.0312499692663555,44,-0.010620117,-0.5576782,0.84332275,0.087890625,0.18554688,-0.24609375,0.0,0.0,0.0,0.0,0.0,0.0,0.0,0.0,0.0,0.0,0.0,-0.4103108,0.069678545,0.9094427,-0.8925171,-0.1842041,-0.33691406,0.20410156,-0.015625,0.16308594,10.457731,-8.494705,1.4425621,18.828283,-0.9769287,-0.06616211,-0.23608398,0.23144531,0.123046875,-9.765625E-4,2.1256883,-10.467934,-55.34634,14.275106,-0.39605713,-0.67700195,0.6428833,-0.22851562,0.038085938,-0.2685547,19.576607,-10.252377,-127.28645,10.990214,0.0,0.0,0.0,0.0,0.0,0.0,0.0,-1.0743837,-126.95346,28.756691,0.0,0.0,0.0,0.0,0.0,0.0,0.0,0.4103108,-0.069678545,-0.9094427,0.97283936,-0.1977539,-0.19018555,-0.51171875,0.6582031,0.18359375,13.866454,8.494705,-1.4425621,-18.828283,-0.9337158,-0.056640625,-0.19836426,0.27929688,0.44628906,0.07910156,3.6513577,9.455818,-58.273125,-14.49704,-0.28570557,0.67181396,0.66101074,-0.080078125,0.13769531,0.01171875,2.6635926,8.370676,-130.23105,-11.780938,0.0,0.0,0.0,0.0,0.0,0.0,0.0,22.873058,-130.17172,1.9910803,0.0,0.0,0.0,0.0,0.0,0.0,0.0,9.225162,44.044025,0.78758144,
1.0546874685678636,45,-0.042663574,-0.5645752,0.83099365,0.12695312,0.15039062,-0.3017578,0.0,0.0,0.0,0.0,0.0,0.0,0.0,0.0,0.0,0.0,0.0,-0.40645027,0.0691998,0.91117096,-0.85253906,-0.19366455,-0.36090088,0.18457031,0.08105469,0.1640625,10.505695,-8.414782,1.4326501,18.864063,-0.9812012,-0.0847168,-0.21728516,0.21289062,0.08496094,0.037109375,1.7826793,-10.31166,-55.36386,14.33876,-0.38323975,-0.6171875,0.66082764,-0.2109375,-0.057617188,-0.17480469,20.031012,-10.385258,-127.297424,10.864542,0.0,0.0,0.0,0.0,0.0,0.0,0.0,-1.2041607,-126.916504,28.632378,0.0,0.0,0.0,0.0,0.0,0.0,0.0,0.40645027,-0.0691998,-0.91117096,0.92614746,-0.09716797,-0.2119751,-0.47265625,0.5839844,0.16308594,14.392321,8.414782,-1.4326501,-18.864063,-0.95440674,-0.04107666,-0.26037598,0.35253906,0.34960938,0.078125,4.7984877,9.948367,-58.2428,-14.446671,-0.30303955,0.62805176,0.659729,-0.080078125,0.11816406,0.01171875,3.740364,7.9795666,-130.19266,-12.033992,0.0,0.0,0.0,0.0,0.0,0.0,0.0,22.443027,-130.1795,1.7778568,0.0,0.0,0.0,0.0,0.0,0.0,0.0,9.202695,44.047527,0.75985575,
1.0781249678693716,46,-0.06384277,-0.6097412,0.8464966,0.048828125,0.16699219,-0.34179688,0.0,0.0,0.0,0.0,0.0,0.0,0.0,0.0,0.0,0.0,0.0,-0.4038056,0.068929374,0.91216636,-0.88360596,-0.17602539,-0.3609619,0.2607422,0.13867188,0.16308594,10.412536,-8.360027,1.4270518,18.88467,-0.9710083,-0.07421875,-0.20233154,0.21289062,0.08496094,0.037109375,1.7601417,-10.33728,-55.36106,14.323056,-0.41412354,-0.64959717,0.68096924,-0.16992188,0.018554688,-0.19433594,20.310335,-10.43525,-127.2905,10.683743,0.0,0.0,0.0,0.0,0.0,0.0,0.0,-1.2418995,-126.88768,28.447369,0.0,0.0,0.0,0.0,0.0,0.0,0.0,0.4038056,-0.068929374,-0.91216636,0.94195557,-0.18499756,-0.23303223,-0.43359375,0.4345703,0.19921875,14.748144,8.360027,-1.4270518,-18.88467,-0.9639282,-0.021362305,-0.28979492,0.23632812,0.2548828,0.076171875,5.8389874,10.26807,-58.21977,-14.296869,-0.32312012,0.62213135,0.68725586,-0.15625,0.080078125,-0.025390625,4.9625425,7.3960524,-130.1421,-12.016312,0.0,0.0,0.0,0.0,0.0,0.0,0.0,21.819225,-130.18936,1.8383656,0.0,0.0,0.0,0.0,0.0,0.0,0.0,9.165605,44.047386,0.7289939,
1.1015624671708797,47,-0.09686279,-0.621521,0.862854,0.107421875,0.14941406,-0.32128906,0.0,0.0,0.0,0.0,0.0,0.0,0.0,0.0,0.0,0.0,0.0,-0.40120253,0.06745213,0.91338265,-0.8928833,-0.13452148,-0.34246826,0.20410156,0.119140625,0.18164062,10.261861,-8.306136,1.3964684,18.909853,-0.9700928,-0.064697266,-0.17333984,0.060546875,0.12109375,0.07519531,1.7515596,-10.313822,-55.38855,14.31579,-0.40185547,-0.64508057,0.6868286,-0.15136719,-9.765625E-4,-0.12011719,20.384087,-10.481582,-127.31388,10.651598,0.0,0.0,0.0,0.0,0.0,0.0,0.0,-1.2969656,-126.881874,28.419514,0.0,0.0,0.0,0.0,0.0,0.0,0.0,0.40120253,-0.06745213,-0.91338265,0.93066406,-0.17303467,-0.2019043,-0.31933594,0.24804688,0.15917969,14.761446,8.306136,-1.3964684,-18.909853,-0.96435547,-0.03265381,-0.2741089,0.08300781,0.19824219,0.056640625,6.5631566,10.310565,-58.157726,-14.161545,-0.32312012,0.62719727,0.6725464,-0.17675781,0.11816406,0.0126953125,5.909959,6.7076793,-130.04822,-12.035326,0.0,0.0,0.0,0.0,0.0,0.0,0.0,21.08327,-130.16327,1.8677521,0.0,0.0,0.0,0.0,0.0,0.0,0.0,9.052668,44.06909,0.72193027,
1.1249999664723878,48,-0.0869751,-0.64001465,0.8579712,0.14550781,0.1875,-0.28320312,0.0,0.0,0.0,0.0,0.0,0.0,0.0,0.0,0.0,0.0,0.0,-0.39954036,0.06628865,0.91390836,-0.88983154,-0.17608643,-0.29718018,0.16601562,0.15820312,0.18261719,10.214229,-8.271724,1.3723805,18.920736,-0.9762573,-0.074401855,-0.16845703,0.041992188,0.12109375,0.055664062,1.6363792,-10.249802,-55.4176,14.382993,-0.40960693,-0.62127686,0.6500244,-0.09375,-0.020507812,-0.12011719,20.209425,-10.43903,-127.34128,10.641378,0.0,0.0,0.0,0.0,0.0,0.0,0.0,-1.2576857,-126.89234,28.410862,0.0,0.0,0.0,0.0,0.0,0.0,0.0,0.39954036,-0.06628865,-0.91390836,0.9413452,-0.16204834,-0.1494751,-0.13085938,0.13574219,0.17382812,14.851449,8.271724,-1.3723805,-18.920736,-0.9763794,-0.06567383,-0.26055908,0.026367188,0.1796875,0.038085938,7.1262903,10.317415,-58.127518,-13.953765,-0.34924316,0.62731934,0.6873169,-0.119140625,0.13769531,0.048828125,6.4419594,6.1853595,-129.99667,-11.95429,0.0,0.0,0.0,0.0,0.0,0.0,0.0,20.527487,-130.17984,1.9836769,0.0,0.0,0.0,0.0,0.0,0.0,0.0,9.01282,44.064808,0.7440448,
1.1484374657738958,49,-0.07489014,-0.6207886,0.84729004,0.2626953,0.15332031,-0.28027344,0.0,0.0,0.0,0.0,0.0,0.0,0.0,0.0,0.0,0.0,0.0,-0.39706644,0.066437826,0.9148716,-0.9135132,-0.15106201,-0.28045654,0.20410156,0.13867188,0.18261719,10.310343,-8.220505,1.3754691,18.940678,-0.9794922,-0.109313965,-0.17071533,0.11816406,0.16015625,0.055664062,1.5140072,-10.186734,-55.41712,14.458928,-0.39971924,-0.66833496,0.6588745,-0.053710938,0.036132812,-0.12011719,20.129583,-10.411228,-127.33356,10.610981,0.0,0.0,0.0,0.0,0.0,0.0,0.0,-1.2213545,-126.85087,28.373903,0.0,0.0,0.0,0.0,0.0,0.0,0.0,0.39706644,-0.066437826,-0.9148716,0.97424316,-0.14337158,-0.1529541,-0.09375,0.13574219,0.15429688,15.135484,8.220505,-1.3754691,-18.940678,-0.9904785,-0.07208252,-0.18780518,0.04296875,0.12207031,0.09375,7.5652227,10.382382,-58.109863,-13.805511,-0.32037354,0.5869751,0.68310547,-0.080078125,0.13769531,0.06738281,6.764541,5.939576,-129.96259,-11.899198,0.0,0.0,0.0,0.0,0.0,0.0,0.0,20.241375,-130.19984,2.078395,0.0,0.0,0.0,0.0,0.0,0.0,0.0,9.100294,44.042347,0.75129986,
1.171874965075404,50,-0.04260254,-0.55493164,0.83795166,0.2421875,0.22753906,-0.28222656,0.0,0.0,0.0,0.0,0.0,0.0,0.0,0.0,0.0,0.0,0.0,-0.3923632,0.06630804,0.9171665,-0.9122925,-0.18225098,-0.31054688,0.20410156,0.13867188,0.18261719,10.5112,-8.123134,1.372782,18.988188,-0.9763794,-0.088134766,-0.15258789,0.060546875,0.140625,0.07519531,1.4065305,-10.0635805,-55.42174,14.507637,-0.39874268,-0.6671753,0.64886475,0.00390625,0.015625,-0.028320312,20.118248,-10.34062,-127.332596,10.551981,0.0,0.0,0.0,0.0,0.0,0.0,0.0,-1.1675854,-126.84339,28.323053,0.0,0.0,0.0,0.0,0.0,0.0,0.0,0.3923632,-0.06630804,-0.9171665,0.97613525,-0.16589355,-0.09466553,-0.0546875,0.061523438,0.171875,15.526958,8.123134,-1.372782,-18.988188,-0.9674072,-0.031188965,-0.1560669,-0.07128906,0.123046875,0.09375,7.893941,10.415651,-58.080006,-13.670174,-0.29711914,0.6192627,0.65185547,-0.020507812,0.080078125,0.08496094,6.971701,5.804675,-129.92317,-11.775835,0.0,0.0,0.0,0.0,0.0,0.0,0.0,20.053318,-130.16963,2.2544804,0.0,0.0,0.0,0.0,0.0,0.0,0.0,9.256281,44.020283,0.7773125,
1.195312464376912,51,-0.07763672,-0.5487671,0.817749,0.22265625,0.22753906,-0.3203125,0.0,0.0,0.0,0.0,0.0,0.0,0.0,0.0,0.0,0.0,0.0,-0.38717458,0.065743715,0.91952914,-0.9055786,-0.15509033,-0.2866211,0.16601562,0.099609375,0.18261719,10.647361,-8.015716,1.3610986,19.037102,-0.98236084,-0.07055664,-0.15045166,0.022460938,0.19726562,0.09375,1.2581884,-9.939123,-55.439625,14.603275,-0.4169922,-0.6382446,0.6640625,0.119140625,0.013671875,0.045898438,19.949684,-10.336764,-127.34033,10.587261,0.0,0.0,0.0,0.0,0.0,0.0,0.0,-1.161067,-126.840485,28.357021,0.0,0.0,0.0,0.0,0.0,0.0,0.0,0.38717458,-0.065743715,-0.91952914,0.99176025,-0.12646484,-0.08666992,-0.0546875,-0.013671875,0.17089844,15.776755,8.015716,-1.3610986,-19.037102,-0.9623413,-0.05230713,-0.19744873,-0.08886719,0.16113281,0.11230469,8.114378,10.344337,-58.05521,-13.56482,-0.2921753,0.5965576,0.66741943,0.0,0.060546875,0.06542969,6.8711543,5.5492296,-129.88773,-11.630844,0.0,0.0,0.0,0.0,0.0,0.0,0.0,19.772335,-130.15076,2.427349,0.0,0.0,0.0,0.0,0.0,0.0,0.0,9.375642,43.99964,0.8018348,
1.21874996367842,52,-0.085632324,-0.5460205,0.78985596,0.14550781,0.20703125,-0.32128906,0.0,0.0,0.0,0.0,0.0,0.0,0.0,0.0,0.0,0.0,0.0,-0.38204795,0.06416428,0.92158026,-0.91845703,-0.16119385,-0.26049805,0.12792969,0.10058594,0.1640625,10.817817,-7.9095783,1.3283992,19.079569,-0.9875488,-0.06970215,-0.12249756,-0.0146484375,0.27246094,0.09375,1.0334401,-9.727988,-55.480473,14.707005,-0.41906738,-0.6486206,0.68896484,0.15722656,-0.0048828125,0.045898438,19.658022,-10.295825,-127.3837,10.6879,0.0,0.0,0.0,0.0,0.0,0.0,0.0,-1.1107826,-126.85974,28.449814,0.0,0.0,0.0,0.0,0.0,0.0,0.0,0.38204795,-0.06416428,-0.92158026,1.013794,-0.12646484,-0.08117676,-0.053710938,-0.032226562,0.17089844,16.038624,7.9095783,-1.3283992,-19.079569,-0.9744873,-0.033691406,-0.17285156,-0.049804688,0.19921875,0.09472656,8.381198,10.302638,-58.009216,-13.45983,-0.2890625,0.5930176,0.71759033,0.078125,0.022460938,0.12011719,6.876119,5.3327947,-129.8281,-11.559807,0.0,0.0,0.0,0.0,0.0,0.0,0.0,19.525196,-130.08652,2.5272675,0.0,0.0,0.0,0.0,0.0,0.0,0.0,9.46565,43.970646,0.8626356,
1.242187462979928,53,-0.085754395,-0.5795288,0.8185425,0.087890625,0.11230469,-0.32128906,0.0,0.0,0.0,0.0,0.0,0.0,0.0,0.0,0.0,0.0,0.0,-0.3800277,0.063506186,0.9223292,-0.9486084,-0.16369629,-0.24682617,0.09082031,0.10058594,0.18359375,10.903799,-7.8677506,1.314775,19.095074,-0.9764404,-0.06121826,-0.09857178,-0.09082031,0.32910156,0.07421875,0.74256796,-9.524523,-55.50996,14.879016,-0.41986084,-0.6008911,0.6850586,0.23339844,-0.025390625,0.1015625,19.285513,-10.285425,-127.40814,10.922955,0.0,0.0,0.0,0.0,0.0,0.0,0.0,-1.0815859,-126.85695,28.678135,0.0,0.0,0.0,0.0,0.0,0.0,0.0,0.3800277,-0.063506186,-0.9223292,0.954895,-0.14416504,-0.092041016,-0.1484375,-0.013671875,0.13574219,16.087032,7.8677506,-1.314775,-19.095074,-0.9603882,-0.044006348,-0.16595459,0.025390625,0.19824219,0.13183594,8.57588,10.2979145,-57.98201,-13.39301,-0.30725098,0.5987549,0.66156006,0.099609375,-0.03515625,0.08203125,6.89216,5.1366873,-129.78833,-11.471748,0.0,0.0,0.0,0.0,0.0,0.0,0.0,19.311272,-130.00145,2.6365461,0.0,0.0,0.0,0.0,0.0,0.0,0.0,9.4459505,43.969257,0.8645532,
1.2656249622814362,54,-0.051757812,-0.59588623,0.8496094,0.068359375,0.09375,-0.359375,0.0,0.0,0.0,0.0,0.0,0.0,0.0,0.0,0.0,0.0,0.0,-0.37717584,0.06382781,0.9237579,-0.96099854,-0.13708496,-0.2234497,0.12792969,0.0234375,0.18261719,11.07007,-7.8087087,1.3214333,19.124651,-0.97351074,-0.068237305,-0.07678223,-0.16601562,0.46191406,0.09277344,0.41069296,-9.155344,-55.52662,15.130579,-0.40441895,-0.62506104,0.6809082,0.2919922,-0.0068359375,0.12011719,18.6694,-10.114331,-127.42864,11.217885,0.0,0.0,0.0,0.0,0.0,0.0,0.0,-0.92654324,-126.86579,28.974258,0.0,0.0,0.0,0.0,0.0,0.0,0.0,0.37717584,-0.06382781,-0.9237579,0.972229,-0.16400146,-0.12432861,-0.20410156,0.0048828125,0.17382812,15.98168,7.8087087,-1.3214333,-19.124651,-0.9390869,-0.016723633,-0.19622803,-0.0126953125,0.19921875,0.13183594,8.736779,10.239304,-57.973892,-13.346023,-0.28204346,0.6201172,0.6469116,0.09863281,-0.015625,0.119140625,7.0309577,4.8401875,-129.75963,-11.330758,0.0,0.0,0.0,0.0,0.0,0.0,0.0,18.981777,-129.91441,2.8089705,0.0,0.0,0.0,0.0,0.0,0.0,0.0,9.367697,43.99944,0.784709,
1.2890624615829442,55,-0.030700684,-0.57928467,0.8320923,0.107421875,0.15039062,-0.3779297,0.0,0.0,0.0,0.0,0.0,0.0,0.0,0.0,0.0,0.0,0.0,-0.3727593,0.06526637,0.9255585,-0.9343262,-0.14447021,-0.17944336,0.18457031,-0.11230469,0.16210938,11.443824,-7.7172737,1.3512163,19.161932,-0.97058105,-0.048217773,-0.022827148,-0.2421875,0.5751953,0.09277344,0.7249676,-8.597506,-55.52789,15.455851,-0.40893555,-0.6104126,0.69696045,0.3701172,0.0107421875,0.23046875,17.850376,-9.814198,-127.42906,11.6225815,0.0,0.0,0.0,0.0,0.0,0.0,0.0,-0.63435364,-126.86279,29.384857,0.0,0.0,0.0,0.0,0.0,0.0,0.0,0.3727593,-0.06526637,-0.9255585,0.9794922,-0.20343018,-0.109069824,-0.12792969,-0.087890625,0.171875,15.939861,7.7172737,-1.3512163,-19.161932,-0.9907837,-0.04095459,-0.19555664,-0.18261719,0.20117188,0.11328125,9.014236,10.110241,-57.988224,-13.1251335,-0.31793213,0.647522,0.6834717,0.099609375,-0.053710938,0.06347656,7.1547256,4.354323,-129.7414,-10.947516,0.0,0.0,0.0,0.0,0.0,0.0,0.0,18.479399,-129.8417,3.2101774,0.0,0.0,0.0,0.0,0.0,0.0,0.0,9.329993,44.014267,0.65386486,
1.3124999608844523,56,-0.02166748,-0.5673828,0.83325195,0.10644531,0.22558594,-0.3984375,0.0,0.0,0.0,0.0,0.0,0.0,0.0,0.0,0.0,0.0,0.0,-0.3666905,0.066991255,0.9278644,-0.97991943,-0.13848877,-0.123535156,0.203125,-0.26660156,0.1796875,12.118926,-7.59163,1.3869265,19.209671,-0.96588135,-0.047973633,0.081726074,-0.3359375,0.74609375,0.072265625,1.6961597,-7.736245,-55.523643,15.866257,-0.40338135,-0.63049316,0.70288086,0.4658203,0.009765625,0.24902344,16.683435,-9.272949,-127.41745,12.169323,0.0,0.0,0.0,0.0,0.0,0.0,0.0,-0.09207249,-126.84879,29.92898,0.0,0.0,0.0,0.0,0.0,0.0,0.0,0.3666905,-0.066991255,-0.9278644,0.9604492,-0.20141602,-0.11260986,-0.0146484375,-0.23730469,0.15039062,15.730076,7.59163,-1.3869265,-19.209671,-0.95666504,-0.04156494,-0.23480225,-0.33398438,0.22167969,0.09472656,9.163023,9.750074,-58.001995,-12.974356,-0.3040161,0.6368408,0.6647339,0.140625,-0.111328125,0.08105469,7.037233,3.5545459,-129.71867,-10.667429,0.0,0.0,0.0,0.0,0.0,0.0,0.0,17.704151,-129.75331,3.4659042,0.0,0.0,0.0,0.0,0.0,0.0,0.0,9.327905,44.016964,0.5083747,
1.3359374601859604,57,0.012329102,-0.58062744,0.859375,0.12597656,0.22558594,-0.36035156,0.0,0.0,0.0,0.0,0.0,0.0,0.0,0.0,0.0,0.0,0.0,-0.3597006,0.06934051,0.9306929,-1.0248413,-0.14569092,0.0048217773,0.4296875,-0.55859375,0.24902344,13.255871,-7.446918,1.4355637,19.268229,-0.9692993,-0.021484375,0.20751953,-0.4111328,1.0507812,0.051757812,3.2843778,-6.4040494,-55.484055,16.452406,-0.39770508,-0.642395,0.6958008,0.5625,-0.0107421875,0.36035156,15.299574,-8.406708,-127.37663,12.980151,0.0,0.0,0.0,0.0,0.0,0.0,0.0,0.75733757,-126.800995,30.749306,0.0,0.0,0.0,0.0,0.0,0.0,0.0,0.3597006,-0.06934051,-0.9306929,0.9918213,-0.10687256,-0.1281128,-0.05078125,-0.38671875,0.056640625,15.25896,7.446918,-1.4355637,-19.268229,-0.99334717,-0.078186035,-0.22521973,-0.35351562,0.18359375,0.11230469,9.109857,9.174863,-58.07672,-13.046873,-0.2949829,0.6206665,0.70202637,0.23828125,-0.15039062,0.1171875,6.8974514,2.4788542,-129.74754,-10.706161,0.0,0.0,0.0,0.0,0.0,0.0,0.0,16.651594,-129.69225,3.403386,0.0,0.0,0.0,0.0,0.0,0.0,0.0,9.351636,44.025093,0.33423114,
1.3593749594874684,58,-5.493164E-4,-0.557312,0.86724854,0.10644531,0.24316406,-0.34179688,0.0,0.0,0.0,0.0,0.0,0.0,0.0,0.0,0.0,0.0,0.0,-0.35236716,0.07237908,0.93321484,-1.0714111,-0.12200928,0.12451172,0.8261719,-1.1015625,0.2783203,15.287755,-7.2950935,1.4984713,19.32044,-0.95440674,-0.00970459,0.3121338,-0.39257812,1.4511719,0.06933594,5.916854,-4.2408714,-55.379368,17.305254,-0.3920288,-0.62939453,0.7296753,0.69921875,0.043945312,0.4892578,13.821996,-6.940337,-127.25661,14.136593,0.0,0.0,0.0,0.0,0.0,0.0,0.0,2.185729,-126.6798,31.924719,0.0,0.0,0.0,0.0,0.0,0.0,0.0,0.35236716,-0.07237908,-0.93321484,0.9700928,-0.104003906,-0.17919922,-0.27441406,-0.4609375,0.022460938,14.65119,7.2950935,-1.4984713,-19.32044,-0.9887085,-0.10974121,-0.24700928,-0.25976562,0.18261719,0.13183594,8.78436,8.521683,-58.185524,-13.459799,-0.31896973,0.62750244,0.7266846,0.33496094,-0.15039062,0.13476562,6.909697,1.3901453,-129.81378,-11.121221,0.0,0.0,0.0,0.0,0.0,0.0,0.0,15.60814,-129.6418,2.9434395,0.0,0.0,0.0,0.0,0.0,0.0,0.0,9.439676,44.005226,0.15127802,
1.3828124587889765,59,-0.029418945,-0.5001831,0.8293457,0.12597656,0.24121094,-0.16992188,0.0,0.0,0.0,0.0,0.0,0.0,0.0,0.0,0.0,0.0,0.0,-0.34460467,0.073137954,0.93610847,-1.072937,-0.1003418,0.29370117,1.3359375,-1.9541016,0.41503906,18.004028,-7.134385,1.5141826,19.380348,-1.0195312,0.07330322,0.20666504,-0.31640625,1.8525391,0.0107421875,9.7269,-1.4925494,-55.199257,18.268867,-0.41906738,-0.6376953,0.777771,0.8408203,0.19433594,0.72753906,12.746128,-5.5905786,-127.0195,15.236883,0.0,0.0,0.0,0.0,0.0,0.0,0.0,3.4790359,-126.48439,33.056343,0.0,0.0,0.0,0.0,0.0,0.0,0.0,0.34460467,-0.073137954,-0.93610847,0.9753418,-0.12084961,-0.2033081,-0.42285156,-0.61035156,0.005859375,13.911909,7.134385,-1.5141826,-19.380348,-0.98046875,-0.016662598,-0.26428223,0.099609375,0.15917969,0.16992188,8.187866,7.5917206,-58.254154,-13.944454,-0.33392334,0.66448975,0.6717529,0.39453125,-0.20800781,0.1328125,7.35274,0.041738987,-129.84177,-11.60672,0.0,0.0,0.0,0.0,0.0,0.0,0.0,14.309755,-129.50941,2.40407,0.0,0.0,0.0,0.0,0.0,0.0,0.0,9.585576,43.97635,0.092825174,
1.4062499580904846,60,-0.03729248,-0.45495605,0.77093506,0.009765625,0.234375,0.0,0.0,0.0,0.0,0.0,0.0,0.0,0.0,0.0,0.0,0.0,0.0,-0.33878133,0.0698062,0.9385592,-1.2046509,-0.0072631836,0.31280518,1.5058594,-2.3232422,0.5957031,21.093338,-7.0138254,1.4452049,19.431086,-1.2417603,0.14904785,-5.493164E-4,-0.5810547,2.2314453,0.0087890625,15.289269,1.5268154,-54.919033,19.120014,-0.38226318,-0.8241577,0.82403564,0.9921875,0.70703125,0.8876953,12.593334,-5.6537056,-126.484634,15.438514,0.0,0.0,0.0,0.0,0.0,0.0,0.0,3.3982964,-126.20079,33.270935,0.0,0.0,0.0,0.0,0.0,0.0,0.0,0.33878133,-0.0698062,-0.9385592,0.9122925,-0.24700928,-0.21124268,-0.421875,-0.6660156,0.0048828125,13.162447,7.0138254,-1.4452049,-19.431086,-0.9718628,0.05114746,-0.26782227,0.26953125,0.119140625,0.16894531,7.3673487,6.516741,-58.210342,-14.27654,-0.2906494,0.6887207,0.6404419,0.33691406,-0.20800781,0.115234375,8.0401745,-1.3746829,-129.75348,-11.72599,0.0,0.0,0.0,0.0,0.0,0.0,0.0,12.94356,-129.23277,2.2272816,0.0,0.0,0.0,0.0,0.0,0.0,0.0,9.724938,43.948364,0.24160314,
1.4296874573919927,61,-0.07446289,-0.5171509,0.84954834,-0.22363281,0.39257812,0.18457031,0.0,0.0,0.0,0.0,0.0,0.0,0.0,0.0,0.0,0.0,0.0,-0.3345241,0.061430022,0.94054615,-1.4841919,0.12219238,0.48815918,1.0703125,-2.477539,0.8017578,24.228262,-6.9256835,1.2717919,19.47222,-1.4419556,0.046081543,-0.10192871,-0.7314453,2.6113281,0.0078125,21.969774,4.6950164,-54.532887,20.315512,-0.4494629,-0.9435425,0.8722534,0.5673828,1.5849609,1.3583984,11.889074,-6.524242,-125.51819,15.604738,0.0,0.0,0.0,0.0,0.0,0.0,0.0,2.609839,-125.91718,33.395344,0.0,0.0,0.0,0.0,0.0,0.0,0.0,0.3345241,-0.061430022,-0.94054615,0.9361572,-0.34375,-0.23059082,-0.27148438,-0.7783203,-0.03515625,12.319217,6.9256835,-1.2717919,-19.47222,-0.96417236,0.11828613,-0.2871704,0.19238281,0.08105469,0.1875,6.423243,5.3381515,-58.016476,-14.304262,-0.26843262,0.70318604,0.63757324,0.23730469,-0.13085938,0.061523438,8.574781,-2.816955,-129.50648,-11.288587,0.0,0.0,0.0,0.0,0.0,0.0,0.0,11.529793,-128.81177,2.6267653,0.0,0.0,0.0,0.0,0.0,0.0,0.0,9.6751175,43.950974,0.5705724,
1.4531249566935007,62,-0.16705322,-0.66278076,0.9550171,-0.35839844,0.2763672,0.22167969,0.0,0.0,0.0,0.0,0.0,0.0,0.0,0.0,0.0,0.0,0.0,-0.33632997,0.04777336,0.94065225,-1.4157104,0.119140625,0.08679199,0.9560547,-2.5351562,0.85839844,27.363152,-6.963074,0.9890569,19.474417,-1.5337524,-0.073913574,-0.17913818,-0.203125,2.6552734,0.06542969,29.175562,7.9096465,-54.003967,21.685802,-0.5405884,-0.8008423,0.8533325,0.7421875,2.5898438,2.1777344,10.649227,-7.5527997,-124.085175,15.689072,0.0,0.0,0.0,0.0,0.0,0.0,0.0,1.567163,-125.68147,33.424927,0.0,0.0,0.0,0.0,0.0,0.0,0.0,0.33632997,-0.04777336,-0.94065225,0.90930176,-0.39093018,-0.18884277,0.0107421875,-0.8339844,-0.040039062,11.462777,6.963074,-0.9890569,-19.474417,-0.989563,0.11584473,-0.20562744,0.041015625,0.06347656,0.13085938,5.423144,4.197436,-57.670834,-14.066299,-0.2843628,0.73779297,0.6190796,0.13964844,-0.09277344,0.0625,8.767013,-4.1071057,-129.1216,-10.505162,0.0,0.0,0.0,0.0,0.0,0.0,0.0,10.264866,-128.29301,3.3771915,0.0,0.0,0.0,0.0,0.0,0.0,0.0,9.348635,44.0095,1.1074705,
1.4765624559950088,63,-0.04510498,-0.70147705,0.9435425,0.107421875,0.06738281,0.21289062,0.0,0.0,0.0,0.0,0.0,0.0,0.0,0.0,0.0,0.0,0.0,-0.33944392,0.041780166,0.93989575,-1.635315,-0.05529785,0.3166504,0.55859375,-2.3769531,0.66015625,30.293884,-7.02754,0.8649791,19.458755,-1.2352295,-0.016906738,-0.34570312,0.12207031,2.5458984,-0.25976562,35.731163,10.558611,-53.256474,22.883913,-0.55023193,-1.1695557,0.7529907,1.0771484,3.3476562,2.5751953,9.100555,-8.833004,-122.198364,15.312943,0.0,0.0,0.0,0.0,0.0,0.0,0.0,0.18966293,-125.43719,32.875732,0.0,0.0,0.0,0.0,0.0,0.0,0.0,0.33944392,-0.041780166,-0.93989575,0.96191406,-0.3239746,-0.20910645,0.25390625,-0.87109375,-0.119140625,10.831528,7.02754,-0.8649791,-19.458755,-0.9628296,0.02746582,-0.19317627,0.060546875,0.10253906,0.11230469,4.537773,3.1952565,-57.460358,-13.923189,-0.27056885,0.67852783,0.6561279,0.12109375,-0.111328125,0.0068359375,8.741748,-5.2033863,-128.8782,-10.004189,0.0,0.0,0.0,0.0,0.0,0.0,0.0,9.18877,-127.9907,3.8539534,0.0,0.0,0.0,0.0,0.0,0.0,0.0,9.243054,44.027397,1.3810325,
1.4999999552965169,64,0.028808594,-0.7233887,0.75616455,0.36035156,-0.037109375,0.18066406,0.0,0.0,0.0,0.0,0.0,0.0,0.0,0.0,0.0,0.0,0.0,-0.35054576,0.043451756,0.93476975,-0.9818115,0.044433594,-0.7819824,0.61621094,-1.7539062,0.0546875,33.571568,-7.257384,0.8995862,19.352633,-1.0062866,-0.0045166016,-0.70648193,-0.03125,2.2578125,-0.06738281,42.082615,13.164589,-52.167023,23.460197,-0.42895508,-1.1156616,1.559021,1.7910156,2.9013672,2.7285156,7.3373795,-9.843979,-119.8245,14.504692,0.0,0.0,0.0,0.0,0.0,0.0,0.0,-0.9616833,-124.73382,31.747385,0.0,0.0,0.0,0.0,0.0,0.0,0.0,0.35054576,-0.043451756,-0.93476975,0.9154663,-0.17193604,-0.1708374,0.140625,-0.8339844,-0.13574219,10.16686,7.257384,-0.8995862,-19.352633,-0.97283936,0.035583496,-0.1951294,0.17480469,0.12011719,0.13183594,3.64395,2.506175,-57.4632,-14.068036,-0.2824707,0.7001343,0.66015625,0.07910156,-0.03515625,-0.0107421875,8.788697,-5.914278,-128.86948,-10.037185,0.0,0.0,0.0,0.0,0.0,0.0,0.0,8.499186,-127.93701,3.796194,0.0,0.0,0.0,0.0,0.0,0.0,0.0,9.348366,43.96093,1.4622316,
1.523437454598025,65,0.118774414,-0.76446533,0.8701782,-0.0078125,-0.064453125,0.1171875,0.0,0.0,0.0,0.0,0.0,0.0,0.0,0.0,0.0,0.0,0.0,-0.361967,0.045158464,0.92990464,-0.8876953,0.27331543,-0.31530762,-0.55859375,-1.9765625,-0.30371094,34.49213,-7.493839,0.93492013,19.251907,-1.1925049,0.064331055,-0.50860596,-0.08691406,1.1503906,-0.19726562,45.538242,14.009155,-51.66961,23.444635,1.1102295,-1.4850464,0.5079346,0.83496094,1.6132812,-0.17578125,6.4446983,-11.476259,-118.27342,13.395519,0.0,0.0,0.0,0.0,0.0,0.0,0.0,-2.510808,-123.84628,30.390219,0.0,0.0,0.0,0.0,0.0,0.0,0.0,0.361967,-0.045158464,-0.92990464,0.88726807,-0.13452148,-0.19165039,-0.23242188,-0.9453125,-0.111328125,8.929621,7.493839,-0.93492013,-19.251907,-0.96295166,0.040405273,-0.14685059,0.29101562,0.17675781,0.09472656,2.6029365,1.6948009,-57.432537,-14.383304,-0.26239014,0.7088623,0.6454468,0.12109375,-0.111328125,0.025390625,8.889599,-6.7584357,-128.83047,-10.250893,0.0,0.0,0.0,0.0,0.0,0.0,0.0,7.6923833,-127.83636,3.539688,0.0,0.0,0.0,0.0,0.0,0.0,0.0,9.14926,43.986,1.4252963,
1.546874953899533,66,0.08068848,-0.7699585,0.8736572,0.28320312,-0.16503906,-0.029296875,0.0,0.0,0.0,0.0,0.0,0.0,0.0,0.0,0.0,0.0,0.0,-0.36360702,0.0471049,0.9297057,-0.9767456,-0.06536865,-0.113098145,-1.1074219,-2.3251953,0.32714844,36.87136,-7.527793,0.97521746,19.247791,-0.9718628,0.037597656,-0.36468506,0.5957031,-0.17675781,-0.421875,48.1721,15.9507,-50.715347,24.313667,0.73565674,-1.3807373,1.0449829,-0.3076172,0.9238281,-1.1845703,4.630624,-9.687133,-117.158104,13.622564,0.0,0.0,0.0,0.0,0.0,0.0,0.0,-0.3219633,-123.16028,30.248135,0.0,0.0,0.0,0.0,0.0,0.0,0.0,0.36360702,-0.0471049,-0.9297057,0.9616089,-0.293396,-0.19689941,-0.38183594,-0.98339844,-0.072265625,8.033702,7.527793,-0.97521746,-19.247791,-0.97265625,0.14691162,-0.082458496,0.16015625,0.23632812,0.01953125,1.6446104,0.7125888,-57.393074,-14.700414,-0.27056885,0.68951416,0.6335449,0.061523438,-0.07324219,-0.0107421875,8.90918,-7.8154845,-128.76947,-10.248072,0.0,0.0,0.0,0.0,0.0,0.0,0.0,6.6476655,-127.71857,3.5247765,0.0,0.0,0.0,0.0,0.0,0.0,0.0,9.221826,43.995373,1.3775578,
1.570312453201041,67,-0.018920898,-0.64404297,0.7904663,0.4970703,-0.3251953,-0.119140625,0.0,0.0,0.0,0.0,0.0,0.0,0.0,0.0,0.0,0.0,0.0,-0.37081662,0.05690067,0.9260507,-1.0411377,-0.1663208,0.013977051,-0.6152344,-2.1728516,0.23046875,39.462395,-7.677053,1.1780201,19.17212,-0.8406372,0.019104004,-0.4442749,0.8984375,-1.4707031,-0.49316406,49.039753,17.884157,-49.459953,24.833256,0.95233154,-0.93048096,1.300293,-0.77246094,-0.36816406,-1.4833984,3.8913364,-5.705349,-116.57947,13.674757,0.0,0.0,0.0,0.0,0.0,0.0,0.0,3.997425,-122.48879,30.141985,0.0,0.0,0.0,0.0,0.0,0.0,0.0,0.37081662,-0.05690067,-0.9260507,0.9887085,-0.3729248,-0.08325195,-0.3642578,-0.8339844,-0.10839844,7.3775153,7.677053,-1.1780201,-19.17212,-0.92456055,0.08062744,6.1035156E-5,0.18261719,0.31347656,-0.036132812,1.4398065,0.0029177666,-57.476944,-14.591333,-0.24243164,0.682312,0.6394043,-0.12988281,-0.13085938,-0.10253906,8.526709,-8.431154,-128.83621,-9.863052,0.0,0.0,0.0,0.0,0.0,0.0,0.0,6.049035,-127.74279,3.8886108,0.0,0.0,0.0,0.0,0.0,0.0,0.0,9.418329,43.951473,1.0707889,
1.5937499525025491,68,-0.026611328,-0.54022217,0.72125244,0.4580078,-0.32714844,-0.0625,0.0,0.0,0.0,0.0,0.0,0.0,0.0,0.0,0.0,0.0,0.0,-0.38137805,0.065974146,0.92091966,-0.75823975,-0.3151245,-0.035339355,-0.2548828,-1.7099609,-0.009765625,41.745525,-7.8957095,1.3658696,19.065893,-0.7392578,0.15802002,-0.46063232,0.3642578,-2.6416016,-0.1640625,48.096638,19.562101,-48.277893,24.658237,0.81695557,-0.9364624,1.2804565,-0.8496094,-1.4912109,-1.8212891,4.4410906,-0.5302582,-116.63385,14.136454,0.0,0.0,0.0,0.0,0.0,0.0,0.0,9.423935,-121.87669,30.678082,0.0,0.0,0.0,0.0,0.0,0.0,0.0,0.38137805,-0.065974146,-0.92091966,0.97283936,-0.31750488,-0.010864258,-0.16113281,-0.6464844,-0.16699219,7.016519,7.8957095,-1.3658696,-19.065893,-0.94781494,0.1204834,0.061157227,0.30273438,0.54296875,-0.033203125,1.575201,-0.23011827,-57.592037,-14.446996,-0.24243164,0.682312,0.6394043,-0.12988281,-0.13085938,-0.10253906,8.183741,-8.664715,-128.94139,-9.568033,0.0,0.0,0.0,0.0,0.0,0.0,0.0,5.8154745,-127.84797,4.18363,0.0,0.0,0.0,0.0,0.0,0.0,0.0,9.588905,43.910236,0.825325,
1.6171874518040572,69,0.0034179688,-0.54400635,0.69488525,0.4189453,-0.27441406,0.05078125,0.0,0.0,0.0,0.0,0.0,0.0,0.0,0.0,0.0,0.0,0.0,-0.38368553,0.074938506,0.9196641,-0.62091064,-0.24816895,-0.030395508,0.125,-1.3271484,0.11816406,44.13804,-7.943479,1.5514593,19.039896,-0.6990967,0.046020508,-0.4967041,-0.35742188,-3.6435547,0.12695312,45.64728,21.140009,-47.11976,24.96304,0.45202637,-1.0401611,1.2344971,-0.8232422,-2.2314453,-2.4589844,4.3413577,6.045623,-116.9837,16.15143,0.0,0.0,0.0,0.0,0.0,0.0,0.0,16.259426,-121.08686,32.857452,0.0,0.0,0.0,0.0,0.0,0.0,0.0,0.38368553,-0.074938506,-0.9196641,0.9918213,-0.2939453,-0.03881836,-0.0859375,-0.6464844,-0.1875,6.9619875,7.943479,-1.5514593,-19.039896,-0.92437744,0.12133789,-0.039123535,-0.052734375,0.7001953,-0.0126953125,1.295431,-0.3649373,-57.75368,-14.44997,-0.2052002,0.68640137,0.6699219,-0.3232422,-0.16796875,-0.24902344,7.6772614,-9.2721,-129.03383,-9.329939,0.0,0.0,0.0,0.0,0.0,0.0,0.0,5.2661905,-128.03041,4.366433,0.0,0.0,0.0,0.0,0.0,0.0,0.0,9.989115,43.841232,0.5950892,
1.6406249511055653,70,0.034301758,-0.56921387,0.6595459,0.18652344,-0.26367188,0.103515625,0.0,0.0,0.0,0.0,0.0,0.0,0.0,0.0,0.0,0.0,0.0,-0.3863715,0.082569525,0.9182644,-0.5967407,-0.21221924,-0.07550049,0.29589844,-1.0009766,0.24707031,46.041534,-7.9990864,1.7094449,19.01092,-0.7435303,-0.08081055,-0.4855957,-0.24707031,-4.4052734,0.32128906,41.731686,22.367352,-46.12571,25.300053,-0.008972168,-1.003418,1.1876221,-0.7246094,-2.5146484,-2.9736328,3.6950688,13.53386,-117.34289,19.220732,0.0,0.0,0.0,0.0,0.0,0.0,0.0,24.039572,-119.95344,36.04517,0.0,0.0,0.0,0.0,0.0,0.0,0.0,0.3863715,-0.082569525,-0.9182644,0.92926025,-0.24407959,-0.20861816,-0.047851562,-0.64746094,-0.13183594,6.5923433,7.9990864,-1.7094449,-19.01092,-0.91833496,0.015930176,-0.14978027,-0.20019531,0.83691406,-0.06738281,0.9425307,-0.68664074,-57.870815,-14.641457,-0.28070068,0.6618042,0.680603,-0.30566406,-0.11035156,-0.26757812,7.3853836,-10.636405,-129.01654,-9.563116,0.0,0.0,0.0,0.0,0.0,0.0,0.0,3.969058,-128.15904,4.0713453,0.0,0.0,0.0,0.0,0.0,0.0,0.0,10.282802,43.79173,0.388906,
1.6640624504070733,71,0.07006836,-0.64331055,0.6746826,0.01171875,-0.28710938,0.12011719,0.0,0.0,0.0,0.0,0.0,0.0,0.0,0.0,0.0,0.0,0.0,-0.40333432,0.08788918,0.9094112,-0.5873413,-0.09490967,0.053466797,0.5048828,-0.7324219,0.24707031,46.701523,-8.35027,1.8195784,18.827631,-0.8465576,-0.07470703,-0.34649658,0.52734375,-4.854492,0.38085938,36.93848,22.922089,-45.38971,25.413422,-0.50177,-1.0067139,0.9663696,-0.62402344,-2.3623047,-3.0117188,3.749723,20.983229,-117.313034,22.276928,0.0,0.0,0.0,0.0,0.0,0.0,0.0,31.731438,-118.321236,39.121857,0.0,0.0,0.0,0.0,0.0,0.0,0.0,0.40333432,-0.08788918,-0.9094112,0.87158203,-0.122924805,-0.2765503,-0.12207031,-0.79589844,-0.13183594,5.244001,8.35027,-1.8195784,-18.827631,-0.9536133,-0.012634277,-0.28381348,0.047851562,0.8730469,-0.0859375,0.8816,-1.0776443,-57.906567,-14.9438925,-0.2753296,0.7136841,0.66815186,-0.25,-0.034179688,-0.22949219,7.8261895,-12.351782,-128.89224,-10.441275,0.0,0.0,0.0,0.0,0.0,0.0,0.0,2.2985563,-128.17177,3.1525574,0.0,0.0,0.0,0.0,0.0,0.0,0.0,9.940994,43.828598,0.17317152,
1.6874999497085814,72,0.07489014,-0.70043945,0.70233154,0.14746094,-0.171875,0.10253906,0.0,0.0,0.0,0.0,0.0,0.0,0.0,0.0,0.0,0.0,0.0,-0.42364645,0.091391906,0.8985827,-0.67248535,0.13568115,0.23956299,0.7705078,-0.75390625,0.37402344,47.05301,-8.770794,1.8920957,18.603449,-0.869812,0.024963379,-0.24584961,1.3408203,-4.939453,0.4013672,31.759684,23.31136,-44.73637,25.426481,-0.7814331,-0.9746704,0.9199219,-0.6064453,-1.8681641,-2.8144531,4.776309,28.71199,-116.54767,25.056606,0.0,0.0,0.0,0.0,0.0,0.0,0.0,39.65028,-116.110825,41.80265,0.0,0.0,0.0,0.0,0.0,0.0,0.0,0.42364645,-0.091391906,-0.8985827,0.86016846,-0.13598633,-0.37164307,-0.1953125,-0.9453125,-0.1875,3.4659407,8.770794,-1.8920957,-18.603449,-0.95410156,0.06262207,-0.39660645,-0.16113281,0.875,-0.047851562,0.4334104,-1.7033587,-57.83899,-15.496366,-0.29803467,0.6159668,0.68725586,-0.17480469,0.0234375,-0.23046875,8.514999,-14.565094,-128.57767,-11.297245,0.0,0.0,0.0,0.0,0.0,0.0,0.0,0.12449932,-127.99364,2.261568,0.0,0.0,0.0,0.0,0.0,0.0,0.0,9.440421,43.889854,-0.013105869,
1.7109374490100895,73,0.13079834,-0.7408447,0.75146484,0.3408203,-0.017578125,0.08496094,0.0,0.0,0.0,0.0,0.0,0.0,0.0,0.0,0.0,0.0,0.0,-0.44207153,0.09496106,0.88873273,-0.6920166,0.16912842,0.49084473,1.0537109,-0.81347656,0.3330078,47.727203,-9.152251,1.9659886,18.399525,-0.86291504,0.05053711,-0.14904785,1.3027344,-4.5966797,0.4580078,26.577833,23.803398,-44.02285,25.37381,-1.1697388,-0.8129883,0.9733887,-0.49121094,-1.7333984,-3.0566406,5.9225492,36.642265,-114.85467,27.549969,0.0,0.0,0.0,0.0,0.0,0.0,0.0,47.77202,-113.058495,44.07633,0.0,0.0,0.0,0.0,0.0,0.0,0.0,0.44207153,-0.09496106,-0.88873273,0.83343506,-0.103759766,-0.473938,-0.26953125,-0.9824219,-0.16699219,2.11072,9.152251,-1.9659886,-18.399525,-0.94592285,-0.10046387,-0.42590332,-0.026367188,0.91308594,-0.123046875,0.22641939,-2.6720438,-57.678497,-16.119743,-0.8668823,0.8864136,0.73010254,-0.0234375,0.13867188,-0.10058594,9.448705,-17.179436,-128.13568,-12.590233,0.0,0.0,0.0,0.0,0.0,0.0,0.0,-2.4396477,-127.66861,0.91840935,0.0,0.0,0.0,0.0,0.0,0.0,0.0,9.129039,43.93263,-0.15325415,
1.7343749483115976,74,0.13903809,-0.67303467,0.79833984,0.4951172,0.13574219,0.06640625,0.0,0.0,0.0,0.0,0.0,0.0,0.0,0.0,0.0,0.0,0.0,-0.4535732,0.09950548,0.8827642,-0.7017212,0.039733887,0.5864258,0.8457031,-0.7705078,0.00390625,48.958866,-9.390371,2.060072,18.275957,-0.8225708,0.05053711,-0.07458496,0.9033203,-4.220703,0.64746094,21.925367,24.614988,-43.143127,25.237377,-1.1435547,-0.44281006,0.89398193,-0.6152344,-1.5244141,-2.7998047,6.6537538,44.378857,-112.25338,29.8171,0.0,0.0,0.0,0.0,0.0,0.0,0.0,55.63661,-109.161194,46.06334,0.0,0.0,0.0,0.0,0.0,0.0,0.0,0.4535732,-0.09950548,-0.8827642,0.91326904,-0.07525635,-0.46636963,-0.39941406,-1.0947266,-0.18457031,2.054523,9.390371,-2.060072,-18.275957,-1.0703735,-0.08105469,-0.32092285,0.12597656,0.8925781,-0.21777344,0.311533,-3.8396416,-57.482964,-16.82856,-0.3649292,0.6772461,0.701355,0.08886719,0.21582031,-0.3046875,10.72141,-20.010303,-127.60276,-13.951845,0.0,0.0,0.0,0.0,0.0,0.0,0.0,-5.269251,-127.19525,-0.44537544,0.0,0.0,0.0,0.0,0.0,0.0,0.0,9.09156,43.953854,-0.2831576,
1.7578124476131056,75,0.09527588,-0.61291504,0.7860718,0.5527344,0.19335938,0.047851562,0.0,0.0,0.0,0.0,0.0,0.0,0.0,0.0,0.0,0.0,0.0,-0.46128005,0.10293044,0.8787318,-0.8152466,0.14752197,0.58825684,0.42871094,-0.6328125,-0.12011719,50.80866,-9.549927,2.1309795,18.192474,-0.85632324,0.013977051,-0.06677246,0.18554688,-3.5419922,0.58691406,18.398481,25.659458,-42.05494,25.74339,-1.2367554,-0.30615234,0.64868164,-0.71777344,-1.4521484,-2.0986328,7.435454,51.245342,-109.02599,32.64072,0.0,0.0,0.0,0.0,0.0,0.0,0.0,62.449165,-104.863106,48.68377,0.0,0.0,0.0,0.0,0.0,0.0,0.0,0.46128005,-0.10293044,-0.8787318,0.9574585,-0.14508057,-0.38275146,-0.4921875,-1.1689453,-0.20214844,2.9391153,9.549927,-2.1309795,-18.192474,-1.0231323,-0.15161133,-0.27288818,0.14355469,0.9296875,-0.06640625,0.91898423,-5.0527096,-57.231773,-17.772066,-0.24450684,0.649353,0.7071533,0.2705078,0.50390625,-0.4892578,11.353294,-22.494753,-127.06616,-15.438224,0.0,0.0,0.0,0.0,0.0,0.0,0.0,-7.7754335,-126.8048,-1.9010239,0.0,0.0,0.0,0.0,0.0,0.0,0.0,9.261794,43.933064,-0.28423786,
1.7812499469146137,76,0.05114746,-0.642395,0.85876465,0.4169922,0.2265625,0.06347656,0.0,0.0,0.0,0.0,0.0,0.0,0.0,0.0,0.0,0.0,0.0,-0.46658474,0.10353778,0.8766258,-0.9194946,0.31311035,0.61920166,-0.4404297,-0.1640625,-0.12695312,52.017876,-9.659752,2.1435535,18.14887,-0.9349365,0.015075684,0.04827881,0.13085938,-2.8554688,0.43164062,15.580335,26.168716,-41.426178,26.370922,-1.3165894,-0.19488525,0.04901123,-0.7636719,-0.84765625,-1.1630859,8.540631,55.90776,-106.48311,34.65882,0.0,0.0,0.0,0.0,0.0,0.0,0.0,66.94054,-101.61932,50.62426,0.0,0.0,0.0,0.0,0.0,0.0,0.0,0.46658474,-0.10353778,-0.8766258,1.121582,-0.17767334,-0.31518555,-0.8857422,-1.1699219,-0.12109375,4.031966,9.659752,-2.1435535,-18.14887,-1.1367798,0.079956055,-0.20629883,0.67871094,1.0595703,-0.1015625,1.2206111,-6.1712713,-56.90336,-18.620214,-0.24920654,0.6911621,0.7290039,0.42773438,0.94628906,-0.7470703,11.98854,-24.830605,-126.445854,-17.1466,0.0,0.0,0.0,0.0,0.0,0.0,0.0,-10.151936,-126.43723,-3.5645351,0.0,0.0,0.0,0.0,0.0,0.0,0.0,9.455572,43.923557,-0.15505171,
1.8046874462161218,77,-0.0010986328,-0.711853,0.91241455,0.49414062,0.265625,0.10253906,0.0,0.0,0.0,0.0,0.0,0.0,0.0,0.0,0.0,0.0,0.0,-0.47039908,0.10128085,0.8752172,-1.114685,0.34344482,0.7925415,-1.4824219,-0.1953125,-0.31933594,52.53499,-9.738718,2.0968275,18.11971,-0.7741089,-0.0012207031,0.19158936,-0.16699219,-1.7138672,0.08203125,12.7202835,26.117964,-41.418785,26.536898,-1.8258667,0.06323242,-0.3112793,-0.7792969,0.15820312,-0.34375,9.962196,59.015717,-104.805466,35.87136,0.0,0.0,0.0,0.0,0.0,0.0,0.0,69.9869,-99.77143,51.822598,0.0,0.0,0.0,0.0,0.0,0.0,0.0,0.47039908,-0.10128085,-0.8752172,1.1940918,-0.27227783,-0.255188,-0.90527344,-1.1132812,-0.13867188,5.200138,9.738718,-2.0968275,-18.11971,-1.1609497,-0.001953125,-0.09362793,0.34375,1.2177734,-0.23242188,1.4713998,-7.5030613,-56.411713,-19.374044,-0.26885986,0.7449951,0.75097656,0.5390625,1.6181641,-1.0009766,12.626247,-27.9234,-125.46939,-18.572565,0.0,0.0,0.0,0.0,0.0,0.0,0.0,-13.363729,-125.85431,-4.8674183,0.0,0.0,0.0,0.0,0.0,0.0,0.0,9.7428665,43.87558,0.15913701,
1.8281249455176298,78,-0.001159668,-0.72821045,0.89849854,0.20410156,0.21972656,0.09863281,0.0,0.0,0.0,0.0,0.0,0.0,0.0,0.0,0.0,0.0,0.0,-0.46904334,0.098433256,0.8768519,-1.1781616,0.06378174,0.87731934,-2.0703125,-0.5175781,-0.5371094,53.195415,-9.710651,2.0378735,18.153553,-0.6574707,-0.2567749,0.12890625,-0.50097656,0.17285156,-0.44335938,12.130079,26.310627,-41.276672,26.91043,-2.0,0.12896729,-0.48425293,-0.01171875,0.18847656,-0.17773438,10.117735,60.180435,-104.143616,36.264877,0.0,0.0,0.0,0.0,0.0,0.0,0.0,71.22344,-99.18171,52.189163,0.0,0.0,0.0,0.0,0.0,0.0,0.0,0.46904334,-0.098433256,-0.8768519,1.3087158,-0.28289795,-0.13476562,-0.71972656,-0.9638672,-0.12207031,6.367505,9.710651,-2.0378735,-18.153553,-1.234314,-0.0390625,0.006286621,0.46484375,1.4853516,-0.20996094,1.4965868,-8.853653,-55.89299,-20.15717,-0.32824707,0.74298096,0.73223877,0.6533203,2.1376953,-1.4238281,13.060256,-31.342743,-124.3098,-20.170856,0.0,0.0,0.0,0.0,0.0,0.0,0.0,-16.99486,-125.30077,-6.275543,0.0,0.0,0.0,0.0,0.0,0.0,0.0,9.9814415,43.84382,0.4174471,
1.851562444819138,79,0.06732178,-0.87060547,0.8979492,0.14648438,0.12597656,0.060546875,0.0,0.0,0.0,0.0,0.0,0.0,0.0,0.0,0.0,0.0,0.0,-0.46772772,0.09629989,0.87819177,-1.0219727,-0.32305908,0.5767822,-1.671875,-0.25097656,-0.484375,53.66001,-9.6834135,1.9937062,18.181292,-0.6342163,-0.1796875,-0.2619629,0.049804688,1.8583984,-0.60253906,13.955633,26.460274,-41.162334,27.216133,-2.0,0.5533447,-0.51538086,0.34375,1.3613281,0.8984375,9.161929,58.82051,-104.999695,35.300014,0.0,0.0,0.0,0.0,0.0,0.0,0.0,70.10117,-100.362885,51.152897,0.0,0.0,0.0,0.0,0.0,0.0,0.0,0.46772772,-0.09629989,-0.87819177,1.2488403,-0.1665039,-0.15405273,-0.66503906,-0.77734375,-0.15917969,7.3189855,9.6834135,-1.9937062,-18.181292,-1.2237549,-0.016601562,0.022216797,0.58691406,1.734375,-0.28222656,1.5230281,-9.886937,-55.4712,-20.775665,-0.37225342,0.7909546,0.68133545,0.73339844,2.5234375,-1.9589844,13.267542,-34.848534,-123.013985,-21.769789,0.0,0.0,0.0,0.0,0.0,0.0,0.0,-20.70235,-124.852356,-7.7523746,0.0,0.0,0.0,0.0,0.0,0.0,0.0,10.131456,43.823666,0.59047365,
1.874999944120646,80,0.2341919,-0.7324219,1.4078369,-0.27929688,-0.049804688,-0.15429688,0.0,0.0,0.0,0.0,0.0,0.0,0.0,0.0,0.0,0.0,0.0,-0.4660109,0.09527305,0.8793813,-0.9760132,-0.13793945,1.2739868,-0.119140625,-0.028320312,-0.40625,53.60099,-9.647871,1.9724473,18.20592,-2.0,1.0935669,1.336853,0.39160156,2.6835938,-0.6621094,17.402252,26.525541,-41.168503,27.12101,-0.28149414,1.5391846,0.9390869,-1.4560547,4.227539,2.6572266,9.348575,55.4161,-106.866554,33.138287,0.0,0.0,0.0,0.0,0.0,0.0,0.0,67.16915,-103.405075,48.9514,0.0,0.0,0.0,0.0,0.0,0.0,0.0,0.4660109,-0.09527305,-0.8793813,1.2000122,-0.07965088,-0.14813232,-0.7988281,-0.5908203,-0.13769531,8.375667,9.647871,-1.9724473,-18.20592,-1.1948853,0.013061523,0.0647583,0.8623047,2.0791016,-0.33398438,2.6053417,-10.716503,-55.116898,-21.352058,-0.35107422,0.81951904,0.6382446,0.65234375,3.100586,-2.602539,13.574337,-38.570206,-121.49959,-23.446949,0.0,0.0,0.0,0.0,0.0,0.0,0.0,-24.762098,-124.40627,-9.27638,0.0,0.0,0.0,0.0,0.0,0.0,0.0,10.0744505,43.843548,0.5887041,
1.898437443422154,81,-0.324646,-0.8505249,1.3716431,-0.54785156,-0.74121094,-0.3408203,0.0,0.0,0.0,0.0,0.0,0.0,0.0,0.0,0.0,0.0,0.0,-0.4655306,0.102276325,0.8790555,-1.9537964,-0.2368164,0.9526367,1.3564453,0.045898438,-1.0849609,53.149242,-9.637927,2.117437,18.199173,-1.8691406,-0.038330078,-0.5862427,1.1914062,2.3095703,0.56640625,20.399887,26.836174,-41.001503,25.979712,-2.0,1.6213989,0.1538086,-0.4140625,1.2001953,0.29101562,13.2659645,52.190792,-108.156235,31.819397,0.0,0.0,0.0,0.0,0.0,0.0,0.0,64.1139,-106.81594,47.82785,0.0,0.0,0.0,0.0,0.0,0.0,0.0,0.4655306,-0.102276325,-0.8790555,1.6586914,-0.4413452,-0.18151855,-0.42773438,-0.21679688,-0.17871094,9.751571,9.637927,-2.117437,-18.199173,-1.5738525,0.22192383,0.4244995,0.13378906,2.3378906,-0.63378906,4.67047,-11.269017,-55.01769,-21.86074,-0.41363525,0.9177246,0.66833496,0.2626953,4.1777344,-3.4970703,13.458423,-42.355263,-119.88135,-25.435856,0.0,0.0,0.0,0.0,0.0,0.0,0.0,-29.172838,-124.36538,-11.078647,0.0,0.0,0.0,0.0,0.0,0.0,0.0,9.742588,43.93078,0.048226833,
1.921874942723662,82,-0.26574707,-0.8643799,1.1107788,-0.29492188,-1.1269531,-0.123046875,0.0,0.0,0.0,0.0,0.0,0.0,0.0,0.0,0.0,0.0,0.0,-0.47297823,0.119074516,0.8730285,-0.7581787,-0.24517822,-1.2832642,1.0224609,2.21875,0.07714844,50.61392,-9.792115,2.4652116,18.074396,0.005126953,0.26428223,-0.3095703,1.8681641,2.3398438,-0.7753906,21.953978,25.585335,-41.814663,24.217236,0.42419434,-2.0,-1.9668579,0.73046875,-0.9902344,0.9628906,15.480554,47.28377,-110.37991,27.983814,0.0,0.0,0.0,0.0,0.0,0.0,0.0,58.996838,-110.070526,44.197487,0.0,0.0,0.0,0.0,0.0,0.0,0.0,0.47297823,-0.119074516,-0.8730285,1.6820068,-0.37268066,0.040893555,0.0087890625,0.9580078,-0.06640625,10.375151,9.792115,-2.4652116,-18.074396,-1.3572998,-0.06866455,0.62353516,0.16113281,2.758789,-0.25097656,8.626711,-10.528859,-55.58722,-21.871834,-0.5124512,0.89434814,0.5913696,0.26464844,5.0634766,-4.546875,12.670307,-45.312946,-118.48521,-26.45734,0.0,0.0,0.0,0.0,0.0,0.0,0.0,-33.184196,-125.02894,-11.961815,0.0,0.0,0.0,0.0,0.0,0.0,0.0,9.261971,44.026978,-0.98711634,
1.9453124420251702,83,0.037231445,-0.67126465,1.2727051,0.6357422,-0.9589844,0.3095703,0.0,0.0,0.0,0.0,0.0,0.0,0.0,0.0,0.0,0.0,0.0,-0.48780286,0.13659403,0.8621257,-0.32928467,-0.22033691,0.00793457,-0.62597656,1.1230469,0.6767578,48.305134,-10.099031,2.8279197,17.848675,-1.0447388,-1.1043091,-0.980896,-1.6708984,2.352539,-0.625,23.105152,23.37823,-42.906437,23.94728,-0.36987305,-0.85284424,0.9435425,1.1630859,-0.7294922,1.2558594,13.669562,41.144623,-112.677124,25.7863,0.0,0.0,0.0,0.0,0.0,0.0,0.0,52.376854,-112.46791,42.32284,0.0,0.0,0.0,0.0,0.0,0.0,0.0,0.48780286,-0.13659403,-0.8621257,1.3751831,-0.28344727,0.35986328,0.52734375,1.5917969,0.20898438,8.838647,10.099031,-2.8279197,-17.848675,-1.2766113,-0.07080078,0.7635498,0.7783203,3.1376953,-0.24511719,14.392347,-8.568611,-56.593624,-21.040226,-0.6834717,0.8932495,0.5205078,-0.044921875,5.9316406,-6.0566406,13.860753,-47.513725,-116.916176,-26.551712,0.0,0.0,0.0,0.0,0.0,0.0,0.0,-37.012817,-125.90442,-12.0952,0.0,0.0,0.0,0.0,0.0,0.0,0.0,9.406184,43.972218,-1.6447457,
1.9687499413266782,84,0.16381836,-0.2211914,0.9841919,-0.6464844,-0.47460938,0.22558594,0.0,0.0,0.0,0.0,0.0,0.0,0.0,0.0,0.0,0.0,0.0,-0.49003974,0.15274261,0.85634345,-0.607666,-0.5206909,-0.42468262,-0.09863281,1.1943359,-1.3027344,47.224396,-10.145342,3.1622458,17.728966,-1.0447388,-1.1043091,-0.980896,-1.6708984,2.352539,-0.625,21.389734,21.996717,-43.439224,23.096188,-0.70129395,-0.79455566,0.663208,1.1728516,-0.171875,0.6953125,13.904792,39.763115,-113.20991,24.935207,0.0,0.0,0.0,0.0,0.0,0.0,0.0,50.833344,-112.9119,41.589798,0.0,0.0,0.0,0.0,0.0,0.0,0.0,0.49003974,-0.15274261,-0.85634345,1.1571045,-0.17858887,0.35961914,0.56152344,1.890625,0.26660156,6.3827906,10.145342,-3.1622458,-17.728966,-1.4341431,-0.08148193,0.7108154,1.1455078,4.0195312,-0.29101562,21.681269,-6.2571335,-57.71468,-19.887142,-2.0,-1.9039917,1.3633423,-0.08886719,4.9716797,-5.8242188,17.350302,-49.990063,-114.57472,-26.290482,0.0,0.0,0.0,0.0,0.0,0.0,0.0,-41.797783,-126.03018,-12.090859,0.0,0.0,0.0,0.0,0.0,0.0,0.0,9.855972,43.779705,-2.168767,
1.9921874406281863,85,-0.093444824,-0.23425293,0.9263916,-1.2285156,-0.3779297,0.119140625,0.0,0.0,0.0,0.0,0.0,0.0,0.0,0.0,0.0,0.0,0.0,-0.47542188,0.15446804,0.86050344,-0.88305664,-0.59106445,-0.4876709,-1.3837891,2.5585938,-1.9443359,42.920555,-9.842707,3.1979675,17.81509,-0.75982666,0.3171997,-0.70410156,0.953125,1.3535156,-0.15820312,22.367523,19.708193,-45.510036,19.934862,-0.5142212,-0.76116943,0.6387329,0.8847656,-0.051757812,0.2685547,17.31659,31.950453,-116.44252,18.924473,0.0,0.0,0.0,0.0,0.0,0.0,0.0,43.038082,-116.10736,35.567066,0.0,0.0,0.0,0.0,0.0,0.0,0.0,0.47542188,-0.15446804,-0.86050344,1.4754639,-0.119506836,0.47943115,1.1708984,4.28125,-0.10253906,4.6360774,9.842707,-3.1979675,-17.81509,-1.8685913,0.7883911,-0.48571777,0.36914062,4.0273438,-0.31054688,31.840853,-2.3163347,-58.881397,-18.76308,-0.99694824,-1.9100952,0.79748535,-1.5654297,4.126953,-5.7626953,20.723866,-51.328053,-111.14836,-25.997845,0.0,0.0,0.0,0.0,0.0,0.0,0.0,-45.293663,-124.48877,-12.374144,0.0,0.0,0.0,0.0,0.0,0.0,0.0,9.068612,43.762177,-2.8453588,
2.0156249399296944,86,-0.07495117,-0.39257812,0.9727783,-0.93652344,-0.55371094,-0.026367188,0.0,0.0,0.0,0.0,0.0,0.0,0.0,0.0,0.0,0.0,0.0,-0.46334618,0.15079351,0.8667619,-1.2666626,-0.104003906,-0.31756592,-0.018554688,2.3232422,-0.11425781,38.740154,-9.592702,3.1218934,17.944658,-0.9590454,0.39135742,-0.5518799,-0.74902344,0.9707031,-0.19726562,20.760738,17.389694,-47.093124,18.654493,-0.4689331,-0.49163818,0.7385864,0.40625,0.01171875,0.1015625,16.600882,27.75277,-118.35011,17.214169,0.0,0.0,0.0,0.0,0.0,0.0,0.0,38.9,-117.98193,33.816875,0.0,0.0,0.0,0.0,0.0,0.0,0.0,0.46334618,-0.15079351,-0.8667619,1.4577026,-0.48815918,-0.73327637,1.4794922,3.5888672,0.26171875,4.987077,9.592702,-3.1218934,-17.944658,-1.6565552,-0.28045654,-0.9741211,-1.8837891,3.491211,-0.2626953,42.53757,2.7508874,-59.708073,-17.244854,-0.64642334,-1.8840942,-2.0,0.4951172,1.6591797,-1.59375,21.035378,-50.69926,-107.37294,-24.814102,0.0,0.0,0.0,0.0,0.0,0.0,0.0,-46.415287,-121.54629,-11.37026,0.0,0.0,0.0,0.0,0.0,0.0,0.0,8.030986,43.891403,-3.3428016,
2.0390624392312025,87,0.0670166,-0.4165039,0.9388428,-0.21972656,-0.5644531,-0.37597656,0.0,0.0,0.0,0.0,0.0,0.0,0.0,0.0,0.0,0.0,0.0,-0.4579525,0.16018872,0.86992365,-0.8792114,0.0076904297,-0.22436523,-0.017578125,2.5722656,0.052734375,34.645878,-9.481037,3.3164032,18.010117,-0.9736328,-0.015930176,-0.50561523,-2.0341797,0.9736328,-0.3330078,18.616154,14.084774,-48.572113,18.03806,-0.4262085,-0.48858643,0.7741089,-0.13085938,0.036132812,-0.12011719,14.487489,22.286024,-120.088196,16.651619,0.0,0.0,0.0,0.0,0.0,0.0,0.0,33.457397,-119.68801,33.23683,0.0,0.0,0.0,0.0,0.0,0.0,0.0,0.4579525,-0.16018872,-0.86992365,1.779602,0.14001465,-1.1938477,3.1054688,4.091797,0.48046875,7.984754,9.481037,-3.3164032,-18.010117,-1.5615845,-0.27520752,-0.58618164,0.05078125,1.6992188,0.09472656,50.9687,7.3709583,-60.18499,-14.811048,0.9406128,1.0668945,1.727356,-0.25195312,0.71191406,0.2607422,20.254652,-48.860603,-104.60782,-21.987553,0.0,0.0,0.0,0.0,0.0,0.0,0.0,-45.11865,-118.795975,-8.396683,0.0,0.0,0.0,0.0,0.0,0.0,0.0,7.6591897,43.9762,-4.065811,
2.0624999385327105,88,0.09375,-0.48394775,0.7992554,-0.4140625,-0.27441406,-0.28710938,0.0,0.0,0.0,0.0,0.0,0.0,0.0,0.0,0.0,0.0,0.0,-0.45519844,0.17038979,0.87133884,-0.7442627,-0.031066895,-0.1307373,-0.5859375,2.5205078,-0.23632812,31.202274,-9.424017,3.527597,18.039413,-0.982666,-0.40307617,-0.27490234,0.93652344,0.74316406,-0.44433594,16.313923,10.972788,-49.70407,17.440016,-0.39630127,-0.6201782,0.6768799,-0.32226562,0.0390625,-0.17578125,14.171461,17.740335,-121.3609,15.186326,0.0,0.0,0.0,0.0,0.0,0.0,0.0,28.83282,-120.93864,31.822903,0.0,0.0,0.0,0.0,0.0,0.0,0.0,0.45519844,-0.17038979,-0.87133884,1.3537598,0.11730957,-0.15332031,2.071289,4.095703,-0.30566406,12.931538,9.424017,-3.527597,-18.039413,-1.232727,-0.27227783,-0.6972046,0.11230469,0.080078125,0.54589844,57.687244,12.805975,-60.16068,-12.498954,0.66638184,1.6754761,1.7249146,0.36035156,-1.171875,1.6650391,19.443548,-44.207985,-103.651566,-19.144775,0.0,0.0,0.0,0.0,0.0,0.0,0.0,-40.061806,-117.52433,-5.3507853,0.0,0.0,0.0,0.0,0.0,0.0,0.0,7.424845,44.026356,-4.730496,
2.0859374378342186,89,0.09387207,-0.43292236,0.68444824,0.048828125,0.25097656,0.19042969,0.0,0.0,0.0,0.0,0.0,0.0,0.0,0.0,0.0,0.0,0.0,-0.45471537,0.16801044,0.8732089,-0.81048584,-0.27001953,0.008117676,-0.6621094,2.5605469,-0.3095703,27.760374,-9.414018,3.478337,18.078133,-0.9234619,-0.08660889,-0.18078613,0.8798828,0.6279297,-0.48242188,13.997458,7.8360643,-50.84403,16.806095,-0.42370605,-0.7160034,0.59716797,-0.09375,-0.001953125,-0.1015625,16.27886,13.434164,-122.537796,12.841859,0.0,0.0,0.0,0.0,0.0,0.0,0.0,24.370186,-122.12916,29.577477,0.0,0.0,0.0,0.0,0.0,0.0,0.0,0.45471537,-0.16801044,-0.8732089,1.3344727,0.15930176,0.019104004,1.0185547,4.3398438,-0.58496094,18.1721,9.414018,-3.478337,-18.078133,-1.029602,-0.11541748,-0.8334961,0.91503906,-1.5458984,0.8095703,62.145042,18.334797,-59.325447,-10.973961,0.3982544,1.2164917,1.4299316,0.3701172,-3.0166016,2.555664,18.723957,-37.82117,-104.06368,-16.562437,0.0,0.0,0.0,0.0,0.0,0.0,0.0,-32.50892,-117.38382,-2.624917,0.0,0.0,0.0,0.0,0.0,0.0,0.0,7.1363115,44.115906,-4.771988,
2.1093749371357267,90,0.010925293,-0.36920166,0.47943115,0.31933594,0.47753906,0.4404297,0.0,0.0,0.0,0.0,0.0,0.0,0.0,0.0,0.0,0.0,0.0,-0.4562306,0.15854193,0.8750252,-0.8790283,-0.3040161,-0.099731445,-0.9082031,2.852539,-0.5263672,24.652596,-9.445387,3.2823093,18.115732,-0.8914795,0.012145996,-0.1741333,-0.86035156,0.6064453,-0.40722656,11.188452,4.3436317,-51.980164,15.702389,-0.40460205,-0.6600952,0.6489258,0.3486328,-0.045898438,0.17578125,16.676928,8.846226,-123.70498,11.078539,0.0,0.0,0.0,0.0,0.0,0.0,0.0,19.609978,-123.30395,27.925835,0.0,0.0,0.0,0.0,0.0,0.0,0.0,0.4562306,-0.15854193,-0.8750252,1.3131104,-0.23547363,-0.09265137,-0.049804688,4.432617,-0.32421875,24.458088,9.445387,-3.2823093,-18.115732,-0.80133057,0.009460449,-0.9866333,0.7050781,-2.8720703,0.88671875,64.85568,24.050068,-57.720737,-9.626984,0.05822754,1.1201172,1.1380005,0.3251953,-4.4375,3.1914062,17.910051,-29.577911,-105.58989,-14.058508,0.0,0.0,0.0,0.0,0.0,0.0,0.0,-22.546007,-118.102455,-0.1332531,0.0,0.0,0.0,0.0,0.0,0.0,0.0,7.323722,44.178234,-4.185933,
2.1328124364372347,91,-0.12512207,-0.35742188,0.4935913,-0.049804688,0.56152344,0.37597656,0.0,0.0,0.0,0.0,0.0,0.0,0.0,0.0,0.0,0.0,0.0,-0.45670778,0.14522234,0.8774471,-0.9130249,-0.109191895,-0.13494873,-1.4375,3.165039,-0.6298828,20.956106,-9.455268,3.0065527,18.165876,-1.0231323,-0.085754395,-0.13342285,-2.0722656,0.7441406,-0.2548828,7.857053,0.32091236,-53.044083,14.54636,-0.40008545,-0.6121216,0.6739502,0.3466797,-0.14160156,0.25097656,14.611401,3.6794627,-124.83664,9.999601,0.0,0.0,0.0,0.0,0.0,0.0,0.0,14.339137,-124.39554,26.917429,0.0,0.0,0.0,0.0,0.0,0.0,0.0,0.45670778,-0.14522234,-0.8774471,1.0706787,-0.35394287,-0.27526855,-0.47558594,4.0947266,0.036132812,30.271795,9.455268,-3.0065527,-18.165876,-0.58898926,-0.13549805,-1.0131226,0.29296875,-3.9277344,1.0810547,65.62201,29.181538,-55.577263,-8.334795,0.024475098,0.7255249,0.7755127,0.328125,-5.0146484,3.6865234,16.944376,-20.36655,-107.750374,-11.313235,0.0,0.0,0.0,0.0,0.0,0.0,0.0,-11.366942,-118.91324,2.603592,0.0,0.0,0.0,0.0,0.0,0.0,0.0,7.3695064,44.245792,-3.4871235,
2.156249935738743,92,-0.19836426,-0.41674805,0.5628662,-0.4169922,0.2734375,0.296875,0.0,0.0,0.0,0.0,0.0,0.0,0.0,0.0,0.0,0.0,0.0,-0.45821235,0.13094725,0.8790451,-0.819458,-0.30395508,-0.021728516,-1.8349609,3.1660156,-0.3857422,16.839773,-9.486416,2.7110143,18.198957,-1.0187378,-0.4140625,-0.1671753,-0.31347656,0.72753906,-0.27246094,4.4317307,-3.8758326,-53.84322,13.666292,-0.3918457,-0.58148193,0.71777344,0.21386719,-0.10253906,0.23242188,13.109402,-1.556984,-125.64436,8.59623,0.0,0.0,0.0,0.0,0.0,0.0,0.0,8.968111,-125.16197,25.596958,0.0,0.0,0.0,0.0,0.0,0.0,0.0,0.45821235,-0.13094725,-0.8790451,0.78637695,-0.28094482,-0.39935303,0.09472656,3.4033203,0.20898438,33.74201,9.486416,-2.7110143,-18.198957,-0.38946533,-0.08111572,-0.97680664,0.3203125,-4.928711,1.1816406,63.36411,32.408638,-53.665585,-7.047826,-0.2668457,0.9196167,0.69195557,0.44726562,-5.073242,3.9453125,17.306076,-11.666782,-110.60658,-7.9026356,0.0,0.0,0.0,0.0,0.0,0.0,0.0,-0.838089,-119.85382,6.1402864,0.0,0.0,0.0,0.0,0.0,0.0,0.0,7.015744,44.34782,-2.9492502,
2.179687435040251,93,-0.22259521,-0.48553467,0.60498047,-0.24023438,-0.13085938,0.34277344,0.0,0.0,0.0,0.0,0.0,0.0,0.0,0.0,0.0,0.0,0.0,-0.46406177,0.12274057,0.8773616,-0.7125244,-0.44677734,-0.10424805,-1.0576172,3.3105469,0.19726562,12.976509,-9.607518,2.54111,18.164104,-1.0187988,-0.10168457,-0.23120117,1.6904297,0.6376953,-0.19335938,0.7052664,-8.430237,-54.22322,12.980865,-0.42248535,-0.5977173,0.7250366,0.060546875,-0.1015625,0.23242188,14.744468,-6.7969007,-125.92508,6.4417353,0.0,0.0,0.0,0.0,0.0,0.0,0.0,3.5777445,-125.417656,23.532547,0.0,0.0,0.0,0.0,0.0,0.0,0.0,0.46406177,-0.12274057,-0.8773616,0.56915283,-0.22766113,-0.4973755,0.8535156,2.6738281,0.3408203,37.407818,9.607518,-2.54111,-18.164104,-0.26715088,-0.07232666,-1.0009155,-0.33007812,-5.7314453,1.3222656,60.962677,35.87609,-51.54991,-5.61919,-0.4505005,1.1619263,0.5506592,0.61816406,-4.901367,4.334961,18.126734,-2.0732956,-112.68037,-2.9270391,0.0,0.0,0.0,0.0,0.0,0.0,0.0,10.323732,-119.8904,11.015454,0.0,0.0,0.0,0.0,0.0,0.0,0.0,6.619113,44.431805,-2.7148528,
2.203124934341759,94,-0.11248779,-0.47528076,0.57073975,-0.14355469,-0.18554688,0.4404297,0.0,0.0,0.0,0.0,0.0,0.0,0.0,0.0,0.0,0.0,0.0,-0.47351623,0.11986426,0.8727736,-1.0298462,-0.32452393,-0.34051514,0.38183594,3.1074219,0.4951172,11.010525,-9.803256,2.481562,18.06912,-0.8912964,0.22210693,-0.18725586,0.064453125,0.7324219,-0.21484375,2.3964524,-12.428885,-54.13371,11.947702,-0.45611572,-0.6000366,0.68640137,-0.033203125,-0.0625,0.28710938,16.509325,-12.008706,-125.8407,5.3326015,0.0,0.0,0.0,0.0,0.0,0.0,0.0,-1.7962751,-125.402245,22.523672,0.0,0.0,0.0,0.0,0.0,0.0,0.0,0.47351623,-0.11986426,-0.8727736,0.36901855,-0.14538574,-0.46051025,1.1601562,2.0019531,0.2939453,40.42029,9.803256,-2.481562,-18.06912,-0.18621826,-0.13934326,-1.0432739,-0.6748047,-6.459961,1.4072266,56.929405,38.476017,-49.75908,-4.206649,-0.59277344,1.2452393,0.8748779,0.5517578,-4.482422,5.0820312,20.015013,7.8664093,-114.59924,2.257481,0.0,0.0,0.0,0.0,0.0,0.0,0.0,21.36426,-119.34358,16.234755,0.0,0.0,0.0,0.0,0.0,0.0,0.0,6.4560556,44.465534,-2.6040893,
2.226562433643267,95,-0.03149414,-0.4899292,0.56378174,-0.29785156,-0.26464844,0.45703125,0.0,0.0,0.0,0.0,0.0,0.0,0.0,0.0,0.0,0.0,0.0,-0.48410362,0.1162049,0.8675736,-1.0070801,-0.1998291,-0.2008667,0.076171875,2.2802734,0.29003906,10.147009,-10.022445,2.4058018,17.961462,-1.0567017,-0.15454102,0.041503906,-1.2578125,1.0595703,-0.3701172,4.931375,-15.982708,-53.885376,11.219035,-0.4315796,-0.6298218,0.70410156,-0.12402344,0.07128906,0.3408203,15.351286,-16.741596,-125.60232,4.7932596,0.0,0.0,0.0,0.0,0.0,0.0,0.0,-6.6802864,-125.2662,22.07864,0.0,0.0,0.0,0.0,0.0,0.0,0.0,0.48410362,-0.1162049,-0.8675736,0.16729736,-0.13006592,-0.40045166,1.0556641,1.3300781,0.2919922,42.531322,10.022445,-2.4058018,-17.961462,-0.2779541,-0.18414307,-1.0831909,-0.39160156,-7.022461,1.7021484,50.068916,40.343193,-48.277184,-2.9487572,-0.8057251,0.9684448,1.2197266,1.1005859,-4.0996094,5.3964844,21.26288,20.286694,-116.90748,5.7022085,0.0,0.0,0.0,0.0,0.0,0.0,0.0,34.358753,-118.823616,19.787436,0.0,0.0,0.0,0.0,0.0,0.0,0.0,6.218089,44.51096,-2.4922287,
2.249999932944775,96,-0.07977295,-0.54992676,0.5689697,-0.5292969,-0.53125,0.47558594,0.0,0.0,0.0,0.0,0.0,0.0,0.0,0.0,0.0,0.0,0.0,-0.49694383,0.11379821,0.8605165,-1.2166748,-0.20928955,-0.159729,-0.32226562,1.6845703,0.29003906,10.113185,-10.288278,2.3559756,17.815357,-1.1748047,-0.2960205,0.18634033,0.12402344,1.3056641,-0.44726562,5.3513403,-18.24172,-53.677746,10.959211,-0.47381592,-0.5093994,0.6917114,-0.515625,0.26367188,0.59765625,15.649063,-20.868315,-125.266495,3.5704927,0.0,0.0,0.0,0.0,0.0,0.0,0.0,-10.984044,-125.16649,20.95922,0.0,0.0,0.0,0.0,0.0,0.0,0.0,0.49694383,-0.11379821,-0.8605165,0.07647705,-0.0814209,-0.33850098,0.6875,0.7324219,0.3125,43.52499,10.288278,-2.3559756,-17.815357,-0.38653564,0.076293945,-1.060669,-1.0478516,-7.5146484,1.5068359,41.337605,41.501476,-47.323387,-1.9180002,-1.3814087,1.300293,1.1939697,0.76660156,-4.0214844,4.8066406,21.239635,33.874554,-118.18376,8.427279,0.0,0.0,0.0,0.0,0.0,0.0,0.0,48.14761,-117.33704,22.413582,0.0,0.0,0.0,0.0,0.0,0.0,0.0,5.8665957,44.554523,-2.5041432,
2.273437432246283,97,-0.12207031,-0.664917,0.78808594,-0.5283203,-0.7919922,0.5546875,0.0,0.0,0.0,0.0,0.0,0.0,0.0,0.0,0.0,0.0,0.0,-0.5237315,0.108051546,0.8436174,-1.2684937,0.042785645,7.9345703E-4,-0.8730469,1.1914062,-0.3720703,10.9062,-10.842866,2.237002,17.465494,-1.1914673,-0.014831543,0.16699219,-0.7265625,1.7148438,-0.4873047,5.2515807,-20.591911,-53.471905,10.294264,-0.47491455,-0.6758423,0.7293091,-0.6298828,0.75878906,0.9423828,16.449577,-25.60709,-124.804794,1.7237091,0.0,0.0,0.0,0.0,0.0,0.0,0.0,-15.974018,-125.15548,19.25047,0.0,0.0,0.0,0.0,0.0,0.0,0.0,0.5237315,-0.108051546,-0.8436174,0.17590332,0.012084961,-0.3475952,-0.13085938,0.171875,0.37890625,43.376945,10.842866,-2.237002,-17.465494,-0.67089844,0.024841309,-0.76275635,-1.5644531,-7.2939453,0.8486328,32.50571,42.362766,-46.757168,-0.922781,-2.0,1.3740234,1.2199097,0.81152344,-2.6376953,4.0771484,20.79478,46.61216,-117.59602,11.012106,0.0,0.0,0.0,0.0,0.0,0.0,0.0,60.66437,-114.37814,24.876644,0.0,0.0,0.0,0.0,0.0,0.0,0.0,5.187817,44.577507,-2.4888592,
2.296874931547791,98,-0.15960693,-0.8135376,0.977478,-0.21777344,-1.0263672,0.6582031,0.0,0.0,0.0,0.0,0.0,0.0,0.0,0.0,0.0,0.0,0.0,-0.54909784,0.109648764,0.8274837,-1.3074951,0.4356079,0.14422607,-2.5214844,1.2832031,-1.0371094,12.801978,-11.368026,2.2700691,17.131477,-1.210022,-0.005432129,0.24389648,-2.0126953,2.0429688,-0.45117188,4.5443726,-22.812126,-53.016197,9.205337,-0.4404297,-0.67840576,0.7609253,-0.92871094,1.3486328,1.5087891,15.439904,-30.912373,-123.94851,-0.2549591,0.0,0.0,0.0,0.0,0.0,0.0,0.0,-21.59309,-125.084045,17.405567,0.0,0.0,0.0,0.0,0.0,0.0,0.0,0.54909784,-0.109648764,-0.8274837,0.49230957,-0.23040771,-0.16241455,-1.2119141,-0.23925781,0.50683594,42.51768,11.368026,-2.2700691,-17.131477,-1.1994629,0.37060547,-0.5484619,-1.3837891,-6.0585938,-0.2109375,24.570503,42.564785,-46.876583,-0.21766663,-2.0,1.397583,0.93566895,-0.41992188,-2.734375,4.0703125,20.669327,57.19854,-116.446365,11.332418,0.0,0.0,0.0,0.0,0.0,0.0,0.0,70.673935,-111.365204,25.211397,0.0,0.0,0.0,0.0,0.0,0.0,0.0,4.75174,44.62378,-2.7598996,
2.3203124308492993,99,-0.041870117,-0.927124,1.0847168,0.38378906,-1.1230469,0.8027344,0.0,0.0,0.0,0.0,0.0,0.0,0.0,0.0,0.0,0.0,0.0,-0.57371694,0.11741074,0.8101213,-1.2581787,0.28814697,-0.09387207,-3.7714844,1.0195312,-0.9160156,14.250254,-11.87772,2.430766,16.772022,-1.3112183,0.08972168,0.2871704,-1.8261719,2.5410156,-0.22265625,3.4772203,-25.143982,-52.370167,8.36124,-0.46429443,-0.68292236,0.8140259,-1.109375,2.1298828,1.9619141,13.252862,-36.98839,-122.63747,-2.0869274,0.0,0.0,0.0,0.0,0.0,0.0,0.0,-27.980562,-124.971954,15.618816,0.0,0.0,0.0,0.0,0.0,0.0,0.0,0.57371694,-0.11741074,-0.8101213,1.7879639,-0.27886963,1.0772095,-1.0390625,1.1416016,0.81152344,42.738796,11.87772,-2.430766,-16.772022,-1.2701416,-0.23492432,-0.784729,-2.2841797,-4.584961,-0.609375,19.106627,42.971985,-46.939026,0.5914192,-2.0,0.07702637,-0.9232788,-1.5195312,-2.3486328,3.2871094,18.930586,65.83307,-114.41603,11.139294,0.0,0.0,0.0,0.0,0.0,0.0,0.0,78.56432,-107.91884,25.1288,0.0,0.0,0.0,0.0,0.0,0.0,0.0,4.945855,44.61172,-2.9629817,
2.3437499301508073,100,0.13323975,-1.1898193,0.9257202,-0.21875,-0.7685547,0.76953125,0.0,0.0,0.0,0.0,0.0,0.0,0.0,0.0,0.0,0.0,0.0,-0.5965127,0.12216524,0.79314184,-1.1998901,-0.5463867,-0.288208,-3.1845703,0.43359375,-0.50097656,14.985126,-12.349662,2.5291991,16.420494,-1.1854858,0.2444458,0.028808594,-1.8828125,2.9980469,-0.20605469,2.0222628,-27.029484,-51.938366,8.197662,-0.42694092,-0.64642334,0.8256836,-1.0117188,3.2333984,2.4101562,10.274083,-43.334755,-121.133835,-3.3460512,0.0,0.0,0.0,0.0,0.0,0.0,0.0,-34.6269,-125.1514,14.212089,0.0,0.0,0.0,0.0,0.0,0.0,0.0,0.5965127,-0.12216524,-0.79314184,1.3911743,-1.1928711,1.5423584,1.7373047,-0.50683594,1.8007812,44.19529,12.349662,-2.5291991,-16.420494,-0.37365723,-0.16131592,0.046020508,-2.0927734,-1.4375,0.5625,18.21418,43.686626,-45.915314,3.1969604,-2.0,-0.5444946,-1.4091187,1.1855469,-0.99902344,1.8066406,16.944094,70.407555,-111.856186,14.336216,0.0,0.0,0.0,0.0,0.0,0.0,0.0,82.59834,-104.40705,28.332531,0.0,0.0,0.0,0.0,0.0,0.0,0.0,5.0170264,44.60808,-3.097602,
2.3671874294523154,101,0.2253418,-1.1670532,0.86450195,-0.14257812,-0.45117188,0.7861328,0.0,0.0,0.0,0.0,0.0,0.0,0.0,0.0,0.0,0.0,0.0,-0.6150058,0.1180793,0.77965987,-1.1895142,-0.4387207,-0.22894287,-1.5566406,0.13085938,0.034179688,15.349504,-12.732526,2.4446073,16.141375,-1.3400269,0.033325195,0.0368042,-1.2041016,3.2353516,-0.013671875,3.5178616,-28.272411,-51.838146,8.294012,-0.43371582,-0.7227173,0.73687744,-0.59765625,4.7158203,2.8554688,6.2756677,-49.53154,-119.45187,-4.4734287,0.0,0.0,0.0,0.0,0.0,0.0,0.0,-41.00806,-125.68254,12.522123,0.0,0.0,0.0,0.0,0.0,0.0,0.0,0.6150058,-0.1180793,-0.77965987,0.7611084,-0.36358643,0.90478516,1.9619141,-1.2626953,-0.3935547,43.099293,12.732526,-2.4446073,-16.141375,-0.6338501,0.30004883,-0.27142334,-2.3457031,1.5673828,0.39160156,17.870686,42.892426,-46.21881,4.444479,-2.0,-0.64715576,-1.4077759,-0.9824219,2.53125,0.99121094,16.274706,68.70703,-112.33014,16.687893,0.0,0.0,0.0,0.0,0.0,0.0,0.0,80.29476,-104.60905,31.043324,0.0,0.0,0.0,0.0,0.0,0.0,0.0,4.7528462,44.647766,-3.0127873,
2.3906249287538235,102,0.17193604,-0.74102783,1.0581665,-0.16308594,-0.05859375,0.5908203,0.0,0.0,0.0,0.0,0.0,0.0,0.0,0.0,0.0,0.0,0.0,-0.62739706,0.112791374,0.7704165,-1.2918701,-0.20092773,0.17926025,-0.53515625,-0.4189453,0.38867188,14.681229,-12.989065,2.3351312,15.95001,-1.2984619,0.06762695,0.37054443,-0.35351562,3.321289,0.06347656,7.630466,-28.827808,-51.964725,8.830008,-0.6176758,-0.746521,0.6356201,-0.42578125,6.1191406,3.8740234,5.8759646,-54.93866,-117.54747,-5.454295,0.0,0.0,0.0,0.0,0.0,0.0,0.0,-46.706177,-126.53438,10.412694,0.0,0.0,0.0,0.0,0.0,0.0,0.0,0.62739706,-0.112791374,-0.7704165,0.88012695,0.080566406,0.46343994,1.5322266,-1.3564453,-0.3310547,42.021976,12.989065,-2.3351312,-15.95001,-0.977417,-0.07147217,0.9750366,-1.7929688,4.0195312,1.3847656,19.938702,42.066193,-46.851303,4.579447,0.3126831,-0.09063721,-1.038147,1.0664062,6.7382812,-0.5839844,18.27326,61.83228,-114.69601,18.178318,0.0,0.0,0.0,0.0,0.0,0.0,0.0,72.77826,-108.068375,33.42074,0.0,0.0,0.0,0.0,0.0,0.0,0.0,4.745858,44.66657,-2.6744828,
2.4140624280553316,103,0.49163818,-0.64715576,1.272583,-1.5634766,1.0576172,0.30664062,0.0,0.0,0.0,0.0,0.0,0.0,0.0,0.0,0.0,0.0,0.0,-0.62756646,0.08987073,0.7732503,-1.633606,-0.64068604,0.55126953,0.33398438,-1.2158203,0.50390625,14.091198,-12.99257,1.8606027,16.008678,-1.8195801,-0.28302002,0.9651489,-0.6386719,3.5664062,0.19628906,13.158682,-28.344238,-52.707195,9.947571,-0.6991577,-1.0449219,0.39837646,0.40820312,7.5097656,5.908203,12.141678,-59.63127,-115.639175,-5.785965,0.0,0.0,0.0,0.0,0.0,0.0,0.0,-52.250378,-127.87483,8.224829,0.0,0.0,0.0,0.0,0.0,0.0,0.0,0.62756646,-0.08987073,-0.7732503,1.999939,0.19787598,0.71661377,2.3251953,-1.2890625,1.3564453,40.21373,12.99257,-1.8606027,-16.008678,-1.4942627,-0.13537598,-0.12780762,-3.0634766,2.8652344,0.16210938,22.729546,40.680626,-46.85207,5.395794,-2.0,-1.9002075,1.0130005,-0.18066406,2.1396484,-2.0097656,18.92011,55.706993,-116.106155,18.242302,0.0,0.0,0.0,0.0,0.0,0.0,0.0,67.12024,-113.257675,34.4188,0.0,0.0,0.0,0.0,0.0,0.0,0.0,3.7271423,44.78855,-2.180601,
2.4374999273568396,104,0.3572998,-0.43719482,1.267456,0.3720703,1.6875,0.33203125,0.0,0.0,0.0,0.0,0.0,0.0,0.0,0.0,0.0,0.0,0.0,-0.6151234,0.0496078,0.78682053,-1.3252563,-0.5710449,0.663147,0.9560547,-2.4736328,0.39746094,12.482868,-12.7349615,1.0270351,16.289623,-1.6397095,-0.18786621,0.81256104,-0.3701172,3.913086,-0.16894531,20.71874,-26.189663,-54.20424,11.958763,-1.5021973,-2.0,1.0548706,0.6855469,8.199219,7.9882812,21.837694,-62.505707,-113.833405,-5.704872,0.0,0.0,0.0,0.0,0.0,0.0,0.0,-57.277084,-129.42007,5.712492,0.0,0.0,0.0,0.0,0.0,0.0,0.0,0.6151234,-0.0496078,-0.78682053,1.2478638,0.33636475,-2.0,2.0947266,-1.0976562,0.37109375,39.887585,12.7349615,-1.0270351,-16.289623,0.0072631836,-0.49658203,-0.93218994,-2.5615234,3.7753906,1.6269531,27.858065,39.899487,-45.478413,6.84441,-1.5678711,1.2384644,-0.033691406,-0.7939453,-1.0898438,-0.21582031,14.111592,47.491325,-115.489426,20.80056,0.0,0.0,0.0,0.0,0.0,0.0,0.0,59.292015,-113.808624,36.860878,0.0,0.0,0.0,0.0,0.0,0.0,0.0,2.0957222,44.93359,-1.194591,
2.4609374266583477,105,0.067871094,-0.18969727,1.0147705,-0.50097656,1.8535156,0.029296875,0.0,0.0,0.0,0.0,0.0,0.0,0.0,0.0,0.0,0.0,0.0,-0.58289135,0.030150207,0.8088456,-1.5900269,0.2084961,-0.06304932,1.5585938,-3.8847656,0.2529297,6.672561,-12.067657,0.62420285,16.745611,-1.7229004,-0.7988281,-0.60076904,-1.9208984,4.2001953,-0.171875,31.076202,-21.372194,-55.57448,14.499904,-2.0,-1.2666626,1.6129761,0.35058594,5.5302734,7.743164,29.988007,-63.061676,-110.929344,-5.0968294,0.0,0.0,0.0,0.0,0.0,0.0,0.0,-60.710545,-128.64786,3.8969736,0.0,0.0,0.0,0.0,0.0,0.0,0.0,0.58289135,-0.030150207,-0.8088456,-0.055236816,0.6255493,-1.6734619,-2.21875,-1.0917969,-0.71484375,38.725384,12.067657,-0.62420285,-16.745611,-1.267456,-0.5742798,-1.0568848,0.76464844,3.149414,0.9433594,29.711306,37.812786,-46.581978,5.0294,-0.92663574,0.3499756,0.76239014,-0.4326172,-0.39746094,-0.43554688,11.949182,39.122627,-117.1571,19.326355,0.0,0.0,0.0,0.0,0.0,0.0,0.0,51.12084,-115.96416,35.28315,0.0,0.0,0.0,0.0,0.0,0.0,0.0,2.417943,44.819927,0.071790874,
2.4843749259598558,106,-0.32336426,-0.19232178,1.0157471,-0.8847656,1.0400391,0.2607422,0.0,0.0,0.0,0.0,0.0,0.0,0.0,0.0,0.0,0.0,0.0,-0.54449224,0.0030078664,0.82850015,-1.5215454,-0.35028076,-1.020752,1.1796875,-3.5488281,-0.36914062,2.4728262,-11.272678,0.062272184,17.152523,-1.7235718,0.0072021484,-1.1295776,0.36523438,3.6552734,0.04296875,41.731915,-15.608704,-56.783012,16.894411,-2.0,-1.9382935,-1.946228,-4.1992188,-0.048828125,3.2070312,33.14106,-61.921497,-107.65718,-4.4073315,0.0,0.0,0.0,0.0,0.0,0.0,0.0,-62.628162,-125.911545,3.747532,0.0,0.0,0.0,0.0,0.0,0.0,0.0,0.54449224,-0.0030078664,-0.82850015,0.21868896,-0.62579346,-0.28674316,-1.1181641,-1.6240234,1.2998047,36.609295,11.272678,-0.062272184,-17.152523,-0.70147705,0.3163452,-1.2602539,0.8847656,2.383789,0.14160156,30.80474,35.234398,-47.1426,4.2633247,-0.44506836,0.16418457,0.95129395,-0.09375,-0.03515625,0.046875,13.662436,32.51176,-117.85525,17.63821,0.0,0.0,0.0,0.0,0.0,0.0,0.0,44.274277,-116.742805,33.608864,0.0,0.0,0.0,0.0,0.0,0.0,0.0,1.5962687,44.576046,0.8872384,
2.507812425261364,107,-0.5853882,-0.71173096,1.2577515,-1.9492188,0.46679688,0.5546875,0.0,0.0,0.0,0.0,0.0,0.0,0.0,0.0,0.0,0.0,0.0,-0.5392978,-0.03695744,0.8354352,-1.8080444,0.32299805,-0.8098755,2.0878906,-3.9609375,-0.15917969,2.7260597,-11.165135,-0.76513356,17.296099,-1.5082397,-0.2567749,-1.2566528,0.69140625,1.8085938,-0.41015625,50.22963,-10.669058,-57.770363,18.163677,1.204773,-2.0,0.91918945,0.94628906,-2.1972656,1.3105469,29.183933,-59.57116,-105.3226,-4.933319,0.0,0.0,0.0,0.0,0.0,0.0,0.0,-61.367203,-123.01869,4.2209606,0.0,0.0,0.0,0.0,0.0,0.0,0.0,0.5392978,0.03695744,-0.8354352,1.1260376,-0.98651123,-0.71551514,-2.100586,-2.7802734,0.9355469,31.682714,11.165135,0.76513356,-17.296099,-1.0386353,0.16070557,-0.90893555,-1.0371094,2.0576172,-0.034179688,29.928585,31.653778,-48.00482,3.9422932,-0.31311035,0.61224365,0.689209,0.09765625,0.022460938,0.12011719,12.718112,25.249287,-118.591484,16.682747,0.0,0.0,0.0,0.0,0.0,0.0,0.0,37.14335,-117.48495,32.718822,0.0,0.0,0.0,0.0,0.0,0.0,0.0,-0.9303796,44.747143,1.3789079,
2.531249924562872,108,-0.16986084,-0.93341064,1.2693481,0.24414062,-0.099609375,0.4453125,0.0,0.0,0.0,0.0,0.0,0.0,0.0,0.0,0.0,0.0,0.0,-0.547609,-0.058066405,0.83266985,-1.4855347,-0.088256836,-0.55529785,0.08105469,-4.2216797,0.08105469,6.242778,-11.337202,-1.2021546,17.23885,-0.93585205,0.3248291,-1.1273193,0.7109375,-0.041015625,-0.5566406,57.05874,-5.459352,-57.8271,20.292604,0.19824219,-2.0,0.98358154,-0.9111328,-1.5849609,-1.9306641,25.507473,-54.62609,-104.45601,-4.11075,0.0,0.0,0.0,0.0,0.0,0.0,0.0,-55.97755,-121.84589,5.6809435,0.0,0.0,0.0,0.0,0.0,0.0,0.0,0.547609,0.058066405,-0.83266985,1.4074707,-0.44299316,-0.20202637,0.453125,-2.0273438,-0.41015625,28.388762,11.337202,1.2021546,-17.23885,-0.9784546,-0.062927246,-0.47894287,-0.3779297,1.3378906,0.14550781,29.058691,29.344858,-48.995914,2.8961868,-0.2803955,0.7089844,0.6553345,0.1953125,-0.015625,0.025390625,12.703351,19.98415,-119.26897,15.365069,0.0,0.0,0.0,0.0,0.0,0.0,0.0,31.731398,-118.13271,31.50895,0.0,0.0,0.0,0.0,0.0,0.0,0.0,-2.0776396,44.840508,1.7605934,
2.55468742386438,109,0.1293335,-0.57928467,0.67163086,1.6591797,-0.21582031,-0.23339844,0.0,0.0,0.0,0.0,0.0,0.0,0.0,0.0,0.0,0.0,0.0,-0.55284476,-0.043514475,0.83153427,-1.31604,-0.042663574,-0.45794678,-0.52441406,-3.8691406,-0.13183594,12.394461,-11.4456005,-0.9008845,17.215338,-0.58569336,0.10998535,-1.1193237,-1.4482422,-1.4990234,-0.4189453,61.183243,-0.95409966,-56.667942,22.700638,-0.066711426,-1.2493896,1.2056274,-0.27441406,-2.4941406,-3.75,22.025118,-48.883034,-104.428566,-1.9836674,0.0,0.0,0.0,0.0,0.0,0.0,0.0,-49.025642,-121.422424,8.566863,0.0,0.0,0.0,0.0,0.0,0.0,0.0,0.55284476,0.043514475,-0.83153427,0.8534546,-0.1928711,0.042541504,0.01171875,-2.7373047,-0.2763672,26.188074,11.4456005,0.9008845,-17.215338,-1.0527344,-0.18286133,-0.23968506,0.86621094,1.1132812,0.18261719,27.597383,26.924206,-50.761944,1.2330475,-0.2998047,0.65319824,0.6795654,0.27246094,-0.03515625,0.04296875,13.917249,15.424781,-120.889084,12.821499,0.0,0.0,0.0,0.0,0.0,0.0,0.0,27.130205,-119.74933,28.998219,0.0,0.0,0.0,0.0,0.0,0.0,0.0,-0.81183606,44.933212,1.8116221,
2.578124923165888,110,0.26434326,-0.30664062,0.5006714,0.9013672,0.15722656,-0.5361328,0.0,0.0,0.0,0.0,0.0,0.0,0.0,0.0,0.0,0.0,0.0,-0.5458497,-0.02701715,0.83727145,-1.1911621,-0.24542236,-0.48968506,-0.8847656,-3.6904297,-0.5517578,18.627821,-11.30078,-0.55933887,17.334116,-0.4564209,-0.06311035,-1.1783447,-1.2011719,-2.6982422,-0.5097656,63.293144,3.526473,-55.079693,24.952831,-0.07800293,-0.8536377,0.90515137,-0.11230469,-3.6728516,-4.6416016,18.127953,-42.12134,-105.501656,1.2728672,0.0,0.0,0.0,0.0,0.0,0.0,0.0,-40.46649,-121.61166,13.020416,0.0,0.0,0.0,0.0,0.0,0.0,0.0,0.5458497,0.02701715,-0.83727145,0.6398926,-0.22442627,-0.06036377,-0.8457031,-2.9638672,0.18457031,23.710772,11.30078,0.55933887,-17.334116,-0.9465332,0.28302002,-0.39453125,1.8476562,0.87402344,-0.02734375,25.095663,23.631077,-52.459892,-0.4231987,-0.27978516,0.6542969,0.6480713,0.234375,-0.034179688,0.0068359375,16.968672,10.654831,-122.427826,10.665894,0.0,0.0,0.0,0.0,0.0,0.0,0.0,22.335423,-121.24647,26.856907,0.0,0.0,0.0,0.0,0.0,0.0,0.0,0.46606347,44.956734,1.7545125,
