TOTAL_TIME,0m7s
TOTAL_FRAMES,295
SELECTED_FRAMES,295
NO_OF_JOINTS,12
FREQUENCY,42.666668
DESCRIPTION,Capture 19
TIME_STAMP,Jul 8, 2010

Time,Frame,Pelvis_accelX_Pelvis,Pelvis_accelY_Pelvis,Pelvis_accelZ_Pelvis,Pelvis_gyroX_Pelvis,Pelvis_gyroY_Pelvis,Pelvis_gyroZ_Pelvis,Pelvis_Joint angle_Pelvis,Pelvis_Relative pos X_Pelvis,Pelvis_Relative pos Y_Pelvis,Pelvis_Relative pos Z_Pelvis,RightPelvis_accelX_RightPelvis,RightPelvis_accelY_RightPelvis,RightPelvis_accelZ_RightPelvis,RightPelvis_gyroX_RightPelvis,RightPelvis_gyroY_RightPelvis,RightPelvis_gyroZ_RightPelvis,RightPelvis_Joint angle_RightPelvis,RightPelvis_Relative pos X_RightPelvis,RightPelvis_Relative pos Y_RightPelvis,RightPelvis_Relative pos Z_RightPelvis,RightUpLeg_accelX_RightUpLeg,RightUpLeg_accelY_RightUpLeg,RightUpLeg_accelZ_RightUpLeg,RightUpLeg_gyroX_RightUpLeg,RightUpLeg_gyroY_RightUpLeg,RightUpLeg_gyroZ_RightUpLeg,RightUpLeg_Joint angle_RightUpLeg,RightUpLeg_Relative pos X_RightUpLeg,RightUpLeg_Relative pos Y_RightUpLeg,RightUpLeg_Relative pos Z_RightUpLeg,RightLeg_accelX_RightLeg,RightLeg_accelY_RightLeg,RightLeg_accelZ_RightLeg,RightLeg_gyroX_RightLeg,RightLeg_gyroY_RightLeg,RightLeg_gyroZ_RightLeg,RightLeg_Joint angle_RightLeg,RightLeg_Relative pos X_RightLeg,RightLeg_Relative pos Y_RightLeg,RightLeg_Relative pos Z_RightLeg,RightFoot_accelX_RightFoot,RightFoot_accelY_RightFoot,RightFoot_accelZ_RightFoot,RightFoot_gyroX_RightFoot,RightFoot_gyroY_RightFoot,RightFoot_gyroZ_RightFoot,RightFoot_Joint angle_RightFoot,RightFoot_Relative pos X_RightFoot,RightFoot_Relative pos Y_RightFoot,RightFoot_Relative pos Z_RightFoot,RightFootEnd_accelX_RightFootEnd,RightFootEnd_accelY_RightFootEnd,RightFootEnd_accelZ_RightFootEnd,RightFootEnd_gyroX_RightFootEnd,RightFootEnd_gyroY_RightFootEnd,RightFootEnd_gyroZ_RightFootEnd,RightFootEnd_Joint angle_RightFootEnd,RightFootEnd_Relative pos X_RightFootEnd,RightFootEnd_Relative pos Y_RightFootEnd,RightFootEnd_Relative pos Z_RightFootEnd,LeftPelvis_accelX_LeftPelvis,LeftPelvis_accelY_LeftPelvis,LeftPelvis_accelZ_LeftPelvis,LeftPelvis_gyroX_LeftPelvis,LeftPelvis_gyroY_LeftPelvis,LeftPelvis_gyroZ_LeftPelvis,LeftPelvis_Joint angle_LeftPelvis,LeftPelvis_Relative pos X_LeftPelvis,LeftPelvis_Relative pos Y_LeftPelvis,LeftPelvis_Relative pos Z_LeftPelvis,LeftUpLeg_accelX_LeftUpLeg,LeftUpLeg_accelY_LeftUpLeg,LeftUpLeg_accelZ_LeftUpLeg,LeftUpLeg_gyroX_LeftUpLeg,LeftUpLeg_gyroY_LeftUpLeg,LeftUpLeg_gyroZ_LeftUpLeg,LeftUpLeg_Joint angle_LeftUpLeg,LeftUpLeg_Relative pos X_LeftUpLeg,LeftUpLeg_Relative pos Y_LeftUpLeg,LeftUpLeg_Relative pos Z_LeftUpLeg,LeftLeg_accelX_LeftLeg,LeftLeg_accelY_LeftLeg,LeftLeg_accelZ_LeftLeg,LeftLeg_gyroX_LeftLeg,LeftLeg_gyroY_LeftLeg,LeftLeg_gyroZ_LeftLeg,LeftLeg_Joint angle_LeftLeg,LeftLeg_Relative pos X_LeftLeg,LeftLeg_Relative pos Y_LeftLeg,LeftLeg_Relative pos Z_LeftLeg,LeftFoot_accelX_LeftFoot,LeftFoot_accelY_LeftFoot,LeftFoot_accelZ_LeftFoot,LeftFoot_gyroX_LeftFoot,LeftFoot_gyroY_LeftFoot,LeftFoot_gyroZ_LeftFoot,LeftFoot_Joint angle_LeftFoot,LeftFoot_Relative pos X_LeftFoot,LeftFoot_Relative pos Y_LeftFoot,LeftFoot_Relative pos Z_LeftFoot,LeftFootEnd_accelX_LeftFootEnd,LeftFootEnd_accelY_LeftFootEnd,LeftFootEnd_accelZ_LeftFootEnd,LeftFootEnd_gyroX_LeftFootEnd,LeftFootEnd_gyroY_LeftFootEnd,LeftFootEnd_gyroZ_LeftFootEnd,LeftFootEnd_Joint angle_LeftFootEnd,LeftFootEnd_Relative pos X_LeftFootEnd,LeftFootEnd_Relative pos Y_LeftFootEnd,LeftFootEnd_Relative pos Z_LeftFootEnd,Spine_accelX_Spine,Spine_accelY_Spine,Spine_accelZ_Spine,Spine_gyroX_Spine,Spine_gyroY_Spine,Spine_gyroZ_Spine,Spine_Joint angle_Spine,Spine_Relative pos X_Spine,Spine_Relative pos Y_Spine,Spine_Relative pos Z_Spine,
0.0,0,0.0,0.0,0.0,0.0,0.0,0.0,0.0,0.0,0.0,0.0,0.0,0.0,0.0,0.0,0.0,0.0,0.0,0.0,0.0,0.0,0.0,0.0,0.0,0.0,0.0,0.0,NaN,0.0,0.0,0.0,0.0,0.0,0.0,0.0,0.0,0.0,NaN,0.0,0.0,0.0,0.0,0.0,0.0,0.0,0.0,0.0,NaN,0.0,0.0,0.0,0.0,0.0,0.0,0.0,0.0,0.0,0.0,0.0,0.0,0.0,0.0,0.0,0.0,0.0,0.0,0.0,0.0,0.0,0.0,0.0,0.0,0.0,0.0,0.0,0.0,0.0,NaN,0.0,0.0,0.0,0.0,0.0,0.0,0.0,0.0,0.0,NaN,0.0,0.0,0.0,0.0,0.0,0.0,0.0,0.0,0.0,NaN,0.0,0.0,0.0,0.0,0.0,0.0,0.0,0.0,0.0,0.0,0.0,0.0,0.0,0.0,0.0,0.0,0.0,0.0,0.0,0.0,0.0,0.0,0.0,
0.02343749930150809,1,0.0,0.0,0.0,0.0,0.0,0.0,0.0,0.0,0.0,0.0,0.0,0.0,0.0,0.0,0.0,0.0,0.0,0.0,0.0,0.0,0.0,0.0,0.0,0.0,0.0,0.0,NaN,0.0,0.0,0.0,0.0,0.0,0.0,0.0,0.0,0.0,NaN,0.0,0.0,0.0,0.0,0.0,0.0,0.0,0.0,0.0,NaN,0.0,0.0,0.0,0.0,0.0,0.0,0.0,0.0,0.0,0.0,0.0,0.0,0.0,0.0,0.0,0.0,0.0,0.0,0.0,0.0,0.0,0.0,0.0,0.0,0.0,0.0,0.0,0.0,0.0,NaN,0.0,0.0,0.0,0.0,0.0,0.0,0.0,0.0,0.0,NaN,0.0,0.0,0.0,0.0,0.0,0.0,0.0,0.0,0.0,NaN,0.0,0.0,0.0,0.0,0.0,0.0,0.0,0.0,0.0,0.0,0.0,0.0,0.0,0.0,0.0,0.0,0.0,0.0,0.0,0.0,0.0,0.0,0.0,
0.04687499860301618,2,0.0,0.0,0.0,0.0,0.0,0.0,0.0,0.0,0.0,0.0,0.0,0.0,0.0,0.0,0.0,0.0,0.0,0.0,0.0,0.0,0.0,0.0,0.0,0.0,0.0,0.0,NaN,0.0,0.0,0.0,0.0,0.0,0.0,0.0,0.0,0.0,NaN,0.0,0.0,0.0,0.0,0.0,0.0,0.0,0.0,0.0,NaN,0.0,0.0,0.0,0.0,0.0,0.0,0.0,0.0,0.0,0.0,0.0,0.0,0.0,0.0,0.0,0.0,0.0,0.0,0.0,0.0,0.0,0.0,0.0,0.0,0.0,0.0,0.0,0.0,0.0,NaN,0.0,0.0,0.0,0.0,0.0,0.0,0.0,0.0,0.0,NaN,0.0,0.0,0.0,0.0,0.0,0.0,0.0,0.0,0.0,NaN,0.0,0.0,0.0,0.0,0.0,0.0,0.0,0.0,0.0,0.0,0.0,0.0,0.0,0.0,0.0,0.0,0.0,0.0,0.0,0.0,0.0,0.0,0.0,
0.07031249790452426,3,-0.025390625,-0.9777832,0.28631592,-0.037109375,-0.015625,0.009765625,0.0,0.0,0.0,0.0,0.0,0.0,0.0,0.0,0.0,0.0,0.0,-0.270802,-0.072789915,0.9600299,0.009277344,-0.98864746,-0.2548828,-0.09082031,0.061523438,0.09472656,2.7509344,-5.6064396,-1.5069771,19.875595,-0.9482422,-0.14477539,-0.2677002,-0.016601562,0.0068359375,0.0546875,14.896962,0.87502337,-58.144928,19.667624,0.5545654,0.40338135,0.7494507,0.0029296875,-0.0029296875,-0.02734375,17.70707,-8.816603,-129.49893,18.982615,0.0,0.0,0.0,0.0,0.0,0.0,0.0,3.7036247,-129.93298,34.574966,0.0,0.0,0.0,0.0,0.0,0.0,0.0,0.270802,0.072789915,-0.9600299,-0.074157715,-0.9899292,-0.26391602,0.27929688,0.15429688,0.083984375,11.585428,5.6064396,1.5069771,-19.875595,-0.9429321,0.042053223,-0.15185547,-0.13085938,0.061523438,0.041992188,2.867852,2.6225407,-55.19444,-14.82742,0.45666504,-0.52960205,0.7761841,-0.0048828125,-0.013671875,-9.765625E-4,1.8293827,-2.7309835,-126.88393,-10.608555,0.0,0.0,0.0,0.0,0.0,0.0,0.0,14.89703,-127.702446,-1.1915493,0.0,0.0,0.0,0.0,0.0,0.0,0.0,-4.3226547,44.7457,2.1733203,
0.09374999720603236,4,-0.04156494,-0.99316406,0.28131104,-0.076171875,0.00390625,0.028320312,0.0,0.0,0.0,0.0,0.0,0.0,0.0,0.0,0.0,0.0,0.0,-0.27138188,-0.07341244,0.9597502,0.011291504,-0.96551514,-0.2277832,-0.09082031,0.04296875,0.07519531,2.7136812,-5.618446,-1.519865,19.869804,-0.9104614,-0.14453125,-0.25579834,-0.017578125,0.0068359375,0.07324219,14.74393,0.7290902,-58.172386,19.660524,0.5432129,0.3883667,0.7684326,0.021484375,-0.041992188,-0.02734375,17.630466,-8.939466,-129.53531,18.950993,0.0,0.0,0.0,0.0,0.0,0.0,0.0,3.5876617,-129.95078,34.539604,0.0,0.0,0.0,0.0,0.0,0.0,0.0,0.27138188,0.07341244,-0.9597502,-0.028137207,-0.991272,-0.3635254,0.015625,0.20996094,0.029296875,11.565992,5.618446,1.519865,-19.869804,-1.013794,-0.003112793,-0.13098145,-0.09277344,0.061523438,0.0234375,2.86136,2.6621854,-55.194748,-14.882429,0.42456055,-0.5270996,0.7889404,-0.0048828125,-0.032226562,0.017578125,1.9889878,-2.6505468,-126.893,-10.739651,0.0,0.0,0.0,0.0,0.0,0.0,0.0,14.956804,-127.686935,-1.2808313,0.0,0.0,0.0,0.0,0.0,0.0,0.0,-4.3512034,44.739056,2.191784,
0.11718749650754046,5,-0.029418945,-0.97766113,0.27941895,0.021484375,-0.015625,0.045898438,0.0,0.0,0.0,0.0,0.0,0.0,0.0,0.0,0.0,0.0,0.0,-0.27146077,-0.073762834,0.959769,0.0013427734,-0.9661255,-0.27056885,-0.109375,0.04296875,0.07519531,2.6778843,-5.620079,-1.5271194,19.870192,-0.96917725,-0.16351318,-0.26293945,-0.07421875,0.0078125,0.0546875,14.58605,0.60604334,-58.193783,19.641174,0.54345703,0.40478516,0.74450684,0.0029296875,-0.0029296875,-0.02734375,17.509779,-9.013702,-129.5554,18.85767,0.0,0.0,0.0,0.0,0.0,0.0,0.0,3.5154266,-129.96786,34.444702,0.0,0.0,0.0,0.0,0.0,0.0,0.0,0.27146077,0.073762834,-0.959769,0.043640137,-0.9567871,-0.2645874,0.052734375,0.22851562,0.10449219,11.407777,5.620079,1.5271194,-19.870192,-0.98114014,0.016662598,-0.08880615,-0.07421875,0.061523438,0.059570312,2.6657228,2.6523707,-55.207123,-15.151326,0.44274902,-0.5407715,0.807251,-0.080078125,0.025390625,0.091796875,2.081777,-2.6476486,-126.90841,-11.030351,0.0,0.0,0.0,0.0,0.0,0.0,0.0,14.942786,-127.682655,-1.5370913,0.0,0.0,0.0,0.0,0.0,0.0,0.0,-4.3526535,44.741093,2.207464,
0.14062499580904855,6,-3.6621094E-4,-0.98773193,0.2774048,0.001953125,-0.015625,0.02734375,0.0,0.0,0.0,0.0,0.0,0.0,0.0,0.0,0.0,0.0,0.0,-0.2715387,-0.07351582,0.9597089,0.026489258,-0.97735596,-0.22802734,-0.08984375,0.119140625,0.037109375,2.6370044,-5.6216936,-1.5220054,19.86895,-0.95617676,-0.111694336,-0.22131348,-0.015625,0.045898438,0.036132812,14.439988,0.5404215,-58.19649,19.637365,0.54138184,0.397583,0.7595215,0.022460938,-0.00390625,0.02734375,17.319078,-8.970313,-129.57657,18.730991,0.0,0.0,0.0,0.0,0.0,0.0,0.0,3.5665894,-129.98582,34.31288,0.0,0.0,0.0,0.0,0.0,0.0,0.0,0.2715387,0.07351582,-0.9597089,0.025878906,-0.9380493,-0.21569824,0.034179688,0.1015625,0.047851562,11.134378,5.6216936,1.5220054,-19.86895,-0.95825195,0.059936523,-0.12054443,-0.09277344,0.061523438,0.07910156,2.664621,2.8370895,-55.23475,-15.349539,0.43811035,-0.5266113,0.7458496,-0.061523438,0.06347656,0.055664062,2.0859094,-2.5155616,-126.92343,-11.131613,0.0,0.0,0.0,0.0,0.0,0.0,0.0,15.054396,-127.66885,-1.6001883,0.0,0.0,0.0,0.0,0.0,0.0,0.0,-4.36353,44.738297,2.1924415,
0.16406249511055665,7,-0.013366699,-0.98376465,0.28234863,0.021484375,-0.015625,0.045898438,0.0,0.0,0.0,0.0,0.0,0.0,0.0,0.0,0.0,0.0,0.0,-0.2702053,-0.07349561,0.96014553,0.08227539,-0.9954834,-0.23345947,-0.07128906,0.04296875,0.017578125,2.5979686,-5.594088,-1.5215871,19.877989,-0.91851807,-0.119384766,-0.21435547,-0.11035156,0.046875,0.0546875,14.372619,0.6660814,-58.183735,19.568325,0.5391846,0.39593506,0.7445679,0.00390625,-0.00390625,0.02734375,16.952448,-8.635995,-129.58781,18.543428,0.0,0.0,0.0,0.0,0.0,0.0,0.0,3.902318,-130.00189,34.122684,0.0,0.0,0.0,0.0,0.0,0.0,0.0,0.2702053,0.07349561,-0.96014553,0.016845703,-0.93652344,-0.2738037,-0.15429688,-0.024414062,0.047851562,10.984997,5.594088,1.5215871,-19.877989,-1.0,0.036254883,-0.1437378,-0.055664062,0.061523438,0.078125,2.6186059,2.8330877,-55.2544,-15.5533085,0.4609375,-0.5189209,0.7821045,-0.061523438,0.044921875,0.0546875,1.9428962,-2.6301215,-126.93288,-11.252192,0.0,0.0,0.0,0.0,0.0,0.0,0.0,14.906425,-127.65581,-1.6581602,0.0,0.0,0.0,0.0,0.0,0.0,0.0,-4.3558407,44.741287,2.1989548,
0.18749999441206475,8,-0.01953125,-1.0061646,0.2861328,0.021484375,-0.015625,0.02734375,0.0,0.0,0.0,0.0,0.0,0.0,0.0,0.0,0.0,0.0,0.0,-0.26832324,-0.072862916,0.96066546,0.011352539,-0.97216797,-0.25177002,-0.0703125,0.0048828125,-0.020507812,2.5366707,-5.5551233,-1.5084884,19.888752,-0.9578247,-0.14642334,-0.23132324,-0.09082031,0.08496094,0.036132812,14.280093,0.6794319,-58.17099,19.538584,0.54693604,0.41937256,0.75250244,0.0048828125,0.0146484375,0.045898438,16.693913,-8.539127,-129.5836,18.46238,0.0,0.0,0.0,0.0,0.0,0.0,0.0,4.000477,-129.98924,34.040237,0.0,0.0,0.0,0.0,0.0,0.0,0.0,0.26832324,0.072862916,-0.96066546,0.07531738,-0.91607666,-0.25878906,-0.38085938,-0.07714844,0.030273438,10.908637,5.5551233,1.5084884,-19.888752,-0.9453125,-0.030944824,-0.15753174,9.765625E-4,0.024414062,0.07714844,2.1334999,2.486431,-55.28117,-16.01365,0.4453125,-0.54211426,0.77038574,-0.080078125,0.12207031,0.055664062,1.9110054,-2.9564989,-126.95976,-11.734989,0.0,0.0,0.0,0.0,0.0,0.0,0.0,14.561918,-127.65112,-2.1075468,0.0,0.0,0.0,0.0,0.0,0.0,0.0,-4.339005,44.741337,2.1815386,
0.21093749371357284,9,0.0025634766,-1.0015259,0.28027344,0.041992188,-0.053710938,0.02734375,0.0,0.0,0.0,0.0,0.0,0.0,0.0,0.0,0.0,0.0,0.0,-0.2694883,-0.0729334,0.96034795,0.0032958984,-0.9748535,-0.27368164,-0.08984375,0.0048828125,-0.020507812,2.4689448,-5.5792437,-1.5099473,19.882181,-0.9472046,-0.12957764,-0.23223877,-0.09082031,0.06542969,0.017578125,14.205053,0.56223536,-58.18421,19.524939,0.5437012,0.4126587,0.746521,-0.013671875,0.053710938,0.045898438,16.542894,-8.683117,-129.59674,18.484142,0.0,0.0,0.0,0.0,0.0,0.0,0.0,3.858549,-130.00467,34.060776,0.0,0.0,0.0,0.0,0.0,0.0,0.0,0.2694883,0.0729334,-0.96034795,0.1048584,-0.9550781,-0.25958252,-0.55078125,0.015625,0.0126953125,10.982272,5.5792437,1.5099473,-19.882181,-0.977478,-0.011169434,-0.16253662,0.16992188,0.061523438,0.11230469,1.4144387,2.0012956,-55.289936,-16.666687,0.442688,-0.52038574,0.7776489,-0.080078125,0.16015625,0.055664062,2.0344203,-3.363912,-126.983536,-12.530664,0.0,0.0,0.0,0.0,0.0,0.0,0.0,14.152792,-127.61682,-2.8929138,0.0,0.0,0.0,0.0,0.0,0.0,0.0,-4.3891745,44.737812,2.1659331,
0.23437499301508094,10,0.0017700195,-0.9711304,0.272583,0.041015625,-0.03515625,0.064453125,0.0,0.0,0.0,0.0,0.0,0.0,0.0,0.0,0.0,0.0,0.0,-0.26977688,-0.07122373,0.9604029,0.017456055,-0.99731445,-0.2819214,-0.013671875,-0.10839844,-0.0390625,2.3827739,-5.5852184,-1.4745518,19.883318,-0.94989014,-0.13336182,-0.2843628,-0.09082031,0.06542969,0.036132812,14.223329,0.5117731,-58.15491,19.526752,0.5475464,0.4411621,0.7555542,-0.015625,-0.00390625,0.02734375,16.4092,-8.819875,-129.5606,18.590055,0.0,0.0,0.0,0.0,0.0,0.0,0.0,3.7197857,-129.96288,34.16793,0.0,0.0,0.0,0.0,0.0,0.0,0.0,0.26977688,0.07122373,-0.9604029,0.008850098,-1.0083008,-0.2654419,-0.53125,0.051757812,-0.005859375,11.1222925,5.5852184,1.4745518,-19.883318,-0.993103,0.036315918,-0.12207031,0.22558594,0.060546875,0.18554688,0.8726765,1.4489198,-55.310085,-17.15994,0.44207764,-0.5741577,0.78912354,-0.19335938,0.16015625,0.13085938,1.9667239,-3.9375577,-126.99983,-12.9360075,0.0,0.0,0.0,0.0,0.0,0.0,0.0,13.579983,-127.5417,-3.2956705,0.0,0.0,0.0,0.0,0.0,0.0,0.0,-4.353248,44.745014,2.0954754,
0.25781249231658904,11,-0.0546875,-1.0028687,0.29205322,0.099609375,-0.053710938,0.026367188,0.0,0.0,0.0,0.0,0.0,0.0,0.0,0.0,0.0,0.0,0.0,-0.2696537,-0.07065406,0.96048397,-0.033081055,-0.9539795,-0.28222656,-0.0703125,-0.12792969,-0.0390625,2.3899095,-5.582668,-1.4627581,19.884996,-0.9370117,-0.15454102,-0.28344727,-0.072265625,0.06542969,0.036132812,14.253847,0.4179058,-58.14995,19.581322,0.5529785,0.39208984,0.72247314,0.00390625,0.015625,0.0087890625,16.374857,-9.073443,-129.53229,18.73594,0.0,0.0,0.0,0.0,0.0,0.0,0.0,3.477891,-129.94748,34.30545,0.0,0.0,0.0,0.0,0.0,0.0,0.0,0.2696537,0.07065406,-0.96048397,-0.10479736,-1.0233765,-0.34375,-0.49414062,0.06933594,0.0126953125,11.62966,5.582668,1.4627581,-19.884996,-1.015686,0.11517334,-0.140625,0.13183594,0.024414062,0.056640625,0.6549156,0.740201,-55.276047,-17.358276,0.44189453,-0.55163574,0.75354004,-0.15527344,0.14160156,0.09375,1.9519409,-4.7591386,-126.94163,-12.928053,0.0,0.0,0.0,0.0,0.0,0.0,0.0,12.758116,-127.3942,-3.2813148,0.0,0.0,0.0,0.0,0.0,0.0,0.0,-4.337739,44.74771,2.0738716,
0.2812499916180971,12,-0.0234375,-0.9855957,0.28625488,0.099609375,-0.053710938,0.044921875,0.0,0.0,0.0,0.0,0.0,0.0,0.0,0.0,0.0,0.0,0.0,-0.27006564,-0.06964796,0.96045053,-0.01776123,-0.95599365,-0.30621338,-0.07128906,-0.22363281,-0.01953125,2.4582987,-5.5911975,-1.4419286,19.884306,-0.9141846,-0.13415527,-0.27148438,-0.1484375,0.046875,0.036132812,14.190293,0.26185274,-58.14667,19.695847,0.52734375,0.39990234,0.75860596,0.0048828125,0.015625,0.02734375,16.278349,-9.3364315,-129.51385,18.99323,0.0,0.0,0.0,0.0,0.0,0.0,0.0,3.2074776,-129.9314,34.569355,0.0,0.0,0.0,0.0,0.0,0.0,0.0,0.27006564,0.06964796,-0.96045053,-0.103149414,-1.0458374,-0.37561035,-0.23046875,-0.11425781,0.08496094,12.027638,5.5911975,1.4419286,-19.884306,-0.9723511,0.05706787,-0.105407715,-0.12988281,0.024414062,0.0048828125,0.765917,0.21376514,-55.249966,-17.330063,0.45037842,-0.5524292,0.7831421,-0.080078125,0.08300781,0.09277344,2.0896592,-5.304751,-126.90787,-12.762083,0.0,0.0,0.0,0.0,0.0,0.0,0.0,12.200048,-127.269226,-3.0905619,0.0,0.0,0.0,0.0,0.0,0.0,0.0,-4.264551,44.7564,2.0464175,
0.3046874909196052,13,0.0053710938,-1.041748,0.28894043,0.15820312,-0.07324219,0.043945312,0.0,0.0,0.0,0.0,0.0,0.0,0.0,0.0,0.0,0.0,0.0,-0.27214083,-0.06688793,0.9600429,0.03387451,-0.9741211,-0.2977295,-0.013671875,-0.18457031,-0.01953125,2.3508532,-5.6341596,-1.3847876,19.875864,-0.9326782,-0.13116455,-0.26068115,-0.12890625,0.06640625,0.036132812,14.079158,0.08337593,-58.106476,19.741829,0.53912354,0.3961792,0.7355957,-0.0146484375,-0.00390625,0.064453125,16.14563,-9.547686,-129.4746,19.08526,0.0,0.0,0.0,0.0,0.0,0.0,0.0,2.9912806,-129.89558,34.66359,0.0,0.0,0.0,0.0,0.0,0.0,0.0,0.27214083,0.06688793,-0.9600429,-0.051757812,-0.96032715,-0.35394287,-0.1171875,-0.041992188,0.08496094,12.278381,5.6341596,1.3847876,-19.875864,-0.94488525,0.0018310547,-0.09466553,0.01953125,0.005859375,0.020507812,0.9920923,-0.098236084,-55.271824,-17.184612,0.43017578,-0.5387573,0.7698364,-0.080078125,0.08300781,0.055664062,2.1299193,-5.466692,-126.9384,-12.564396,0.0,0.0,0.0,0.0,0.0,0.0,0.0,12.030132,-127.2544,-2.8761635,0.0,0.0,0.0,0.0,0.0,0.0,0.0,-4.2066784,44.76641,1.926501,
0.32812499022111324,14,0.020751953,-0.98809814,0.28527832,0.17773438,-0.07324219,0.043945312,0.0,0.0,0.0,0.0,0.0,0.0,0.0,0.0,0.0,0.0,0.0,-0.2750647,-0.06486778,0.95936334,0.027893066,-0.9680786,-0.31359863,-0.051757812,-0.14746094,-0.0390625,2.2137277,-5.6946926,-1.3429642,19.861795,-0.93981934,-0.19421387,-0.2915039,-0.07324219,0.02734375,0.03515625,14.036713,-0.09476662,-58.071407,19.700796,0.56658936,0.40429688,0.73931885,-0.052734375,0.015625,0.045898438,16.110765,-9.822739,-129.42528,19.040293,0.0,0.0,0.0,0.0,0.0,0.0,0.0,2.7098665,-129.85585,34.624596,0.0,0.0,0.0,0.0,0.0,0.0,0.0,0.2750647,0.06486778,-0.95936334,-0.09094238,-0.9655762,-0.33355713,-0.13574219,0.01171875,0.06640625,12.344865,5.6946926,1.3429642,-19.861795,-0.9623413,0.039367676,-0.07507324,-0.017578125,-0.0126953125,0.040039062,1.2716475,-0.23144484,-55.284546,-17.13213,0.46148682,-0.56585693,0.7976074,-0.080078125,0.08300781,0.111328125,2.12532,-5.4507813,-126.95661,-12.423527,0.0,0.0,0.0,0.0,0.0,0.0,0.0,12.040876,-127.23712,-2.7243156,0.0,0.0,0.0,0.0,0.0,0.0,0.0,-4.1348333,44.777325,1.8421162,
0.3515624895226213,15,0.015991211,-0.96502686,0.32574463,0.15820312,-0.07324219,0.08105469,0.0,0.0,0.0,0.0,0.0,0.0,0.0,0.0,0.0,0.0,0.0,-0.2761284,-0.062394947,0.95926404,0.031982422,-0.9536133,-0.305542,-0.08984375,-0.09082031,0.018554688,2.0633633,-5.7167144,-1.2917689,19.85974,-0.9371338,-0.15002441,-0.2617798,-0.0546875,0.0078125,0.0546875,13.9331,-0.25869417,-58.036644,19.641588,0.53930664,0.40093994,0.7435913,-0.03515625,-0.022460938,0.028320312,16.077713,-10.0409775,-129.3776,18.997282,0.0,0.0,0.0,0.0,0.0,0.0,0.0,2.4951649,-129.81383,34.578476,0.0,0.0,0.0,0.0,0.0,0.0,0.0,0.2761284,0.062394947,-0.95926404,-0.05718994,-0.9951782,-0.2672119,-0.00390625,-0.13476562,0.06542969,12.145964,5.7167144,1.2917689,-19.85974,-0.9801636,0.016723633,-0.08087158,-0.12988281,0.024414062,0.041992188,1.3513259,-0.18792391,-55.341686,-17.075132,0.46411133,-0.5663452,0.76672363,-0.080078125,0.08300781,0.12890625,2.1706953,-5.303983,-127.00845,-12.2267685,0.0,0.0,0.0,0.0,0.0,0.0,0.0,12.174591,-127.27094,-2.5061474,0.0,0.0,0.0,0.0,0.0,0.0,0.0,-3.9981709,44.79476,1.7627659,
0.3749999888241294,16,0.026855469,-0.97039795,0.27160645,0.119140625,-0.053710938,0.044921875,0.0,0.0,0.0,0.0,0.0,0.0,0.0,0.0,0.0,0.0,0.0,-0.27928394,-0.059708323,0.9584476,0.033996582,-0.95080566,-0.29553223,-0.07128906,0.0048828125,0.017578125,1.7727716,-5.782043,-1.2361474,19.842838,-0.9376831,-0.12036133,-0.24884033,-0.034179688,0.045898438,0.036132812,13.734312,-0.48408556,-57.990623,19.499111,0.5545654,0.36773682,0.7473755,-0.052734375,0.03515625,0.0087890625,16.00783,-10.2257,-129.33995,18.83218,0.0,0.0,0.0,0.0,0.0,0.0,0.0,2.3206902,-129.77142,34.405777,0.0,0.0,0.0,0.0,0.0,0.0,0.0,0.27928394,0.059708323,-0.9584476,-0.016052246,-0.99609375,-0.25109863,0.07128906,-0.2265625,0.009765625,11.93545,5.782043,1.2361474,-19.842838,-0.9610596,-0.008911133,-0.059753418,-0.13085938,0.061523438,0.060546875,1.3458118,-7.710457E-4,-55.400906,-16.984898,0.4498291,-0.5840454,0.77789307,-0.080078125,0.043945312,0.091796875,2.2207894,-4.998074,-127.06848,-11.998306,0.0,0.0,0.0,0.0,0.0,0.0,0.0,12.451073,-127.29886,-2.222454,0.0,0.0,0.0,0.0,0.0,0.0,0.0,-3.9411297,44.801193,1.6425625,
0.39843748812563745,17,-0.0012817383,-0.9882202,0.32073975,0.09863281,-0.015625,0.026367188,0.0,0.0,0.0,0.0,0.0,0.0,0.0,0.0,0.0,0.0,0.0,-0.27999824,-0.056743085,0.95845157,0.028625488,-0.99072266,-0.27197266,-0.052734375,0.12011719,0.037109375,1.5709714,-5.7968307,-1.1747577,19.842916,-0.9222412,-0.12133789,-0.258667,-0.053710938,0.045898438,0.0546875,13.658517,-0.5204916,-57.939747,19.406382,0.555542,0.4024048,0.7484131,-0.0146484375,0.015625,0.02734375,15.941729,-10.201403,-129.30013,18.753609,0.0,0.0,0.0,0.0,0.0,0.0,0.0,2.3388596,-129.72133,34.330883,0.0,0.0,0.0,0.0,0.0,0.0,0.0,0.27999824,0.056743085,-0.95845157,0.036499023,-0.9684448,-0.2675171,0.07128906,-0.2265625,0.028320312,11.604662,5.7968307,1.1747577,-19.842916,-0.9610596,-0.008911133,-0.059753418,-0.13085938,0.061523438,0.060546875,1.2647038,0.14976501,-55.476727,-17.040154,0.43188477,-0.567749,0.7785034,-0.080078125,0.044921875,0.07421875,2.1654594,-4.847538,-127.1443,-12.053562,0.0,0.0,0.0,0.0,0.0,0.0,0.0,12.576042,-127.34941,-2.2312107,0.0,0.0,0.0,0.0,0.0,0.0,0.0,-3.8338678,44.81577,1.5332112,
0.4218749874271455,18,-0.032470703,-0.99365234,0.31970215,0.040039062,-0.015625,0.0087890625,0.0,0.0,0.0,0.0,0.0,0.0,0.0,0.0,0.0,0.0,0.0,-0.28118387,-0.055600878,0.9581419,0.010131836,-0.9859619,-0.22198486,-0.07128906,0.024414062,0.07519531,1.5105132,-5.8213763,-1.1511105,19.836508,-0.9674072,-0.11529541,-0.23321533,-0.016601562,0.0068359375,0.0546875,13.652514,-0.4762559,-57.9077,19.362173,0.54351807,0.40454102,0.7545166,-0.0146484375,0.015625,0.045898438,15.853558,-10.063965,-129.27487,18.697994,0.0,0.0,0.0,0.0,0.0,0.0,0.0,2.4761171,-129.69293,34.2761,0.0,0.0,0.0,0.0,0.0,0.0,0.0,0.28118387,0.055600878,-0.9581419,-0.013549805,-0.95440674,-0.31396484,-0.060546875,-0.17089844,0.046875,11.422185,5.8213763,1.1511105,-19.836508,-0.95196533,0.034240723,-0.12988281,-0.12988281,0.061523438,0.09863281,1.3044631,0.27391577,-55.520306,-17.100237,0.42993164,-0.567749,0.7835083,-0.061523438,0.043945312,0.091796875,2.3990645,-4.8924446,-127.15881,-11.835556,0.0,0.0,0.0,0.0,0.0,0.0,0.0,12.505459,-127.34645,-1.9674835,0.0,0.0,0.0,0.0,0.0,0.0,0.0,-3.8018968,44.818836,1.4850984,
0.4453124867286536,19,0.020935059,-0.98480225,0.34039307,0.041992188,-0.053710938,0.0087890625,0.0,0.0,0.0,0.0,0.0,0.0,0.0,0.0,0.0,0.0,0.0,-0.2820434,-0.055027142,0.9579306,0.006225586,-0.9819336,-0.24285889,-0.09082031,-0.033203125,0.07519531,1.5110314,-5.8391724,-1.1392324,19.832134,-0.9505615,-0.14160156,-0.22735596,-0.053710938,0.045898438,0.0546875,13.573551,-0.47210884,-57.89773,19.387478,0.5543213,0.3996582,0.73846436,-0.015625,-0.022460938,0.028320312,15.67506,-9.931482,-129.28268,18.652292,0.0,0.0,0.0,0.0,0.0,0.0,0.0,2.6070042,-129.6954,34.23192,0.0,0.0,0.0,0.0,0.0,0.0,0.0,0.2820434,0.055027142,-0.9579306,-0.0029296875,-0.98706055,-0.3223877,-0.09863281,-0.115234375,0.06640625,11.440347,5.8391724,1.1392324,-19.832134,-0.94885254,0.012573242,-0.12719727,-0.12988281,0.061523438,0.080078125,1.4254639,0.22263288,-55.5289,-17.170637,0.45880127,-0.5491333,0.80877686,-0.061523438,0.043945312,0.091796875,2.4165416,-5.0744367,-127.14772,-11.786627,0.0,0.0,0.0,0.0,0.0,0.0,0.0,12.29427,-127.32692,-1.8682957,0.0,0.0,0.0,0.0,0.0,0.0,0.0,-3.80186,44.820175,1.4552586,
0.46874998603016166,20,-0.009216309,-0.9734497,0.32177734,0.021484375,-0.03515625,0.02734375,0.0,0.0,0.0,0.0,0.0,0.0,0.0,0.0,0.0,0.0,0.0,-0.283175,-0.054769486,0.95760524,0.0032958984,-0.9691162,-0.26263428,-0.07128906,-0.07128906,0.056640625,1.509606,-5.8625994,-1.1338983,19.825396,-0.9456787,-0.107421875,-0.2409668,-0.052734375,0.06542969,0.017578125,13.463704,-0.54652977,-57.89512,19.426754,0.5272217,0.40447998,0.73272705,-0.015625,-0.00390625,0.02734375,15.608715,-9.92787,-129.29541,18.631447,0.0,0.0,0.0,0.0,0.0,0.0,0.0,2.5980473,-129.69533,34.220764,0.0,0.0,0.0,0.0,0.0,0.0,0.0,0.283175,0.054769486,-0.95760524,-0.011352539,-0.9375,-0.35736084,-0.09765625,0.01171875,0.06640625,11.513977,5.8625994,1.1338983,-19.825396,-1.012146,0.047180176,-0.13244629,-0.111328125,0.080078125,0.1171875,1.5815244,0.11876249,-55.524,-17.285118,0.4126587,-0.57421875,0.77996826,-0.061523438,0.043945312,0.091796875,2.4851434,-5.3370566,-127.12665,-11.830926,0.0,0.0,0.0,0.0,0.0,0.0,0.0,11.996641,-127.26948,-1.8490725,0.0,0.0,0.0,0.0,0.0,0.0,0.0,-3.8118742,44.81967,1.4362106,
0.4921874853316697,21,0.0067749023,-0.98028564,0.30108643,0.040039062,-0.015625,0.02734375,0.0,0.0,0.0,0.0,0.0,0.0,0.0,0.0,0.0,0.0,0.0,-0.28387615,-0.053914383,0.95745784,-0.008972168,-0.9729614,-0.24969482,-0.08984375,-0.07128906,0.018554688,1.4688708,-5.8771157,-1.1161948,19.822346,-0.9489136,-0.121154785,-0.25183105,-0.033203125,0.083984375,0.036132812,13.376623,-0.6636076,-57.879826,19.474669,0.5421753,0.4303589,0.7555542,-0.0146484375,0.015625,0.02734375,15.530683,-10.063229,-129.27684,18.719063,0.0,0.0,0.0,0.0,0.0,0.0,0.0,2.453246,-129.67348,34.316227,0.0,0.0,0.0,0.0,0.0,0.0,0.0,0.28387615,0.053914383,-0.95745784,-0.011962891,-0.98498535,-0.3093872,-0.09765625,0.13964844,0.0859375,11.54881,5.8771157,1.1161948,-19.822346,-0.97088623,0.018493652,-0.13659668,9.765625E-4,0.061523438,0.095703125,1.8349371,0.024964333,-55.534893,-17.437712,0.41778564,-0.5744629,0.7857666,-0.080078125,0.044921875,0.055664062,2.4441652,-5.4990253,-127.11812,-11.859481,0.0,0.0,0.0,0.0,0.0,0.0,0.0,11.812908,-127.24805,-1.8381071,0.0,0.0,0.0,0.0,0.0,0.0,0.0,-3.8229237,44.82068,1.3903925,
0.5156249846331779,22,0.03491211,-0.982605,0.30596924,0.041015625,-0.03515625,0.0087890625,0.0,0.0,0.0,0.0,0.0,0.0,0.0,0.0,0.0,0.0,0.0,-0.28599814,-0.052962422,0.9568346,0.013427734,-0.97698975,-0.2687378,-0.12792969,-0.12890625,0.018554688,1.3727335,-5.9210467,-1.0964863,19.809444,-0.9588623,-0.105041504,-0.2508545,-0.06933594,0.16210938,0.018554688,13.349687,-0.8032975,-57.87456,19.477554,0.5715332,0.4000244,0.74627686,-0.0146484375,0.034179688,0.0087890625,15.44983,-10.296919,-129.26215,18.829155,0.0,0.0,0.0,0.0,0.0,0.0,0.0,2.2215443,-129.65314,34.426674,0.0,0.0,0.0,0.0,0.0,0.0,0.0,0.28599814,0.052962422,-0.9568346,-0.040893555,-0.9684448,-0.35516357,-0.19238281,0.103515625,0.0859375,11.709336,5.9210467,1.0964863,-19.809444,-0.9501343,0.07849121,-0.16418457,0.01953125,0.061523438,0.07714844,2.0145056,-0.13353777,-55.540882,-17.570696,0.4482422,-0.5360718,0.75946045,-0.080078125,0.043945312,0.11035156,2.463866,-5.8355274,-127.10939,-11.966311,0.0,0.0,0.0,0.0,0.0,0.0,0.0,11.463413,-127.2251,-1.9241991,0.0,0.0,0.0,0.0,0.0,0.0,0.0,-3.8637915,44.8172,1.32582,
0.5390624839346859,23,0.016723633,-0.9920044,0.288208,0.040039062,0.00390625,-0.009765625,0.0,0.0,0.0,0.0,0.0,0.0,0.0,0.0,0.0,0.0,0.0,-0.28737816,-0.052028134,0.9565147,0.022705078,-0.9768677,-0.29571533,-0.12792969,-0.12890625,0.018554688,1.2975441,-5.9496183,-1.0771437,19.802818,-0.95751953,-0.13616943,-0.24407959,-0.107421875,0.12402344,-9.765625E-4,13.221437,-1.0088644,-57.86908,19.480972,0.54608154,0.40039062,0.7155762,-0.0146484375,-0.00390625,0.064453125,15.275082,-10.573133,-129.2431,18.978739,0.0,0.0,0.0,0.0,0.0,0.0,0.0,1.9351177,-129.62872,34.584267,0.0,0.0,0.0,0.0,0.0,0.0,0.0,0.28737816,0.052028134,-0.9565147,-0.0256958,-0.960022,-0.32769775,-0.13574219,0.08496094,0.06738281,11.876884,5.9496183,1.0771437,-19.802818,-0.9678345,-0.010986328,-0.10028076,9.765625E-4,0.061523438,0.095703125,2.2371218,-0.31563997,-55.541775,-17.648315,0.41809082,-0.56378174,0.7977905,-0.080078125,0.08300781,0.055664062,2.520725,-6.0042167,-127.10629,-11.979424,0.0,0.0,0.0,0.0,0.0,0.0,0.0,11.274847,-127.18815,-1.904027,0.0,0.0,0.0,0.0,0.0,0.0,0.0,-3.8776553,44.81937,1.2728655,
0.562499983236194,24,0.03100586,-0.9748535,0.3178711,0.040039062,-0.015625,0.02734375,0.0,0.0,0.0,0.0,0.0,0.0,0.0,0.0,0.0,0.0,0.0,-0.29052782,-0.05092042,0.95564246,0.003479004,-0.9591675,-0.30041504,-0.12792969,-0.052734375,0.037109375,1.2044727,-6.0148253,-1.0542104,19.784761,-0.94488525,-0.1394043,-0.28735352,-0.07128906,0.08496094,0.036132812,13.103483,-1.2758536,-57.86569,19.445215,0.55511475,0.39282227,0.7324219,-0.0146484375,0.015625,0.02734375,15.15991,-10.953438,-129.22867,19.075327,0.0,0.0,0.0,0.0,0.0,0.0,0.0,1.5584278,-129.62526,34.678097,0.0,0.0,0.0,0.0,0.0,0.0,0.0,0.29052782,0.05092042,-0.95564246,-0.06915283,-0.98773193,-0.3262329,-0.15429688,0.06640625,0.048828125,12.043329,6.0148253,1.0542104,-19.784761,-1.0015259,0.08465576,-0.11639404,0.01953125,0.024414062,0.07714844,2.4629123,-0.43325233,-55.545414,-17.725447,0.44067383,-0.57562256,0.76330566,-0.080078125,0.06347656,0.09277344,2.5239067,-6.150768,-127.10278,-11.965628,0.0,0.0,0.0,0.0,0.0,0.0,0.0,11.114746,-127.15047,-1.8669071,0.0,0.0,0.0,0.0,0.0,0.0,0.0,-3.918926,44.81874,1.1967156,
0.5859374825377021,25,0.018798828,-0.9782715,0.28240967,0.05859375,0.022460938,0.045898438,0.0,0.0,0.0,0.0,0.0,0.0,0.0,0.0,0.0,0.0,0.0,-0.29356787,-0.050009616,0.95476776,0.01361084,-0.9680176,-0.3015747,-0.09082031,-0.0146484375,0.07519531,1.159778,-6.0777645,-1.0353541,19.766653,-0.9172363,-0.1408081,-0.28625488,-0.052734375,0.08496094,0.017578125,12.985403,-1.5576096,-57.862476,19.378756,0.53356934,0.4076538,0.7615967,-0.034179688,-0.00390625,0.02734375,15.108478,-11.367301,-129.20648,19.132418,0.0,0.0,0.0,0.0,0.0,0.0,0.0,1.1442719,-129.60059,34.733723,0.0,0.0,0.0,0.0,0.0,0.0,0.0,0.29356787,0.050009616,-0.95476776,-0.028869629,-0.97387695,-0.30303955,-0.07910156,-0.07910156,0.06640625,12.131153,6.0777645,1.0353541,-19.766653,-0.97998047,0.0048217773,-0.09490967,-0.16699219,0.024414062,0.080078125,2.603162,-0.45343828,-55.555347,-17.709295,0.43414307,-0.5518799,0.77557373,-0.080078125,0.08300781,0.09277344,2.6330674,-6.228355,-127.092606,-11.774999,0.0,0.0,0.0,0.0,0.0,0.0,0.0,11.022696,-127.1029,-1.6502123,0.0,0.0,0.0,0.0,0.0,0.0,0.0,-3.9446657,44.818386,1.1346459,
0.6093749818392101,26,0.023254395,-0.9237671,0.30438232,0.07714844,0.041992188,0.02734375,0.0,0.0,0.0,0.0,0.0,0.0,0.0,0.0,0.0,0.0,0.0,-0.2949709,-0.048482202,0.95443845,0.0146484375,-0.9641113,-0.30151367,-0.109375,0.0234375,0.055664062,1.1197753,-6.1068106,-1.003732,19.759836,-0.94073486,-0.12597656,-0.26367188,-0.033203125,0.103515625,0.017578125,12.8711195,-1.7504702,-57.847065,19.330076,0.55059814,0.36767578,0.75439453,0.0048828125,0.015625,0.02734375,15.053691,-11.626206,-129.1845,19.128025,0.0,0.0,0.0,0.0,0.0,0.0,0.0,0.88513184,-129.5788,34.730145,0.0,0.0,0.0,0.0,0.0,0.0,0.0,0.2949709,0.048482202,-0.95443845,-0.02355957,-0.9533081,-0.29803467,-0.13574219,-0.041992188,0.06640625,12.128779,6.1068106,1.003732,-19.759836,-0.94403076,0.031311035,-0.113220215,9.765625E-4,0.080078125,0.07714844,2.7196617,-0.47049904,-55.58779,-17.759682,0.43408203,-0.56396484,0.78741455,-0.080078125,0.043945312,0.091796875,2.7419543,-6.2189837,-127.12146,-11.775598,0.0,0.0,0.0,0.0,0.0,0.0,0.0,11.022361,-127.09807,-1.6331701,0.0,0.0,0.0,0.0,0.0,0.0,0.0,-3.9427435,44.821476,1.0582657,
0.6328124811407182,27,0.04095459,-0.9857178,0.31188965,0.057617188,0.041992188,0.0087890625,0.0,0.0,0.0,0.0,0.0,0.0,0.0,0.0,0.0,0.0,0.0,-0.29791778,-0.047611907,0.95352376,0.012573242,-0.9555054,-0.28149414,-0.109375,0.0234375,0.09472656,1.1134664,-6.1678214,-0.98571414,19.740898,-0.9473877,-0.15472412,-0.2687378,-0.0703125,0.123046875,0.017578125,12.885063,-1.9044003,-57.828564,19.28103,0.54937744,0.36297607,0.7434082,-0.032226562,0.07324219,0.0087890625,15.078431,-11.91514,-129.14543,19.145811,0.0,0.0,0.0,0.0,0.0,0.0,0.0,0.58988476,-129.535,34.75276,0.0,0.0,0.0,0.0,0.0,0.0,0.0,0.29791778,0.047611907,-0.95352376,-0.026123047,-0.99560547,-0.3032837,-0.1171875,-0.060546875,0.06640625,12.141971,6.1678214,0.98571414,-19.740898,-0.9765625,0.08959961,-0.10797119,-0.09277344,0.061523438,0.07910156,2.8482633,-0.4336896,-55.59893,-17.79714,0.43450928,-0.5281372,0.77874756,-0.080078125,0.06347656,0.09277344,2.75797,-6.3420177,-127.106476,-11.632685,0.0,0.0,0.0,0.0,0.0,0.0,0.0,10.885822,-127.07514,-1.4678917,0.0,0.0,0.0,0.0,0.0,0.0,0.0,-3.9626598,44.819218,0.999851,
0.6562499804422263,28,0.03302002,-0.9869995,0.35321045,0.038085938,0.061523438,-0.0087890625,0.0,0.0,0.0,0.0,0.0,0.0,0.0,0.0,0.0,0.0,0.0,-0.2989684,-0.046338864,0.9532424,-0.007751465,-0.9668579,-0.28948975,-0.109375,0.061523438,0.07519531,1.1853119,-6.189573,-0.9593581,19.735073,-0.98535156,-0.1138916,-0.28735352,-0.0703125,0.10449219,0.017578125,12.811284,-2.089079,-57.819084,19.309813,0.55792236,0.37957764,0.7453613,-0.036132812,-0.060546875,0.009765625,15.033245,-12.212852,-129.12141,19.286207,0.0,0.0,0.0,0.0,0.0,0.0,0.0,0.2922926,-129.50615,34.893913,0.0,0.0,0.0,0.0,0.0,0.0,0.0,0.2989684,0.046338864,-0.9532424,-0.027770996,-0.9678345,-0.3267212,-0.1171875,-0.024414062,0.08496094,12.157532,6.189573,0.9593581,-19.735073,-0.9558716,7.9345703E-4,-0.10534668,-0.13085938,0.080078125,0.1171875,2.9649773,-0.4932804,-55.61762,-17.85456,0.446167,-0.552124,0.7733154,-0.080078125,0.024414062,0.11035156,2.9620707,-6.455197,-127.11417,-11.629918,0.0,0.0,0.0,0.0,0.0,0.0,0.0,10.764223,-127.054955,-1.4506102,0.0,0.0,0.0,0.0,0.0,0.0,0.0,-3.9395137,44.821827,0.9433093,
0.6796874797437343,29,0.014831543,-0.98638916,0.31677246,0.07714844,0.041992188,0.0087890625,0.0,0.0,0.0,0.0,0.0,0.0,0.0,0.0,0.0,0.0,0.0,-0.30010134,-0.04557065,0.95287764,-0.01586914,-0.9570923,-0.2833252,-0.16699219,0.09863281,0.11328125,1.3582591,-6.2130284,-0.9434537,19.727522,-0.9421997,-0.109375,-0.2911377,-0.032226562,0.103515625,-9.765625E-4,12.674573,-2.332318,-57.819305,19.346502,0.53790283,0.41949463,0.7585449,-0.017578125,-0.080078125,0.009765625,14.897865,-12.560518,-129.10834,19.403942,0.0,0.0,0.0,0.0,0.0,0.0,0.0,-0.04413414,-129.5203,35.00143,0.0,0.0,0.0,0.0,0.0,0.0,0.0,0.30010134,0.04557065,-0.95287764,-0.03918457,-0.99523926,-0.3149414,-0.1171875,0.0126953125,0.103515625,12.275845,6.2130284,0.9434537,-19.727522,-0.9654541,0.07775879,-0.10632324,-0.12988281,0.061523438,0.09863281,2.9974155,-0.598639,-55.615383,-17.835453,0.449646,-0.5918579,0.7728882,-0.080078125,0.043945312,0.091796875,3.0225198,-6.7029133,-127.096176,-11.559828,0.0,0.0,0.0,0.0,0.0,0.0,0.0,10.491476,-127.02404,-1.3389225,0.0,0.0,0.0,0.0,0.0,0.0,0.0,-3.9409623,44.820576,0.90233463,
0.7031249790452424,30,0.044006348,-0.9768677,0.3079834,0.01953125,0.041992188,0.009765625,0.0,0.0,0.0,0.0,0.0,0.0,0.0,0.0,0.0,0.0,0.0,-0.30236647,-0.044625133,0.9522347,-0.00982666,-0.9524536,-0.260437,-0.20410156,0.13671875,0.11328125,1.5437032,-6.259922,-0.92387855,19.714209,-0.9440918,-0.08337402,-0.24871826,-0.0703125,0.123046875,-9.765625E-4,12.525913,-2.6143625,-57.81627,19.380308,0.5679321,0.4128418,0.7543335,0.0,-0.13769531,0.029296875,14.6270275,-12.950642,-129.08371,19.614016,0.0,0.0,0.0,0.0,0.0,0.0,0.0,-0.40539932,-129.55544,35.187374,0.0,0.0,0.0,0.0,0.0,0.0,0.0,0.30236647,0.044625133,-0.9522347,-0.035705566,-0.9649658,-0.29003906,-0.041992188,-0.025390625,0.06640625,12.289474,6.259922,0.92387855,-19.714209,-0.91619873,0.015686035,-0.058410645,-0.28027344,0.09863281,0.12011719,2.9535995,-0.5785389,-55.636406,-17.773722,0.44940186,-0.5443115,0.7762451,-0.080078125,0.024414062,0.12890625,3.2623081,-6.813825,-127.101395,-11.450668,0.0,0.0,0.0,0.0,0.0,0.0,0.0,10.358976,-127.022896,-1.194191,0.0,0.0,0.0,0.0,0.0,0.0,0.0,-3.934744,44.823353,0.85117,
0.7265624783467505,31,0.036315918,-0.94195557,0.34362793,-0.001953125,0.099609375,-0.026367188,0.0,0.0,0.0,0.0,0.0,0.0,0.0,0.0,0.0,0.0,0.0,-0.30269545,-0.04303406,0.95224655,-0.036376953,-0.9659424,-0.23254395,-0.28027344,0.21191406,0.09375,1.7586958,-6.266736,-0.8909386,19.714457,-0.9661865,-0.09295654,-0.2055664,-0.030273438,0.18066406,-0.018554688,12.221016,-2.8698888,-57.7995,19.496824,0.54016113,0.42626953,0.7635498,-0.021484375,-0.19433594,0.01171875,14.203926,-13.137596,-129.07753,19.845915,0.0,0.0,0.0,0.0,0.0,0.0,0.0,-0.57765865,-129.61095,35.404686,0.0,0.0,0.0,0.0,0.0,0.0,0.0,0.30269545,0.04303406,-0.95224655,0.02923584,-0.98413086,-0.258667,-0.022460938,0.0107421875,0.047851562,12.0654545,6.266736,0.8909386,-19.714457,-0.9689331,-0.02758789,-0.048828125,-0.33691406,0.15429688,0.15820312,2.8264625,-0.395638,-55.690285,-17.805977,0.41845703,-0.5036011,0.76049805,-0.080078125,0.024414062,0.12890625,3.73785,-6.725693,-127.14998,-11.562607,0.0,0.0,0.0,0.0,0.0,0.0,0.0,10.420513,-127.05758,-1.261116,0.0,0.0,0.0,0.0,0.0,0.0,0.0,-3.917792,44.827984,0.780504,
0.7499999776482585,32,0.064208984,-0.9816284,0.36505127,-0.080078125,0.099609375,-0.06347656,0.0,0.0,0.0,0.0,0.0,0.0,0.0,0.0,0.0,0.0,0.0,-0.30149263,-0.04072891,0.9527252,-0.05529785,-1.0235596,-0.15423584,-0.2998047,0.23046875,0.20898438,1.9269153,-6.2418323,-0.84321463,19.724363,-1.0175171,-0.009460449,-0.11480713,-0.06640625,0.23925781,-0.037109375,11.80345,-3.0066545,-57.760933,19.762175,0.5361328,0.45770264,0.78356934,0.060546875,-0.13964844,0.3251953,13.532733,-12.95697,-129.08405,20.266129,0.0,0.0,0.0,0.0,0.0,0.0,0.0,-0.42891312,-129.66905,35.84861,0.0,0.0,0.0,0.0,0.0,0.0,0.0,0.30149263,0.04072891,-0.9527252,0.009643555,-0.95025635,-0.2590332,0.015625,0.08300781,0.047851562,11.717764,6.2418323,0.84321463,-19.724363,-0.94421387,0.02355957,-0.074645996,-0.20703125,0.24707031,0.23144531,2.6554964,-0.1576972,-55.772133,-17.888302,0.41827393,-0.55096436,0.8008423,-0.061523438,0.08203125,0.203125,4.1763105,-6.693274,-127.229004,-11.800812,0.0,0.0,0.0,0.0,0.0,0.0,0.0,10.416224,-127.11069,-1.4424944,0.0,0.0,0.0,0.0,0.0,0.0,0.0,-3.8826952,44.832367,0.6878895,
0.7734374769497666,33,0.020019531,-0.9680786,0.3355713,-0.020507812,0.061523438,-0.1015625,0.0,0.0,0.0,0.0,0.0,0.0,0.0,0.0,0.0,0.0,0.0,-0.30003914,-0.039410822,0.9532237,-0.01184082,-1.1281128,0.008972168,-0.1484375,0.099609375,0.19042969,2.057569,-6.2117414,-0.8159262,19.734684,-0.9984741,0.097839355,-0.05718994,-0.021484375,0.41308594,-0.20507812,11.701527,-2.8790355,-57.718765,20.158588,0.5831299,0.3671875,0.78302,0.13378906,-0.27441406,0.36328125,12.885905,-12.577763,-129.0704,20.903221,0.0,0.0,0.0,0.0,0.0,0.0,0.0,-0.17745972,-129.74939,36.584427,0.0,0.0,0.0,0.0,0.0,0.0,0.0,0.30003914,0.039410822,-0.9532237,-0.024658203,-0.96325684,-0.2783203,-0.041015625,0.029296875,0.047851562,11.553842,6.2117414,0.8159262,-19.734684,-0.996521,0.119018555,-0.16674805,-0.28222656,0.24707031,0.23242188,2.580961,0.013395309,-55.824898,-17.940516,0.46258545,-0.5407715,0.7808838,-0.04296875,-0.072265625,0.12792969,4.50363,-7.0624337,-127.23555,-11.928961,0.0,0.0,0.0,0.0,0.0,0.0,0.0,10.014114,-127.09459,-1.5143442,0.0,0.0,0.0,0.0,0.0,0.0,0.0,-3.9353065,44.82817,0.6147237,
0.7968749762512747,34,0.02331543,-0.9331665,0.3564453,-0.07714844,0.0234375,-0.08203125,0.0,0.0,0.0,0.0,0.0,0.0,0.0,0.0,0.0,0.0,0.0,-0.29749516,-0.03650794,0.9541438,0.04510498,-1.208313,0.14538574,0.21191406,0.0087890625,0.037109375,1.9644339,-6.159072,-0.75582755,19.753735,-0.9984741,0.097839355,-0.05718994,-0.021484375,0.41308594,-0.20507812,11.708663,-2.8233547,-57.663017,20.289703,0.5810547,0.3544922,0.8218994,0.20605469,-0.38964844,0.3466797,13.09827,-12.522081,-129.01466,21.034336,0.0,0.0,0.0,0.0,0.0,0.0,0.0,-0.2284174,-129.83961,36.790848,0.0,0.0,0.0,0.0,0.0,0.0,0.0,0.29749516,0.03650794,-0.9541438,-0.06866455,-0.95129395,-0.32983398,-0.07910156,-0.13378906,0.047851562,11.479742,6.159072,0.75582755,-19.753735,-0.95318604,0.07165527,-0.15429688,-0.4873047,0.20996094,0.19824219,2.5252247,-0.07388973,-55.877045,-17.877266,0.4185791,-0.54022217,0.8098755,-0.061523438,-0.072265625,0.20214844,4.989238,-7.7851596,-127.2299,-11.90877,0.0,0.0,0.0,0.0,0.0,0.0,0.0,9.255163,-127.05477,-1.4338942,0.0,0.0,0.0,0.0,0.0,0.0,0.0,-3.8566742,44.836613,0.5130781,
0.8203124755527827,35,-0.024902344,-0.9415283,0.3711548,0.0029296875,-0.07324219,-0.046875,0.0,0.0,0.0,0.0,0.0,0.0,0.0,0.0,0.0,0.0,0.0,-0.2945445,-0.035230607,0.95510596,0.023925781,-1.3173828,0.215271,0.7626953,0.12988281,-0.078125,1.5180088,-6.0979834,-0.72938275,19.773655,-1.0755005,0.22375488,0.025817871,-0.22851562,0.8984375,-0.7080078,12.742644,-2.0707884,-57.587467,20.46337,0.5822754,0.50787354,0.8401489,0.20214844,-0.5234375,0.34765625,10.476605,-12.198125,-128.86496,21.780893,0.0,0.0,0.0,0.0,0.0,0.0,0.0,-4.5394897E-4,-129.91864,37.598305,0.0,0.0,0.0,0.0,0.0,0.0,0.0,0.2945445,0.035230607,-0.95510596,-0.05529785,-0.9237671,-0.36340332,-0.13574219,-0.09667969,0.047851562,11.608261,6.0979834,0.72938275,-19.773655,-0.97662354,0.11413574,-0.13549805,-0.22558594,0.20996094,0.21289062,2.4838042,-0.37721062,-55.870697,-17.85787,0.4317627,-0.5786743,0.77941895,-0.061523438,-0.072265625,0.18359375,5.4762907,-8.664201,-127.165215,-11.969071,0.0,0.0,0.0,0.0,0.0,0.0,0.0,8.345365,-126.967514,-1.447732,0.0,0.0,0.0,0.0,0.0,0.0,0.0,-3.7649927,44.84459,0.49308056,
0.8437499748542908,36,-0.013427734,-1.0217896,0.36383057,0.005859375,-0.13085938,0.0078125,0.0,0.0,0.0,0.0,0.0,0.0,0.0,0.0,0.0,0.0,0.0,-0.29554924,-0.033446774,0.9548438,-0.021240234,-1.3735352,0.26385498,1.3300781,0.19433594,-0.115234375,1.5785518,-6.1187854,-0.6924519,19.768225,-1.1762695,0.23797607,-0.013793945,-0.4267578,1.1337891,-0.98828125,15.971332,-0.6497998,-57.43698,20.617542,0.61950684,0.5866089,0.82598877,0.25390625,-0.8310547,0.62890625,10.15418,-12.974634,-128.38339,21.774858,0.0,0.0,0.0,0.0,0.0,0.0,0.0,-0.8883629,-129.7843,37.650944,0.0,0.0,0.0,0.0,0.0,0.0,0.0,0.29554924,0.033446774,-0.9548438,-0.0736084,-0.9421387,-0.3623047,-0.19238281,0.0126953125,0.048828125,11.824751,6.1187854,0.6924519,-19.768225,-0.95635986,0.068847656,-0.10961914,-0.24414062,0.2109375,0.15722656,2.548833,-0.65205,-55.871098,-17.882278,0.41705322,-0.57281494,0.8046875,-0.061523438,0.043945312,0.14746094,5.8389206,-9.4710865,-127.09943,-12.004348,0.0,0.0,0.0,0.0,0.0,0.0,0.0,7.5030365,-126.86523,-1.4244957,0.0,0.0,0.0,0.0,0.0,0.0,0.0,-3.7253575,44.84798,0.41786283,
0.8671874741557989,37,-0.020385742,-1.0098267,0.35308838,0.123046875,-0.18847656,0.005859375,0.0,0.0,0.0,0.0,0.0,0.0,0.0,0.0,0.0,0.0,0.0,-0.29815656,-0.03214935,0.9541361,0.0029296875,-1.355835,0.33654785,1.765625,0.028320312,-0.15332031,3.4381495,-6.1727653,-0.6655912,19.753572,-1.2658691,0.15435791,-0.15026855,-0.61035156,1.2138672,-1.3085938,20.288857,1.4340258,-57.146297,20.96933,0.70788574,0.7897339,0.871521,0.4404297,-1.21875,1.2246094,9.893322,-13.515089,-127.588684,21.724594,0.0,0.0,0.0,0.0,0.0,0.0,0.0,-1.6892328,-129.49992,37.74389,0.0,0.0,0.0,0.0,0.0,0.0,0.0,0.29815656,0.03214935,-0.9541361,-0.093811035,-0.9536133,-0.35516357,-0.26757812,0.123046875,0.0859375,12.124797,6.1727653,0.6655912,-19.753572,-0.9970703,0.1517334,-0.110839844,-0.13183594,0.20996094,0.17382812,2.625399,-0.9848485,-55.86099,-17.850338,0.41485596,-0.54211426,0.7572632,0.0146484375,0.024414062,0.072265625,6.060163,-10.336639,-127.012985,-11.871201,0.0,0.0,0.0,0.0,0.0,0.0,0.0,6.6080933,-126.76399,-1.2467709,0.0,0.0,0.0,0.0,0.0,0.0,0.0,-3.6676977,44.855713,0.36528736,
0.890624973457307,38,0.0138549805,-0.9624634,0.27264404,0.14257812,-0.20703125,-0.068359375,0.0,0.0,0.0,0.0,0.0,0.0,0.0,0.0,0.0,0.0,0.0,-0.30583224,-0.029472198,0.95180136,-0.08734131,-1.2104492,0.25671387,2.0478516,-0.35058594,-0.017578125,5.960194,-6.331676,-0.6101658,19.705238,-1.2350464,0.07373047,-0.2253418,-0.8515625,1.2949219,-1.5527344,25.248802,3.7044177,-56.701283,21.522959,0.60424805,0.67059326,0.90509033,0.6044922,-1.6630859,1.7099609,9.411624,-14.20233,-126.4507,21.579414,0.0,0.0,0.0,0.0,0.0,0.0,0.0,-2.7594414,-129.05376,37.778683,0.0,0.0,0.0,0.0,0.0,0.0,0.0,0.30583224,0.029472198,-0.95180136,-0.11102295,-0.96325684,-0.33325195,-0.26757812,0.21289062,0.0126953125,12.349097,6.331676,0.6101658,-19.705238,-0.99768066,0.113220215,-0.13305664,-0.09375,0.20996094,0.17382812,2.7249107,-1.1867146,-55.86607,-17.843994,0.39416504,-0.59558105,0.77923584,-0.0234375,0.043945312,0.07324219,6.345759,-10.985851,-126.95372,-11.787047,0.0,0.0,0.0,0.0,0.0,0.0,0.0,5.947048,-126.669304,-1.1432905,0.0,0.0,0.0,0.0,0.0,0.0,0.0,-3.5905185,44.863308,0.23547369,
0.914062472758815,39,0.087524414,-0.88635254,0.20220947,0.18066406,-0.1875,-0.03125,0.0,0.0,0.0,0.0,0.0,0.0,0.0,0.0,0.0,0.0,0.0,-0.3180165,-0.026351893,0.9476961,-0.10345459,-1.2025757,-0.031982422,2.5947266,0.076171875,0.09667969,9.003309,-6.5839295,-0.5455659,19.620247,-1.1984863,-0.07385254,-0.29870605,-1.1367188,1.2597656,-1.5917969,30.951227,6.4178557,-55.985348,22.310286,0.71203613,0.80358887,0.95928955,0.7285156,-1.4169922,1.8554688,8.872277,-14.531401,-124.88144,21.467377,0.0,0.0,0.0,0.0,0.0,0.0,0.0,-3.6600304,-128.27176,37.910614,0.0,0.0,0.0,0.0,0.0,0.0,0.0,0.3180165,0.026351893,-0.9476961,-0.10491943,-0.9585571,-0.31451416,-0.3046875,0.103515625,-0.025390625,12.710525,6.5839295,0.5455659,-19.620247,-0.97766113,0.11419678,-0.1295166,0.018554688,0.2109375,0.15234375,2.7063138,-1.2959223,-55.8829,-17.769533,0.45031738,-0.55236816,0.7821045,-0.0048828125,0.08300781,0.036132812,6.506924,-11.442694,-126.923294,-11.71597,0.0,0.0,0.0,0.0,0.0,0.0,0.0,5.4713573,-126.630066,-1.0435305,0.0,0.0,0.0,0.0,0.0,0.0,0.0,-3.62482,44.852783,0.030814946,
0.9374999720603231,40,0.18371582,-0.9083252,0.14111328,-0.01953125,0.041992188,-0.064453125,0.0,0.0,0.0,0.0,0.0,0.0,0.0,0.0,0.0,0.0,0.0,-0.3316155,-0.024172207,0.94260937,0.07165527,-1.2712402,-0.24578857,2.4980469,0.6660156,0.32421875,12.027164,-6.86547,-0.50043964,19.514936,-1.2179565,-0.27514648,-0.29779053,-1.0292969,1.0849609,-1.5185547,36.90351,9.4463,-55.0116,23.079384,0.56243896,1.4547119,0.89782715,-0.27148438,-0.22167969,1.4160156,8.677359,-14.264207,-122.98341,21.232477,0.0,0.0,0.0,0.0,0.0,0.0,0.0,-3.9100485,-126.6616,37.946426,0.0,0.0,0.0,0.0,0.0,0.0,0.0,0.3316155,0.024172207,-0.94260937,-0.07873535,-0.9510498,-0.33361816,-0.32421875,-0.0234375,-0.025390625,13.518437,6.86547,0.50043964,-19.514936,-0.9567261,0.1338501,-0.13568115,-0.01953125,0.2109375,0.15332031,2.6756907,-1.4162779,-55.864002,-17.672407,0.44586182,-0.5749512,0.7741089,0.0146484375,0.10253906,0.036132812,6.700571,-11.940056,-126.84888,-11.626491,0.0,0.0,0.0,0.0,0.0,0.0,0.0,4.9793262,-126.5515,-0.9616718,0.0,0.0,0.0,0.0,0.0,0.0,0.0,-3.9790058,44.80192,-0.2509402,
0.9609374713618312,41,0.27001953,-1.2312012,0.15496826,0.048828125,0.25390625,-0.24902344,0.0,0.0,0.0,0.0,0.0,0.0,0.0,0.0,0.0,0.0,0.0,-0.33299094,-0.021621572,0.9426531,-0.076049805,-1.0534668,-0.61053467,1.2138672,-0.11328125,0.115234375,13.775375,-6.8939447,-0.4476336,19.515842,-1.0830688,-0.2453003,-0.4230957,-0.57421875,0.6347656,-0.9951172,40.880135,11.391412,-54.279724,23.678692,-0.36523438,1.0817261,0.8112793,0.24316406,-0.16699219,1.2119141,8.828127,-14.330365,-121.48867,20.89063,0.0,0.0,0.0,0.0,0.0,0.0,0.0,-4.3191605,-125.18565,37.80909,0.0,0.0,0.0,0.0,0.0,0.0,0.0,0.33299094,0.021621572,-0.9426531,0.008911133,-0.92736816,-0.3022461,-0.30566406,0.068359375,0.030273438,14.10938,6.8939447,0.4476336,-19.515842,-0.9524536,0.0826416,-0.117492676,0.07421875,0.2109375,0.15234375,2.669025,-1.6515121,-55.89083,-17.806952,0.42755127,-0.583313,0.76953125,-0.0048828125,0.08300781,0.036132812,6.963734,-12.37396,-126.85916,-11.8967285,0.0,0.0,0.0,0.0,0.0,0.0,0.0,4.5492964,-126.56549,-1.2390728,0.0,0.0,0.0,0.0,0.0,0.0,0.0,-4.2690725,44.793224,-0.4806249,
0.9843749706633392,42,0.2557373,-1.2874146,0.21270752,0.0029296875,0.44628906,-0.37597656,0.0,0.0,0.0,0.0,0.0,0.0,0.0,0.0,0.0,0.0,0.0,-0.3230768,-0.018359944,0.94632703,-0.0045166016,-0.94641113,-0.30725098,1.5947266,0.35058594,-0.09667969,15.03152,-6.688692,-0.38010782,19.591904,-0.85583496,-0.12792969,-0.36468506,-0.052734375,-0.14355469,-0.4951172,42.834816,12.929239,-53.742985,23.838108,-0.75219727,0.97302246,0.79541016,0.28027344,0.0859375,0.50683594,9.30356,-13.268679,-120.72537,20.162022,0.0,0.0,0.0,0.0,0.0,0.0,0.0,-3.571827,-124.43355,37.259155,0.0,0.0,0.0,0.0,0.0,0.0,0.0,0.3230768,0.018359944,-0.94632703,0.034606934,-0.9564209,-0.29901123,-0.2861328,0.25097656,0.12402344,14.261266,6.688692,0.38010782,-19.591904,-0.9807129,0.07299805,-0.052490234,0.1484375,0.28515625,0.20703125,2.9295754,-1.9353886,-55.94911,-18.219286,0.45593262,-0.5720825,0.7689209,-0.0048828125,0.140625,0.018554688,7.177557,-12.912816,-126.884155,-12.432943,0.0,0.0,0.0,0.0,0.0,0.0,0.0,4.0147543,-126.57385,-1.7823257,0.0,0.0,0.0,0.0,0.0,0.0,0.0,-4.349916,44.790688,-0.6160685,
1.0078124699648474,43,0.14025879,-0.99920654,0.2734375,0.31152344,0.44628906,-0.39746094,0.0,0.0,0.0,0.0,0.0,0.0,0.0,0.0,0.0,0.0,0.0,-0.31466794,-0.010309983,0.94903296,0.066345215,-0.8444824,-0.10455322,1.4414062,0.7109375,0.11230469,16.76743,-6.5146027,-0.21344854,19.647926,-0.69073486,-0.060668945,-0.35003662,-0.4814453,-0.91308594,0.23144531,44.009415,14.817196,-52.919865,23.738892,-0.75219727,0.97302246,0.79541016,0.28027344,0.0859375,0.50683594,8.78796,-10.556383,-120.19678,19.649868,0.0,0.0,0.0,0.0,0.0,0.0,0.0,-0.8595314,-123.90495,36.747,0.0,0.0,0.0,0.0,0.0,0.0,0.0,0.31466794,0.010309983,-0.94903296,0.06732178,-0.9920654,-0.20300293,-0.26757812,0.52441406,0.21777344,14.133413,6.5146027,0.21344854,-19.647926,-0.93573,0.075927734,-0.042541504,0.12988281,0.32226562,0.26367188,3.1649587,-2.0414762,-56.13495,-18.475277,0.414917,-0.57666016,0.79974365,0.08984375,0.064453125,-0.07519531,7.401625,-13.283712,-127.03403,-12.740772,0.0,0.0,0.0,0.0,0.0,0.0,0.0,3.637083,-126.70372,-2.0799122,0.0,0.0,0.0,0.0,0.0,0.0,0.0,-4.313594,44.777992,-0.9437916,
1.0312499692663555,44,0.037902832,-0.82977295,0.27539062,0.21386719,0.484375,-0.43359375,0.0,0.0,0.0,0.0,0.0,0.0,0.0,0.0,0.0,0.0,0.0,-0.30445686,-0.0013383888,0.95261055,0.1887207,-0.88934326,-0.2979126,1.1748047,0.5732422,0.3046875,17.625177,-6.3032002,-0.027708765,19.72199,-0.70336914,-0.175354,-0.34472656,-0.81347656,-1.6064453,0.9765625,42.812904,15.876282,-52.429043,23.163258,-0.4749756,0.9555054,1.0913086,1.0595703,0.5283203,-0.90234375,8.169934,-7.148655,-120.55852,19.3642,0.0,0.0,0.0,0.0,0.0,0.0,0.0,2.2414093,-124.38992,36.605724,0.0,0.0,0.0,0.0,0.0,0.0,0.0,0.30445686,0.0013383888,-0.95261055,0.033325195,-0.98443604,-0.2142334,-0.26757812,0.7792969,0.29296875,13.876824,6.3032002,0.027708765,-19.72199,-0.94311523,0.0029296875,-0.061950684,0.16699219,0.3779297,0.30078125,3.297228,-2.099525,-56.34562,-18.641748,0.41687012,-0.5583496,0.7749634,0.0146484375,0.10253906,-0.055664062,7.700719,-13.565594,-127.2098,-13.021282,0.0,0.0,0.0,0.0,0.0,0.0,0.0,3.3671322,-126.872375,-2.3783598,0.0,0.0,0.0,0.0,0.0,0.0,0.0,-4.227178,44.786167,-1.288094,
1.0546874685678636,45,0.043823242,-0.82250977,0.22717285,0.005859375,0.36914062,-0.37695312,0.0,0.0,0.0,0.0,0.0,0.0,0.0,0.0,0.0,0.0,0.0,-0.2933792,0.0042321123,0.95614505,0.11468506,-0.78338623,-0.17303467,1.1757812,1.1074219,0.22558594,18.949127,-6.073859,0.087617904,19.795164,-0.82006836,-0.34002686,-0.26818848,-0.4951172,-2.1523438,1.5361328,41.04375,17.390999,-51.75832,23.121332,-0.06524658,0.9515381,1.0578613,0.9189453,1.3583984,-1.9287109,6.997987,-1.9296417,-121.07286,20.106018,0.0,0.0,0.0,0.0,0.0,0.0,0.0,7.574684,-124.77287,37.312927,0.0,0.0,0.0,0.0,0.0,0.0,0.0,0.2933792,-0.0042321123,-0.95614505,-0.059631348,-0.9589844,-0.22039795,-0.22949219,0.7421875,0.29296875,13.863291,6.073859,-0.087617904,-19.795164,-0.95147705,0.06201172,-0.08300781,0.20410156,0.43359375,0.3564453,3.265607,-2.266469,-56.47201,-18.615044,0.43511963,-0.51086426,0.8096924,0.109375,0.12207031,-0.09375,8.018391,-14.140373,-127.2901,-13.196401,0.0,0.0,0.0,0.0,0.0,0.0,0.0,2.8043747,-126.97781,-2.5715857,0.0,0.0,0.0,0.0,0.0,0.0,0.0,-4.2605658,44.77939,-1.5054965,
1.0781249678693716,46,0.07470703,-0.8688965,0.23187256,-0.051757812,0.34960938,-0.33984375,0.0,0.0,0.0,0.0,0.0,0.0,0.0,0.0,0.0,0.0,0.0,-0.28704044,0.007846832,0.95795345,0.15252686,-0.8389282,-0.06616211,1.0439453,1.2402344,0.12988281,20.238272,-5.942627,0.16245377,19.832607,-0.97216797,-0.26800537,-0.27526855,0.22949219,-2.4316406,2.0800781,38.530315,18.875893,-51.063206,22.934484,0.24261475,0.8356323,1.0021973,0.75,1.5917969,-2.2822266,6.665739,4.352808,-121.56485,20.644367,0.0,0.0,0.0,0.0,0.0,0.0,0.0,14.15967,-124.88557,37.7593,0.0,0.0,0.0,0.0,0.0,0.0,0.0,0.28704044,-0.007846832,-0.95795345,-0.17181396,-0.9398804,-0.2539673,-0.24902344,0.5419922,0.18066406,14.096625,5.942627,-0.16245377,-19.832607,-0.93756104,0.11505127,-0.13928223,0.18457031,0.4892578,0.41308594,3.2736905,-2.453576,-56.52444,-18.395103,0.40856934,-0.545166,0.8210449,0.29785156,-0.033203125,-0.13378906,8.349014,-15.061467,-127.23329,-13.197557,0.0,0.0,0.0,0.0,0.0,0.0,0.0,1.8921614,-126.98214,-2.585373,0.0,0.0,0.0,0.0,0.0,0.0,0.0,-4.3987846,44.755703,-1.6846536,
1.1015624671708797,47,0.13360596,-0.90026855,0.17462158,-0.14355469,0.234375,-0.2841797,0.0,0.0,0.0,0.0,0.0,0.0,0.0,0.0,0.0,0.0,0.0,-0.2915086,0.009494022,0.9562889,0.06555176,-0.8795166,0.047546387,0.7988281,0.9501953,0.091796875,20.935614,-6.035131,0.19655569,19.798145,-0.9951782,-0.13421631,-0.26489258,0.5830078,-2.5527344,2.3623047,35.29727,19.88866,-50.49779,22.571548,0.6254883,0.7463379,0.91101074,0.41992188,1.5195312,-2.5214844,7.0896387,10.718562,-121.92435,21.65852,0.0,0.0,0.0,0.0,0.0,0.0,0.0,20.953838,-124.755226,38.60894,0.0,0.0,0.0,0.0,0.0,0.0,0.0,0.2915086,-0.009494022,-0.9562889,-0.16668701,-0.93096924,-0.27770996,-0.3623047,0.15917969,0.03125,14.893639,6.035131,-0.19655569,-19.798145,-0.9315796,0.1395874,-0.17089844,-0.059570312,0.5078125,0.3798828,3.3517022,-2.639976,-56.51023,-18.078924,0.43133545,-0.55718994,0.7994995,0.3359375,-0.013671875,-0.17089844,8.723302,-16.195728,-127.06277,-13.125957,0.0,0.0,0.0,0.0,0.0,0.0,0.0,0.7676201,-126.925446,-2.5275621,0.0,0.0,0.0,0.0,0.0,0.0,0.0,-4.7995486,44.692608,-1.9067693,
1.1249999664723878,48,0.1473999,-0.9354248,0.15667725,-0.21972656,0.21582031,-0.26464844,0.0,0.0,0.0,0.0,0.0,0.0,0.0,0.0,0.0,0.0,0.0,-0.30007017,0.009130053,0.953549,-0.060302734,-0.8748169,0.29632568,0.609375,0.6816406,0.07324219,21.150942,-6.2123833,0.1890204,19.74142,-1.0124512,-0.06097412,-0.22521973,0.6611328,-2.4570312,2.4199219,31.874485,20.634125,-50.03324,22.366247,0.5905762,0.62005615,0.6437378,-0.07421875,0.9111328,-2.274414,7.9917574,16.89896,-121.94217,23.120415,0.0,0.0,0.0,0.0,0.0,0.0,0.0,27.653439,-124.30246,39.819504,0.0,0.0,0.0,0.0,0.0,0.0,0.0,0.30007017,-0.009130053,-0.953549,-0.12658691,-0.92858887,-0.3168335,-0.4375,-0.13085938,-0.0068359375,16.160263,6.2123833,-0.1890204,-19.74142,-0.9626465,0.13964844,-0.1652832,-0.13378906,0.5078125,0.40039062,3.482734,-2.8909616,-56.43778,-17.963694,0.4389038,-0.5267334,0.80352783,0.22265625,0.16015625,-0.16796875,9.26391,-17.371914,-126.82904,-13.289802,0.0,0.0,0.0,0.0,0.0,0.0,0.0,-0.4077797,-126.75534,-2.692624,0.0,0.0,0.0,0.0,0.0,0.0,0.0,-5.439391,44.60477,-2.138792,
1.1484374657738958,49,0.15216064,-0.98065186,0.17218018,-0.18261719,0.25390625,-0.20898438,0.0,0.0,0.0,0.0,0.0,0.0,0.0,0.0,0.0,0.0,0.0,-0.3070332,0.009600516,0.9514061,-0.20178223,-0.87091064,0.395813,0.5888672,0.6044922,0.24609375,21.780333,-6.3565397,0.19876057,19.697058,-0.9953003,-0.06555176,-0.20947266,0.58984375,-2.3222656,2.383789,29.066095,21.641235,-49.34542,23.062027,0.47485352,0.5151367,0.63256836,-0.6357422,-0.3515625,-1.2988281,9.660803,23.060905,-121.303345,25.451736,0.0,0.0,0.0,0.0,0.0,0.0,0.0,34.350754,-123.404205,41.828613,0.0,0.0,0.0,0.0,0.0,0.0,0.0,0.3070332,-0.009600516,-0.9514061,-0.038330078,-0.9312134,-0.32421875,-0.55078125,-0.2578125,-0.025390625,17.424025,6.3565397,-0.19876057,-19.697058,-0.9390259,0.07354736,-0.17834473,-0.17089844,0.47070312,0.4189453,3.578069,-3.273549,-56.363228,-18.003681,0.41888428,-0.529541,0.82092285,0.20410156,0.140625,-0.13183594,9.915025,-18.659636,-126.58101,-13.681258,0.0,0.0,0.0,0.0,0.0,0.0,0.0,-1.6884327,-126.56233,-3.0933895,0.0,0.0,0.0,0.0,0.0,0.0,0.0,-5.987597,44.525673,-2.381591,
1.171874965075404,50,0.17834473,-0.96325684,0.15948486,-0.14257812,0.21484375,-0.20996094,0.0,0.0,0.0,0.0,0.0,0.0,0.0,0.0,0.0,0.0,0.0,-0.3146886,0.009643421,0.9488248,-0.23132324,-0.8967285,0.3828125,0.53222656,0.4892578,0.24707031,22.261696,-6.515029,0.19964872,19.643614,-0.9088745,-0.029663086,-0.1696167,0.59277344,-2.2451172,2.3476562,26.265444,22.470078,-48.70552,23.92052,0.99261475,0.6383667,0.6912842,-1.3232422,-1.2089844,-0.66015625,12.306068,28.843014,-120.33955,27.759153,0.0,0.0,0.0,0.0,0.0,0.0,0.0,40.742447,-122.48303,43.69425,0.0,0.0,0.0,0.0,0.0,0.0,0.0,0.3146886,-0.009643421,-0.9488248,0.01776123,-0.9393921,-0.2946167,-0.56933594,-0.14746094,0.01171875,18.653732,6.515029,-0.19964872,-19.643614,-0.9483032,0.099243164,-0.16503906,-0.15332031,0.5449219,0.45703125,3.7496185,-3.5814486,-56.28978,-18.272253,0.43774414,-0.55285645,0.82421875,0.18457031,0.06347656,-0.11328125,10.501648,-19.783718,-126.34268,-14.345528,0.0,0.0,0.0,0.0,0.0,0.0,0.0,-2.8141003,-126.39744,-3.7591743,0.0,0.0,0.0,0.0,0.0,0.0,0.0,-6.5320816,44.43246,-2.6180308,
1.195312464376912,51,0.19262695,-0.927063,0.14489746,-0.16503906,0.31054688,-0.171875,0.0,0.0,0.0,0.0,0.0,0.0,0.0,0.0,0.0,0.0,0.0,-0.32050452,0.010552146,0.94692135,-0.20953369,-0.8461304,0.33032227,0.6455078,0.4716797,0.20898438,22.964048,-6.6354356,0.21846202,19.60421,-0.9123535,0.0040893555,-0.16064453,0.5253906,-1.9931641,2.21875,23.773558,23.401474,-47.957245,24.778036,1.15271,0.44158936,0.69750977,-1.5117188,-1.1699219,-0.58691406,15.066033,34.432858,-118.93576,30.007011,0.0,0.0,0.0,0.0,0.0,0.0,0.0,46.98239,-121.08439,45.43509,0.0,0.0,0.0,0.0,0.0,0.0,0.0,0.32050452,-0.010552146,-0.94692135,0.12030029,-0.92456055,-0.3050537,-0.55078125,0.052734375,0.068359375,19.654865,6.6354356,-0.21846202,-19.60421,-0.95581055,0.044006348,-0.17633057,-0.20996094,0.58203125,0.4951172,4.154731,-3.7565722,-56.260834,-18.791912,0.45941162,-0.46746826,0.84124756,0.07128906,0.12207031,-0.111328125,11.300434,-20.808758,-126.138054,-15.40135,0.0,0.0,0.0,0.0,0.0,0.0,0.0,-3.8170166,-126.261375,-4.849022,0.0,0.0,0.0,0.0,0.0,0.0,0.0,-6.9939575,44.349438,-2.8614585,
1.21874996367842,52,0.20184326,-0.91186523,0.17651367,-0.24316406,0.34960938,-0.20703125,0.0,0.0,0.0,0.0,0.0,0.0,0.0,0.0,0.0,0.0,0.0,-0.3228404,0.012921669,0.9461914,-0.1461792,-0.7883911,0.3065796,0.43945312,0.24023438,0.037109375,23.227276,-6.683796,0.26751867,19.589096,-0.89123535,0.056640625,-0.11212158,0.47851562,-1.7597656,1.9189453,21.16254,24.060549,-47.430683,25.023588,1.5175781,0.25360107,0.69610596,-0.28710938,-0.20214844,-1.2822266,17.98476,39.303696,-117.51842,31.42747,0.0,0.0,0.0,0.0,0.0,0.0,0.0,52.344704,-119.681274,46.43895,0.0,0.0,0.0,0.0,0.0,0.0,0.0,0.3228404,-0.012921669,-0.9461914,0.14648438,-0.99102783,-0.3031006,-0.56933594,0.4345703,0.0703125,20.529095,6.683796,-0.26751867,-19.589096,-0.9737549,0.031188965,-0.17608643,0.013671875,0.7314453,0.5673828,4.778728,-3.813387,-56.295795,-19.576975,0.40899658,-0.5028076,0.88897705,0.08984375,-0.051757812,-0.09472656,12.164082,-21.70538,-125.993195,-16.877995,0.0,0.0,0.0,0.0,0.0,0.0,0.0,-4.7329807,-126.13934,-6.294507,0.0,0.0,0.0,0.0,0.0,0.0,0.0,-7.440144,44.261715,-3.1430368,
1.242187462979928,53,0.26379395,-0.9723511,0.18499756,-0.20898438,0.46484375,-0.24414062,0.0,0.0,0.0,0.0,0.0,0.0,0.0,0.0,0.0,0.0,0.0,-0.32459947,0.01414071,0.94552016,-0.0072021484,-0.94592285,0.38305664,0.55371094,0.29882812,-0.040039062,23.376991,-6.720216,0.29275638,19.575197,-0.89123535,0.056640625,-0.11212158,0.47851562,-1.7597656,1.9189453,21.996872,24.710575,-46.94103,25.126852,1.3034058,0.28430176,0.54138184,-0.4970703,1.0410156,-1.3330078,16.831106,39.95372,-117.02876,31.530733,0.0,0.0,0.0,0.0,0.0,0.0,0.0,53.347416,-118.85504,46.27373,0.0,0.0,0.0,0.0,0.0,0.0,0.0,0.32459947,-0.01414071,-0.94552016,0.08227539,-0.9908447,-0.29022217,-0.56933594,0.5810547,0.12597656,21.530472,6.720216,-0.29275638,-19.575197,-0.9737549,0.031188965,-0.17608643,0.013671875,0.7314453,0.5673828,4.8892827,-3.9309635,-56.289974,-20.170074,0.4459839,-0.54974365,0.911499,0.013671875,-0.3408203,-0.040039062,11.913963,-21.822956,-125.98738,-17.471096,0.0,0.0,0.0,0.0,0.0,0.0,0.0,-4.879957,-126.203445,-6.842987,0.0,0.0,0.0,0.0,0.0,0.0,0.0,-7.951471,44.1522,-3.3900776,
1.2656249622814362,54,0.2506714,-0.9960327,0.21929932,-0.2890625,0.5605469,-0.22363281,0.0,0.0,0.0,0.0,0.0,0.0,0.0,0.0,0.0,0.0,0.0,-0.32365602,0.016831845,0.9459218,-0.06402588,-0.9760742,0.33233643,0.53515625,0.546875,-0.041015625,23.696348,-6.700682,0.3484715,19.583511,-0.8457031,-0.0056762695,-0.07489014,0.27539062,-1.2148438,1.2275391,17.798296,25.542418,-46.33495,25.128332,0.89819336,-0.09851074,0.42144775,-0.25390625,1.2451172,-0.7626953,19.82551,47.01165,-114.63631,32.8503,0.0,0.0,0.0,0.0,0.0,0.0,0.0,60.64531,-115.88566,47.414482,0.0,0.0,0.0,0.0,0.0,0.0,0.0,0.32365602,-0.016831845,-0.9459218,-0.0029296875,-1.0610352,-0.30133057,-0.5878906,0.6357422,0.12695312,22.637384,6.700682,-0.3484715,-19.583511,-1.0179443,0.08178711,-0.41271973,-0.13769531,0.9736328,0.70214844,6.289056,-4.261538,-56.283142,-20.536152,0.29571533,-0.19421387,0.91937256,0.22070312,-0.84472656,0.08300781,13.345929,-24.78794,-125.301216,-19.568392,0.0,0.0,0.0,0.0,0.0,0.0,0.0,-7.990301,-125.8217,-8.728954,0.0,0.0,0.0,0.0,0.0,0.0,0.0,-8.445954,44.042877,-3.6735668,
1.2890624615829442,55,0.20739746,-1.1239014,0.15753174,-0.13183594,0.5029297,-0.11425781,0.0,0.0,0.0,0.0,0.0,0.0,0.0,0.0,0.0,0.0,0.0,-0.31554472,0.015999623,0.94884634,-0.13562012,-0.86657715,0.36157227,0.15625,0.44628906,0.036132812,23.99196,-6.532755,0.33124173,19.644062,-0.91693115,0.137146,-0.035095215,0.19140625,-0.9248047,1.0244141,16.639366,26.270723,-45.935734,25.37864,1.1960449,0.07495117,0.30151367,0.09277344,1.1240234,-0.24414062,20.68406,49.936943,-113.45824,33.51905,0.0,0.0,0.0,0.0,0.0,0.0,0.0,63.657803,-114.4105,48.040146,0.0,0.0,0.0,0.0,0.0,0.0,0.0,0.31554472,-0.015999623,-0.94884634,0.14562988,-1.2057495,-0.29125977,-0.6435547,0.46972656,-0.078125,23.887388,6.532755,-0.33124173,-19.644062,-1.225769,0.0048828125,-0.20672607,-0.08203125,0.9550781,0.6826172,6.793502,-5.169078,-56.09762,-21.059738,0.46984863,-0.3902588,0.9420166,0.14355469,-1.2080078,-0.32421875,13.484092,-27.264587,-124.63275,-20.920261,0.0,0.0,0.0,0.0,0.0,0.0,0.0,-10.655277,-125.52626,-9.810778,0.0,0.0,0.0,0.0,0.0,0.0,0.0,-8.76528,43.98942,-3.6567059,
1.3124999608844523,56,0.16992188,-1.1603394,0.13079834,-0.12402344,0.3095703,0.10644531,0.0,0.0,0.0,0.0,0.0,0.0,0.0,0.0,0.0,0.0,0.0,-0.3065125,0.012092888,0.9519155,-0.105529785,-1.0424805,0.46044922,0.00390625,0.3876953,0.07421875,24.171627,-6.3457594,0.25036037,19.707602,-0.8488159,0.05657959,-0.045043945,-0.31933594,-0.45410156,0.42578125,15.733175,26.658085,-45.847878,25.67252,1.3922119,-0.06750488,0.23175049,0.27734375,1.5234375,-0.24902344,20.54179,51.690094,-112.851654,34.08748,0.0,0.0,0.0,0.0,0.0,0.0,0.0,65.24271,-113.35646,48.791676,0.0,0.0,0.0,0.0,0.0,0.0,0.0,0.3065125,-0.012092888,-0.9519155,-0.1149292,-1.1132812,-0.2545166,-0.7763672,0.10839844,-0.041992188,24.765978,6.3457594,-0.25036037,-19.707602,-1.1397095,0.19970703,-0.28985596,0.048828125,1.0654297,0.9794922,7.981484,-6.0585175,-55.852364,-21.678886,0.4537964,-0.53479004,0.9491577,-0.06542969,-1.6884766,-0.38085938,13.302912,-30.433352,-123.61133,-22.172905,0.0,0.0,0.0,0.0,0.0,0.0,0.0,-14.000612,-125.07629,-10.862536,0.0,0.0,0.0,0.0,0.0,0.0,0.0,-8.858448,43.99291,-3.4112554,
1.3359374601859604,57,0.23010254,-1.1584473,0.06878662,-0.14160156,0.25195312,0.125,0.0,0.0,0.0,0.0,0.0,0.0,0.0,0.0,0.0,0.0,0.0,-0.30056682,0.0065910816,0.95389676,-0.08282471,-0.96221924,0.4819336,0.04296875,0.29296875,0.016601562,24.368528,-6.2226653,0.1364559,19.748621,-0.77056885,-0.08843994,-0.07598877,-0.46972656,0.0126953125,-0.13476562,15.672798,26.931559,-45.834675,25.861404,1.2425537,-0.17456055,0.037353516,0.4560547,1.6923828,-0.12109375,19.381962,52.257973,-112.71829,34.321003,0.0,0.0,0.0,0.0,0.0,0.0,0.0,65.5074,-112.73475,49.30513,0.0,0.0,0.0,0.0,0.0,0.0,0.0,0.30056682,-0.0065910816,-0.95389676,-0.19854736,-1.1380615,-0.28894043,-0.79589844,0.20019531,0.013671875,25.792902,6.2226653,-0.1364559,-19.748621,-1.088501,0.11022949,-0.18572998,-0.25195312,1.1035156,0.7792969,8.5743,-7.14895,-55.499203,-22.141844,0.45593262,-0.5157471,0.9373779,-0.0859375,-2.1503906,-0.53125,12.7513275,-33.450054,-122.52426,-23.573019,0.0,0.0,0.0,0.0,0.0,0.0,0.0,-17.240036,-124.73752,-12.065033,0.0,0.0,0.0,0.0,0.0,0.0,0.0,-8.899071,44.00863,-3.1081243,
1.3593749594874684,58,0.30297852,-1.2038574,0.02520752,0.09765625,0.041992188,0.13867188,0.0,0.0,0.0,0.0,0.0,0.0,0.0,0.0,0.0,0.0,0.0,-0.29961783,0.003482014,0.9542124,-0.06890869,-0.87939453,0.42285156,-0.23925781,-0.053710938,-0.13574219,24.731977,-6.2030177,0.07208845,19.755156,-0.7909546,-0.18054199,-0.18670654,-0.4140625,0.47558594,-0.46875,16.47834,27.164879,-45.673435,26.361937,1.1628418,-0.31744385,-0.0041503906,0.3232422,0.96484375,0.27539062,18.04793,51.89526,-112.787,34.767273,0.0,0.0,0.0,0.0,0.0,0.0,0.0,64.82228,-112.45821,50.027386,0.0,0.0,0.0,0.0,0.0,0.0,0.0,0.29961783,-0.003482014,-0.9542124,-0.04425049,-1.1603394,-0.18103027,-0.6816406,0.2890625,-0.0234375,26.72618,6.2030177,-0.07208845,-19.755156,-1.1046143,0.07696533,-0.11529541,-0.515625,1.2714844,0.8222656,9.361852,-8.022022,-55.197556,-22.59327,0.4755249,-0.5477905,0.9276123,-0.23925781,-2.6884766,-0.69921875,11.734869,-36.29953,-121.37752,-25.076769,0.0,0.0,0.0,0.0,0.0,0.0,0.0,-20.421913,-124.519844,-13.322706,0.0,0.0,0.0,0.0,0.0,0.0,0.0,-8.906573,44.017544,-2.9572427,
1.3828124587889765,59,0.3277588,-1.2167969,-0.072265625,0.46191406,0.13671875,0.32128906,0.0,0.0,0.0,0.0,0.0,0.0,0.0,0.0,0.0,0.0,0.0,-0.30121538,0.003147766,0.95369613,0.0211792,-0.6386719,0.30889893,-0.9736328,-0.19628906,-0.5,24.492405,-6.236091,0.065168485,19.744465,-0.5584717,-0.37573242,-0.1671753,-0.020507812,0.83984375,-0.859375,17.101322,26.5625,-46.125416,26.122093,1.7975464,-0.5913696,-1.177063,0.6152344,0.82421875,0.9609375,16.746298,49.708908,-113.83728,34.265892,0.0,0.0,0.0,0.0,0.0,0.0,0.0,62.297646,-113.354416,49.80181,0.0,0.0,0.0,0.0,0.0,0.0,0.0,0.30121538,-0.003147766,-0.95369613,0.08129883,-1.1616211,-0.041809082,-0.49316406,0.48828125,0.08886719,26.971928,6.236091,-0.065168485,-19.744465,-1.149292,-0.09161377,-0.1260376,-0.44140625,1.4013672,0.953125,10.708791,-8.643417,-55.00255,-22.95897,0.5546875,-0.6121826,0.8743286,-0.39160156,-3.225586,-1.0332031,10.382771,-39.245193,-120.0864,-26.625484,0.0,0.0,0.0,0.0,0.0,0.0,0.0,-23.8182,-124.3719,-14.636232,0.0,0.0,0.0,0.0,0.0,0.0,0.0,-8.530909,44.09897,-2.8399544,
1.4062499580904846,60,-0.17785645,-1.710022,0.7229614,1.1201172,1.1748047,-0.045898438,0.0,0.0,0.0,0.0,0.0,0.0,0.0,0.0,0.0,0.0,0.0,-0.28642157,0.008685693,0.95821124,-0.4578247,-1.9893799,0.6972046,-0.12402344,0.13867188,-0.36621094,24.470467,-5.9298143,0.17982088,19.837944,-2.0,0.48632812,-0.2770996,0.31347656,0.984375,0.123046875,16.789562,26.025276,-46.66781,25.686848,0.24798584,1.7020874,-1.9588623,1.3603516,-3.1416016,4.5546875,22.107325,48.261375,-114.655785,34.03231,0.0,0.0,0.0,0.0,0.0,0.0,0.0,60.375835,-115.90195,49.904396,0.0,0.0,0.0,0.0,0.0,0.0,0.0,0.28642157,-0.008685693,-0.95821124,-0.086364746,-1.3969116,0.008178711,-0.36132812,0.5048828,0.06933594,26.375185,5.9298143,-0.17982088,-19.837944,-1.2510376,0.01940918,0.014221191,0.43554688,1.7363281,1.1455078,12.60459,-9.380326,-54.98256,-23.265726,0.40679932,-0.52770996,1.0578003,-0.37597656,-4.1679688,-1.4277344,8.43615,-42.55106,-118.70343,-28.346336,0.0,0.0,0.0,0.0,0.0,0.0,0.0,-27.755005,-124.381294,-16.142239,0.0,0.0,0.0,0.0,0.0,0.0,0.0,-7.6978436,44.260723,-2.7021842,
1.4296874573919927,61,-0.2687378,-1.5863037,0.23156738,1.1318359,-0.32226562,0.068359375,0.0,0.0,0.0,0.0,0.0,0.0,0.0,0.0,0.0,0.0,0.0,-0.284661,0.026651852,0.9584026,-0.2244873,-1.9420776,0.029907227,-1.4482422,0.25585938,-0.3486328,24.826033,-5.893365,0.55177605,19.841906,-1.5495605,0.15100098,-0.27716064,1.2294922,1.3486328,-1.1162109,17.942461,25.243057,-46.908115,25.066933,-0.09246826,-1.6569214,0.16772461,-0.24804688,-1.7265625,0.9345703,22.097776,44.902405,-115.710724,33.126972,0.0,0.0,0.0,0.0,0.0,0.0,0.0,57.039886,-117.312836,48.937714,0.0,0.0,0.0,0.0,0.0,0.0,0.0,0.284661,-0.026651852,-0.9584026,-0.25567627,-1.6053467,0.009033203,-0.0234375,0.10546875,0.3828125,25.48068,5.893365,-0.55177605,-19.841906,-1.4707031,-0.24780273,-0.090026855,-1.3076172,1.7382812,0.8203125,14.795559,-9.784696,-55.25222,-23.237482,0.45825195,-0.63171387,0.93237305,-0.5683594,-5.2626953,-1.9863281,5.4445653,-45.568066,-117.37902,-29.989868,0.0,0.0,0.0,0.0,0.0,0.0,0.0,-31.799557,-124.79056,-17.512655,0.0,0.0,0.0,0.0,0.0,0.0,0.0,-6.5478926,44.41369,-3.179913,
1.4531249566935007,62,0.0647583,-0.4880371,0.46728516,0.60546875,-0.70703125,0.33007812,0.0,0.0,0.0,0.0,0.0,0.0,0.0,0.0,0.0,0.0,0.0,-0.30544358,0.03349857,0.9517279,-0.50891113,-0.32244873,-0.041870117,-0.78027344,-1.9101562,-0.91503906,24.442148,-6.3236313,0.6935242,19.70372,-0.08898926,0.04437256,-0.05041504,1.0429688,1.2568359,-1.5517578,19.721828,23.624832,-47.566444,24.568733,1.999939,0.7491455,1.2006226,-1.1875,0.09667969,0.7470703,20.092766,39.398357,-117.51138,31.26619,0.0,0.0,0.0,0.0,0.0,0.0,0.0,51.406075,-119.018936,47.19167,0.0,0.0,0.0,0.0,0.0,0.0,0.0,0.30544358,-0.03349857,-0.9517279,-0.006713867,-1.3965454,0.36254883,0.9013672,0.56933594,0.41796875,23.826744,6.3236313,-0.6935242,-19.70372,-1.3987427,-1.0236206,0.3328247,-1.2128906,1.7001953,1.0800781,18.122398,-8.854044,-55.57273,-22.443909,0.44024658,-0.76782227,0.86309814,-1.4814453,-6.5429688,-2.852539,1.0788339,-47.19242,-115.94654,-30.843903,0.0,0.0,0.0,0.0,0.0,0.0,0.0,-34.873512,-125.40877,-18.24122,0.0,0.0,0.0,0.0,0.0,0.0,0.0,-5.706785,44.511772,-3.3982213,
1.4765624559950088,63,0.33599854,-0.84033203,0.55682373,0.82910156,-0.43847656,0.34960938,0.0,0.0,0.0,0.0,0.0,0.0,0.0,0.0,0.0,0.0,0.0,-0.31692654,0.0473049,0.9471543,0.16015625,-0.60943604,-0.41082764,-1.046875,-2.6191406,-0.85546875,24.44142,-6.5613627,0.9793581,19.609032,-0.8278198,-0.34985352,-0.45422363,-0.35253906,1.3691406,-1.9101562,21.488838,22.481888,-47.826065,24.482529,0.4946289,1.2925415,0.54003906,0.26464844,0.4140625,-0.032226562,18.314018,34.768463,-118.516884,30.413555,0.0,0.0,0.0,0.0,0.0,0.0,0.0,46.650757,-119.86948,46.448296,0.0,0.0,0.0,0.0,0.0,0.0,0.0,0.31692654,-0.0473049,-0.9471543,0.27142334,-1.4302979,1.0098267,2.9980469,1.6191406,0.09863281,20.354368,6.5613627,-0.9793581,-19.609032,-1.3460083,-1.3590088,0.32226562,1.2216797,2.0322266,1.84375,23.813519,-6.225123,-56.499737,-21.517033,0.385437,-1.154419,0.8781738,-0.9941406,-8.467773,-3.8486328,5.819081,-47.433952,-114.715485,-31.460419,0.0,0.0,0.0,0.0,0.0,0.0,0.0,-37.38753,-126.52545,-18.8219,0.0,0.0,0.0,0.0,0.0,0.0,0.0,-4.859784,44.565712,-3.8519292,
1.4999999552965169,64,0.2869873,-1.0095825,0.7123413,0.21484375,-0.515625,0.484375,0.0,0.0,0.0,0.0,0.0,0.0,0.0,0.0,0.0,0.0,0.0,-0.330104,0.045957882,0.94289213,0.3319702,-1.0258789,-0.78100586,-1.4414062,-1.5556641,-1.0507812,23.101505,-6.834176,0.9514707,19.520792,-1.4589233,-0.5529175,-0.4484253,-0.4482422,0.9814453,-1.2167969,22.021477,20.622608,-48.840282,23.570591,0.6954956,0.40618896,0.72528076,-0.35546875,0.15234375,-0.08496094,15.861732,29.926262,-120.07506,28.608616,0.0,0.0,0.0,0.0,0.0,0.0,0.0,41.821518,-121.24899,44.646706,0.0,0.0,0.0,0.0,0.0,0.0,0.0,0.330104,-0.045957882,-0.94289213,0.92004395,-0.81604004,0.38342285,1.0742188,1.7080078,-0.1171875,15.4903,6.834176,-0.9514707,-19.520792,-1.3235474,-0.039733887,-0.0146484375,3.5966797,2.6269531,2.2753906,31.922543,-1.5660906,-57.31241,-20.990734,1.9472656,-1.8864136,0.59783936,2.0351562,-7.727539,-4.4277344,16.568327,-46.090427,-112.71132,-32.562035,0.0,0.0,0.0,0.0,0.0,0.0,0.0,-39.54119,-126.74252,-19.894611,0.0,0.0,0.0,0.0,0.0,0.0,0.0,-4.4640665,44.62461,-3.737924,
1.523437454598025,65,-0.06695557,-0.8614502,0.6088257,0.2705078,-0.49609375,0.26171875,0.0,0.0,0.0,0.0,0.0,0.0,0.0,0.0,0.0,0.0,0.0,-0.33616078,0.047849476,0.9400049,0.43847656,-1.0221558,-0.48077393,-1.4453125,-0.43066406,-0.6142578,21.919048,-6.9595723,0.9906326,19.461016,-0.732666,-0.41497803,-0.3637085,1.125,0.6904297,-0.2939453,22.155893,18.884724,-49.726624,22.59686,0.5914917,0.4345703,0.7302246,-0.1640625,0.13183594,0.0078125,15.5512295,25.685078,-121.25681,27.198385,0.0,0.0,0.0,0.0,0.0,0.0,0.0,37.649136,-122.27939,43.19638,0.0,0.0,0.0,0.0,0.0,0.0,0.0,0.33616078,-0.047849476,-0.9400049,-0.019348145,-1.5562744,-0.07836914,2.9394531,0.07128906,-0.16699219,11.866874,6.9595723,-0.9906326,-19.461016,-1.328186,1.03125,-0.9259033,5.5371094,3.133789,1.6103516,38.98923,1.6793022,-57.739883,-20.474987,1.9731445,-0.878479,1.4823608,1.7275391,-2.9570312,-2.3447266,27.569386,-45.966473,-109.90158,-34.432713,0.0,0.0,0.0,0.0,0.0,0.0,0.0,-42.447998,-125.36447,-22.239021,0.0,0.0,0.0,0.0,0.0,0.0,0.0,-3.9734411,44.646915,-3.6936479,
1.546874953899533,66,-0.1381836,-0.67144775,0.56762695,0.20507812,-0.30371094,0.059570312,0.0,0.0,0.0,0.0,0.0,0.0,0.0,0.0,0.0,0.0,0.0,-0.3229801,0.053649575,0.94423866,0.018310547,-0.9102173,-0.38476562,-1.2236328,0.06738281,-0.1171875,20.025236,-6.686689,1.1107124,19.548668,-0.89105225,0.14434814,-0.38519287,0.3876953,0.6230469,-0.59765625,21.268436,16.85206,-50.784584,21.187328,0.58251953,0.35595703,0.7520752,-0.1484375,0.016601562,0.0087890625,16.269903,21.609547,-122.49482,25.75445,0.0,0.0,0.0,0.0,0.0,0.0,0.0,33.63949,-123.45079,41.705505,0.0,0.0,0.0,0.0,0.0,0.0,0.0,0.3229801,-0.053649575,-0.94423866,-0.67193604,-1.74646,-0.93499756,2.7304688,1.1367188,0.7109375,7.52603,6.686689,-1.1107124,-19.548668,-1.1699829,1.2887573,-1.1150513,-3.21875,1.9970703,1.5634766,46.92387,5.262909,-58.096443,-19.275166,0.8051758,-1.0585938,1.3014526,-0.6855469,0.20214844,0.043945312,27.119654,-45.522446,-106.823425,-34.53898,0.0,0.0,0.0,0.0,0.0,0.0,0.0,-42.361477,-122.48131,-22.500656,0.0,0.0,0.0,0.0,0.0,0.0,0.0,-3.585319,44.67108,-3.764484,
1.570312453201041,67,-0.02319336,-0.74975586,0.53863525,0.12792969,-0.265625,0.2841797,0.0,0.0,0.0,0.0,0.0,0.0,0.0,0.0,0.0,0.0,0.0,-0.32621938,0.055050805,0.9434598,-0.0836792,-0.927124,-0.29663086,-1.4150391,-0.049804688,0.13183594,17.723623,-6.753754,1.1397223,19.532543,-0.98321533,-0.16314697,-0.40856934,-0.6308594,0.61621094,-1.0332031,20.448994,14.286688,-51.83112,20.615814,0.5223999,0.40081787,0.7686157,-0.0546875,-0.041015625,0.009765625,15.444663,16.71877,-123.6631,25.038326,0.0,0.0,0.0,0.0,0.0,0.0,0.0,28.757158,-124.56859,40.98591,0.0,0.0,0.0,0.0,0.0,0.0,0.0,0.32621938,-0.055050805,-0.9434598,0.16119385,-1.496582,-0.79803467,2.4648438,1.2890625,1.1953125,4.1553907,6.753754,-1.1397223,-19.532543,-1.3216553,-0.27191162,-0.78289795,-6.0908203,0.765625,1.5292969,53.659073,8.0512,-58.10145,-17.60876,-0.16552734,-1.1170044,1.2457275,-0.9873047,0.47070312,0.546875,18.204529,-46.11213,-103.3324,-32.00243,0.0,0.0,0.0,0.0,0.0,0.0,0.0,-42.50808,-118.92993,-20.010933,0.0,0.0,0.0,0.0,0.0,0.0,0.0,-3.3682237,44.70503,-3.7731633,
1.5937499525025491,68,0.014099121,-0.99157715,0.43585205,0.033203125,-0.26660156,0.56347656,0.0,0.0,0.0,0.0,0.0,0.0,0.0,0.0,0.0,0.0,0.0,-0.32760724,0.05133512,0.94345725,-0.05859375,-0.9558716,-0.25219727,-1.6220703,-0.2998047,-0.001953125,15.566711,-6.7824836,1.0627961,19.532492,-0.9701538,-0.2984619,-0.34228516,-0.016601562,0.3955078,-0.6015625,19.269386,11.732805,-52.84617,20.540623,0.53533936,0.45239258,0.7077637,-0.016601562,-0.041992188,0.028320312,15.031336,12.226865,-124.752846,24.424187,0.0,0.0,0.0,0.0,0.0,0.0,0.0,24.278584,-125.64664,40.363247,0.0,0.0,0.0,0.0,0.0,0.0,0.0,0.32760724,-0.05133512,-0.94345725,0.21154785,-1.2973633,-0.3395996,3.3515625,0.09277344,0.57421875,1.5907776,6.7824836,-1.0627961,-19.532492,-1.3216553,-0.27191162,-0.78289795,-6.0908203,0.765625,1.5292969,57.867508,11.914907,-57.719063,-15.849229,0.044433594,-0.6639404,1.2887573,-0.85253906,1.1230469,0.8457031,16.813677,-42.24842,-102.95001,-30.242897,0.0,0.0,0.0,0.0,0.0,0.0,0.0,-38.125996,-118.39819,-18.222012,0.0,0.0,0.0,0.0,0.0,0.0,0.0,-2.9285555,44.7733,-3.4531064,
1.6171874518040572,69,-0.018737793,-0.9383545,0.43121338,0.19140625,-0.34375,0.671875,0.0,0.0,0.0,0.0,0.0,0.0,0.0,0.0,0.0,0.0,0.0,-0.34060654,0.04303345,0.93937916,-0.045898438,-0.87908936,-0.27752686,-1.7734375,-0.49316406,-9.765625E-4,13.20119,-7.0516124,0.89092577,19.448061,-0.93151855,-0.1161499,-0.35406494,0.013671875,0.18359375,-0.49023438,17.719326,8.746248,-53.875374,20.134468,0.5255127,0.50665283,0.6879883,0.005859375,0.052734375,0.08300781,15.669359,7.6003537,-125.80202,23.546278,0.0,0.0,0.0,0.0,0.0,0.0,0.0,19.636475,-126.7115,39.496853,0.0,0.0,0.0,0.0,0.0,0.0,0.0,0.34060654,-0.04303345,-0.93937916,0.08117676,-1.302124,-0.26635742,2.975586,0.076171875,0.3154297,6.1420674,7.0516124,-0.89092577,-19.448061,-0.54022217,0.39562988,-0.70825195,5.357422,0.0625,-0.4423828,62.54967,16.194721,-56.926693,-14.380431,-0.27062988,-0.8286743,1.2319336,-1.1699219,2.758789,1.6347656,15.579585,-37.74918,-101.85097,-30.449223,0.0,0.0,0.0,0.0,0.0,0.0,0.0,-32.42336,-116.871155,-18.359787,0.0,0.0,0.0,0.0,0.0,0.0,0.0,-2.5441694,44.83605,-2.9764452,
1.6406249511055653,70,-0.07470703,-0.7199707,0.37542725,0.140625,-0.5546875,0.7080078,0.0,0.0,0.0,0.0,0.0,0.0,0.0,0.0,0.0,0.0,0.0,-0.35522977,0.035898164,0.93424714,-0.004333496,-0.87677,-0.25579834,-1.9824219,-0.7626953,0.076171875,10.831365,-7.354358,0.74320316,19.34181,-0.9668579,-0.10168457,-0.2645874,-0.63183594,0.13183594,-0.5673828,15.606392,5.62565,-54.76664,19.897718,0.57507324,0.46502686,0.720459,-0.0703125,0.053710938,0.08300781,15.349699,3.4380438,-126.69185,22.846306,0.0,0.0,0.0,0.0,0.0,0.0,0.0,15.448095,-127.63954,38.814682,0.0,0.0,0.0,0.0,0.0,0.0,0.0,0.35522977,-0.035898164,-0.93424714,-0.0079956055,-1.2810059,-0.38726807,2.5048828,0.296875,0.18847656,10.450372,7.354358,-0.74320316,-19.34181,-0.59368896,0.8826294,-0.78240967,2.7294922,-1.3164062,-0.85546875,64.042274,19.86425,-56.040066,-13.359231,-0.29089355,-0.6802368,1.0637207,-0.5234375,3.9902344,1.6914062,17.860155,-32.13079,-103.0218,-29.964684,0.0,0.0,0.0,0.0,0.0,0.0,0.0,-25.134432,-117.36448,-17.90398,0.0,0.0,0.0,0.0,0.0,0.0,0.0,-2.07843,44.888203,-2.5150995,
1.6640624504070733,71,0.049438477,-0.6572876,0.40429688,-0.12890625,-0.6123047,0.6357422,0.0,0.0,0.0,0.0,0.0,0.0,0.0,0.0,0.0,0.0,0.0,-0.37235782,0.026861634,0.9278787,0.13995361,-0.8907471,-0.2946167,-1.9052734,-0.7998047,-0.038085938,8.068667,-7.7089615,0.556119,19.209965,-0.9840698,-0.15045166,-0.16552734,-0.9199219,0.095703125,-0.3232422,13.165312,2.4148464,-55.54672,19.408434,0.52911377,0.5220337,0.7079468,0.064453125,0.09082031,0.08203125,14.031629,-0.38813734,-127.47121,21.839392,0.0,0.0,0.0,0.0,0.0,0.0,0.0,11.634012,-128.44797,37.79648,0.0,0.0,0.0,0.0,0.0,0.0,0.0,0.37235782,-0.026861634,-0.9278787,-0.024658203,-1.0274048,-0.42218018,2.4667969,0.15234375,0.26171875,14.066419,7.7089615,-0.556119,-19.209965,-0.524353,0.5180054,-0.66864014,-0.40527344,-2.546875,-1.0527344,64.371475,23.345165,-54.95129,-12.436346,-0.13372803,-0.5009155,0.9170532,-0.74902344,5.0146484,1.6455078,16.161736,-26.439407,-104.72928,-27.579788,0.0,0.0,0.0,0.0,0.0,0.0,0.0,-17.490162,-117.84166,-15.478986,0.0,0.0,0.0,0.0,0.0,0.0,0.0,-1.997936,44.91391,-2.1020079,
1.6874999497085814,72,0.17492676,-0.7689209,0.27770996,-0.09863281,-0.3623047,0.5263672,0.0,0.0,0.0,0.0,0.0,0.0,0.0,0.0,0.0,0.0,0.0,-0.38573188,0.019343205,0.92252654,0.0501709,-0.8826904,-0.18847656,-1.9628906,-0.6484375,0.018554688,5.565987,-7.9858446,0.40046433,19.099161,-0.9818115,-0.17797852,-0.13909912,-0.40625,0.12890625,-0.359375,10.7781515,-0.5623703,-56.12675,18.88421,0.56030273,0.44378662,0.7105713,0.026367188,0.07128906,0.119140625,13.163676,-3.8227758,-128.05025,20.669506,0.0,0.0,0.0,0.0,0.0,0.0,0.0,8.157664,-129.05188,36.65516,0.0,0.0,0.0,0.0,0.0,0.0,0.0,0.38573188,-0.019343205,-0.92252654,-0.06640625,-0.84539795,-0.42773438,2.2773438,-0.3359375,0.2607422,16.521832,7.9858446,-0.40046433,-19.099161,-0.38079834,0.1640625,-0.59210205,0.3125,-3.1982422,-1.5175781,62.48181,25.658474,-54.088215,-11.694292,0.13787842,-0.86328125,0.8522339,-0.6328125,5.743164,2.1289062,14.217197,-20.878918,-107.473404,-24.743752,0.0,0.0,0.0,0.0,0.0,0.0,0.0,-9.7409525,-118.75055,-12.541956,0.0,0.0,0.0,0.0,0.0,0.0,0.0,-1.9494133,44.92833,-1.7571404,
1.7109374490100895,73,0.017211914,-0.77716064,0.3110962,-0.17773438,-0.30566406,0.52734375,0.0,0.0,0.0,0.0,0.0,0.0,0.0,0.0,0.0,0.0,0.0,-0.3961216,0.008697448,0.918285,0.03161621,-0.9446411,-0.19189453,-2.0410156,-0.6113281,0.26757812,3.064266,-8.200947,0.18006411,19.011347,-0.94732666,-0.0670166,-0.078430176,0.23925781,0.14160156,-0.41503906,8.505168,-3.2461443,-56.6158,18.769379,0.5387573,0.475708,0.68084717,-0.0107421875,0.12988281,0.08203125,12.678713,-6.8616843,-128.53757,19.67462,0.0,0.0,0.0,0.0,0.0,0.0,0.0,5.1051307,-129.5246,35.673004,0.0,0.0,0.0,0.0,0.0,0.0,0.0,0.3961216,-0.008697448,-0.918285,-0.25830078,-0.71954346,-0.43432617,2.0322266,-0.95410156,0.017578125,18.797733,8.200947,-0.18006411,-19.011347,-0.43518066,0.3739624,-0.6522217,1.7011719,-3.6435547,-2.1416016,59.186012,27.753765,-53.107853,-10.8792,0.15802002,-0.68847656,0.8084717,-0.51953125,5.354492,2.4384766,15.294228,-13.785564,-110.84035,-22.162764,0.0,0.0,0.0,0.0,0.0,0.0,0.0,-0.88103867,-119.860435,-9.860167,0.0,0.0,0.0,0.0,0.0,0.0,0.0,-2.024352,44.94098,-1.2989013,
1.7343749483115976,74,-0.060180664,-0.7670288,0.27575684,-0.02734375,-0.20898438,0.4716797,0.0,0.0,0.0,0.0,0.0,0.0,0.0,0.0,0.0,0.0,0.0,-0.40392855,0.0010836348,0.91485554,0.18621826,-0.9343872,-0.24151611,-1.8916016,-0.09472656,0.4580078,1.5859727,-8.362573,0.022434615,18.940348,-0.9821167,0.0119018555,-0.015258789,0.14550781,0.20019531,-0.41503906,6.1264715,-5.783848,-56.92637,18.525919,0.54107666,0.49487305,0.6639404,-0.0859375,0.14941406,0.08105469,12.162655,-9.442957,-128.84741,18.821125,0.0,0.0,0.0,0.0,0.0,0.0,0.0,2.4917498,-129.81126,34.843964,0.0,0.0,0.0,0.0,0.0,0.0,0.0,0.40392855,-0.0010836348,-0.91485554,-0.20812988,-0.6394043,-0.5025635,1.6923828,-1.625,-0.09472656,21.530733,8.362573,-0.022434615,-18.940348,-0.4366455,0.5720825,-0.6739502,0.9580078,-4.258789,-2.3945312,56.095947,30.058182,-51.990685,-10.075052,0.5108032,-0.99316406,0.9468384,-0.59472656,4.942383,3.2666016,16.653908,-6.32045,-113.555176,-18.399113,0.0,0.0,0.0,0.0,0.0,0.0,0.0,8.051609,-120.41934,-6.297039,0.0,0.0,0.0,0.0,0.0,0.0,0.0,-1.9535232,44.950954,-0.9157667,
1.7578124476131056,75,-0.0748291,-0.82177734,0.20257568,-0.12597656,-0.15136719,0.3984375,0.0,0.0,0.0,0.0,0.0,0.0,0.0,0.0,0.0,0.0,0.0,-0.40977046,-0.0070850393,0.9123046,0.18493652,-0.91937256,-0.15570068,-1.8164062,0.11621094,0.5332031,2.2379088,-8.48352,-0.14668228,18.887531,-0.9314575,-0.107910156,0.0010986328,-0.17285156,0.28125,-0.4892578,4.257356,-7.8452024,-57.1437,18.23655,0.5319214,0.4763794,0.7058716,-0.119140625,0.3017578,0.11621094,11.238415,-11.6159935,-129.06242,17.865583,0.0,0.0,0.0,0.0,0.0,0.0,0.0,0.28212833,-129.93172,33.919804,0.0,0.0,0.0,0.0,0.0,0.0,0.0,0.40977046,0.0070850393,-0.9123046,-0.051574707,-0.63153076,-0.5218506,1.6357422,-2.0263672,-0.30078125,23.88447,8.48352,0.14668228,-18.887531,-0.47192383,0.43237305,-0.604187,-0.5751953,-4.705078,-2.7080078,52.218243,31.97269,-50.90849,-9.357564,0.71295166,-0.8543091,1.0471191,-0.46289062,4.243164,3.758789,17.25327,1.4716511,-115.96321,-14.153335,0.0,0.0,0.0,0.0,0.0,0.0,0.0,16.793858,-120.40449,-2.0841503,0.0,0.0,0.0,0.0,0.0,0.0,0.0,-1.9273939,44.961628,-0.5165318,
1.7812499469146137,76,0.00592041,-0.7940674,0.25982666,-0.0703125,-0.11230469,0.32421875,0.0,0.0,0.0,0.0,0.0,0.0,0.0,0.0,0.0,0.0,0.0,-0.4155372,-0.013626412,0.90964466,0.1105957,-0.93621826,-0.12750244,-2.1376953,-0.021484375,0.4951172,3.8681695,-8.602909,-0.28210896,18.832466,-0.9841919,-0.15393066,-0.050476074,-0.0390625,0.3564453,-0.46972656,2.7541347,-9.907418,-57.268753,18.048725,0.5387573,0.41674805,0.74658203,-0.12011719,0.28320312,0.080078125,10.5106945,-14.137659,-129.15024,16.801252,0.0,0.0,0.0,0.0,0.0,0.0,0.0,-2.2665634,-129.88007,32.8835,0.0,0.0,0.0,0.0,0.0,0.0,0.0,0.4155372,0.013626412,-0.90964466,-0.09539795,-0.54278564,-0.39385986,1.1650391,-1.8222656,-0.35351562,25.900158,8.602909,0.28210896,-18.832466,-0.5979004,0.37353516,-0.5545044,-0.72558594,-4.814453,-3.2666016,46.60191,33.60366,-49.94231,-8.747616,0.94921875,-1.0804443,1.2210083,-0.21875,3.602539,3.9921875,16.254915,11.436892,-118.420135,-11.132164,0.0,0.0,0.0,0.0,0.0,0.0,0.0,27.192871,-120.37653,1.0379238,0.0,0.0,0.0,0.0,0.0,0.0,0.0,-1.8974125,44.966553,-0.19316638,
1.8046874462161218,77,0.029968262,-0.8010254,0.24603271,-0.053710938,-0.036132812,0.30664062,0.0,0.0,0.0,0.0,0.0,0.0,0.0,0.0,0.0,0.0,0.0,-0.41860104,-0.01975352,0.90804327,-0.03540039,-1.0639038,-0.10888672,-2.383789,0.051757812,0.5332031,6.178411,-8.666339,-0.4089591,18.799313,-0.9859009,0.07879639,-0.014953613,0.34179688,0.41015625,-0.46875,1.2298744,-12.370452,-57.292618,18.00423,0.53930664,0.43963623,0.7446289,-0.08105469,0.32128906,0.060546875,10.236506,-17.016266,-129.13916,16.29736,0.0,0.0,0.0,0.0,0.0,0.0,0.0,-5.153592,-129.72928,32.391754,0.0,0.0,0.0,0.0,0.0,0.0,0.0,0.41860104,0.01975352,-0.90804327,0.007019043,-0.39257812,-0.31707764,0.95703125,-1.4560547,-0.25878906,27.379827,8.666339,0.4089591,-18.799313,-0.725708,0.29888916,-0.5198364,-0.54003906,-4.756836,-3.6054688,40.97839,34.72775,-49.177097,-8.251153,1.2789917,-1.2269287,1.3563232,0.21582031,3.15625,4.0029297,16.794611,20.625738,-119.75485,-8.112535,0.0,0.0,0.0,0.0,0.0,0.0,0.0,36.34365,-119.35783,4.255254,0.0,0.0,0.0,0.0,0.0,0.0,0.0,-1.8977027,44.963444,0.10330564,
1.8281249455176298,78,0.030151367,-0.7706299,0.23834229,-0.61328125,-0.0546875,0.21875,0.0,0.0,0.0,0.0,0.0,0.0,0.0,0.0,0.0,0.0,0.0,-0.42075038,-0.029106928,0.9068127,-0.064941406,-1.111023,-0.13897705,-2.1386719,0.24609375,0.57128906,9.0832,-8.710837,-0.6026037,18.773834,-0.9547119,0.16888428,0.1361084,-0.14160156,0.62890625,-0.6923828,2.2645128,-14.970204,-57.26327,18.044994,0.49365234,0.47296143,0.7241211,-0.14160156,0.2265625,0.0625,9.22049,-19.686905,-129.09386,16.379108,0.0,0.0,0.0,0.0,0.0,0.0,0.0,-7.852585,-129.56277,32.498367,0.0,0.0,0.0,0.0,0.0,0.0,0.0,0.42075038,0.029106928,-0.9068127,0.13366699,-0.38275146,-0.22515869,0.54296875,-0.2685547,-0.047851562,28.188545,8.710837,0.6026037,-18.773834,-0.82507324,0.18475342,-0.5010376,-0.50390625,-4.663086,-3.6054688,35.17694,35.52279,-48.50851,-7.863037,1.4996338,-1.0307617,1.182251,0.61328125,3.274414,3.4091797,17.656878,29.61208,-120.19893,-5.7751737,0.0,0.0,0.0,0.0,0.0,0.0,0.0,45.04051,-117.655174,6.700171,0.0,0.0,0.0,0.0,0.0,0.0,0.0,-2.1810164,44.949272,0.4308186,
1.851562444819138,79,-0.05621338,-0.72772217,0.16375732,-1.40625,-0.017578125,0.15332031,0.0,0.0,0.0,0.0,0.0,0.0,0.0,0.0,0.0,0.0,0.0,-0.4217181,-0.048779793,0.9055712,0.07348633,-1.2176514,-0.11383057,-1.7783203,0.72753906,0.4736328,13.06639,-8.730871,-1.0098931,18.74813,-0.94226074,-0.036193848,0.107666016,-0.37695312,0.90234375,-1.0107422,4.2029557,-17.59182,-57.313473,17.648985,0.51849365,0.45629883,0.730896,-0.12109375,0.22558594,0.15429688,7.731851,-22.972607,-129.09166,15.568095,0.0,0.0,0.0,0.0,0.0,0.0,0.0,-11.174452,-129.47675,31.716946,0.0,0.0,0.0,0.0,0.0,0.0,0.0,0.4217181,0.048779793,-0.9055712,-0.0725708,-0.4472046,0.03149414,0.22265625,0.39160156,0.14160156,27.725388,8.730871,1.0098931,-18.74813,-0.8560791,0.09448242,-0.3684082,-0.39453125,-4.401367,-3.7177734,29.132414,35.931828,-47.84823,-7.7093487,1.4495239,-0.8331909,0.9158325,0.53515625,2.5673828,2.649414,17.765118,38.240093,-119.69954,-4.3783007,0.0,0.0,0.0,0.0,0.0,0.0,0.0,53.286285,-115.43733,8.093925,0.0,0.0,0.0,0.0,0.0,0.0,0.0,-3.2368472,44.88063,0.91017807,
1.874999944120646,80,-0.1081543,-0.6879883,0.16204834,-1.8398438,-0.3623047,-0.0126953125,0.0,0.0,0.0,0.0,0.0,0.0,0.0,0.0,0.0,0.0,0.0,-0.42422947,-0.07373558,0.90271693,0.16278076,-1.0822754,-0.1739502,-1.1123047,0.6220703,0.16796875,17.101473,-8.782865,-1.5265552,18.68904,-0.98620605,-0.13006592,7.9345703E-4,-0.030273438,1.0527344,-1.1025391,5.0072293,-19.451065,-57.503162,17.162884,0.53466797,0.40753174,0.7665405,-0.06640625,0.12890625,0.19238281,7.5147576,-26.236752,-129.12462,13.982229,0.0,0.0,0.0,0.0,0.0,0.0,0.0,-14.498204,-129.42508,30.17678,0.0,0.0,0.0,0.0,0.0,0.0,0.0,0.42422947,0.07373558,-0.90271693,-0.030578613,-0.63409424,0.3729248,0.4482422,-0.484375,0.08105469,26.46281,8.782865,1.5265552,-18.68904,-0.87823486,0.050231934,-0.66204834,-0.19238281,-4.046875,-3.6445312,23.50196,36.235687,-47.134636,-7.3818903,1.9545898,-1.2576294,0.46972656,0.15429688,1.9140625,2.5009766,18.004604,46.459366,-118.28015,-3.672709,0.0,0.0,0.0,0.0,0.0,0.0,0.0,61.0199,-112.66749,8.8410015,0.0,0.0,0.0,0.0,0.0,0.0,0.0,-4.950224,44.714153,1.3259897,
1.898437443422154,81,-0.086120605,-1.0656128,0.33892822,-0.9785156,-0.7451172,-0.11816406,0.0,0.0,0.0,0.0,0.0,0.0,0.0,0.0,0.0,0.0,0.0,-0.43473673,-0.09242712,0.89595807,-0.18762207,-0.84106445,-0.3441162,-0.9199219,0.14746094,-0.21386719,19.423841,-9.000397,-1.9135278,18.54911,-0.98376465,0.10699463,-0.075805664,0.14257812,1.1660156,-1.0068359,4.0561304,-20.063747,-57.793552,16.386574,0.54711914,0.4375,0.833313,-0.07421875,-0.15820312,0.30664062,7.94159,-28.547352,-129.206,12.617331,0.0,0.0,0.0,0.0,0.0,0.0,0.0,-16.863667,-129.51727,28.84899,0.0,0.0,0.0,0.0,0.0,0.0,0.0,0.43473673,0.09242712,-0.89595807,0.16033936,-0.94317627,0.7493286,1.4658203,-1.2763672,0.055664062,26.863245,9.000397,1.9135278,-18.54911,-1.0128784,-0.20410156,-0.38208008,-1.8994141,-3.6582031,-2.9033203,19.707077,37.646854,-45.762527,-6.0613976,1.9556885,-0.7003784,-0.06439209,-0.6582031,1.9140625,3.1738281,16.77085,55.264923,-115.43602,-1.5006385,0.0,0.0,0.0,0.0,0.0,0.0,0.0,69.195755,-108.35485,10.984474,0.0,0.0,0.0,0.0,0.0,0.0,0.0,-6.4428544,44.5186,1.4663415,
1.921874942723662,82,-0.01373291,-1.4500122,0.18322754,-0.20019531,-0.9169922,-0.072265625,0.0,0.0,0.0,0.0,0.0,0.0,0.0,0.0,0.0,0.0,0.0,-0.4509369,-0.09494732,0.8876165,-0.2748413,-0.9532471,-0.27581787,-1.0703125,-0.48339844,-0.32617188,21.104155,-9.335791,-1.9657041,18.376413,-1.0109863,0.019348145,-0.2041626,-0.28320312,1.421875,-1.2304688,3.4729948,-21.28005,-57.66625,16.209259,0.62280273,0.317688,0.8673706,-0.029296875,-0.65625,0.4970703,7.9473963,-31.7598,-128.80302,12.26437,0.0,0.0,0.0,0.0,0.0,0.0,0.0,-20.118214,-129.27339,28.522911,0.0,0.0,0.0,0.0,0.0,0.0,0.0,0.4509369,0.09494732,-0.8876165,0.1951294,-1.5527344,1.5048828,0.86035156,-2.5810547,-0.095703125,27.39662,9.335791,1.9657041,-18.376413,-0.7481079,-0.52349854,0.39562988,0.56152344,-1.9492188,-1.2148438,16.29486,38.7287,-44.995956,-4.943165,1.967102,0.5944214,-0.6085205,-1.1328125,1.6875,2.8076172,14.791841,62.131046,-112.75524,1.1944561,0.0,0.0,0.0,0.0,0.0,0.0,0.0,75.317055,-104.11684,13.509231,0.0,0.0,0.0,0.0,0.0,0.0,0.0,-7.038904,44.435543,1.1772369,
1.9453124420251702,83,0.054382324,-1.3095093,0.12890625,0.048828125,-0.8027344,0.20507812,0.0,0.0,0.0,0.0,0.0,0.0,0.0,0.0,0.0,0.0,0.0,-0.46893564,-0.093248844,0.87844455,-0.07324219,-1.2372437,-0.28649902,-1.1289062,-0.9423828,-0.19042969,22.539986,-9.708421,-1.9305404,18.186525,-1.3236084,-0.0758667,-0.17126465,0.06347656,1.6103516,-1.2089844,2.7553427,-22.98241,-57.31625,15.757623,0.7178345,0.49157715,1.0664062,-0.28515625,-1.5908203,0.6933594,8.322324,-36.55606,-127.88068,11.014942,0.0,0.0,0.0,0.0,0.0,0.0,0.0,-24.87136,-128.77994,27.224304,0.0,0.0,0.0,0.0,0.0,0.0,0.0,0.46893564,0.093248844,-0.87844455,0.27294922,-1.5744019,1.4144897,1.6367188,-1.4277344,-0.39160156,29.119238,9.708421,1.9305404,-18.186525,-0.6296997,0.22131348,0.5784302,1.3652344,0.23046875,-0.16894531,16.280771,40.328873,-43.937622,-3.7766838,1.9733276,1.2451172,-0.8458252,0.1484375,0.19140625,0.82910156,16.397905,65.93428,-110.866875,3.2579513,0.0,0.0,0.0,0.0,0.0,0.0,0.0,78.604454,-101.393875,15.498993,0.0,0.0,0.0,0.0,0.0,0.0,0.0,-7.070082,44.437065,0.9429079,
1.9687499413266782,84,0.15252686,-1.3413696,0.07556152,-0.2890625,-0.51464844,0.13671875,0.0,0.0,0.0,0.0,0.0,0.0,0.0,0.0,0.0,0.0,0.0,-0.48239973,-0.095528856,0.8708509,0.12390137,-1.3192749,-0.42382812,-0.9765625,-1.1503906,-0.22753906,24.129717,-9.987172,-1.9777434,18.029314,-1.2965698,0.083496094,-0.08380127,0.33496094,1.8388672,-1.2050781,2.3446004,-24.60227,-57.02141,15.473448,0.43945312,0.4807129,1.074707,-0.42773438,-2.5644531,0.85253906,8.079293,-41.59806,-126.78766,10.114412,0.0,0.0,0.0,0.0,0.0,0.0,0.0,-29.76989,-128.46362,26.158922,0.0,0.0,0.0,0.0,0.0,0.0,0.0,0.48239973,0.095528856,-0.8708509,0.080444336,-1.3684082,0.8198242,1.2617188,-0.2783203,-0.3857422,30.66354,9.987172,1.9777434,-18.029314,-0.8948364,0.625,-0.070373535,0.41796875,1.7539062,1.4257812,19.740835,42.029053,-42.79289,-3.251997,1.9629517,0.32525635,-0.6305542,0.84375,-0.75878906,-1.5097656,19.476261,64.79448,-110.57477,4.3908844,0.0,0.0,0.0,0.0,0.0,0.0,0.0,77.628815,-101.53696,16.788694,0.0,0.0,0.0,0.0,0.0,0.0,0.0,-7.216591,44.413906,0.8744639,
1.9921874406281863,85,0.18682861,-1.545166,-0.107666016,-0.53222656,-0.16992188,0.12402344,0.0,0.0,0.0,0.0,0.0,0.0,0.0,0.0,0.0,0.0,0.0,-0.4864281,-0.10287228,0.86780506,0.13104248,-1.4057007,-0.28814697,-0.6933594,-0.9560547,-0.19042969,25.840714,-10.070569,-2.129775,17.966255,-1.3005371,0.18603516,0.021911621,0.3466797,2.1289062,-1.4472656,3.1131327,-25.77034,-56.86817,15.326273,0.46307373,0.6196289,1.0458374,-0.18359375,-3.4277344,1.1396484,7.1513796,-46.694916,-125.52019,9.288111,0.0,0.0,0.0,0.0,0.0,0.0,0.0,-34.781334,-128.35115,25.10601,0.0,0.0,0.0,0.0,0.0,0.0,0.0,0.4864281,0.10287228,-0.86780506,-0.2849121,-0.8916626,0.30749512,1.0136719,-0.2705078,0.13574219,31.757961,10.070569,2.129775,-17.966255,-1.0546265,0.6508789,-0.39013672,-1.2373047,2.4990234,1.9824219,25.00827,43.17114,-41.676857,-2.6404972,1.953186,-0.6399536,-0.32226562,0.6142578,-1.3896484,-1.9912109,19.466139,61.18118,-111.03733,4.4739246,0.0,0.0,0.0,0.0,0.0,0.0,0.0,74.50423,-102.9463,17.008892,0.0,0.0,0.0,0.0,0.0,0.0,0.0,-7.6686964,44.337822,0.9574317,
2.0156249399296944,86,0.074157715,-1.3204346,0.032409668,-1.0292969,-0.22949219,0.5371094,0.0,0.0,0.0,0.0,0.0,0.0,0.0,0.0,0.0,0.0,0.0,-0.49025577,-0.11894253,0.8635581,0.19940186,-1.8365479,-0.20172119,-0.57910156,-0.8017578,-0.22851562,27.464466,-10.149813,-2.4624794,17.878328,-1.4500122,-0.0013427734,0.15332031,-0.30273438,2.4833984,-1.7832031,5.628,-26.51882,-57.00282,15.171869,0.39520264,0.7416382,1.2211914,-0.2529297,-4.7304688,1.8203125,5.2626133,-51.907684,-124.05208,8.353264,0.0,0.0,0.0,0.0,0.0,0.0,0.0,-40.155937,-128.4808,23.922333,0.0,0.0,0.0,0.0,0.0,0.0,0.0,0.49025577,0.11894253,-0.8635581,-0.17578125,-0.6563721,-0.059631348,2.8564453,-1.4404297,1.3144531,34.00457,10.149813,2.4624794,-17.878328,-2.0,-2.0,-0.17144775,-5.2783203,0.890625,-1.2109375,29.8557,44.220856,-39.71111,-0.26999664,-2.0,-0.7346802,1.999939,-0.609375,-3.1679688,-7.821289,10.831309,58.776604,-109.83238,7.4066772,0.0,0.0,0.0,0.0,0.0,0.0,0.0,73.29406,-104.18231,19.958735,0.0,0.0,0.0,0.0,0.0,0.0,0.0,-8.398537,44.19492,1.3192226,
2.0390624392312025,87,0.4928589,-1.7062988,0.5291748,-0.7578125,-0.22949219,0.73828125,0.0,0.0,0.0,0.0,0.0,0.0,0.0,0.0,0.0,0.0,0.0,-0.48997015,-0.15315379,0.858294,0.42974854,-1.9564819,0.21624756,0.14160156,-0.5253906,-0.47851562,29.25142,-10.143901,-3.1707587,17.769346,-1.9499512,0.4696045,0.09484863,1.1904297,2.5048828,-1.4033203,9.232716,-26.674377,-57.654835,14.873282,0.36029053,1.0266724,0.9736328,0.09667969,-6.385742,3.2626953,2.0913444,-56.79258,-122.63681,7.4228387,0.0,0.0,0.0,0.0,0.0,0.0,0.0,-45.65792,-129.16943,22.704258,0.0,0.0,0.0,0.0,0.0,0.0,0.0,0.48997015,0.15315379,-0.858294,0.06951904,-1.532959,0.19604492,-1.3613281,0.58984375,0.25878906,30.12623,10.143901,3.1707587,-17.769346,-1.6014404,0.14019775,-0.9512329,-0.9326172,2.5488281,3.209961,29.822836,41.55182,-41.349537,-1.0173721,1.963562,0.008544922,-0.23760986,1.15625,-3.444336,-3.6708984,10.664333,51.712025,-112.34677,5.4826574,0.0,0.0,0.0,0.0,0.0,0.0,0.0,66.35976,-108.62238,18.585472,0.0,0.0,0.0,0.0,0.0,0.0,0.0,-9.660998,43.89408,2.317325,
2.0624999385327105,88,-0.06402588,-1.5498047,0.42767334,0.22460938,0.21484375,-0.13964844,0.0,0.0,0.0,0.0,0.0,0.0,0.0,0.0,0.0,0.0,0.0,-0.4897834,-0.15531802,0.8580584,0.1149292,-1.4133911,0.18103027,1.65625,-2.1289062,-0.66308594,27.58026,-10.140035,-3.2155645,17.76447,-1.7697754,1.2944946,0.27056885,-0.036132812,2.444336,-2.0097656,14.738763,-25.31901,-58.11411,15.332598,0.31506348,1.0755005,0.8344116,0.21191406,-8.02832,5.8320312,4.7617674,-59.9151,-120.72095,7.0006237,0.0,0.0,0.0,0.0,0.0,0.0,0.0,-50.52326,-129.71461,22.202164,0.0,0.0,0.0,0.0,0.0,0.0,0.0,0.4897834,0.15531802,-0.8580584,0.44140625,-0.84210205,-0.32232666,-1.4794922,0.12890625,1.3173828,29.684118,10.140035,3.2155645,-17.76447,-0.20343018,0.83703613,-0.66619873,-2.0175781,1.7724609,1.5791016,33.878063,40.068947,-42.066463,-0.4339466,1.1806641,-2.0,1.4925537,1.7724609,0.90625,-2.7802734,11.357856,42.926537,-113.54315,5.5922556,0.0,0.0,0.0,0.0,0.0,0.0,0.0,57.70212,-111.1101,18.853424,0.0,0.0,0.0,0.0,0.0,0.0,0.0,-9.455559,43.927525,2.554092,
2.0859374378342186,89,-0.1984253,-1.0894775,0.50512695,-0.3623047,0.4267578,-0.29785156,0.0,0.0,0.0,0.0,0.0,0.0,0.0,0.0,0.0,0.0,0.0,-0.4821058,-0.1536479,0.86268526,-1.0962524,-0.83483887,0.1303711,2.5,1.1240234,0.16992188,24.44601,-9.981084,-3.180988,17.860262,-1.4763184,1.1815796,0.41467285,-2.1152344,2.5058594,-2.4072266,22.822245,-21.757778,-58.948044,16.866514,0.47088623,1.4744873,0.736084,-2.211914,-10.230469,6.911133,10.3646965,-60.84546,-118.705826,7.5140266,0.0,0.0,0.0,0.0,0.0,0.0,0.0,-54.024673,-129.964,22.575027,0.0,0.0,0.0,0.0,0.0,0.0,0.0,0.4821058,0.1536479,-0.86268526,0.3466797,-0.8997803,-0.9260254,-2.2294922,2.6416016,0.9951172,26.057201,9.981084,3.180988,-17.860262,-0.44989014,0.4003296,-0.7498169,-1.7509766,1.4541016,1.7783203,36.05809,37.06313,-44.248085,-1.5424137,0.7258301,0.3746338,0.8423462,1.2636719,0.33007812,-0.39941406,11.480549,31.998661,-115.59691,4.0937233,0.0,0.0,0.0,0.0,0.0,0.0,0.0,47.141464,-113.911995,17.054295,0.0,0.0,0.0,0.0,0.0,0.0,0.0,-9.690152,43.88465,2.4007683,
2.1093749371357267,90,-0.21228027,-0.70269775,0.7406006,0.21582031,0.5214844,-0.005859375,0.0,0.0,0.0,0.0,0.0,0.0,0.0,0.0,0.0,0.0,0.0,-0.45776862,-0.14782,0.87398744,-0.12841797,-1.3499146,-0.34991455,2.9345703,-1.0263672,0.13964844,21.235083,-9.477229,-3.060332,18.09425,-1.2202759,-0.7632446,-0.008911133,-4.529297,2.3925781,-2.071289,30.5153,-18.121662,-59.40622,18.889975,1.9803467,-2.0,1.1829224,-6.536133,-6.875,7.4072266,13.959244,-61.42103,-116.10001,9.04532,0.0,0.0,0.0,0.0,0.0,0.0,0.0,-56.567505,-128.81664,23.703854,0.0,0.0,0.0,0.0,0.0,0.0,0.0,0.45776862,0.14782,-0.87398744,-0.03375244,-0.97125244,-0.22589111,-1.34375,2.0322266,0.91503906,24.325478,9.477229,3.060332,-18.09425,-1.8287354,-0.1217041,-0.9411621,-0.25390625,1.2539062,0.6875,36.35988,34.766125,-45.587067,-2.4984226,0.3451538,-0.6709595,0.89819336,-0.30664062,0.19824219,0.33496094,12.599254,26.363585,-116.921234,2.7242694,0.0,0.0,0.0,0.0,0.0,0.0,0.0,41.502106,-115.10717,15.672243,0.0,0.0,0.0,0.0,0.0,0.0,0.0,-9.434601,43.82103,2.4700127,
2.1328124364372347,91,-0.17755127,-0.58880615,0.6586304,0.37890625,0.3095703,0.32421875,0.0,0.0,0.0,0.0,0.0,0.0,0.0,0.0,0.0,0.0,0.0,-0.41690144,-0.13556029,0.8956038,0.37078857,-1.5377808,-1.0317383,2.227539,-3.5898438,-1.0791016,17.99342,-8.631152,-2.806518,18.541773,-1.3022461,-1.7490845,-1.3360596,-2.3789062,2.0820312,-1.921875,37.432228,-14.480363,-59.44301,21.321882,1.9921875,-0.62872314,-1.9777832,1.2480469,1.3701172,1.3232422,12.355547,-61.363014,-113.14179,11.13691,0.0,0.0,0.0,0.0,0.0,0.0,0.0,-56.367046,-125.52479,26.029446,0.0,0.0,0.0,0.0,0.0,0.0,0.0,0.41690144,0.13556029,-0.8956038,-0.28295898,-1.2904053,-0.38781738,-1.796875,0.140625,0.4267578,23.754845,8.631152,2.806518,-18.541773,-0.5795288,0.23925781,-0.6088867,-0.43554688,1.0253906,1.5859375,36.77578,31.906418,-46.861134,-3.0215588,0.68084717,-0.31756592,0.85858154,-0.3828125,0.13964844,0.42773438,16.528627,20.120808,-117.68344,1.8888087,0.0,0.0,0.0,0.0,0.0,0.0,0.0,34.756645,-115.71354,15.368637,0.0,0.0,0.0,0.0,0.0,0.0,0.0,-8.544775,43.968777,2.6776247,
2.156249935738743,92,-0.15582275,-0.9890747,0.3925171,-0.7832031,0.46191406,0.44921875,0.0,0.0,0.0,0.0,0.0,0.0,0.0,0.0,0.0,0.0,0.0,-0.3952371,-0.14575952,0.90602624,-0.24291992,-1.4192505,-1.309021,2.6103516,-0.9326172,-1.3945312,15.913292,-8.182634,-3.017674,18.757553,-1.2022705,-0.7570801,-0.85876465,5.4228516,0.43652344,-0.46289062,43.150475,-10.88812,-59.820095,22.781832,-1.1549072,-2.0,1.0359497,2.4375,2.4726562,0.49804688,5.440857,-59.323315,-111.6535,10.413255,0.0,0.0,0.0,0.0,0.0,0.0,0.0,-54.437138,-122.99275,26.151215,0.0,0.0,0.0,0.0,0.0,0.0,0.0,0.3952371,0.14575952,-0.90602624,0.10083008,-0.94537354,-0.38989258,-1.8710938,0.02734375,-0.038085938,22.582436,8.182634,3.017674,-18.757553,-0.8451538,0.25805664,-0.40063477,0.053710938,0.6542969,1.0332031,35.87979,29.148119,-47.86712,-3.9353065,0.3345337,-0.46032715,0.7819214,-0.34472656,0.005859375,0.2421875,18.653305,14.923194,-118.25125,1.0343742,0.0,0.0,0.0,0.0,0.0,0.0,0.0,29.432053,-116.13352,14.637246,0.0,0.0,0.0,0.0,0.0,0.0,0.0,-8.394835,44.039223,3.4228427,
2.179687435040251,93,0.059570312,-1.4749146,0.23028564,-0.4638672,0.5605469,-0.3515625,0.0,0.0,0.0,0.0,0.0,0.0,0.0,0.0,0.0,0.0,0.0,-0.38095993,-0.1609976,0.9106043,-0.13232422,-1.1498413,-0.63397217,3.1767578,1.2109375,-1.1337891,13.918399,-7.887052,-3.3331497,18.852333,-1.149353,0.8267822,-0.6385498,1.9707031,-0.6113281,0.38867188,47.460728,-6.164771,-60.13251,23.389605,0.68951416,0.9584961,1.0275269,0.6513672,2.6875,-0.7060547,6.6624727,-54.11995,-112.11696,9.839174,0.0,0.0,0.0,0.0,0.0,0.0,0.0,-48.728798,-122.685455,25.944653,0.0,0.0,0.0,0.0,0.0,0.0,0.0,0.38095993,0.1609976,-0.9106043,0.0068969727,-1.0107422,-0.17358398,-1.9277344,0.43164062,0.2607422,19.938932,7.887052,3.3331497,-18.852333,-1.1240845,-0.052124023,-0.40789795,0.953125,0.6171875,0.88671875,34.12215,26.317741,-48.938713,-5.514946,0.50250244,-0.3283081,0.8184204,-0.34570312,0.045898438,0.13183594,20.263264,10.200569,-118.93466,-0.4066038,0.0,0.0,0.0,0.0,0.0,0.0,0.0,24.664959,-116.83237,13.24753,0.0,0.0,0.0,0.0,0.0,0.0,0.0,-9.245385,43.87375,3.889117,
2.203124934341759,94,0.13909912,-1.0026855,0.23699951,0.3671875,0.5234375,-0.39746094,0.0,0.0,0.0,0.0,0.0,0.0,0.0,0.0,0.0,0.0,0.0,-0.3703566,-0.15265165,0.91625404,0.09448242,-0.96691895,-0.46539307,2.7753906,0.7285156,-0.7685547,11.165954,-7.667529,-3.1603625,18.9693,-0.10253906,0.055786133,-0.5678711,-2.15625,-0.97558594,0.58691406,50.078205,-1.8727221,-59.670547,23.777372,-0.18200684,1.0230103,0.73583984,1.6503906,3.3291016,-3.3378906,4.0089755,-48.771812,-112.79614,10.994615,0.0,0.0,0.0,0.0,0.0,0.0,0.0,-42.580513,-122.903114,27.10535,0.0,0.0,0.0,0.0,0.0,0.0,0.0,0.3703566,0.15265165,-0.91625404,-0.17138672,-0.9916382,-0.15466309,-1.9648438,-0.10058594,-0.26171875,17.643112,7.667529,3.1603625,-18.9693,-0.8756714,0.39343262,-0.32714844,0.61816406,0.44921875,0.98535156,32.334198,23.360634,-50.23276,-6.6173744,0.41363525,-0.55041504,0.829834,-0.49609375,0.045898438,0.24414062,23.170813,5.4340343,-119.73555,-1.1336269,0.0,0.0,0.0,0.0,0.0,0.0,0.0,19.800966,-117.61629,12.621546,0.0,0.0,0.0,0.0,0.0,0.0,0.0,-9.246472,43.89413,3.575449,
2.226562433643267,95,0.073791504,-0.62060547,0.4202881,0.1796875,0.36914062,-0.3046875,0.0,0.0,0.0,0.0,0.0,0.0,0.0,0.0,0.0,0.0,0.0,-0.36122197,-0.14362806,0.9214603,-0.006225586,-0.967041,-0.4189453,2.3916016,0.43652344,-0.34570312,9.802631,-7.478414,-2.973546,19.077084,-0.53900146,-0.50860596,-0.58483887,-3.5908203,-1.8496094,1.1591797,50.399067,1.2567124,-59.071716,24.22738,0.09631348,0.6609497,0.8126221,0.8251953,3.2011719,-3.2441406,1.7044467,-43.508785,-114.35071,12.945224,0.0,0.0,0.0,0.0,0.0,0.0,0.0,-36.343597,-124.01202,28.913544,0.0,0.0,0.0,0.0,0.0,0.0,0.0,0.36122197,0.14362806,-0.9214603,0.014343262,-0.9116821,-0.13421631,-1.9277344,-0.4091797,-0.18847656,15.760872,7.478414,2.973546,-19.077084,-0.9376221,0.04284668,-0.20751953,-0.6904297,0.16992188,0.85546875,30.303429,20.431334,-51.37891,-7.7864876,0.4824829,-0.53619385,0.8291626,-0.4970703,-0.0703125,0.28027344,24.025826,0.95999527,-120.40669,-1.3687224,0.0,0.0,0.0,0.0,0.0,0.0,0.0,15.2754,-118.322296,12.445688,0.0,0.0,0.0,0.0,0.0,0.0,0.0,-9.010072,43.968075,3.3212643,
2.249999932944775,96,0.006164551,-0.61035156,0.27270508,0.09472656,0.5800781,-0.41308594,0.0,0.0,0.0,0.0,0.0,0.0,0.0,0.0,0.0,0.0,0.0,-0.34966198,-0.13746479,0.9268947,0.14038086,-1.0383301,-0.6196289,2.0292969,0.24121094,-0.038085938,10.230316,-7.239085,-2.845947,19.189594,-0.74694824,-1.1195679,-0.71435547,-2.4013672,-2.7265625,1.0556641,49.525757,4.0080338,-58.395153,25.382612,0.52301025,0.256958,0.81427,1.9775391,3.9550781,-3.1601562,4.7466455,-37.41691,-116.47917,15.552536,0.0,0.0,0.0,0.0,0.0,0.0,0.0,-29.676504,-124.90602,31.953358,0.0,0.0,0.0,0.0,0.0,0.0,0.0,0.34966198,0.13746479,-0.9268947,0.19598389,-0.90960693,-0.07885742,-2.0966797,0.4296875,-0.036132812,14.246799,7.239085,2.845947,-19.189594,-1.0407104,-0.06695557,-0.057617188,0.43164062,0.28222656,0.78125,27.692307,17.628334,-52.28613,-9.068431,0.45648193,-0.6038208,0.7686157,-0.45898438,0.045898438,0.1328125,23.252739,-2.0948563,-121.225494,-2.8241158,0.0,0.0,0.0,0.0,0.0,0.0,0.0,12.149115,-119.10198,11.055983,0.0,0.0,0.0,0.0,0.0,0.0,0.0,-8.984141,43.989243,3.1347246,
2.273437432246283,97,-0.0289917,-0.5698242,0.18139648,0.17089844,0.5996094,-0.46875,0.0,0.0,0.0,0.0,0.0,0.0,0.0,0.0,0.0,0.0,0.0,-0.33479235,-0.12951061,0.9334825,0.067871094,-0.7529297,-0.90057373,2.2392578,1.4462891,-0.21582031,10.988867,-6.931238,-2.681271,19.325981,-0.4121704,-0.7108154,-0.678833,0.44921875,-3.5097656,1.7089844,47.983902,7.026308,-57.52795,26.16186,0.604187,0.557251,0.7791748,2.4072266,4.576172,-2.428711,2.7489414,-29.990355,-118.712975,17.742281,0.0,0.0,0.0,0.0,0.0,0.0,0.0,-22.130726,-125.69931,34.75888,0.0,0.0,0.0,0.0,0.0,0.0,0.0,0.33479235,0.12951061,-0.9334825,-0.11804199,-0.9104004,-0.0826416,-2.3603516,1.1972656,0.11621094,13.467473,6.931238,2.681271,-19.325981,-0.9417114,0.1239624,-0.12420654,0.8046875,0.39453125,0.7011719,25.103844,14.497086,-53.077515,-10.176121,0.45306396,-0.6132202,0.7457886,-0.49609375,0.21972656,0.20800781,23.695372,-5.7704353,-121.88781,-3.9216814,0.0,0.0,0.0,0.0,0.0,0.0,0.0,8.467171,-119.73725,9.962018,0.0,0.0,0.0,0.0,0.0,0.0,0.0,-8.883821,44.023235,2.9215767,
2.296874931547791,98,0.025756836,-0.53027344,0.2574463,0.07128906,0.71484375,-0.4111328,0.0,0.0,0.0,0.0,0.0,0.0,0.0,0.0,0.0,0.0,0.0,-0.31918517,-0.12265244,0.93981636,0.042419434,-0.49206543,-0.7766113,2.5966797,2.4423828,0.06933594,11.521348,-6.6081233,-2.539286,19.457111,-0.40698242,-0.3005371,-0.55389404,1.0556641,-3.9423828,2.2890625,44.893597,9.486465,-56.79826,26.231457,0.8438721,0.4519043,0.73010254,2.491211,4.823242,-2.430664,1.819299,-22.05591,-121.19772,19.640356,0.0,0.0,0.0,0.0,0.0,0.0,0.0,-14.001096,-126.85768,37.05473,0.0,0.0,0.0,0.0,0.0,0.0,0.0,0.31918517,0.12265244,-0.93981636,-0.062927246,-0.9142456,-0.11126709,-2.5488281,1.0361328,0.15332031,13.946241,6.6081233,2.539286,-19.457111,-0.9533081,0.22546387,-0.1605835,-0.46679688,0.20703125,0.8339844,22.596998,10.985659,-53.64916,-10.902622,0.4649048,-0.46679688,0.79937744,-0.4013672,0.23925781,0.059570312,24.523129,-10.354441,-122.0683,-3.8652453,0.0,0.0,0.0,0.0,0.0,0.0,0.0,3.8880444,-119.88726,10.0077,0.0,0.0,0.0,0.0,0.0,0.0,0.0,-8.861084,44.038,2.737812,
2.3203124308492993,99,0.027954102,-0.4847412,0.20355225,-0.3857422,0.52246094,-0.37109375,0.0,0.0,0.0,0.0,0.0,0.0,0.0,0.0,0.0,0.0,0.0,-0.3034885,-0.12006624,0.9453895,0.061828613,-0.4649048,-0.5026245,2.180664,1.8642578,0.051757812,13.09325,-6.2831545,-2.4857433,19.572495,-0.5027466,0.10571289,-0.5965576,-0.58496094,-4.1591797,2.6240234,41.664715,12.89952,-55.74108,26.389814,0.6873779,0.49090576,0.8112793,2.5507812,4.3271484,-2.5917969,3.5502167,-11.496348,-123.33981,21.727768,0.0,0.0,0.0,0.0,0.0,0.0,0.0,-3.4172363,-127.769615,39.4832,0.0,0.0,0.0,0.0,0.0,0.0,0.0,0.3034885,0.12006624,-0.9453895,0.11413574,-0.87438965,-0.10290527,-3.0205078,0.7294922,-0.068359375,15.651798,6.2831545,2.4857433,-19.572495,-0.9688721,-0.11853027,-0.11627197,-0.59765625,0.2265625,0.7236328,19.307577,7.0453444,-53.97411,-11.779268,0.43481445,-0.5447998,0.82037354,-0.34472656,0.23925781,0.022460938,23.359926,-14.80346,-122.16072,-4.5651875,0.0,0.0,0.0,0.0,0.0,0.0,0.0,-0.55552197,-119.93396,9.295172,0.0,0.0,0.0,0.0,0.0,0.0,0.0,-9.088639,43.99817,2.670219,
2.3437499301508073,100,0.020812988,-0.65496826,0.21832275,-0.49609375,0.40625,-0.16699219,0.0,0.0,0.0,0.0,0.0,0.0,0.0,0.0,0.0,0.0,0.0,-0.2915751,-0.12489304,0.9485283,-0.03656006,-0.4892578,-0.315979,1.8007812,1.3251953,0.12988281,14.589061,-6.036508,-2.5856729,19.637476,-0.6918335,-0.24017334,-0.63031006,-2.0283203,-4.2597656,2.6591797,37.79925,15.546019,-54.891083,26.592392,0.6873779,0.49090576,0.8112793,2.5507812,4.3271484,-2.5917969,5.6913023,-1.7092819,-124.78806,25.207174,0.0,0.0,0.0,0.0,0.0,0.0,0.0,6.36983,-129.21786,42.962605,0.0,0.0,0.0,0.0,0.0,0.0,0.0,0.2915751,0.12489304,-0.9485283,0.112976074,-1.0726318,0.30133057,-2.9824219,-0.09375,-0.49902344,18.146032,6.036508,2.5856729,-19.637476,-0.96746826,-0.0602417,-0.09283447,0.3935547,0.39453125,0.7451172,16.026321,3.3991938,-53.974274,-13.094053,0.49908447,-0.58239746,0.8392334,-0.34472656,0.23925781,0.059570312,22.506697,-18.687275,-122.154,-6.5042615,0.0,0.0,0.0,0.0,0.0,0.0,0.0,-4.4249964,-119.910324,7.3387885,0.0,0.0,0.0,0.0,0.0,0.0,0.0,-9.627233,43.875114,2.817665,
2.3671874294523154,101,0.0748291,-0.666687,0.16021729,-0.4345703,0.3486328,0.017578125,0.0,0.0,0.0,0.0,0.0,0.0,0.0,0.0,0.0,0.0,0.0,-0.28145984,-0.13222907,0.9505309,-0.02722168,-0.49560547,-0.10192871,1.5351562,0.7109375,0.22753906,16.274887,-5.8270917,-2.737552,19.678936,-0.67230225,-0.5286255,-0.49780273,-1.8828125,-4.510742,2.5615234,34.494144,17.778505,-54.12071,26.9042,1.3074951,0.60284424,1.0865479,1.7724609,3.3427734,-2.8017578,6.675617,6.852091,-125.23955,28.675016,0.0,0.0,0.0,0.0,0.0,0.0,0.0,14.967114,-128.0125,46.74604,0.0,0.0,0.0,0.0,0.0,0.0,0.0,0.28145984,0.13222907,-0.9505309,-0.60180664,-1.0911865,0.1083374,-2.7753906,0.034179688,-0.29492188,21.183117,5.8270917,2.737552,-19.678936,-0.92926025,0.030517578,-0.061950684,0.09375,0.43066406,0.9003906,13.196777,-0.15841055,-53.689667,-14.181718,0.44750977,-0.4984131,0.8144531,-0.3828125,0.296875,0.078125,22.570587,-22.96792,-121.660446,-7.643608,0.0,0.0,0.0,0.0,0.0,0.0,0.0,-8.665419,-119.40743,6.1573696,0.0,0.0,0.0,0.0,0.0,0.0,0.0,-10.021004,43.763824,3.120719,
2.3906249287538235,102,0.109313965,-0.7636719,0.13604736,-0.28320312,0.4248047,0.03515625,0.0,0.0,0.0,0.0,0.0,0.0,0.0,0.0,0.0,0.0,0.0,-0.27171683,-0.13927826,0.95239794,0.14593506,-0.5753784,-0.0847168,1.2119141,0.40234375,0.2861328,17.876461,-5.6253796,-2.8834922,19.71759,-0.7509155,-0.55877686,-0.48443604,-1.1875,-4.6533203,2.7490234,30.80236,19.447918,-53.490623,27.469313,1.0925293,0.6945801,1.0027466,1.5800781,2.3847656,-2.0888672,10.450259,14.926,-125.18286,31.842157,0.0,0.0,0.0,0.0,0.0,0.0,0.0,23.032965,-127.395706,49.99321,0.0,0.0,0.0,0.0,0.0,0.0,0.0,0.27171683,0.13927826,-0.95239794,-0.40496826,-1.2003784,-0.22491455,-2.1914062,-0.5546875,-0.37402344,24.223093,5.6253796,2.8834922,-19.71759,-1.0058594,-0.005432129,0.08312988,-0.020507812,0.54296875,0.828125,10.565966,-3.5355253,-53.19884,-15.225036,0.43017578,-0.5519409,0.78564453,-0.36328125,0.29785156,0.022460938,22.014324,-27.031197,-120.92366,-8.720966,0.0,0.0,0.0,0.0,0.0,0.0,0.0,-12.672165,-118.652664,5.017499,0.0,0.0,0.0,0.0,0.0,0.0,0.0,-10.299263,43.67629,3.4488485,
2.4140624280553316,103,0.15161133,-0.829834,-0.030700684,-0.43945312,0.5205078,0.111328125,0.0,0.0,0.0,0.0,0.0,0.0,0.0,0.0,0.0,0.0,0.0,-0.2605189,-0.14799397,0.95412105,0.11621094,-0.53912354,-0.23065186,1.234375,0.001953125,-0.038085938,19.448473,-5.393549,-3.0639338,19.753263,-0.80029297,-0.29016113,-0.4194336,-0.31445312,-4.6240234,2.7314453,26.692442,21.08802,-52.88913,27.869299,1.5021362,0.5784302,1.0658569,1.8427734,1.5800781,-1.9863281,15.11457,23.639915,-124.584435,33.7941,0.0,0.0,0.0,0.0,0.0,0.0,0.0,31.670536,-126.48852,52.01471,0.0,0.0,0.0,0.0,0.0,0.0,0.0,0.2605189,0.14799397,-0.95412105,-0.018493652,-1.1094971,-0.20959473,-1.4941406,-0.85058594,-0.24707031,26.599297,5.393549,3.0639338,-19.753263,-0.9855957,-0.0056152344,0.032104492,-0.20898438,0.70996094,1.0566406,9.080842,-5.992667,-52.663116,-15.996227,0.4376831,-0.5958252,0.79003906,-0.3828125,0.18261719,-0.0703125,21.770575,-30.352234,-120.09068,-9.593052,0.0,0.0,0.0,0.0,0.0,0.0,0.0,-15.946388,-117.76588,4.086418,0.0,0.0,0.0,0.0,0.0,0.0,0.0,-10.547011,43.57697,3.879416,
2.4374999273568396,104,0.20697021,-0.97332764,-0.025634766,-0.6796875,0.78808594,0.265625,0.0,0.0,0.0,0.0,0.0,0.0,0.0,0.0,0.0,0.0,0.0,-0.26273406,-0.1594384,0.95054305,0.028869629,-0.6843262,-0.1706543,1.046875,-0.19042969,-0.19140625,20.02504,-5.439409,-3.3008692,19.679188,-0.96484375,-0.4140625,-0.39990234,-0.15820312,-4.4335938,2.7910156,21.696064,22.372309,-52.373943,27.971804,1.999939,1.4182129,1.0481567,1.2177734,2.3007812,-3.2705078,18.287308,32.985313,-123.23102,35.237694,0.0,0.0,0.0,0.0,0.0,0.0,0.0,41.167244,-124.78463,53.423477,0.0,0.0,0.0,0.0,0.0,0.0,0.0,0.26273406,0.1594384,-0.95054305,0.0357666,-1.0469971,0.036071777,-1.2685547,-0.95996094,-0.043945312,28.853918,5.439409,3.3008692,-19.679188,-1.0408936,-0.10900879,0.042114258,0.051757812,0.8779297,1.203125,8.803014,-7.129723,-52.192093,-16.295168,0.43927002,-0.6088867,0.8475342,-0.47851562,-0.06542969,-0.31054688,21.74145,-32.61723,-119.2326,-10.393822,0.0,0.0,0.0,0.0,0.0,0.0,0.0,-18.095675,-116.88888,3.1610813,0.0,0.0,0.0,0.0,0.0,0.0,0.0,-11.434891,43.282246,4.0992537,
2.4609374266583477,105,0.18811035,-1.1186523,0.05230713,-0.06933594,1.0761719,0.5029297,0.0,0.0,0.0,0.0,0.0,0.0,0.0,0.0,0.0,0.0,0.0,-0.26147836,-0.16938248,0.94997513,0.078125,-0.93170166,0.13366699,0.6699219,0.47265625,-0.23242188,20.49514,-5.413413,-3.506743,19.667433,-1.109375,-0.4552002,-0.4812622,1.3320312,-4.0634766,2.7216797,16.116032,23.331745,-52.060337,27.813313,1.9798584,0.103637695,0.6539917,0.47851562,2.5673828,-4.899414,19.055029,42.02735,-121.115555,36.021557,0.0,0.0,0.0,0.0,0.0,0.0,0.0,50.804794,-121.58112,53.988773,0.0,0.0,0.0,0.0,0.0,0.0,0.0,0.26147836,0.16938248,-0.94997513,0.24493408,-1.0064697,-0.010437012,-1.3808594,-0.06542969,0.1640625,29.960443,5.413413,3.506743,-19.667433,-1.092041,-0.106933594,0.049194336,0.27441406,1.1201172,1.21875,9.470356,-7.6660166,-51.89785,-16.755867,0.47180176,-0.5917969,0.8458252,-0.57421875,-0.46875,-0.51464844,22.072153,-34.609524,-118.435074,-11.680994,0.0,0.0,0.0,0.0,0.0,0.0,0.0,-19.972677,-116.24293,1.77567,0.0,0.0,0.0,0.0,0.0,0.0,0.0,-11.9399805,43.15121,4.4074974,
2.4843749259598558,106,0.10101318,-1.2775269,0.19604492,0.125,1.0380859,0.48242188,0.0,0.0,0.0,0.0,0.0,0.0,0.0,0.0,0.0,0.0,0.0,-0.23908186,-0.17917453,0.9544923,0.010437012,-1.2281494,0.42132568,0.3857422,1.4042969,-0.17871094,21.79441,-4.9497356,-3.7094681,19.76095,-1.1491699,-0.18389893,-0.4545288,1.6269531,-3.6054688,2.9160156,10.695973,24.528479,-51.92816,27.196321,1.999939,-0.014099121,0.24664307,0.080078125,1.1142578,-4.1435547,19.919436,50.503708,-118.478806,36.262054,0.0,0.0,0.0,0.0,0.0,0.0,0.0,60.175423,-117.898834,53.762707,0.0,0.0,0.0,0.0,0.0,0.0,0.0,0.23908186,0.17917453,-0.9544923,0.31811523,-1.0878906,0.039978027,-1.4550781,1.4453125,0.28125,29.996805,4.9497356,3.7094681,-19.76095,-1.0566406,-0.01928711,0.041381836,0.3095703,1.3994141,1.5009766,10.191941,-8.772168,-51.583035,-17.843918,0.44708252,-0.4414673,0.953125,-0.5,-1.0283203,-0.6123047,21.956362,-37.303734,-117.52373,-13.603462,0.0,0.0,0.0,0.0,0.0,0.0,0.0,-22.65636,-115.71579,-0.10405731,0.0,0.0,0.0,0.0,0.0,0.0,0.0,-11.455062,43.208252,5.2416563,
2.507812425261364,107,-0.049804688,-1.2733765,0.16455078,-0.04296875,0.7890625,0.24023438,0.0,0.0,0.0,0.0,0.0,0.0,0.0,0.0,0.0,0.0,0.0,-0.2212008,-0.18852113,0.95698774,-0.08050537,-1.2602539,1.0440674,0.3828125,1.4414062,0.08984375,22.690943,-4.579543,-3.9029717,19.812613,-1.0151978,0.7184448,0.36480713,1.2763672,-2.3642578,1.9316406,6.1712675,25.451962,-51.875336,26.659763,1.9711304,-1.8870239,-0.5633545,0.81347656,0.9765625,-1.7763672,22.277113,57.284977,-115.73554,36.346607,0.0,0.0,0.0,0.0,0.0,0.0,0.0,67.469925,-114.62511,53.527065,0.0,0.0,0.0,0.0,0.0,0.0,0.0,0.2212008,0.18852113,-0.95698774,0.095214844,-1.2531128,0.06878662,-1.2851562,1.3349609,0.3173828,31.33521,4.579543,3.9029717,-19.812613,-1.1275024,-0.20928955,0.0925293,-0.21777344,1.5859375,1.3798828,10.450391,-10.801036,-50.977077,-18.646343,0.3939209,-0.5383911,1.0073853,-0.48242188,-1.7021484,-0.78222656,22.068827,-41.6384,-115.97783,-15.739143,0.0,0.0,0.0,0.0,0.0,0.0,0.0,-26.999578,-114.744774,-2.1635246,0.0,0.0,0.0,0.0,0.0,0.0,0.0,-11.181762,43.191147,5.923826,
2.531249924562872,108,-0.18951416,-1.446228,0.2078247,-0.20410156,0.86816406,-0.46289062,0.0,0.0,0.0,0.0,0.0,0.0,0.0,0.0,0.0,0.0,0.0,-0.19958445,-0.19166233,0.9610683,0.16412354,-1.9238281,1.1972046,0.8154297,1.4082031,0.2626953,23.236359,-4.1320148,-3.9680045,19.897093,-0.38079834,-0.33312988,0.33538818,-0.8017578,0.2861328,-0.26367188,5.613634,26.615513,-51.530876,26.375153,1.9638672,-2.0,-0.8617554,0.072265625,0.35839844,0.0048828125,22.834787,60.12235,-114.43413,36.679623,0.0,0.0,0.0,0.0,0.0,0.0,0.0,70.207115,-113.2054,53.909256,0.0,0.0,0.0,0.0,0.0,0.0,0.0,0.19958445,0.19166233,-0.9610683,-0.24633789,-1.2814941,-0.009887695,-0.79589844,0.9121094,0.3515625,32.702896,4.1320148,3.9680045,-19.897093,-1.140686,-0.14050293,0.022094727,-0.25878906,1.9960938,1.5703125,12.223468,-12.423431,-50.570904,-19.005733,0.38653564,-0.5498657,1.1535645,-0.5419922,-2.5322266,-0.76953125,22.691687,-46.668285,-113.909805,-17.594282,0.0,0.0,0.0,0.0,0.0,0.0,0.0,-32.17342,-113.495094,-3.8156471,0.0,0.0,0.0,0.0,0.0,0.0,0.0,-11.296144,43.11329,6.252063,
2.55468742386438,109,0.12036133,-1.2504883,-0.16009521,0.9082031,0.41015625,-0.8496094,0.0,0.0,0.0,0.0,0.0,0.0,0.0,0.0,0.0,0.0,0.0,-0.18532658,-0.17369127,0.96733683,-0.1529541,-1.3337402,0.50201416,0.4345703,0.7548828,0.5332031,23.819695,-3.836834,-3.5959475,20.02687,-0.56658936,-0.5570679,-0.35595703,0.5527344,1.9365234,-1.7509766,8.773598,27.656143,-50.649498,26.659687,1.999939,-0.83013916,-0.28546143,-0.9921875,-0.5966797,1.3095703,21.234913,58.55448,-114.95872,36.41275,0.0,0.0,0.0,0.0,0.0,0.0,0.0,68.52443,-113.71621,53.709625,0.0,0.0,0.0,0.0,0.0,0.0,0.0,0.18532658,0.17369127,-0.96733683,-0.34466553,-1.4449463,0.15222168,-0.34277344,1.0898438,0.3876953,32.92147,3.836834,3.5959475,-20.02687,-1.3251953,-0.20343018,-0.02520752,-0.7861328,2.2578125,1.6738281,15.014537,-13.3994255,-50.73225,-19.151085,0.37176514,-0.67510986,1.0853271,-1.1503906,-3.6464844,-0.9921875,22.811958,-51.358974,-111.92825,-19.633068,0.0,0.0,0.0,0.0,0.0,0.0,0.0,-37.212196,-112.60587,-5.506523,0.0,0.0,0.0,0.0,0.0,0.0,0.0,-11.096105,43.250244,5.640007,
2.578124923165888,110,0.44354248,-1.4802856,0.29626465,-0.11816406,1.1181641,-0.7392578,0.0,0.0,0.0,0.0,0.0,0.0,0.0,0.0,0.0,0.0,0.0,-0.16914454,-0.15512918,0.97339976,-0.23760986,-0.45996094,0.77612305,0.3466797,0.6015625,-0.09863281,24.484865,-3.5018163,-3.211655,20.152393,-1.557373,-0.04815674,1.2781982,3.3642578,0.0625,-1.9980469,14.048915,28.514328,-49.78667,27.582268,-0.5385132,-1.9758911,-1.9586792,-0.1015625,-7.4296875,5.2333984,21.606844,54.379704,-116.5685,35.118843,0.0,0.0,0.0,0.0,0.0,0.0,0.0,64.46582,-115.94806,52.384262,0.0,0.0,0.0,0.0,0.0,0.0,0.0,0.16914454,0.15512918,-0.97339976,-0.26641846,-1.4085083,0.578125,-0.15332031,1.8164062,0.4453125,32.892384,3.5018163,3.211655,-20.152393,-1.4515991,-0.5890503,0.21051025,-0.5996094,2.4794922,2.008789,18.73235,-14.002602,-51.03028,-19.324774,0.3123169,-0.7907715,1.1455688,-2.0439453,-5.0810547,-1.9150391,21.9128,-55.918213,-109.53171,-21.847034,0.0,0.0,0.0,0.0,0.0,0.0,0.0,-42.28428,-111.71854,-7.373747,0.0,0.0,0.0,0.0,0.0,0.0,0.0,-11.023904,43.346478,4.9924707,
