TOTAL_TIME,0m7s
TOTAL_FRAMES,286
SELECTED_FRAMES,286
NO_OF_JOINTS,12
FREQUENCY,42.666668
DESCRIPTION,Capture 18
TIME_STAMP,Jul 8, 2010

Time,Frame,Pelvis_accelX_Pelvis,Pelvis_accelY_Pelvis,Pelvis_accelZ_Pelvis,Pelvis_gyroX_Pelvis,Pelvis_gyroY_Pelvis,Pelvis_gyroZ_Pelvis,Pelvis_Joint angle_Pelvis,Pelvis_Relative pos X_Pelvis,Pelvis_Relative pos Y_Pelvis,Pelvis_Relative pos Z_Pelvis,RightPelvis_accelX_RightPelvis,RightPelvis_accelY_RightPelvis,RightPelvis_accelZ_RightPelvis,RightPelvis_gyroX_RightPelvis,RightPelvis_gyroY_RightPelvis,RightPelvis_gyroZ_RightPelvis,RightPelvis_Joint angle_RightPelvis,RightPelvis_Relative pos X_RightPelvis,RightPelvis_Relative pos Y_RightPelvis,RightPelvis_Relative pos Z_RightPelvis,RightUpLeg_accelX_RightUpLeg,RightUpLeg_accelY_RightUpLeg,RightUpLeg_accelZ_RightUpLeg,RightUpLeg_gyroX_RightUpLeg,RightUpLeg_gyroY_RightUpLeg,RightUpLeg_gyroZ_RightUpLeg,RightUpLeg_Joint angle_RightUpLeg,RightUpLeg_Relative pos X_RightUpLeg,RightUpLeg_Relative pos Y_RightUpLeg,RightUpLeg_Relative pos Z_RightUpLeg,RightLeg_accelX_RightLeg,RightLeg_accelY_RightLeg,RightLeg_accelZ_RightLeg,RightLeg_gyroX_RightLeg,RightLeg_gyroY_RightLeg,RightLeg_gyroZ_RightLeg,RightLeg_Joint angle_RightLeg,RightLeg_Relative pos X_RightLeg,RightLeg_Relative pos Y_RightLeg,RightLeg_Relative pos Z_RightLeg,RightFoot_accelX_RightFoot,RightFoot_accelY_RightFoot,RightFoot_accelZ_RightFoot,RightFoot_gyroX_RightFoot,RightFoot_gyroY_RightFoot,RightFoot_gyroZ_RightFoot,RightFoot_Joint angle_RightFoot,RightFoot_Relative pos X_RightFoot,RightFoot_Relative pos Y_RightFoot,RightFoot_Relative pos Z_RightFoot,RightFootEnd_accelX_RightFootEnd,RightFootEnd_accelY_RightFootEnd,RightFootEnd_accelZ_RightFootEnd,RightFootEnd_gyroX_RightFootEnd,RightFootEnd_gyroY_RightFootEnd,RightFootEnd_gyroZ_RightFootEnd,RightFootEnd_Joint angle_RightFootEnd,RightFootEnd_Relative pos X_RightFootEnd,RightFootEnd_Relative pos Y_RightFootEnd,RightFootEnd_Relative pos Z_RightFootEnd,LeftPelvis_accelX_LeftPelvis,LeftPelvis_accelY_LeftPelvis,LeftPelvis_accelZ_LeftPelvis,LeftPelvis_gyroX_LeftPelvis,LeftPelvis_gyroY_LeftPelvis,LeftPelvis_gyroZ_LeftPelvis,LeftPelvis_Joint angle_LeftPelvis,LeftPelvis_Relative pos X_LeftPelvis,LeftPelvis_Relative pos Y_LeftPelvis,LeftPelvis_Relative pos Z_LeftPelvis,LeftUpLeg_accelX_LeftUpLeg,LeftUpLeg_accelY_LeftUpLeg,LeftUpLeg_accelZ_LeftUpLeg,LeftUpLeg_gyroX_LeftUpLeg,LeftUpLeg_gyroY_LeftUpLeg,LeftUpLeg_gyroZ_LeftUpLeg,LeftUpLeg_Joint angle_LeftUpLeg,LeftUpLeg_Relative pos X_LeftUpLeg,LeftUpLeg_Relative pos Y_LeftUpLeg,LeftUpLeg_Relative pos Z_LeftUpLeg,LeftLeg_accelX_LeftLeg,LeftLeg_accelY_LeftLeg,LeftLeg_accelZ_LeftLeg,LeftLeg_gyroX_LeftLeg,LeftLeg_gyroY_LeftLeg,LeftLeg_gyroZ_LeftLeg,LeftLeg_Joint angle_LeftLeg,LeftLeg_Relative pos X_LeftLeg,LeftLeg_Relative pos Y_LeftLeg,LeftLeg_Relative pos Z_LeftLeg,LeftFoot_accelX_LeftFoot,LeftFoot_accelY_LeftFoot,LeftFoot_accelZ_LeftFoot,LeftFoot_gyroX_LeftFoot,LeftFoot_gyroY_LeftFoot,LeftFoot_gyroZ_LeftFoot,LeftFoot_Joint angle_LeftFoot,LeftFoot_Relative pos X_LeftFoot,LeftFoot_Relative pos Y_LeftFoot,LeftFoot_Relative pos Z_LeftFoot,LeftFootEnd_accelX_LeftFootEnd,LeftFootEnd_accelY_LeftFootEnd,LeftFootEnd_accelZ_LeftFootEnd,LeftFootEnd_gyroX_LeftFootEnd,LeftFootEnd_gyroY_LeftFootEnd,LeftFootEnd_gyroZ_LeftFootEnd,LeftFootEnd_Joint angle_LeftFootEnd,LeftFootEnd_Relative pos X_LeftFootEnd,LeftFootEnd_Relative pos Y_LeftFootEnd,LeftFootEnd_Relative pos Z_LeftFootEnd,Spine_accelX_Spine,Spine_accelY_Spine,Spine_accelZ_Spine,Spine_gyroX_Spine,Spine_gyroY_Spine,Spine_gyroZ_Spine,Spine_Joint angle_Spine,Spine_Relative pos X_Spine,Spine_Relative pos Y_Spine,Spine_Relative pos Z_Spine,
0.0,0,0.0,0.0,0.0,0.0,0.0,0.0,0.0,0.0,0.0,0.0,0.0,0.0,0.0,0.0,0.0,0.0,0.0,0.0,0.0,0.0,0.0,0.0,0.0,0.0,0.0,0.0,NaN,0.0,0.0,0.0,0.0,0.0,0.0,0.0,0.0,0.0,NaN,0.0,0.0,0.0,0.0,0.0,0.0,0.0,0.0,0.0,NaN,0.0,0.0,0.0,0.0,0.0,0.0,0.0,0.0,0.0,0.0,0.0,0.0,0.0,0.0,0.0,0.0,0.0,0.0,0.0,0.0,0.0,0.0,0.0,0.0,0.0,0.0,0.0,0.0,0.0,NaN,0.0,0.0,0.0,0.0,0.0,0.0,0.0,0.0,0.0,NaN,0.0,0.0,0.0,0.0,0.0,0.0,0.0,0.0,0.0,NaN,0.0,0.0,0.0,0.0,0.0,0.0,0.0,0.0,0.0,0.0,0.0,0.0,0.0,0.0,0.0,0.0,0.0,0.0,0.0,0.0,0.0,0.0,0.0,
0.02343749930150809,1,0.0,0.0,0.0,0.0,0.0,0.0,0.0,0.0,0.0,0.0,0.0,0.0,0.0,0.0,0.0,0.0,0.0,0.0,0.0,0.0,0.0,0.0,0.0,0.0,0.0,0.0,NaN,0.0,0.0,0.0,0.0,0.0,0.0,0.0,0.0,0.0,NaN,0.0,0.0,0.0,0.0,0.0,0.0,0.0,0.0,0.0,NaN,0.0,0.0,0.0,0.0,0.0,0.0,0.0,0.0,0.0,0.0,0.0,0.0,0.0,0.0,0.0,0.0,0.0,0.0,0.0,0.0,0.0,0.0,0.0,0.0,0.0,0.0,0.0,0.0,0.0,NaN,0.0,0.0,0.0,0.0,0.0,0.0,0.0,0.0,0.0,NaN,0.0,0.0,0.0,0.0,0.0,0.0,0.0,0.0,0.0,NaN,0.0,0.0,0.0,0.0,0.0,0.0,0.0,0.0,0.0,0.0,0.0,0.0,0.0,0.0,0.0,0.0,0.0,0.0,0.0,0.0,0.0,0.0,0.0,
0.04687499860301618,2,0.0,0.0,0.0,0.0,0.0,0.0,0.0,0.0,0.0,0.0,0.0,0.0,0.0,0.0,0.0,0.0,0.0,0.0,0.0,0.0,0.0,0.0,0.0,0.0,0.0,0.0,NaN,0.0,0.0,0.0,0.0,0.0,0.0,0.0,0.0,0.0,NaN,0.0,0.0,0.0,0.0,0.0,0.0,0.0,0.0,0.0,NaN,0.0,0.0,0.0,0.0,0.0,0.0,0.0,0.0,0.0,0.0,0.0,0.0,0.0,0.0,0.0,0.0,0.0,0.0,0.0,0.0,0.0,0.0,0.0,0.0,0.0,0.0,0.0,0.0,0.0,NaN,0.0,0.0,0.0,0.0,0.0,0.0,0.0,0.0,0.0,NaN,0.0,0.0,0.0,0.0,0.0,0.0,0.0,0.0,0.0,NaN,0.0,0.0,0.0,0.0,0.0,0.0,0.0,0.0,0.0,0.0,0.0,0.0,0.0,0.0,0.0,0.0,0.0,0.0,0.0,0.0,0.0,0.0,0.0,
0.07031249790452426,3,-0.021057129,-0.9649048,0.36120605,0.0,0.060546875,0.046875,0.0,0.0,0.0,0.0,0.0,0.0,0.0,0.0,0.0,0.0,0.0,-0.25748777,-0.022169262,0.96618503,-0.0021972656,-0.9498291,-0.381958,-0.052734375,0.024414062,0.037109375,2.7951236,-5.330795,-0.4589724,20.003027,-0.9755249,-0.08459473,-0.1720581,-0.017578125,-0.01171875,0.03515625,1.1943574,-6.2952385,-57.45119,18.774912,0.5444946,0.4078369,0.739563,0.024414062,0.053710938,0.0087890625,14.423023,-7.619939,-129.41927,16.616419,0.0,0.0,0.0,0.0,0.0,0.0,0.0,4.8774786,-129.89209,32.225277,0.0,0.0,0.0,0.0,0.0,0.0,0.0,0.25748777,0.022169262,-0.96618503,-0.01159668,-0.9603882,-0.31011963,-0.022460938,0.06542969,0.047851562,6.6758523,5.330795,0.4589724,-20.003027,-0.980896,-0.008972168,-0.08709717,9.765625E-4,0.061523438,0.040039062,5.465509,0.7029395,-56.348843,-19.137894,0.428833,-0.5686035,0.7766113,-0.0048828125,-0.013671875,0.017578125,2.55872,1.0460542,-128.11636,-13.224423,0.0,0.0,0.0,0.0,0.0,0.0,0.0,17.871965,-128.09808,-2.4085913,0.0,0.0,0.0,0.0,0.0,0.0,0.0,-1.4115655,44.97994,0.65589,
0.09374999720603236,4,-0.013061523,-0.95703125,0.34552002,0.0,0.041992188,0.028320312,0.0,0.0,0.0,0.0,0.0,0.0,0.0,0.0,0.0,0.0,0.0,-0.25844008,-0.021676011,0.9658866,-0.014343262,-0.932251,-0.37475586,-0.07128906,0.0625,0.017578125,2.857184,-5.350512,-0.44876063,19.996847,-0.9425049,-0.07122803,-0.16601562,-0.037109375,-0.03125,0.03515625,1.2335285,-6.3379717,-57.43709,18.789036,0.55352783,0.4086914,0.7334595,0.0048828125,0.053710938,-0.009765625,14.442645,-7.7353344,-129.41154,16.626247,0.0,0.0,0.0,0.0,0.0,0.0,0.0,4.772175,-129.89189,32.228256,0.0,0.0,0.0,0.0,0.0,0.0,0.0,0.25844008,0.021676011,-0.9658866,-0.025634766,-0.95928955,-0.2841797,-0.060546875,0.083984375,0.047851562,6.693631,5.350512,0.44876063,-19.996847,-1.0102539,0.026611328,-0.0791626,0.01953125,0.061523438,0.040039062,5.3955755,0.74181604,-56.367283,-19.084774,0.42486572,-0.56451416,0.77575684,-0.0048828125,0.005859375,0.017578125,2.5278587,1.0089548,-128.12996,-13.128314,0.0,0.0,0.0,0.0,0.0,0.0,0.0,17.8412,-128.115,-2.3225584,0.0,0.0,0.0,0.0,0.0,0.0,0.0,-1.4401983,44.977074,0.6240056,
0.11718749650754046,5,-0.018920898,-0.94744873,0.3711548,-0.01953125,0.060546875,0.028320312,0.0,0.0,0.0,0.0,0.0,0.0,0.0,0.0,0.0,0.0,0.0,-0.25717768,-0.021237794,0.9662407,0.015197754,-0.9343262,-0.4008789,-0.033203125,0.043945312,0.017578125,2.868739,-5.3243766,-0.4396882,20.004177,-0.9829712,-0.10601807,-0.19091797,-0.034179688,0.045898438,0.036132812,1.2544502,-6.338675,-57.41969,18.791363,0.5643921,0.39526367,0.7453613,0.005859375,0.072265625,0.0087890625,14.537491,-7.8116527,-129.38443,16.622637,0.0,0.0,0.0,0.0,0.0,0.0,0.0,4.693026,-129.86456,32.22757,0.0,0.0,0.0,0.0,0.0,0.0,0.0,0.25717768,0.021237794,-0.9662407,-0.048828125,-0.96746826,-0.32147217,-0.041015625,0.047851562,0.06640625,6.6757054,5.3243766,0.4396882,-20.004177,-0.97698975,-0.01184082,-0.06439209,-0.055664062,0.024414062,0.022460938,5.3286986,0.73500776,-56.36865,-19.002802,0.44885254,-0.56781006,0.762146,-0.080078125,0.06347656,0.055664062,2.522976,0.961992,-128.13373,-12.987237,0.0,0.0,0.0,0.0,0.0,0.0,0.0,17.796299,-128.12527,-2.1862984,0.0,0.0,0.0,0.0,0.0,0.0,0.0,-1.4252119,44.97808,0.60927117,
0.14062499580904855,6,0.001159668,-0.94958496,0.3642578,-0.01953125,0.060546875,0.046875,0.0,0.0,0.0,0.0,0.0,0.0,0.0,0.0,0.0,0.0,0.0,-0.25564116,-0.021111118,0.9666568,-0.006164551,-0.93218994,-0.39575195,-0.033203125,0.024414062,-9.765625E-4,2.8649154,-5.2925653,-0.4370656,20.012793,-0.9526367,-0.08215332,-0.20544434,-0.036132812,0.0068359375,0.0546875,1.2366972,-6.3321,-57.417755,18.793272,0.54241943,0.4393921,0.7515869,-0.033203125,0.053710938,-0.028320312,14.536212,-7.8363986,-129.38335,16.643066,0.0,0.0,0.0,0.0,0.0,0.0,0.0,4.6715913,-129.87195,32.24374,0.0,0.0,0.0,0.0,0.0,0.0,0.0,0.25564116,0.021111118,-0.9666568,-0.031982422,-0.987854,-0.26263428,-0.060546875,0.083984375,0.047851562,6.6333566,5.2925653,0.4370656,-20.012793,-0.9810791,-0.0010375977,-0.07110596,0.01953125,0.080078125,0.040039062,5.305223,0.7370038,-56.372856,-18.94469,0.4658203,-0.590271,0.77246094,-0.080078125,0.044921875,0.055664062,2.5390613,0.998404,-128.12787,-12.881385,0.0,0.0,0.0,0.0,0.0,0.0,0.0,17.83673,-128.11932,-2.0835896,0.0,0.0,0.0,0.0,0.0,0.0,0.0,-1.4018061,44.979034,0.6115906,
0.16406249511055665,7,-0.028015137,-0.9571533,0.37304688,-0.057617188,0.041992188,0.029296875,0.0,0.0,0.0,0.0,0.0,0.0,0.0,0.0,0.0,0.0,0.0,-0.2542213,-0.021399546,0.9670113,0.008972168,-0.9373779,-0.37493896,-0.0146484375,0.043945312,0.017578125,2.854168,-5.2631693,-0.44303694,20.02013,-0.96972656,-0.0949707,-0.15637207,-0.034179688,0.045898438,0.016601562,1.2190069,-6.3006577,-57.429676,18.782465,0.5645752,0.4074707,0.73236084,-0.013671875,0.053710938,0.0087890625,14.540143,-7.8170567,-129.39766,16.652477,0.0,0.0,0.0,0.0,0.0,0.0,0.0,4.696637,-129.89355,32.25109,0.0,0.0,0.0,0.0,0.0,0.0,0.0,0.2542213,0.021399546,-0.9670113,-0.037902832,-0.98083496,-0.26245117,-0.00390625,0.06542969,0.029296875,6.5718455,5.2631693,0.44303694,-20.02013,-0.99243164,0.03161621,-0.055664062,-0.07421875,0.09863281,0.060546875,5.1102896,0.78572226,-56.369736,-18.898573,0.44262695,-0.58154297,0.76220703,-0.0234375,0.005859375,0.036132812,2.3322968,0.8754325,-128.12558,-12.826868,0.0,0.0,0.0,0.0,0.0,0.0,0.0,17.697233,-128.11241,-2.0021496,0.0,0.0,0.0,0.0,0.0,0.0,0.0,-1.3953252,44.97841,0.6285306,
0.18749999441206475,8,-0.016906738,-0.94750977,0.3711548,-0.07714844,0.041992188,0.06640625,0.0,0.0,0.0,0.0,0.0,0.0,0.0,0.0,0.0,0.0,0.0,-0.2518829,-0.021553451,0.967648,0.017028809,-0.9423218,-0.3690796,-0.033203125,0.024414062,0.037109375,2.8012795,-5.2147565,-0.44622326,20.033314,-0.9812012,-0.11138916,-0.17419434,0.0029296875,0.045898438,0.036132812,1.2569435,-6.2363224,-57.433666,18.783669,0.5309448,0.43652344,0.7137451,-0.032226562,0.07324219,0.0087890625,14.523973,-7.7664423,-129.39792,16.604422,0.0,0.0,0.0,0.0,0.0,0.0,0.0,4.7575006,-129.90178,32.193077,0.0,0.0,0.0,0.0,0.0,0.0,0.0,0.2518829,0.021553451,-0.967648,-0.030944824,-0.98480225,-0.28137207,0.034179688,-0.026367188,0.029296875,6.5202003,5.2147565,0.44622326,-20.033314,-0.95770264,-0.052246094,-0.05230713,-0.11230469,0.09863281,0.041992188,4.989905,0.7964678,-56.369747,-18.805357,0.41778564,-0.57147217,0.7838135,-0.080078125,0.025390625,0.07324219,2.4069653,0.877288,-128.12598,-12.733158,0.0,0.0,0.0,0.0,0.0,0.0,0.0,17.695932,-128.1124,-1.9068985,0.0,0.0,0.0,0.0,0.0,0.0,0.0,-1.3671631,44.980263,0.64601487,
0.21093749371357284,9,0.007080078,-0.95532227,0.34747314,-0.31152344,0.13769531,0.087890625,0.0,0.0,0.0,0.0,0.0,0.0,0.0,0.0,0.0,0.0,0.0,-0.2505345,-0.025328442,0.96793056,0.026367188,-0.92193604,-0.39086914,-0.033203125,0.08203125,0.037109375,3.0241387,-5.186841,-0.5243773,20.039162,-0.91015625,-0.0435791,-0.1716919,0.078125,0.025390625,0.0546875,1.1713622,-6.2216454,-57.505253,18.745382,0.55822754,0.39154053,0.7423706,-0.033203125,0.053710938,-0.028320312,14.536251,-7.7809277,-129.46689,16.674091,0.0,0.0,0.0,0.0,0.0,0.0,0.0,4.749632,-129.97641,32.255882,0.0,0.0,0.0,0.0,0.0,0.0,0.0,0.2505345,0.025328442,-0.96793056,-0.038391113,-1.0132446,-0.27557373,0.20410156,-0.009765625,0.028320312,6.68771,5.186841,0.5243773,-20.039162,-0.9769287,-0.022705078,-0.06744385,-0.055664062,0.061523438,0.059570312,4.775366,0.9206219,-56.2991,-18.68563,0.43933105,-0.59832764,0.76116943,-0.041992188,0.043945312,0.0546875,2.4367065,0.95153236,-128.05052,-12.58633,0.0,0.0,0.0,0.0,0.0,0.0,0.0,17.76935,-128.04771,-1.7585087,0.0,0.0,0.0,0.0,0.0,0.0,0.0,-1.5455152,44.973465,0.77681494,
0.23437499301508094,10,-0.04534912,-1.0042114,0.4022827,-0.115234375,0.022460938,0.047851562,0.0,0.0,0.0,0.0,0.0,0.0,0.0,0.0,0.0,0.0,0.0,-0.24835297,-0.032815468,0.9681914,0.05493164,-0.9249878,-0.41796875,-0.07128906,0.15722656,0.07519531,3.4195921,-5.1416745,-0.6793819,20.044563,-0.9527588,-0.12286377,-0.16925049,0.09765625,0.044921875,0.036132812,0.9966185,-6.240512,-57.663136,18.569918,0.5496826,0.3760376,0.73443604,-0.053710938,0.03515625,-0.046875,14.562026,-7.819228,-129.63246,16.539967,0.0,0.0,0.0,0.0,0.0,0.0,0.0,4.723832,-130.12651,32.11448,0.0,0.0,0.0,0.0,0.0,0.0,0.0,0.24835297,0.032815468,-0.9681914,-0.072143555,-1.0576172,-0.32092285,0.6191406,0.041015625,0.08300781,6.7049894,5.1416745,0.6793819,-20.044563,-0.960022,-0.022644043,-0.038085938,-0.16796875,0.09863281,0.04296875,4.0356073,1.4903154,-56.185207,-18.38042,0.4590454,-0.56921387,0.76885986,-0.0048828125,0.005859375,0.036132812,2.5325003,1.4974997,-127.95044,-12.386696,0.0,0.0,0.0,0.0,0.0,0.0,0.0,18.311144,-127.96293,-1.5501537,0.0,0.0,0.0,0.0,0.0,0.0,0.0,-1.815876,44.954292,1.0578673,
0.25781249231658904,11,-0.013977051,-0.95526123,0.3632202,-0.19433594,0.099609375,0.049804688,0.0,0.0,0.0,0.0,0.0,0.0,0.0,0.0,0.0,0.0,0.0,-0.24524155,-0.03460323,0.96896577,-0.016418457,-0.9544678,-0.3939209,-0.052734375,0.21484375,0.09375,3.4113948,-5.0772605,-0.7163941,20.060596,-0.95648193,-0.099121094,-0.1583252,0.21191406,0.04296875,0.036132812,1.0364653,-6.1930103,-57.696655,18.478073,0.5460205,0.39312744,0.7285156,-0.034179688,0.015625,-0.028320312,14.948125,-7.89992,-129.6676,16.383938,0.0,0.0,0.0,0.0,0.0,0.0,0.0,4.644323,-130.1512,31.956738,0.0,0.0,0.0,0.0,0.0,0.0,0.0,0.24524155,0.03460323,-0.96896577,0.02368164,-0.95147705,-0.26519775,0.29882812,0.18945312,0.046875,6.3341,5.0772605,0.7163941,-20.060596,-0.9546509,-0.0670166,-0.04260254,-0.16894531,0.13574219,0.08105469,3.3480203,2.0112717,-56.176205,-18.180283,0.43408203,-0.5517578,0.7706299,-0.04296875,0.005859375,0.07324219,2.7834742,1.9382644,-127.954315,-12.31213,0.0,0.0,0.0,0.0,0.0,0.0,0.0,18.744242,-127.987885,-1.4651394,0.0,0.0,0.0,0.0,0.0,0.0,0.0,-1.7965534,44.9547,1.1506994,
0.2812499916180971,12,-0.033203125,-0.97650146,0.35717773,-0.15332031,0.0029296875,0.029296875,0.0,0.0,0.0,0.0,0.0,0.0,0.0,0.0,0.0,0.0,0.0,-0.24483207,-0.03759001,0.9689793,-0.03552246,-0.92315674,-0.39349365,-0.034179688,0.2529297,0.13183594,3.7024798,-5.068783,-0.7782297,20.060875,-0.9650879,-0.068115234,-0.15722656,0.040039062,0.025390625,0.0546875,1.0510883,-6.2469835,-57.751698,18.57097,0.5405884,0.4151001,0.72961426,-0.015625,-0.0029296875,-0.0087890625,15.010543,-7.942597,-129.71658,16.427818,0.0,0.0,0.0,0.0,0.0,0.0,0.0,4.61439,-130.20479,31.991667,0.0,0.0,0.0,0.0,0.0,0.0,0.0,0.24483207,0.03759001,-0.9689793,0.02368164,-0.95147705,-0.26519775,0.29882812,0.18945312,0.046875,6.5918674,5.068783,0.7782297,-20.060875,-0.9640503,0.015625,-0.09509277,0.0,0.17285156,0.15332031,3.1462228,2.002794,-56.11437,-18.180561,0.4498291,-0.57995605,0.7729492,-0.0234375,0.044921875,0.036132812,2.6158388,1.7139146,-127.899765,-12.457136,0.0,0.0,0.0,0.0,0.0,0.0,0.0,18.50431,-127.921555,-1.5858746,0.0,0.0,0.0,0.0,0.0,0.0,0.0,-1.9765743,44.945583,1.244171,
0.3046874909196052,13,-0.048583984,-0.9971924,0.30096436,-0.13476562,0.022460938,0.029296875,0.0,0.0,0.0,0.0,0.0,0.0,0.0,0.0,0.0,0.0,0.0,-0.24657977,-0.040643666,0.9683452,0.011047363,-0.93151855,-0.38189697,-0.0146484375,0.21582031,0.07421875,3.987818,-5.104966,-0.84145,20.047749,-0.95184326,-0.12121582,-0.15350342,-0.052734375,0.08496094,0.036132812,1.003272,-6.299108,-57.818962,18.514267,0.54730225,0.3998413,0.7385254,-0.016601562,-0.022460938,-0.0087890625,14.924037,-7.9801064,-129.77817,16.368511,0.0,0.0,0.0,0.0,0.0,0.0,0.0,4.5818844,-130.27682,31.926601,0.0,0.0,0.0,0.0,0.0,0.0,0.0,0.24657977,0.040643666,-0.9683452,-0.027160645,-1.0058594,-0.22827148,0.2607422,-0.009765625,0.046875,6.0940666,5.104966,0.84145,-20.047749,-0.99328613,0.06390381,-0.12774658,-0.20605469,0.09863281,0.11816406,2.2387834,3.108015,-56.093803,-17.988413,0.430542,-0.5524292,0.81048584,-0.04296875,0.005859375,0.0546875,2.2995057,2.2887208,-127.86935,-12.239227,0.0,0.0,0.0,0.0,0.0,0.0,0.0,19.08486,-127.913925,-1.3758173,0.0,0.0,0.0,0.0,0.0,0.0,0.0,-2.1863863,44.93049,1.3290933,
0.32812499022111324,14,-0.048217773,-0.9586792,0.35437012,-0.13574219,0.060546875,0.06738281,0.0,0.0,0.0,0.0,0.0,0.0,0.0,0.0,0.0,0.0,0.0,-0.24546683,-0.043056477,0.9685944,0.03149414,-0.9238281,-0.40386963,-0.052734375,0.04296875,0.037109375,4.133512,-5.081924,-0.89140254,20.052904,-0.9779053,-0.10913086,-0.18896484,-0.016601562,0.026367188,0.091796875,0.95388097,-6.2873096,-57.858772,18.471807,0.5186157,0.3848877,0.7307129,-0.034179688,0.015625,0.0087890625,14.932202,-7.949511,-129.8255,16.326122,0.0,0.0,0.0,0.0,0.0,0.0,0.0,4.615789,-130.32135,31.8816,0.0,0.0,0.0,0.0,0.0,0.0,0.0,0.24546683,0.043056477,-0.9685944,-0.024169922,-0.99853516,-0.31518555,0.12792969,-0.1171875,0.10253906,6.2561426,5.081924,0.89140254,-20.052904,-0.99957275,-0.03265381,-0.11669922,-0.2998047,0.099609375,0.026367188,1.8989855,3.2214432,-56.040066,-17.842411,0.48156738,-0.54400635,0.7694702,-0.041992188,0.043945312,0.0546875,2.374298,2.1650958,-127.82849,-12.242819,0.0,0.0,0.0,0.0,0.0,0.0,0.0,18.946545,-127.88711,-1.3576412,0.0,0.0,0.0,0.0,0.0,0.0,0.0,-2.2897017,44.92575,1.4167941,
0.3515624895226213,15,-0.032287598,-0.9871826,0.35321045,-0.095703125,0.022460938,0.0107421875,0.0,0.0,0.0,0.0,0.0,0.0,0.0,0.0,0.0,0.0,0.0,-0.24470603,-0.04581635,0.9685723,-0.022521973,-0.94085693,-0.38079834,-0.0146484375,0.08203125,0.055664062,4.282217,-5.066175,-0.9485406,20.052448,-0.96136475,-0.10321045,-0.19573975,0.07910156,0.044921875,0.0546875,0.99071074,-6.2917666,-57.921818,18.463757,0.5508423,0.41223145,0.75842285,-0.034179688,0.015625,-0.009765625,15.053652,-8.0418415,-129.88972,16.318012,0.0,0.0,0.0,0.0,0.0,0.0,0.0,4.52293,-130.37198,31.874493,0.0,0.0,0.0,0.0,0.0,0.0,0.0,0.24470603,0.04581635,-0.9685723,-0.031982422,-0.98358154,-0.31695557,0.24121094,0.06347656,0.06542969,6.4308095,5.066175,0.9485406,-20.052448,-0.9586792,-0.016967773,-0.119384766,0.01953125,0.09863281,0.11425781,1.6040087,3.3075328,-55.98304,-17.731058,0.46643066,-0.5324707,0.7550049,-0.0048828125,0.043945312,0.0546875,2.4625945,2.1215205,-127.78408,-12.337841,0.0,0.0,0.0,0.0,0.0,0.0,0.0,18.895292,-127.86616,-1.4416838,0.0,0.0,0.0,0.0,0.0,0.0,0.0,-2.3839326,44.913555,1.5222535,
0.3749999888241294,16,-0.02911377,-0.95288086,0.3395996,-0.115234375,0.041992188,0.047851562,0.0,0.0,0.0,0.0,0.0,0.0,0.0,0.0,0.0,0.0,0.0,-0.24363893,-0.048630867,0.9687018,-0.031677246,-0.9505005,-0.37683105,0.00390625,0.08203125,0.055664062,4.425937,-5.044081,-1.0068097,20.05513,-0.942749,-0.08404541,-0.17199707,0.061523438,0.08300781,0.017578125,1.0719192,-6.2739677,-57.979843,18.530878,0.55181885,0.42388916,0.7225342,-0.015625,-0.0029296875,-0.0087890625,15.184769,-8.128885,-129.9447,16.431873,0.0,0.0,0.0,0.0,0.0,0.0,0.0,4.435725,-130.4238,31.989206,0.0,0.0,0.0,0.0,0.0,0.0,0.0,0.24363893,0.048630867,-0.9687018,-0.032409668,-1.0184326,-0.24414062,0.16601562,0.19140625,0.047851562,6.5268736,5.044081,1.0068097,-20.05513,-0.9848633,0.020507812,-0.13726807,-0.20605469,0.13574219,0.099609375,1.5107723,3.4933612,-55.925426,-17.634155,0.456604,-0.55181885,0.796875,-0.04296875,0.005859375,0.0546875,2.3690164,2.0054908,-127.72145,-12.281691,0.0,0.0,0.0,0.0,0.0,0.0,0.0,18.775599,-127.822975,-1.381134,0.0,0.0,0.0,0.0,0.0,0.0,0.0,-2.477379,44.904568,1.6312163,
0.39843748812563745,17,-0.017028809,-0.94714355,0.33666992,-0.07714844,0.022460938,0.0107421875,0.0,0.0,0.0,0.0,0.0,0.0,0.0,0.0,0.0,0.0,0.0,-0.2428998,-0.04999642,0.9688432,-0.015319824,-0.94085693,-0.3947754,0.00390625,0.043945312,0.037109375,4.550618,-5.02878,-1.0350809,20.058058,-0.98205566,-0.10632324,-0.17712402,-0.053710938,0.045898438,0.036132812,1.1410673,-6.2716875,-58.0096,18.583986,0.53619385,0.43475342,0.7446289,-0.015625,-0.00390625,0.009765625,15.201395,-8.222708,-129.96521,16.512697,0.0,0.0,0.0,0.0,0.0,0.0,0.0,4.3536863,-130.45226,32.05819,0.0,0.0,0.0,0.0,0.0,0.0,0.0,0.2428998,0.04999642,-0.9688432,-0.0076904297,-0.9779053,-0.18981934,0.2607422,0.0625,0.046875,6.4590435,5.02878,1.0350809,-20.058058,-0.9738159,-0.02960205,-0.0725708,-0.2626953,0.13671875,0.06347656,1.6154364,3.8043544,-55.89893,-17.560518,0.45013428,-0.5682373,0.78100586,-0.041992188,0.005859375,0.091796875,2.580885,2.1034412,-127.692825,-12.227121,0.0,0.0,0.0,0.0,0.0,0.0,0.0,18.860504,-127.803314,-1.3040047,0.0,0.0,0.0,0.0,0.0,0.0,0.0,-2.5543013,44.899693,1.676623,
0.4218749874271455,18,-0.031433105,-0.98876953,0.3157959,-0.076171875,0.0029296875,0.046875,0.0,0.0,0.0,0.0,0.0,0.0,0.0,0.0,0.0,0.0,0.0,-0.24305898,-0.04979924,0.968895,0.011169434,-0.9284668,-0.4038086,-0.033203125,-0.013671875,-9.765625E-4,4.6137996,-5.0320745,-1.0309987,20.059132,-0.94488525,-0.09753418,-0.19366455,-0.052734375,0.06542969,0.017578125,1.1966491,-6.2908616,-57.999416,18.568617,0.5783081,0.38690186,0.7501831,-0.015625,-0.022460938,0.028320312,15.229126,-8.377955,-129.95174,16.541246,0.0,0.0,0.0,0.0,0.0,0.0,0.0,4.2064905,-130.43803,32.08306,0.0,0.0,0.0,0.0,0.0,0.0,0.0,0.24305898,0.04979924,-0.968895,-0.051086426,-0.99871826,-0.1843872,0.29785156,-0.028320312,0.046875,6.2991486,5.0320745,1.0309987,-20.059132,-0.9782715,0.022644043,-0.06896973,-0.09375,0.13574219,0.09863281,1.8693833,4.3370404,-55.90193,-17.323761,0.46929932,-0.5687256,0.78149414,-0.0234375,0.024414062,0.07324219,2.6231618,2.4659934,-127.69126,-12.02414,0.0,0.0,0.0,0.0,0.0,0.0,0.0,19.208378,-127.80009,-1.077898,0.0,0.0,0.0,0.0,0.0,0.0,0.0,-2.5965865,44.90159,1.6564654,
0.4453124867286536,19,-0.07751465,-0.9716797,0.32574463,-0.095703125,0.022460938,0.047851562,0.0,0.0,0.0,0.0,0.0,0.0,0.0,0.0,0.0,0.0,0.0,-0.24177226,-0.050638415,0.969155,0.011169434,-0.92370605,-0.38879395,-0.033203125,-0.013671875,-9.765625E-4,4.6624947,-5.0054355,-1.0483721,20.064512,-0.9798584,-0.05419922,-0.18963623,-0.034179688,0.06542969,0.0546875,1.1791878,-6.302023,-58.019657,18.532728,0.5376587,0.40844727,0.7655029,-0.034179688,-0.0029296875,0.0087890625,15.202555,-8.487837,-129.97438,16.623041,0.0,0.0,0.0,0.0,0.0,0.0,0.0,4.108758,-130.45882,32.1537,0.0,0.0,0.0,0.0,0.0,0.0,0.0,0.24177226,0.050638415,-0.969155,-0.085876465,-1.0410767,-0.2345581,0.18457031,-0.064453125,0.028320312,6.35033,5.0054355,1.0483721,-20.064512,-1.0083008,0.028625488,-0.07220459,-0.24316406,0.13574219,0.10058594,2.2726226,4.6435456,-55.879223,-17.06753,0.46044922,-0.55267334,0.7848511,-0.0048828125,0.043945312,0.0546875,2.6138926,2.4490595,-127.66043,-11.722343,0.0,0.0,0.0,0.0,0.0,0.0,0.0,19.179058,-127.78361,-0.75948715,0.0,0.0,0.0,0.0,0.0,0.0,0.0,-2.604421,44.898838,1.69625,
0.46874998603016166,20,-0.06762695,-0.99523926,0.31970215,-0.07421875,-0.03515625,0.046875,0.0,0.0,0.0,0.0,0.0,0.0,0.0,0.0,0.0,0.0,0.0,-0.24097443,-0.052576557,0.9692143,-0.020507812,-0.9437866,-0.38079834,-0.033203125,-0.032226562,-9.765625E-4,4.7115192,-4.9889174,-1.0884978,20.06574,-0.9347534,-0.08557129,-0.15130615,-0.051757812,0.08496094,-9.765625E-4,1.2004043,-6.2894764,-58.066925,18.542599,0.5466919,0.4126587,0.7435303,0.0029296875,-0.00390625,-0.0087890625,15.1428585,-8.534883,-130.02077,16.724436,0.0,0.0,0.0,0.0,0.0,0.0,0.0,4.067362,-130.49551,32.249657,0.0,0.0,0.0,0.0,0.0,0.0,0.0,0.24097443,0.052576557,-0.9692143,-0.042907715,-0.9850464,-0.19622803,0.24121094,-0.08203125,0.083984375,6.5233874,4.9889174,1.0884978,-20.06574,-0.9992676,0.009887695,-0.05871582,-0.30078125,0.2109375,0.15820312,2.60812,4.8716097,-55.82318,-16.826565,0.45733643,-0.5513916,0.7739868,0.051757812,0.043945312,0.03515625,2.911209,2.42399,-127.60336,-11.538452,0.0,0.0,0.0,0.0,0.0,0.0,0.0,19.146194,-127.73386,-0.5639162,0.0,0.0,0.0,0.0,0.0,0.0,0.0,-2.626445,44.892643,1.7822627,
0.4921874853316697,21,-0.03918457,-0.95654297,0.32977295,-0.1328125,-0.015625,0.06640625,0.0,0.0,0.0,0.0,0.0,0.0,0.0,0.0,0.0,0.0,0.0,-0.24238044,-0.05522731,0.96865094,0.006958008,-0.9286499,-0.36987305,0.0234375,-0.0703125,-0.020507812,4.8733897,-5.0180254,-1.1433764,20.05408,-0.95666504,-0.11859131,-0.18005371,-0.013671875,0.103515625,-9.765625E-4,1.3223424,-6.303996,-58.118454,18.543468,0.54260254,0.41394043,0.7345581,-0.015625,-0.00390625,0.009765625,15.164221,-8.691176,-130.0702,16.739315,0.0,0.0,0.0,0.0,0.0,0.0,0.0,3.9189014,-130.54704,32.259727,0.0,0.0,0.0,0.0,0.0,0.0,0.0,0.24238044,0.05522731,-0.96865094,-0.04949951,-1.0263062,-0.19055176,0.3544922,-0.15625,0.064453125,6.6799345,5.0180254,1.1433764,-20.05408,-0.9611206,0.00390625,-0.05859375,-0.11230469,0.17285156,0.15429688,3.2046072,5.3475556,-55.748394,-16.578373,0.45806885,-0.5844116,0.78863525,0.0146484375,0.025390625,0.036132812,3.130691,2.6456246,-127.516235,-11.345391,0.0,0.0,0.0,0.0,0.0,0.0,0.0,19.363594,-127.66761,-0.3635111,0.0,0.0,0.0,0.0,0.0,0.0,0.0,-2.7496262,44.878815,1.8707261,
0.5156249846331779,22,-0.009155273,-0.96362305,0.31689453,-0.07421875,-0.053710938,0.046875,0.0,0.0,0.0,0.0,0.0,0.0,0.0,0.0,0.0,0.0,0.0,-0.24262378,-0.057046905,0.96857285,0.013977051,-0.9451904,-0.37109375,0.0234375,-0.032226562,0.018554688,4.9461713,-5.0230656,-1.1810479,20.052462,-0.9688721,-0.066345215,-0.1887207,-0.07128906,0.08496094,0.017578125,1.4069479,-6.281901,-58.15815,18.519152,0.536438,0.41119385,0.73065186,-0.0146484375,-0.00390625,0.045898438,15.08557,-8.770493,-130.10617,16.807924,0.0,0.0,0.0,0.0,0.0,0.0,0.0,3.849327,-130.58267,32.319683,0.0,0.0,0.0,0.0,0.0,0.0,0.0,0.24262378,0.057046905,-0.96857285,-0.08239746,-1.0130005,-0.17211914,0.4296875,-0.2841797,0.06347656,6.901517,5.0230656,1.1810479,-20.052462,-0.96606445,0.020568848,-0.10095215,-0.24414062,0.2109375,0.12011719,4.0883512,5.9500065,-55.685795,-16.173378,0.4580078,-0.56414795,0.7649536,-0.080078125,0.083984375,-0.018554688,3.3005517,2.873599,-127.451126,-11.035037,0.0,0.0,0.0,0.0,0.0,0.0,0.0,19.594894,-127.60499,-0.05866909,0.0,0.0,0.0,0.0,0.0,0.0,0.0,-2.820398,44.87549,1.9365729,
0.5390624839346859,23,-0.02130127,-0.97314453,0.30895996,-0.09375,-0.03515625,0.046875,0.0,0.0,0.0,0.0,0.0,0.0,0.0,0.0,0.0,0.0,0.0,-0.24318784,-0.05825649,0.9683157,0.016845703,-0.96868896,-0.3513794,0.0048828125,0.005859375,0.017578125,4.995477,-5.0347414,-1.20609,20.047136,-0.9725342,-0.087646484,-0.17010498,-0.08984375,0.10449219,0.017578125,1.5158156,-6.2313128,-58.17834,18.485537,0.5473633,0.39648438,0.7564697,-0.0146484375,0.015625,0.0087890625,14.922843,-8.795589,-130.1329,16.836048,0.0,0.0,0.0,0.0,0.0,0.0,0.0,3.8293438,-130.60909,32.34476,0.0,0.0,0.0,0.0,0.0,0.0,0.0,0.24318784,0.05825649,-0.9683157,-0.021362305,-0.9564209,-0.11230469,0.37304688,-0.3203125,0.0078125,7.072573,5.0347414,1.20609,-20.047136,-0.94195557,-0.028564453,-0.04248047,-0.31933594,0.24804688,0.12109375,4.9272814,6.53185,-55.62718,-15.857215,0.4911499,-0.5216675,0.78131104,-0.080078125,0.045898438,-0.11035156,3.8718126,3.154057,-127.38379,-10.813043,0.0,0.0,0.0,0.0,0.0,0.0,0.0,19.885141,-127.58044,0.14738655,0.0,0.0,0.0,0.0,0.0,0.0,0.0,-2.9064953,44.86666,1.969347,
0.562499983236194,24,-0.02319336,-0.9624634,0.31689453,-0.07324219,-0.07324219,0.028320312,0.0,0.0,0.0,0.0,0.0,0.0,0.0,0.0,0.0,0.0,0.0,-0.2449924,-0.060019344,0.9677994,0.004638672,-0.9647827,-0.3373413,0.0234375,-0.032226562,0.018554688,5.072384,-5.0721016,-1.2425866,20.03645,-0.9696045,-0.072753906,-0.122802734,-0.068359375,0.16210938,-0.01953125,1.6656566,-6.175604,-58.217808,18.466375,0.5536499,0.40942383,0.7474365,-0.03515625,-0.0029296875,-0.0087890625,14.839452,-8.82041,-130.1657,16.900887,0.0,0.0,0.0,0.0,0.0,0.0,0.0,3.8070278,-130.63698,32.407143,0.0,0.0,0.0,0.0,0.0,0.0,0.0,0.2449924,0.060019344,-0.9677994,-0.0064086914,-0.9626465,-0.10473633,0.4111328,-0.3203125,0.044921875,7.2877154,5.0721016,1.2425866,-20.03645,-0.95874023,0.079833984,-0.061828613,-0.31933594,0.24804688,0.19628906,5.9666038,7.2040567,-55.543842,-15.546524,0.45861816,-0.5529175,0.7988281,-0.080078125,0.083984375,-0.018554688,4.359861,3.360134,-127.27768,-10.516172,0.0,0.0,0.0,0.0,0.0,0.0,0.0,20.107357,-127.49173,0.41858673,0.0,0.0,0.0,0.0,0.0,0.0,0.0,-3.03394,44.858273,2.0139215,
0.5859374825377021,25,-0.01727295,-0.9810791,0.31384277,-0.07324219,-0.07324219,0.046875,0.0,0.0,0.0,0.0,0.0,0.0,0.0,0.0,0.0,0.0,0.0,-0.24661785,-0.06195482,0.96727943,0.0014038086,-0.97753906,-0.3125,0.061523438,-0.05078125,-9.765625E-4,5.03143,-5.1057544,-1.2826569,20.025684,-0.9597168,-0.06097412,-0.16796875,-0.06640625,0.21972656,-0.037109375,1.8892733,-6.0172267,-58.262623,18.49636,0.53985596,0.37878418,0.7575073,-0.055664062,-0.060546875,0.009765625,14.60597,-8.706739,-130.20769,17.11551,0.0,0.0,0.0,0.0,0.0,0.0,0.0,3.9234104,-130.6584,32.618603,0.0,0.0,0.0,0.0,0.0,0.0,0.0,0.24661785,0.06195482,-0.96727943,0.0045166016,-0.9663696,-0.17510986,0.31640625,-0.24609375,0.08300781,7.5588646,5.1057544,1.2826569,-20.025684,-0.96881104,7.9345703E-4,-0.11401367,-0.48828125,0.24804688,0.18066406,6.951273,7.714801,-55.46621,-15.261346,0.4423828,-0.51794434,0.75476074,-0.041992188,0.083984375,-0.018554688,4.985348,3.2968612,-127.17473,-10.358397,0.0,0.0,0.0,0.0,0.0,0.0,0.0,20.046793,-127.40842,0.57234764,0.0,0.0,0.0,0.0,0.0,0.0,0.0,-3.1328185,44.8494,2.073886,
0.6093749818392101,26,-0.005432129,-1.003418,0.2871704,-0.11035156,-0.111328125,0.009765625,0.0,0.0,0.0,0.0,0.0,0.0,0.0,0.0,0.0,0.0,0.0,-0.24885416,-0.063847326,0.9665407,-0.01586914,-0.96099854,-0.28137207,0.13769531,-0.068359375,-0.01953125,4.903407,-5.152054,-1.3218375,20.01039,-0.9319458,-0.019226074,-0.08508301,-0.028320312,0.21972656,-0.09375,2.2706409,-5.7044773,-58.310825,18.586302,0.55548096,0.40252686,0.7434082,-0.07714844,-0.13671875,-0.0078125,14.217226,-8.423196,-130.2628,17.360554,0.0,0.0,0.0,0.0,0.0,0.0,0.0,4.2255535,-130.7298,32.850506,0.0,0.0,0.0,0.0,0.0,0.0,0.0,0.24885416,0.063847326,-0.9665407,-0.010253906,-1.0193481,-0.15753174,0.29785156,-0.15527344,0.08300781,7.7578516,5.152054,1.3218375,-20.01039,-0.95007324,0.036254883,-0.12097168,-0.20703125,0.24804688,0.15722656,7.707953,8.155777,-55.38497,-15.0664835,0.46984863,-0.51989746,0.7699585,-0.041992188,0.16113281,0.0,5.679064,3.3732781,-127.092735,-10.457031,0.0,0.0,0.0,0.0,0.0,0.0,0.0,20.146156,-127.321686,0.4399681,0.0,0.0,0.0,0.0,0.0,0.0,0.0,-3.2808602,44.834934,2.1169667,
0.6328124811407182,27,0.004760742,-0.9831543,0.29907227,-0.07324219,-0.07324219,0.028320312,0.0,0.0,0.0,0.0,0.0,0.0,0.0,0.0,0.0,0.0,0.0,-0.25148627,-0.065160714,0.96577764,0.0020751953,-0.9963989,-0.24395752,0.21289062,-0.06738281,-0.0390625,4.6077666,-5.206546,-1.3490287,19.994593,-0.9534912,-0.021911621,-0.08514404,-0.10058594,0.31640625,-0.111328125,2.8807237,-5.1923895,-58.34199,18.725311,0.5656128,0.4116211,0.72143555,-0.11328125,-0.059570312,0.009765625,13.574716,-7.967348,-130.3003,17.659782,0.0,0.0,0.0,0.0,0.0,0.0,0.0,4.714692,-130.79617,33.11975,0.0,0.0,0.0,0.0,0.0,0.0,0.0,0.25148627,0.065160714,-0.96577764,-0.03137207,-0.953125,-0.13287354,0.22167969,-0.11816406,0.13964844,8.036365,5.206546,1.3490287,-19.994593,-0.9682007,0.06774902,-0.144104,-0.28222656,0.22949219,0.15820312,8.557081,8.443127,-55.319324,-14.780615,0.4500122,-0.5762329,0.7849121,-0.0048828125,0.12207031,-0.018554688,5.9752383,2.978034,-126.98448,-10.327198,0.0,0.0,0.0,0.0,0.0,0.0,0.0,19.76535,-127.18197,0.5466175,0.0,0.0,0.0,0.0,0.0,0.0,0.0,-3.4459598,44.82235,2.1268296,
0.6562499804422263,28,0.019104004,-0.93218994,0.26983643,-0.109375,-0.14941406,-0.009765625,0.0,0.0,0.0,0.0,0.0,0.0,0.0,0.0,0.0,0.0,0.0,-0.25545207,-0.06447046,0.96476,0.007751465,-1.0405273,-0.19958496,0.34570312,-0.06640625,-0.05859375,4.0512996,-5.28865,-1.3347385,19.973524,-0.9738159,-0.00982666,-0.07824707,-0.13476562,0.4140625,-0.20507812,3.7915788,-4.485181,-58.32965,18.905258,0.51239014,0.45031738,0.73986816,-0.09277344,-0.041015625,0.028320312,12.788934,-7.4130306,-130.27872,18.00933,0.0,0.0,0.0,0.0,0.0,0.0,0.0,5.2826576,-130.78568,33.458084,0.0,0.0,0.0,0.0,0.0,0.0,0.0,0.25545207,0.06447046,-0.96476,0.021484375,-0.9716797,-0.16552734,0.12792969,-0.044921875,0.046875,8.059124,5.28865,1.3347385,-19.973524,-0.9406128,0.012451172,-0.1651001,-0.375,0.2109375,0.17773438,9.207352,8.669865,-55.32105,-14.639734,0.43951416,-0.5262451,0.77667236,0.052734375,0.10253906,-9.765625E-4,6.501497,2.6363163,-126.95436,-10.390139,0.0,0.0,0.0,0.0,0.0,0.0,0.0,19.433846,-127.13568,0.46915245,0.0,0.0,0.0,0.0,0.0,0.0,0.0,-3.573321,44.815033,2.0486279,
0.6796874797437343,29,-0.009338379,-0.987854,0.29510498,-0.11425781,-0.015625,-0.026367188,0.0,0.0,0.0,0.0,0.0,0.0,0.0,0.0,0.0,0.0,0.0,-0.25793052,-0.06531497,0.96405363,0.003540039,-1.0388184,-0.15472412,0.47851562,-0.026367188,-0.09667969,3.3680182,-5.339962,-1.3522224,19.958899,-0.97998047,0.04107666,-0.07507324,-0.111328125,0.5292969,-0.31640625,5.10323,-3.5128307,-58.325394,19.045204,0.53704834,0.35656738,0.73254395,-0.0390625,-0.13671875,-0.0078125,11.999106,-6.8032255,-130.26295,18.348986,0.0,0.0,0.0,0.0,0.0,0.0,0.0,5.8997965,-130.76088,33.79152,0.0,0.0,0.0,0.0,0.0,0.0,0.0,0.25793052,0.06531497,-0.96405363,0.047302246,-0.9938965,-0.15527344,0.015625,0.06542969,0.047851562,7.867139,5.339962,1.3522224,-19.958899,-0.920166,-0.020263672,-0.20257568,-0.33789062,0.24804688,0.19628906,9.634006,8.745953,-55.322697,-14.830652,0.4794922,-0.5058594,0.8006592,-0.00390625,0.16015625,0.055664062,7.17999,2.2387505,-126.936066,-11.022461,0.0,0.0,0.0,0.0,0.0,0.0,0.0,19.043076,-127.113625,-0.17503834,0.0,0.0,0.0,0.0,0.0,0.0,0.0,-3.7303343,44.80319,2.0373888,
0.7031249790452424,30,0.01586914,-0.96343994,0.27264404,-0.07421875,-0.07324219,-0.045898438,0.0,0.0,0.0,0.0,0.0,0.0,0.0,0.0,0.0,0.0,0.0,-0.26076317,-0.064910576,0.9633424,-0.032470703,-1.0805054,-0.10205078,0.59277344,-0.12011719,-0.13476562,2.5844471,-5.398605,-1.3438501,19.944176,-0.9916992,0.07489014,-0.062194824,-0.21972656,0.6855469,-0.390625,6.765237,-2.3187866,-58.267273,19.274136,0.534729,0.4072876,0.7765503,0.078125,-0.10058594,0.10253906,11.032978,-6.122671,-130.17456,18.896955,0.0,0.0,0.0,0.0,0.0,0.0,0.0,6.586502,-130.70482,34.33484,0.0,0.0,0.0,0.0,0.0,0.0,0.0,0.26076317,0.064910576,-0.9633424,0.038269043,-0.9885864,-0.19659424,-0.09765625,0.26660156,0.048828125,7.555177,5.398605,1.3438501,-19.944176,-0.9370117,-0.009521484,-0.24871826,-0.13183594,0.20996094,0.24902344,10.041283,8.784613,-55.349205,-15.086063,0.41864014,-0.5119629,0.7822876,-0.080078125,0.140625,0.09277344,7.636662,1.7599344,-126.939995,-11.747209,0.0,0.0,0.0,0.0,0.0,0.0,0.0,18.569382,-127.0913,-0.9060068,0.0,0.0,0.0,0.0,0.0,0.0,0.0,-3.8467875,44.797077,1.9771824,
0.7265624783467505,31,0.019104004,-0.94525146,0.3022461,-0.07324219,-0.111328125,-0.06542969,0.0,0.0,0.0,0.0,0.0,0.0,0.0,0.0,0.0,0.0,0.0,-0.263302,-0.06353313,0.9627385,-0.055480957,-1.1227417,0.011230469,0.68847656,-0.46191406,-0.24804688,2.081777,-5.451166,-1.3153327,19.931671,-0.96954346,0.11785889,-0.03338623,-0.34472656,0.86035156,-0.57714844,8.450988,-1.2894206,-58.17193,19.44532,0.5635376,0.39379883,0.76831055,0.22949219,-0.19824219,0.17773438,10.034464,-5.8499904,-130.03839,19.465376,0.0,0.0,0.0,0.0,0.0,0.0,0.0,6.8007884,-130.64601,34.947273,0.0,0.0,0.0,0.0,0.0,0.0,0.0,0.263302,0.06353313,-0.9627385,-0.010620117,-0.96984863,-0.21240234,-0.26757812,0.359375,0.068359375,7.1910477,5.451166,1.3153327,-19.931671,-0.9696655,0.046813965,-0.22064209,-0.09375,0.20996094,0.17382812,10.211205,8.602892,-55.41774,-15.401737,0.46569824,-0.52978516,0.77197266,-0.080078125,0.10253906,0.111328125,7.8714795,1.0400896,-126.9665,-12.380126,0.0,0.0,0.0,0.0,0.0,0.0,0.0,17.842625,-127.1038,-1.5291576,0.0,0.0,0.0,0.0,0.0,0.0,0.0,-3.9469404,44.792477,1.876489,
0.7499999776482585,32,-0.021362305,-0.9817505,0.29022217,-0.052734375,-0.13085938,0.0087890625,0.0,0.0,0.0,0.0,0.0,0.0,0.0,0.0,0.0,0.0,0.0,-0.2664672,-0.061871916,0.96203154,-0.06567383,-1.1083374,0.05126953,0.89746094,-0.7832031,-0.4189453,1.8885479,-5.516698,-1.2809405,19.917036,-1.0404053,0.14453125,-0.06890869,-0.4716797,1.0361328,-0.70703125,10.336032,-0.28618908,-58.040714,19.528997,0.5579834,0.47320557,0.8203125,0.36035156,-0.33398438,0.32714844,8.842113,-5.8639393,-129.83102,19.990301,0.0,0.0,0.0,0.0,0.0,0.0,0.0,6.674898,-130.61009,35.555912,0.0,0.0,0.0,0.0,0.0,0.0,0.0,0.2664672,0.061871916,-0.96203154,-0.039794922,-0.977417,-0.16461182,-0.2109375,0.30371094,0.068359375,6.959903,5.516698,1.2809405,-19.917036,-0.9562378,0.07952881,-0.1531372,-0.07519531,0.20996094,0.19140625,10.341379,8.378307,-55.48569,-15.601198,0.46673584,-0.52075195,0.76605225,-0.080078125,0.1015625,0.14746094,8.07679,0.26009655,-126.980316,-12.752804,0.0,0.0,0.0,0.0,0.0,0.0,0.0,17.066048,-127.07177,-1.9050779,0.0,0.0,0.0,0.0,0.0,0.0,0.0,-3.971115,44.79667,1.7811099,
0.7734374769497666,33,0.019348145,-0.9142456,0.3300171,-0.11035156,-0.11230469,0.083984375,0.0,0.0,0.0,0.0,0.0,0.0,0.0,0.0,0.0,0.0,0.0,-0.27071476,-0.061394565,0.9608118,-0.1005249,-1.187439,0.025878906,1.21875,-0.6269531,-0.34277344,2.6637394,-5.604634,-1.2710578,19.891783,-1.06604,0.097229004,-0.17150879,-0.5996094,1.1152344,-0.91308594,13.177721,1.2122812,-57.871635,19.755085,0.5579834,0.47320557,0.8203125,0.36035156,-0.33398438,0.32714844,7.466661,-5.932246,-129.52515,20.511671,0.0,0.0,0.0,0.0,0.0,0.0,0.0,6.606591,-130.30421,36.077282,0.0,0.0,0.0,0.0,0.0,0.0,0.0,0.27071476,0.061394565,-0.9608118,1.8310547E-4,-0.98583984,-0.20288086,-0.2861328,0.24902344,-0.005859375,6.8736367,5.604634,1.2710578,-19.891783,-0.9810791,0.10107422,-0.21685791,-0.16796875,0.13574219,0.23046875,10.515616,8.191448,-55.51982,-15.728414,0.4083252,-0.5397339,0.7982178,-0.061523438,0.08300781,0.12890625,8.168156,-0.53444576,-126.94429,-12.903583,0.0,0.0,0.0,0.0,0.0,0.0,0.0,16.232395,-126.989845,-1.9978685,0.0,0.0,0.0,0.0,0.0,0.0,0.0,-4.052434,44.788998,1.7201575,
0.7968749762512747,34,-0.003112793,-0.975647,0.33850098,-0.1875,-0.11230469,0.083984375,0.0,0.0,0.0,0.0,0.0,0.0,0.0,0.0,0.0,0.0,0.0,-0.27182427,-0.06304228,0.96047527,-0.09161377,-1.3272705,0.13916016,1.6337891,-0.41210938,-0.26660156,4.2797008,-5.6276035,-1.3051707,19.884817,-1.1885376,0.09698486,-0.22113037,-0.59472656,1.1933594,-1.0634766,16.952787,3.0568314,-57.645065,20.09897,0.64782715,0.578125,0.8616333,0.17675781,-0.9863281,1.0,7.3666296,-6.4436026,-129.02805,20.67956,0.0,0.0,0.0,0.0,0.0,0.0,0.0,5.7432375,-130.45029,36.477978,0.0,0.0,0.0,0.0,0.0,0.0,0.0,0.27182427,0.06304228,-0.96047527,-4.8828125E-4,-0.9622803,-0.18682861,-0.36132812,0.2685547,0.049804688,6.9014883,5.6276035,1.3051707,-19.884817,-0.95251465,0.011413574,-0.1876831,-0.037109375,0.15429688,0.24707031,10.342521,7.757078,-55.525578,-16.006607,0.4703369,-0.51763916,0.8067627,-0.13671875,0.140625,0.16699219,8.55653,-1.3738575,-126.90292,-13.290435,0.0,0.0,0.0,0.0,0.0,0.0,0.0,15.400246,-126.90051,-2.394723,0.0,0.0,0.0,0.0,0.0,0.0,0.0,-4.128561,44.783688,1.7710222,
0.8203124755527827,35,0.0020751953,-1.0879517,0.31622314,-0.16796875,-0.14941406,-0.02734375,0.0,0.0,0.0,0.0,0.0,0.0,0.0,0.0,0.0,0.0,0.0,-0.27379155,-0.064237565,0.95975053,0.08337402,-1.3391113,0.31530762,2.0703125,-0.48339844,-0.34277344,6.7384844,-5.668335,-1.3299167,19.869812,-1.2096558,0.12713623,-0.31256104,-0.7441406,1.2148438,-1.2138672,21.959349,5.723819,-57.180992,20.523705,0.75183105,0.567749,0.8048706,0.8808594,-1.2236328,1.3359375,7.1270885,-6.5355663,-128.14441,20.628992,0.0,0.0,0.0,0.0,0.0,0.0,0.0,5.338684,-130.1079,36.606075,0.0,0.0,0.0,0.0,0.0,0.0,0.0,0.27379155,0.064237565,-0.95975053,-0.20263672,-1.0015259,-0.21356201,-0.4375,0.26953125,0.03125,7.2646337,5.668335,1.3299167,-19.869812,-0.9874878,0.20788574,-0.1184082,0.3935547,0.15429688,0.18359375,10.062082,7.205855,-55.525585,-16.027935,0.4336548,-0.6078491,0.80096436,-0.080078125,0.08300781,0.12890625,8.470926,-2.3438725,-126.84131,-13.181183,0.0,0.0,0.0,0.0,0.0,0.0,0.0,14.418613,-126.76992,-2.267662,0.0,0.0,0.0,0.0,0.0,0.0,0.0,-4.2745223,44.76601,1.7768482,
0.8437499748542908,36,0.013916016,-1.0952759,0.25610352,-0.14453125,-0.26464844,-0.06640625,0.0,0.0,0.0,0.0,0.0,0.0,0.0,0.0,0.0,0.0,0.0,-0.27785608,-0.06591476,0.9584607,-0.112854004,-1.0760498,-0.052734375,1.6132812,-0.58496094,-0.11230469,8.771381,-5.7524805,-1.3646396,19.843107,-1.1943359,0.10064697,-0.2506714,-1.0595703,1.3349609,-1.5146484,26.471415,7.725376,-56.739754,21.235195,0.5397949,0.40429688,0.9081421,0.37402344,-1.71875,1.7294922,6.7243247,-7.3617363,-127.153725,20.652042,0.0,0.0,0.0,0.0,0.0,0.0,0.0,4.0904083,-129.81618,36.833553,0.0,0.0,0.0,0.0,0.0,0.0,0.0,0.27785608,0.06591476,-0.9584607,-0.16156006,-1.0065308,-0.17376709,-0.47558594,-0.23925781,0.030273438,8.051716,5.7524805,1.3646396,-19.843107,-0.9833374,0.21173096,-0.15020752,-0.22460938,0.09863281,0.15625,9.796752,6.529057,-55.487694,-15.763855,0.4465332,-0.55267334,0.802124,-0.080078125,0.06347656,0.11035156,8.390681,-3.6519027,-126.70375,-12.544241,0.0,0.0,0.0,0.0,0.0,0.0,0.0,13.111137,-126.60024,-1.6296663,0.0,0.0,0.0,0.0,0.0,0.0,0.0,-4.4736795,44.746094,1.780343,
0.8671874741557989,37,0.07952881,-0.86431885,0.16497803,0.14355469,-0.20703125,0.04296875,0.0,0.0,0.0,0.0,0.0,0.0,0.0,0.0,0.0,0.0,0.0,-0.28991413,-0.063930385,0.9549548,-0.058532715,-1.100647,0.05029297,2.1591797,-0.043945312,0.17382812,11.262501,-6.002122,-1.3235571,19.770521,-1.1117554,-0.09185791,-0.30438232,-1.1542969,1.3359375,-1.4960938,31.601366,9.836371,-56.024998,22.36614,0.64715576,0.6912842,0.90771484,0.47460938,-2.3134766,2.069336,6.018713,-8.285447,-125.70819,20.907526,0.0,0.0,0.0,0.0,0.0,0.0,0.0,2.618331,-129.28162,37.292072,0.0,0.0,0.0,0.0,0.0,0.0,0.0,0.28991413,0.063930385,-0.9549548,0.014587402,-0.9647827,-0.14361572,-0.28710938,-0.3330078,-0.045898438,8.319988,6.002122,1.3235571,-19.770521,-0.95147705,-0.031799316,-0.12762451,-0.35546875,0.061523438,0.10253906,9.480168,6.33564,-55.531292,-15.622874,0.45483398,-0.55114746,0.8157959,0.0146484375,0.024414062,0.09082031,8.689415,-4.018873,-126.71344,-12.227619,0.0,0.0,0.0,0.0,0.0,0.0,0.0,12.727114,-126.60896,-1.2871456,0.0,0.0,0.0,0.0,0.0,0.0,0.0,-4.610005,44.73652,1.5953822,
0.890624973457307,38,0.13183594,-0.8491211,0.14538574,-0.017578125,-0.015625,-0.0087890625,0.0,0.0,0.0,0.0,0.0,0.0,0.0,0.0,0.0,0.0,0.0,-0.2916332,-0.06349077,0.9545251,0.12573242,-1.2846069,-0.071899414,2.5732422,0.6669922,0.4013672,14.511468,-6.037712,-1.3144557,19.76163,-1.1026001,-0.14874268,-0.30859375,-0.8173828,1.2353516,-1.3837891,37.208557,12.680321,-55.02924,23.445751,0.88861084,0.99450684,0.866333,0.81347656,-1.1308594,1.8154297,5.9166884,-8.262468,-123.89046,21.09293,0.0,0.0,0.0,0.0,0.0,0.0,0.0,1.9790173,-128.3008,37.699707,0.0,0.0,0.0,0.0,0.0,0.0,0.0,0.2916332,0.06349077,-0.9545251,0.020874023,-1.0181274,-0.14025879,-0.32421875,-0.059570312,-0.025390625,8.291619,6.037712,1.3144557,-19.76163,-0.9640503,0.019592285,-0.10101318,0.13183594,0.13574219,0.22558594,9.151929,6.1491404,-55.557327,-15.810299,0.43548584,-0.5392456,0.7885742,0.10839844,-0.052734375,0.034179688,8.82559,-4.1038294,-126.75941,-12.487944,0.0,0.0,0.0,0.0,0.0,0.0,0.0,12.632171,-126.695564,-1.5335693,0.0,0.0,0.0,0.0,0.0,0.0,0.0,-4.5944963,44.741726,1.5722779,
0.914062472758815,39,0.19763184,-1.2021484,0.07836914,-0.028320312,0.25390625,-0.22949219,0.0,0.0,0.0,0.0,0.0,0.0,0.0,0.0,0.0,0.0,0.0,-0.29900652,-0.06078736,0.9522299,-0.07684326,-1.0280151,-0.6342163,1.4599609,0.3095703,0.15234375,16.377703,-6.190363,-1.2584869,19.714111,-1.1317139,-0.28045654,-0.3348999,-0.6767578,0.92578125,-1.2363281,41.85382,14.787922,-54.091496,24.018394,0.12402344,0.9772339,0.8348999,-0.7753906,-0.19433594,0.84277344,5.2640657,-8.555452,-122.12996,20.622267,0.0,0.0,0.0,0.0,0.0,0.0,0.0,1.4227858,-126.65983,37.357113,0.0,0.0,0.0,0.0,0.0,0.0,0.0,0.29900652,0.06078736,-0.9522299,-0.053649902,-0.96850586,-0.1237793,-0.4375,0.25097656,0.0126953125,8.538769,6.190363,1.2584869,-19.714111,-0.9528198,0.08874512,-0.055908203,0.35546875,0.20996094,0.24023438,9.064752,6.049928,-55.61299,-15.86552,0.43695068,-0.58099365,0.79315186,0.08984375,-0.072265625,0.034179688,8.603958,-4.4431224,-126.77574,-12.481042,0.0,0.0,0.0,0.0,0.0,0.0,0.0,12.268293,-126.72641,-1.4896841,0.0,0.0,0.0,0.0,0.0,0.0,0.0,-5.0068097,44.698654,1.2812502,
0.9374999720603231,40,0.17669678,-1.3682861,0.18762207,-0.06640625,0.21582031,-0.30371094,0.0,0.0,0.0,0.0,0.0,0.0,0.0,0.0,0.0,0.0,0.0,-0.29179597,-0.05896867,0.95479184,0.032226562,-1.0531006,-0.24859619,1.7431641,0.3515625,0.13378906,17.352625,-6.0410805,-1.2208344,19.767153,-0.96221924,-0.40179443,-0.55133057,-0.09375,0.3203125,-0.7158203,44.422516,16.082472,-53.567936,24.242983,-0.42871094,1.1062012,0.8567505,0.22558594,0.045898438,0.80371094,6.1296387,-8.660242,-121.06824,19.988567,0.0,0.0,0.0,0.0,0.0,0.0,0.0,1.0307922,-125.31322,36.962814,0.0,0.0,0.0,0.0,0.0,0.0,0.0,0.29179597,0.05896867,-0.95479184,-0.044128418,-1.0070801,-0.12524414,-0.49414062,0.47070312,0.107421875,8.770799,6.0410805,1.2208344,-19.767153,-0.9842529,0.14105225,-0.052734375,0.16894531,0.20996094,0.2626953,9.003878,5.615435,-55.66085,-16.055414,0.4404297,-0.60046387,0.76904297,0.203125,-0.052734375,-0.00390625,8.27092,-5.2281537,-126.755135,-12.364237,0.0,0.0,0.0,0.0,0.0,0.0,0.0,11.460457,-126.73892,-1.3372612,0.0,0.0,0.0,0.0,0.0,0.0,0.0,-5.182995,44.6907,1.1761456,
0.9609374713618312,41,0.12036133,-1.0941162,0.21185303,0.22070312,0.29296875,-0.32421875,0.0,0.0,0.0,0.0,0.0,0.0,0.0,0.0,0.0,0.0,0.0,-0.28413564,-0.053744856,0.95733315,0.09063721,-1.0237427,-0.0803833,1.4990234,0.9970703,0.07324219,18.758915,-5.8824887,-1.1126852,19.819763,-0.6784668,-0.08282471,-0.39343262,0.5,-0.5546875,-0.140625,46.233685,17.863344,-52.789772,23.778984,-0.81085205,0.8085327,0.80859375,0.4375,0.47070312,-0.0703125,7.4136767,-6.885771,-120.218605,18.624224,0.0,0.0,0.0,0.0,0.0,0.0,0.0,2.634472,-124.391594,35.713432,0.0,0.0,0.0,0.0,0.0,0.0,0.0,0.28413564,0.053744856,-0.95733315,-0.03277588,-0.98480225,-0.097595215,-0.5126953,0.5449219,0.21875,9.041289,5.8824887,1.1126852,-19.819763,-0.9373779,0.0501709,-0.0814209,-0.01953125,0.20996094,0.19042969,8.748958,4.953457,-55.767525,-16.136028,0.44683838,-0.5126343,0.7815552,0.22265625,-0.0146484375,-0.021484375,8.2303915,-6.212283,-126.80569,-12.357752,0.0,0.0,0.0,0.0,0.0,0.0,0.0,10.450179,-126.84201,-1.2915697,0.0,0.0,0.0,0.0,0.0,0.0,0.0,-5.207358,44.689762,0.9633517,
0.9843749706633392,42,0.08087158,-0.82751465,0.1986084,0.3515625,0.40820312,-0.36132812,0.0,0.0,0.0,0.0,0.0,0.0,0.0,0.0,0.0,0.0,0.0,-0.27970865,-0.04255423,0.9592214,0.13238525,-0.8817749,-0.16998291,1.0419922,0.6669922,0.265625,19.679653,-5.790837,-0.88100445,19.858856,-0.64190674,0.025268555,-0.34161377,-0.4404297,-1.2431641,0.71777344,45.857853,18.974302,-52.11996,23.132864,-0.76220703,0.8668823,0.8980713,0.8388672,0.64160156,-0.4970703,7.748865,-4.1103,-120.13391,17.860687,0.0,0.0,0.0,0.0,0.0,0.0,0.0,5.272009,-124.25187,35.039375,0.0,0.0,0.0,0.0,0.0,0.0,0.0,0.27970865,0.04255423,-0.9592214,-0.045288086,-1.0146484,-0.17669678,-0.47460938,0.76171875,0.18261719,8.917181,5.790837,0.88100445,-19.858856,-0.93359375,0.08074951,-0.082214355,0.28027344,0.32128906,0.3173828,8.508263,4.463364,-55.998962,-16.255007,0.41851807,-0.5482178,0.81378174,0.22265625,-0.072265625,-0.022460938,8.066989,-6.9023433,-127.0127,-12.524447,0.0,0.0,0.0,0.0,0.0,0.0,0.0,9.710777,-127.10185,-1.3838053,0.0,0.0,0.0,0.0,0.0,0.0,0.0,-5.096244,44.711205,0.49747372,
1.0078124699648474,43,0.07940674,-0.9099121,0.2197876,0.0625,0.40820312,-0.37695312,0.0,0.0,0.0,0.0,0.0,0.0,0.0,0.0,0.0,0.0,0.0,-0.27307305,-0.03566871,0.96137124,0.030395508,-0.7593384,-0.13946533,0.81640625,0.6640625,0.20800781,20.764969,-5.6534586,-0.7384528,19.903364,-0.7185669,-0.206604,-0.31939697,-0.97753906,-1.8574219,1.3691406,44.36208,20.167725,-51.44679,23.29681,-0.28863525,0.8911133,1.0457153,0.9433594,1.21875,-1.1689453,6.8246107,0.19672012,-120.49928,18.927092,0.0,0.0,0.0,0.0,0.0,0.0,0.0,9.53911,-124.463066,36.164513,0.0,0.0,0.0,0.0,0.0,0.0,0.0,0.27307305,0.03566871,-0.96137124,-0.08892822,-0.9795532,-0.14501953,-0.5126953,0.7441406,0.1640625,9.170869,5.6534586,0.7384528,-19.903364,-0.977417,0.08947754,-0.14367676,0.12988281,0.32226562,0.30078125,8.447014,3.8724468,-56.132156,-16.336405,0.46191406,-0.53515625,0.79888916,0.22265625,-0.013671875,-0.07714844,7.881473,-7.9715796,-127.07366,-12.703229,0.0,0.0,0.0,0.0,0.0,0.0,0.0,8.604812,-127.260345,-1.5106401,0.0,0.0,0.0,0.0,0.0,0.0,0.0,-5.1228395,44.708706,0.20365953,
1.0312499692663555,44,0.11541748,-0.9258423,0.2098999,0.026367188,0.3310547,-0.32226562,0.0,0.0,0.0,0.0,0.0,0.0,0.0,0.0,0.0,0.0,0.0,-0.27516332,-0.032275617,0.96063936,0.12854004,-0.7802124,-0.089416504,0.8925781,0.7421875,0.15039062,21.390831,-5.6967335,-0.66820544,19.888214,-0.8150635,-0.3227539,-0.33203125,-0.46484375,-2.3076172,1.8173828,41.997562,21.14356,-50.85111,23.271925,0.03527832,0.9022827,1.05896,0.7607422,1.7402344,-1.8222656,6.240202,5.3074837,-121.022736,20.044178,0.0,0.0,0.0,0.0,0.0,0.0,0.0,14.789061,-124.609474,37.287117,0.0,0.0,0.0,0.0,0.0,0.0,0.0,0.27516332,0.032275617,-0.96063936,-0.07562256,-0.96032715,-0.10852051,-0.43652344,0.45117188,0.06933594,9.707983,5.6967335,0.66820544,-19.888214,-0.9069824,0.024414062,-0.10021973,0.12988281,0.32226562,0.30078125,8.521593,3.63761,-56.188972,-16.340763,0.41864014,-0.5362549,0.8088989,0.18457031,0.06347656,-0.057617188,8.035583,-8.624088,-127.06805,-12.89232,0.0,0.0,0.0,0.0,0.0,0.0,0.0,7.923044,-127.31467,-1.657958,0.0,0.0,0.0,0.0,0.0,0.0,0.0,-5.478876,44.65575,-0.06900978,
1.0546874685678636,45,0.14996338,-0.86639404,0.18463135,-0.14648438,0.31152344,-0.28320312,0.0,0.0,0.0,0.0,0.0,0.0,0.0,0.0,0.0,0.0,0.0,-0.27228782,-0.028749472,0.9618463,0.13305664,-0.82458496,7.9345703E-4,0.83496094,0.8935547,0.20703125,22.171183,-5.637202,-0.59520316,19.913198,-0.9284668,-0.22888184,-0.26507568,0.18457031,-2.663086,2.171875,39.04732,22.252115,-50.202198,23.228996,0.39294434,0.8209839,0.94903564,0.53027344,1.8408203,-2.1376953,6.4397373,11.411749,-121.3625,21.121948,0.0,0.0,0.0,0.0,0.0,0.0,0.0,21.171757,-124.405754,38.3133,0.0,0.0,0.0,0.0,0.0,0.0,0.0,0.27228782,0.028749472,-0.9618463,-0.062683105,-0.9692383,-0.13549805,-0.55078125,0.36132812,0.06933594,10.215134,5.637202,0.59520316,-19.913198,-0.95965576,0.10632324,-0.10913086,0.24121094,0.43359375,0.41210938,8.597016,3.2635136,-56.256866,-16.48048,0.4621582,-0.56030273,0.7668457,0.22265625,0.043945312,-0.05859375,8.0938835,-9.473801,-127.0609,-13.249554,0.0,0.0,0.0,0.0,0.0,0.0,0.0,7.0409184,-127.35247,-1.9688988,0.0,0.0,0.0,0.0,0.0,0.0,0.0,-5.762928,44.63109,-0.29740202,
1.0781249678693716,46,0.13580322,-0.8768921,0.18066406,-0.2607422,0.2919922,-0.2265625,0.0,0.0,0.0,0.0,0.0,0.0,0.0,0.0,0.0,0.0,0.0,-0.26753843,-0.027947828,0.9631635,0.030944824,-0.8147583,0.16784668,0.66503906,0.77734375,0.16894531,22.703033,-5.5388746,-0.5786067,19.94047,-0.9383545,-0.10723877,-0.25567627,0.5214844,-2.6865234,2.4169922,35.488007,23.215527,-49.694427,23.131268,0.56073,0.7041626,0.78082275,0.19433594,1.5195312,-2.2080078,7.259582,17.879608,-121.508064,22.682667,0.0,0.0,0.0,0.0,0.0,0.0,0.0,28.010372,-123.97031,39.754623,0.0,0.0,0.0,0.0,0.0,0.0,0.0,0.26753843,0.027947828,-0.9631635,-0.054870605,-0.9104614,-0.11236572,-0.79589844,0.18164062,0.013671875,11.075868,5.5388746,0.5786067,-19.94047,-0.9412842,0.064819336,-0.11694336,-0.020507812,0.43359375,0.37890625,8.624069,2.6109264,-56.26411,-16.710423,0.42578125,-0.48895264,0.76342773,0.24121094,0.06347656,-0.11425781,8.332982,-10.866897,-126.93506,-13.606279,0.0,0.0,0.0,0.0,0.0,0.0,0.0,5.639804,-127.284775,-2.3134127,0.0,0.0,0.0,0.0,0.0,0.0,0.0,-6.0995064,44.583855,-0.4005865,
1.1015624671708797,47,0.14147949,-0.9077759,0.13616943,-0.28027344,0.2919922,-0.2265625,0.0,0.0,0.0,0.0,0.0,0.0,0.0,0.0,0.0,0.0,0.0,-0.26482573,-0.028617283,0.9636568,-0.1104126,-0.7769165,0.27056885,0.5517578,0.4892578,0.18945312,22.956152,-5.4827127,-0.5924664,19.950684,-0.9159546,-0.04748535,-0.2189331,0.65625,-2.6113281,2.4560547,31.635103,23.959713,-49.302505,23.119488,0.4210205,0.5761719,0.62719727,-0.3720703,0.33691406,-1.7685547,8.809639,24.314997,-121.30616,24.476696,0.0,0.0,0.0,0.0,0.0,0.0,0.0,34.87168,-123.32072,41.34654,0.0,0.0,0.0,0.0,0.0,0.0,0.0,0.26482573,0.028617283,-0.9636568,0.024597168,-0.9711914,-0.0914917,-0.94628906,0.037109375,-0.07910156,12.139405,5.4827127,0.5924664,-19.950684,-0.93896484,0.06762695,-0.1784668,-0.020507812,0.45214844,0.43554688,8.525142,1.9113426,-56.22709,-17.054846,0.47509766,-0.4975586,0.8395996,0.203125,0.043945312,-0.11328125,8.770552,-12.268427,-126.771126,-14.19122,0.0,0.0,0.0,0.0,0.0,0.0,0.0,4.2645016,-127.200134,-2.9419546,0.0,0.0,0.0,0.0,0.0,0.0,0.0,-6.514862,44.51403,-0.46845746,
1.1249999664723878,48,0.1831665,-0.96240234,0.075805664,-0.35742188,0.31054688,-0.18847656,0.0,0.0,0.0,0.0,0.0,0.0,0.0,0.0,0.0,0.0,0.0,-0.27304542,-0.031544488,0.96086526,-0.16491699,-0.7507324,0.22332764,0.19140625,0.2939453,0.20898438,22.400291,-5.652886,-0.6530688,19.892889,-0.85705566,0.06567383,-0.13653564,0.7167969,-2.4208984,2.647461,27.679283,24.221457,-49.098995,23.160988,0.9686279,0.57470703,0.9107666,-0.13574219,-0.77441406,-1.5341797,11.623831,30.06476,-120.7961,26.469131,0.0,0.0,0.0,0.0,0.0,0.0,0.0,41.169575,-122.7976,42.986298,0.0,0.0,0.0,0.0,0.0,0.0,0.0,0.27304542,0.031544488,-0.96086526,0.017211914,-0.99121094,-0.18737793,-1.2480469,0.057617188,-0.078125,14.123578,5.652886,0.6530688,-19.892889,-0.9319458,0.062683105,-0.17266846,0.015625,0.5263672,0.45410156,8.101497,1.0238199,-56.114788,-17.558878,0.47351074,-0.4758911,0.8477783,0.12792969,0.10253906,-0.11230469,9.378339,-13.978136,-126.50731,-15.109482,0.0,0.0,0.0,0.0,0.0,0.0,0.0,2.57308,-126.97418,-3.8865652,0.0,0.0,0.0,0.0,0.0,0.0,0.0,-7.3309493,44.36729,-0.6266626,
1.1484374657738958,49,0.1638794,-0.99346924,0.079589844,-0.32128906,0.36816406,-0.16894531,0.0,0.0,0.0,0.0,0.0,0.0,0.0,0.0,0.0,0.0,0.0,-0.28128934,-0.035740186,0.9584536,-0.20819092,-0.7550659,0.36993408,-0.111328125,0.46191406,0.2841797,21.256552,-5.8235617,-0.7399327,19.842962,-0.871521,0.03753662,-0.072753906,0.71191406,-2.1103516,2.2167969,23.502817,24.022205,-49.200005,23.22369,1.968811,0.76226807,0.8597412,-0.10058594,0.8955078,-2.7919922,14.294472,34.984974,-120.20089,28.271606,0.0,0.0,0.0,0.0,0.0,0.0,0.0,46.724022,-122.08014,44.358574,0.0,0.0,0.0,0.0,0.0,0.0,0.0,0.28128934,0.035740186,-0.9584536,0.0052490234,-0.98187256,-0.2276001,-1.078125,0.12988281,-0.022460938,16.330643,5.8235617,0.7399327,-19.842962,-0.9170532,0.09118652,-0.18859863,0.016601562,0.5078125,0.5097656,7.592359,0.044528484,-55.942112,-18.101103,0.4550171,-0.45269775,0.79974365,0.08984375,0.14160156,-0.07519531,10.041635,-15.784288,-126.16643,-16.051468,0.0,0.0,0.0,0.0,0.0,0.0,0.0,0.7706337,-126.65521,-4.836298,0.0,0.0,0.0,0.0,0.0,0.0,0.0,-8.191479,44.219612,-0.75513196,
1.171874965075404,50,0.20275879,-0.9085083,0.13616943,-0.20800781,0.4638672,-0.15136719,0.0,0.0,0.0,0.0,0.0,0.0,0.0,0.0,0.0,0.0,0.0,-0.2838985,-0.036518816,0.95788795,-0.14813232,-0.8583374,0.4553833,0.078125,0.75097656,0.26464844,21.253366,-5.8775787,-0.7560529,19.831251,-0.9517822,-0.07543945,-0.057861328,0.62890625,-1.8193359,1.9189453,20.736998,24.450169,-48.825203,24.269192,0.7147217,0.1217041,0.55303955,-0.5390625,1.3740234,-2.390625,14.607081,39.55223,-118.986465,30.229221,0.0,0.0,0.0,0.0,0.0,0.0,0.0,51.96225,-120.08454,45.870155,0.0,0.0,0.0,0.0,0.0,0.0,0.0,0.2838985,0.036518816,-0.95788795,-0.0014038086,-0.9498291,-0.29833984,-0.7763672,0.20019531,0.05078125,17.937971,5.8775787,0.7560529,-19.831251,-0.88378906,0.06744385,-0.20343018,0.08984375,0.6191406,0.60253906,7.4307294,-0.78883505,-55.84707,-18.60619,0.47650146,-0.45465088,0.8220215,0.07128906,0.16015625,-0.01953125,10.856487,-17.520582,-125.87036,-17.13304,0.0,0.0,0.0,0.0,0.0,0.0,0.0,-0.94807625,-126.378914,-5.945629,0.0,0.0,0.0,0.0,0.0,0.0,0.0,-8.755529,44.118668,-0.9129672,
1.195312464376912,51,0.19567871,-0.92926025,0.16461182,-0.26953125,0.57910156,-0.14941406,0.0,0.0,0.0,0.0,0.0,0.0,0.0,0.0,0.0,0.0,0.0,-0.2816738,-0.03690964,0.9587353,-0.14660645,-0.93621826,0.47857666,0.30566406,0.8486328,0.16894531,21.5543,-5.831521,-0.764144,19.848791,-0.8875122,0.07800293,-0.13464355,0.69433594,-1.5693359,1.7900391,18.791162,25.167255,-48.336052,24.960003,1.1398315,0.17132568,0.5026245,-0.1953125,0.94433594,-1.4248047,15.512497,43.63724,-117.62354,31.655994,0.0,0.0,0.0,0.0,0.0,0.0,0.0,56.44564,-118.14528,47.01024,0.0,0.0,0.0,0.0,0.0,0.0,0.0,0.2816738,0.03690964,-0.9587353,-0.016296387,-0.9345703,-0.3334961,-0.85253906,0.3095703,0.051757812,19.403128,5.831521,0.764144,-19.848791,-0.9483032,0.16101074,-0.2645874,0.16503906,0.65625,0.6953125,7.640336,-1.6636224,-55.745148,-19.109968,0.4784546,-0.4206543,0.85705566,0.051757812,0.06347656,-0.01953125,11.607447,-19.682653,-125.4595,-18.059464,0.0,0.0,0.0,0.0,0.0,0.0,0.0,-3.1014442,-125.999916,-6.8835297,0.0,0.0,0.0,0.0,0.0,0.0,0.0,-9.232494,44.02811,-1.0174756,
1.21874996367842,52,0.1828003,-1.0413208,0.13934326,-0.4267578,0.63671875,-0.18457031,0.0,0.0,0.0,0.0,0.0,0.0,0.0,0.0,0.0,0.0,0.0,-0.278464,-0.039149154,0.9593633,-0.17565918,-1.0446777,0.47381592,0.3251953,0.69628906,0.111328125,21.245243,-5.765067,-0.8105089,19.861794,-0.83880615,0.1671753,0.0026855469,0.49902344,-1.2568359,1.4355469,16.67763,25.62482,-48.14196,24.799423,0.9564209,0.13726807,0.36950684,-0.5566406,0.7705078,-0.7939453,16.648296,47.1907,-116.431656,32.364906,0.0,0.0,0.0,0.0,0.0,0.0,0.0,60.208275,-116.4912,47.533863,0.0,0.0,0.0,0.0,0.0,0.0,0.0,0.278464,0.039149154,-0.9593633,-0.053527832,-0.9406738,-0.3399048,-0.96484375,0.34765625,0.07128906,21.234865,5.765067,0.8105089,-19.861794,-0.9401245,0.16973877,-0.30633545,0.051757812,0.6933594,0.67871094,7.786035,-2.7841606,-55.545063,-19.612272,0.46868896,-0.4710083,0.86083984,-0.080078125,0.083984375,-0.018554688,12.58329,-22.281391,-124.86577,-19.039684,0.0,0.0,0.0,0.0,0.0,0.0,0.0,-5.684147,-125.42365,-7.890974,0.0,0.0,0.0,0.0,0.0,0.0,0.0,-9.798176,43.895092,-1.0527637,
1.242187462979928,53,0.17907715,-1.0162354,0.17785645,-0.15625,0.65625,-0.14941406,0.0,0.0,0.0,0.0,0.0,0.0,0.0,0.0,0.0,0.0,0.0,-0.27283734,-0.04043481,0.9612783,-0.09631348,-1.0444946,0.4524536,0.24902344,0.5810547,0.15039062,21.065784,-5.6485777,-0.8371262,19.901442,-0.9086914,0.17321777,0.04284668,0.005859375,-0.8066406,0.96875,15.160773,26.04903,-47.984123,24.656382,0.9345703,-0.061523438,0.319458,-0.7763672,0.059570312,0.15625,17.790207,49.887917,-115.4445,32.82263,0.0,0.0,0.0,0.0,0.0,0.0,0.0,63.258698,-115.37432,47.66714,0.0,0.0,0.0,0.0,0.0,0.0,0.0,0.27283734,0.04043481,-0.9612783,-0.042663574,-0.95043945,-0.39349365,-0.9277344,0.3095703,-0.022460938,22.853954,5.6485777,0.8371262,-19.901442,-0.9538574,0.1274414,-0.29553223,0.08984375,0.71191406,0.6777344,7.8600254,-3.9639711,-55.351437,-20.06546,0.49157715,-0.47924805,0.84729004,-0.11816406,-0.01171875,-0.09277344,13.633852,-24.85009,-124.265015,-20.11739,0.0,0.0,0.0,0.0,0.0,0.0,0.0,-8.245214,-124.84532,-8.978376,0.0,0.0,0.0,0.0,0.0,0.0,0.0,-10.195963,43.820133,-1.050663,
1.2656249622814362,54,0.24102783,-1.0548096,0.15008545,-0.13671875,0.61816406,-0.16894531,0.0,0.0,0.0,0.0,0.0,0.0,0.0,0.0,0.0,0.0,0.0,-0.2681132,-0.03891714,0.9624898,-0.09106445,-1.0317383,0.42663574,0.3623047,0.6015625,0.15039062,21.19043,-5.5507736,-0.80570525,19.926521,-0.8779907,0.066345215,0.03161621,-0.24023438,-0.3203125,0.46484375,14.73209,26.526405,-47.692158,24.609459,1.7355957,0.028686523,0.3746338,0.056640625,0.4736328,0.00390625,18.565517,51.457634,-114.696625,33.2314,0.0,0.0,0.0,0.0,0.0,0.0,0.0,64.82141,-114.56054,48.114662,0.0,0.0,0.0,0.0,0.0,0.0,0.0,0.2681132,0.03891714,-0.9624898,-0.080322266,-1.0618896,-0.40478516,-0.98339844,0.3828125,-0.040039062,24.424437,5.5507736,0.80570525,-19.926521,-1.0166626,0.15777588,-0.39208984,0.08886719,0.8046875,0.7910156,7.883838,-5.260295,-55.160217,-20.525518,0.040222168,-0.4885254,0.92852783,-0.32714844,-0.3779297,0.036132812,14.687467,-27.637623,-123.60579,-21.230614,0.0,0.0,0.0,0.0,0.0,0.0,0.0,-11.0616,-124.2193,-10.059313,0.0,0.0,0.0,0.0,0.0,0.0,0.0,-10.429583,43.75499,-1.1361055,
1.2890624615829442,55,0.23034668,-1.15448,0.15344238,-0.09863281,0.65625,-0.09472656,0.0,0.0,0.0,0.0,0.0,0.0,0.0,0.0,0.0,0.0,0.0,-0.2526815,-0.04084089,0.9667523,-0.08758545,-1.1116333,0.45776367,0.36328125,0.4111328,0.13183594,21.557081,-5.23129,-0.8455329,20.01477,-0.9417114,-0.054992676,0.0072021484,-0.21679688,0.203125,-0.2265625,15.435325,27.241856,-47.473576,24.59112,1.1455688,-0.2062378,0.10595703,-0.36914062,0.6044922,0.7597656,17.553326,51.898464,-114.63034,32.80841,0.0,0.0,0.0,0.0,0.0,0.0,0.0,65.09086,-114.20938,47.838326,0.0,0.0,0.0,0.0,0.0,0.0,0.0,0.2526815,0.04084089,-0.9667523,0.09729004,-1.2871704,-0.35247803,-0.83203125,0.453125,-0.18945312,25.715153,5.23129,0.8455329,-20.01477,-1.2195435,-0.010986328,-0.22290039,-0.005859375,0.80566406,0.62402344,7.8035097,-6.672597,-54.88611,-21.28762,0.61260986,-0.29107666,1.0176392,-0.234375,-0.9160156,-0.31835938,15.105359,-30.291698,-122.903824,-22.69064,0.0,0.0,0.0,0.0,0.0,0.0,0.0,-13.763588,-123.7815,-11.458724,0.0,0.0,0.0,0.0,0.0,0.0,0.0,-10.537857,43.742283,-0.9063823,
1.3124999608844523,56,0.22912598,-1.357544,0.21820068,0.06347656,0.4453125,-0.061523438,0.0,0.0,0.0,0.0,0.0,0.0,0.0,0.0,0.0,0.0,0.0,-0.23882073,-0.042038914,0.97028655,-0.14447021,-1.1984253,0.6047363,0.47753906,0.25976562,-0.001953125,22.288336,-4.944329,-0.87033576,20.08794,-1.0377197,-0.04168701,0.0059814453,0.10644531,0.74121094,-0.6152344,17.565945,28.054104,-47.14712,24.516273,1.8428345,-1.0488892,-1.1782227,0.37597656,-0.6923828,2.3828125,17.180384,50.92273,-115.06966,31.537247,0.0,0.0,0.0,0.0,0.0,0.0,0.0,63.70127,-114.76207,46.92305,0.0,0.0,0.0,0.0,0.0,0.0,0.0,0.23882073,0.042038914,-0.97028655,-0.085876465,-1.2021484,-0.13232422,-0.7949219,0.32617188,-0.059570312,26.529581,4.944329,0.87033576,-20.08794,-1.2099609,0.14593506,-0.17584229,0.19824219,1.0664062,0.8652344,8.480658,-7.801946,-54.656002,-21.919739,0.4050293,-0.4814453,1.0254517,-0.2734375,-1.4951172,-0.37695312,15.209143,-33.242264,-121.99312,-24.041513,0.0,0.0,0.0,0.0,0.0,0.0,0.0,-16.802086,-123.314896,-12.725578,0.0,0.0,0.0,0.0,0.0,0.0,0.0,-10.478943,43.763554,-0.683115,
1.3359374601859604,57,0.1453247,-1.5556641,0.18652344,0.27539062,0.42578125,-0.13769531,0.0,0.0,0.0,0.0,0.0,0.0,0.0,0.0,0.0,0.0,0.0,-0.22727919,-0.03750168,0.9732081,-0.2699585,-1.99646,1.467041,2.5595703,0.8388672,-0.09765625,24.044407,-4.705384,-0.77640134,20.148424,-1.2475586,-0.3609619,-0.50878906,-0.66503906,2.1640625,-2.428711,21.969147,29.533154,-46.17609,24.177357,1.999939,1.22406,1.2642822,-0.3095703,-2.9365234,2.0390625,18.531271,48.978996,-115.214676,30.681423,0.0,0.0,0.0,0.0,0.0,0.0,0.0,61.445953,-116.11349,46.297115,0.0,0.0,0.0,0.0,0.0,0.0,0.0,0.22727919,0.03750168,-0.9732081,-0.18481445,-1.3265991,-0.080444336,-0.9082031,0.21875,-0.059570312,27.423126,4.705384,0.77640134,-20.148424,-1.2161865,0.117614746,-0.09460449,-0.17871094,1.2158203,0.6855469,8.975771,-9.15184,-54.46725,-22.438414,0.4119873,-0.5518799,1.0167236,-0.21875,-2.1503906,-0.49316406,14.827726,-36.487267,-121.01654,-25.589632,0.0,0.0,0.0,0.0,0.0,0.0,0.0,-20.239567,-123.03612,-14.098856,0.0,0.0,0.0,0.0,0.0,0.0,0.0,-10.2450285,43.81713,-0.70412993,
1.3593749594874684,58,0.011169434,-1.604187,0.12225342,0.8457031,0.10058594,-0.18359375,0.0,0.0,0.0,0.0,0.0,0.0,0.0,0.0,0.0,0.0,0.0,-0.22491199,-0.02766401,0.974081,-0.21740723,-0.9221802,-0.37652588,-0.7470703,0.20703125,-0.3857422,25.232456,-4.6563754,-0.5727311,20.166498,-1.3565063,0.29693604,-0.22662354,0.51171875,1.4511719,-1.0400391,26.252794,30.285362,-45.498505,23.32312,-0.8100586,1.2663574,1.2492676,-0.01953125,-0.6816406,1.3291016,17.685036,45.603745,-115.65878,28.70047,0.0,0.0,0.0,0.0,0.0,0.0,0.0,57.862133,-117.07211,44.443966,0.0,0.0,0.0,0.0,0.0,0.0,0.0,0.22491199,0.02766401,-0.974081,-0.14624023,-1.3739014,-0.030151367,-0.62597656,0.2529297,0.032226562,27.983334,4.6563754,0.5727311,-20.166498,-1.2489624,-0.08728027,-0.038513184,-0.8173828,1.4033203,0.73535156,9.916809,-10.097382,-54.423416,-22.810799,0.41711426,-0.58044434,1.052124,-0.35351562,-2.9375,-0.84765625,13.884482,-39.508003,-120.00365,-27.234707,0.0,0.0,0.0,0.0,0.0,0.0,0.0,-23.593546,-123.009346,-15.496353,0.0,0.0,0.0,0.0,0.0,0.0,0.0,-9.883465,43.89326,-1.0354846,
1.3828124587889765,59,0.13476562,-1.151001,0.11804199,1.2363281,0.0234375,0.052734375,0.0,0.0,0.0,0.0,0.0,0.0,0.0,0.0,0.0,0.0,0.0,-0.22599736,-0.007475652,0.9742138,-0.2869873,-0.5917969,-0.5534668,-0.9902344,-1.7412109,-0.80078125,24.01919,-4.678846,-0.15476903,20.169245,-0.79748535,-0.25378418,-0.30413818,-0.55859375,1.1728516,-0.98828125,25.974691,28.035986,-46.729805,23.351284,0.93499756,0.8724365,0.30615234,-1.3535156,0.055664062,1.3574219,16.338924,40.26303,-117.49909,28.683731,0.0,0.0,0.0,0.0,0.0,0.0,0.0,52.266365,-118.8246,44.63082,0.0,0.0,0.0,0.0,0.0,0.0,0.0,0.22599736,0.007475652,-0.9742138,0.07147217,-1.52948,0.097229004,-0.36132812,0.7236328,0.051757812,27.173792,4.678846,0.15476903,-20.169245,-1.3743896,-0.3805542,0.074157715,-0.7060547,1.6259766,1.0146484,11.646961,-10.66143,-54.666153,-23.157999,0.44885254,-0.6680298,1.0297241,-0.8671875,-3.9335938,-1.4394531,12.321953,-42.585857,-118.94852,-29.007732,0.0,0.0,0.0,0.0,0.0,0.0,0.0,-27.143726,-123.29759,-17.058874,0.0,0.0,0.0,0.0,0.0,0.0,0.0,-8.630201,44.138474,-1.6633298,
1.4062499580904846,60,0.20483398,-1.1498413,0.38867188,0.9121094,-0.07324219,0.16601562,0.0,0.0,0.0,0.0,0.0,0.0,0.0,0.0,0.0,0.0,0.0,-0.2358194,0.005974792,0.9719052,-0.2538452,-0.38519287,0.3585205,-0.57128906,-1.1054688,-0.97558594,23.935648,-4.882192,0.12369671,20.121449,-0.6017456,-0.7883911,-0.6178589,0.6015625,1.2021484,-1.2880859,28.304825,26.952066,-47.097687,22.823116,1.9018555,-0.76031494,1.1488647,-0.2607422,0.5683594,0.35351562,14.885281,34.920113,-118.49692,27.740059,0.0,0.0,0.0,0.0,0.0,0.0,0.0,46.930218,-119.409836,43.71049,0.0,0.0,0.0,0.0,0.0,0.0,0.0,0.2358194,-0.005974792,-0.9719052,0.07330322,-1.7193604,0.4076538,0.22363281,1.2099609,0.14453125,26.324718,4.882192,-0.12369671,-20.121449,-1.5543823,-0.689209,0.2880249,0.35839844,1.9970703,1.3544922,14.39614,-10.450636,-54.934353,-23.30804,0.4456787,-0.8590698,1.0699463,-1.3066406,-5.0234375,-2.4013672,9.734377,-45.17005,-117.57771,-30.840479,0.0,0.0,0.0,0.0,0.0,0.0,0.0,-30.397205,-123.693665,-18.819366,0.0,0.0,0.0,0.0,0.0,0.0,0.0,-7.823374,44.267178,-2.1703665,
1.4296874573919927,61,-0.0146484375,-1.0089722,0.6286621,1.0722656,-0.16992188,0.609375,0.0,0.0,0.0,0.0,0.0,0.0,0.0,0.0,0.0,0.0,0.0,-0.24025947,0.014773138,0.97074044,-0.18011475,-1.2492676,-0.5031128,-1.1357422,-1.6279297,-1.28125,24.629398,-4.974116,0.30584967,20.097338,-1.0704956,-0.15460205,-0.7039795,1.8994141,0.89941406,-1.1396484,29.785158,26.142279,-47.438183,21.676517,0.031921387,1.1596069,0.8180542,-0.07421875,-0.001953125,-0.08300781,15.092039,31.171413,-119.18332,25.305899,0.0,0.0,0.0,0.0,0.0,0.0,0.0,43.104797,-120.04829,41.336246,0.0,0.0,0.0,0.0,0.0,0.0,0.0,0.24025947,-0.014773138,-0.97074044,-0.014221191,-1.7669678,0.76239014,1.3730469,1.2207031,0.5673828,23.720018,4.974116,-0.30584967,-20.097338,-1.7867432,-0.84942627,0.3479004,0.41601562,2.0888672,1.7646484,18.929735,-9.308363,-55.4146,-22.923632,0.4312744,-1.2927856,1.0617065,-1.0458984,-6.3095703,-3.446289,5.520948,-47.326942,-115.86698,-32.180855,0.0,0.0,0.0,0.0,0.0,0.0,0.0,-33.706886,-124.30401,-20.202072,0.0,0.0,0.0,0.0,0.0,0.0,0.0,-6.6294513,44.454998,-2.3173318,
1.4531249566935007,62,-0.13366699,-1.0497437,0.555542,0.08984375,-0.80371094,0.63183594,0.0,0.0,0.0,0.0,0.0,0.0,0.0,0.0,0.0,0.0,0.0,-0.25752583,0.011982188,0.9662686,-0.04260254,-1.1345825,-0.4381714,-1.8769531,-2.6103516,-1.0478516,23.489153,-5.3315825,0.24806844,20.004755,-1.1501465,0.3673706,-0.5689697,0.44433594,0.66015625,-0.5214844,29.212893,24.119461,-48.545986,21.172215,0.7684326,0.3548584,0.8093872,0.5839844,-0.234375,-0.39453125,16.103033,27.367905,-120.41551,24.3017,0.0,0.0,0.0,0.0,0.0,0.0,0.0,39.312332,-121.40375,40.31633,0.0,0.0,0.0,0.0,0.0,0.0,0.0,0.25752583,-0.011982188,-0.9662686,-0.029296875,-1.5688477,1.9806519,5.314453,0.18164062,0.4375,18.241137,5.3315825,-0.24806844,-20.004755,-1.5629883,-1.052185,0.5731201,1.203125,2.1982422,2.163086,27.282402,-4.7003293,-56.345375,-21.262207,0.3647461,-1.4943237,1.2158203,0.82128906,-8.313477,-5.138672,3.077971,-46.306786,-114.15898,-31.863316,0.0,0.0,0.0,0.0,0.0,0.0,0.0,-34.967514,-125.52963,-19.933418,0.0,0.0,0.0,0.0,0.0,0.0,0.0,-5.99391,44.550316,-2.1499164,
1.4765624559950088,63,-0.10046387,-0.85565186,0.4749756,0.4951172,-0.87890625,0.2919922,0.0,0.0,0.0,0.0,0.0,0.0,0.0,0.0,0.0,0.0,0.0,-0.27280524,0.012640122,0.9615717,0.1673584,-0.82489014,-0.4605713,-1.6699219,-2.0927734,-0.8769531,20.966825,-5.647914,0.26168966,19.907513,-0.89715576,-0.43518066,-0.34075928,-1.5117188,0.8388672,-1.3515625,28.139322,21.057026,-50.10142,20.362408,0.60894775,0.47998047,0.62939453,0.35742188,-0.234375,-0.13574219,15.7812395,21.683014,-122.03717,23.418598,0.0,0.0,0.0,0.0,0.0,0.0,0.0,33.496597,-123.23904,39.515778,0.0,0.0,0.0,0.0,0.0,0.0,0.0,0.27280524,-0.012640122,-0.9615717,0.9935303,-1.0054321,0.19476318,1.4882812,1.0488281,-0.12109375,14.270911,5.647914,-0.26168966,-19.907513,-1.3771362,0.14379883,0.004272461,3.4472656,2.663086,2.5771484,34.809856,-1.0452642,-56.869358,-20.701067,0.791626,-1.423645,0.10992432,7.7783203,-11.185547,-8.050781,18.327425,-46.54886,-111.4397,-32.447998,0.0,0.0,0.0,0.0,0.0,0.0,0.0,-40.144688,-126.31887,-20.700447,0.0,0.0,0.0,0.0,0.0,0.0,0.0,-5.540942,44.587284,-2.1581197,
1.4999999552965169,64,0.08929443,-0.5993042,0.5168457,0.37304688,-0.7060547,0.14648438,0.0,0.0,0.0,0.0,0.0,0.0,0.0,0.0,0.0,0.0,0.0,-0.28865236,0.01860807,0.9573229,0.55895996,-1.0010376,-0.34783936,-1.5615234,-1.1767578,-0.3623047,18.478481,-5.976,0.38524467,19.819551,-0.7803345,-0.4375,-0.35412598,-0.63183594,0.578125,-1.109375,27.803507,17.830538,-51.41152,19.19443,0.5079956,0.44714355,0.7089844,0.22949219,-0.10058594,-0.044921875,15.651355,14.831175,-123.319046,21.322445,0.0,0.0,0.0,0.0,0.0,0.0,0.0,26.639147,-124.6928,37.409332,0.0,0.0,0.0,0.0,0.0,0.0,0.0,0.28865236,-0.01860807,-0.9573229,-0.3317871,-1.6832886,-0.7393799,3.2802734,1.4169922,0.15234375,9.9307995,5.976,-0.38524467,-19.819551,-1.15094,1.0425415,-1.3244019,3.625,3.1904297,1.5498047,42.87527,3.2670968,-57.3263,-20.23404,1.9875488,-0.13989258,1.7833862,-1.2207031,-1.3085938,-1.2333984,27.991993,-45.53495,-108.41197,-34.169662,0.0,0.0,0.0,0.0,0.0,0.0,0.0,-42.312405,-124.927185,-23.352264,0.0,0.0,0.0,0.0,0.0,0.0,0.0,-5.1452217,44.642414,-2.4191313,
1.523437454598025,65,0.12994385,-0.8074341,0.45758057,0.21289062,-0.5527344,0.11328125,0.0,0.0,0.0,0.0,0.0,0.0,0.0,0.0,0.0,0.0,0.0,-0.30217454,0.024503376,0.9529738,0.26348877,-1.0255737,-0.40112305,-1.7734375,-0.32128906,0.037109375,16.755575,-6.255949,0.5072959,19.729513,-1.0292358,-0.54034424,-0.47155762,-0.40234375,0.28222656,-0.3388672,26.962303,15.528465,-52.168854,18.98232,0.65405273,0.3678589,0.71362305,0.30371094,-0.15820312,-0.08105469,15.469239,10.791852,-123.99735,20.873787,0.0,0.0,0.0,0.0,0.0,0.0,0.0,22.608036,-125.4781,36.945496,0.0,0.0,0.0,0.0,0.0,0.0,0.0,0.30217454,-0.024503376,-0.9529738,-0.25994873,-1.6192627,-0.9840088,2.6533203,1.2509766,1.1386719,6.0540137,6.255949,-0.5072959,-19.729513,-1.3052979,0.7007446,-0.9714966,-4.2246094,1.6220703,2.0263672,50.697445,7.080678,-57.498726,-19.032982,-0.74212646,-2.0,1.4660034,-1.5185547,0.5566406,-0.203125,22.242937,-45.264225,-104.82395,-33.395493,0.0,0.0,0.0,0.0,0.0,0.0,0.0,-41.36488,-121.42318,-22.935692,0.0,0.0,0.0,0.0,0.0,0.0,0.0,-4.878679,44.65506,-2.6951551,
1.546874953899533,66,0.04425049,-0.97802734,0.41229248,0.21191406,-0.4765625,0.31835938,0.0,0.0,0.0,0.0,0.0,0.0,0.0,0.0,0.0,0.0,0.0,-0.3134048,0.029774498,0.94928676,0.08190918,-0.9597168,-0.35369873,-1.8701172,-0.055664062,0.16992188,14.475826,-6.488451,0.61642444,19.65318,-0.9902954,-0.26464844,-0.41796875,0.25878906,0.16113281,-0.4716797,24.42357,12.382458,-53.16699,18.408707,0.54016113,0.44226074,0.7136841,0.3779297,-0.19628906,-0.15429688,15.308529,6.942081,-124.95976,19.971807,0.0,0.0,0.0,0.0,0.0,0.0,0.0,18.763206,-126.59544,36.025085,0.0,0.0,0.0,0.0,0.0,0.0,0.0,0.3134048,-0.029774498,-0.94928676,0.26062012,-1.4400635,-0.5175781,3.6328125,-0.4873047,0.98046875,1.1651646,6.488451,-0.61642444,-19.65318,-0.9515381,-0.7244873,-0.6010742,-2.2646484,0.42871094,1.5380859,58.472054,11.478903,-57.337585,-16.94639,-0.5313721,-0.23828125,1.4971313,-1.0458984,-0.123046875,0.045898438,16.86185,-43.91043,-101.52375,-29.822512,0.0,0.0,0.0,0.0,0.0,0.0,0.0,-39.90169,-118.29592,-19.687286,0.0,0.0,0.0,0.0,0.0,0.0,0.0,-4.470026,44.690647,-2.8774967,
1.570312453201041,67,0.07885742,-1.0725098,0.43243408,0.47851562,-0.3046875,0.57714844,0.0,0.0,0.0,0.0,0.0,0.0,0.0,0.0,0.0,0.0,0.0,-0.3251937,0.029356629,0.9453192,-0.061767578,-0.8972168,-0.14709473,-2.0585938,-0.115234375,0.16992188,11.984411,-6.7325196,0.6077732,19.571041,-1.0189209,-0.061157227,-0.30688477,-0.4423828,0.16796875,-0.47265625,21.91267,9.075956,-54.15147,18.233862,0.59851074,0.43237305,0.73413086,0.49121094,-0.23535156,-0.15429688,15.254068,2.7397556,-125.87837,19.523556,0.0,0.0,0.0,0.0,0.0,0.0,0.0,14.551917,-127.70597,35.56314,0.0,0.0,0.0,0.0,0.0,0.0,0.0,0.3251937,-0.029356629,-0.9453192,-0.14581299,-1.2422485,-0.32141113,3.03125,-0.5605469,0.33203125,4.2680154,6.7325196,-0.6077732,-19.571041,-0.2515869,0.124572754,-0.52978516,4.399414,0.25,-0.57421875,62.811207,15.990976,-56.69566,-15.363986,-0.3881836,-1.1328125,1.534668,-1.796875,2.1669922,1.3232422,15.613638,-38.9228,-101.14734,-29.305065,0.0,0.0,0.0,0.0,0.0,0.0,0.0,-34.058308,-117.70303,-19.188084,0.0,0.0,0.0,0.0,0.0,0.0,0.0,-4.034073,44.738155,-2.777069,
1.5937499525025491,68,-0.08703613,-0.77801514,0.41937256,0.35253906,-0.5175781,0.89160156,0.0,0.0,0.0,0.0,0.0,0.0,0.0,0.0,0.0,0.0,0.0,-0.33938876,0.023147056,0.94047874,-0.22131348,-0.90527344,-0.1293335,-2.3417969,-0.80566406,0.056640625,9.538566,-7.0263996,0.47921583,19.470825,-0.94659424,-0.19561768,-0.22271729,-0.7314453,0.07421875,-0.30371094,19.251818,5.8424845,-55.049347,18.700136,0.548584,0.51794434,0.64294434,0.53125,-0.17871094,-0.13671875,14.441781,-1.0553484,-126.72155,19.721909,0.0,0.0,0.0,0.0,0.0,0.0,0.0,10.720141,-128.78343,35.75923,0.0,0.0,0.0,0.0,0.0,0.0,0.0,0.33938876,-0.023147056,-0.94047874,0.14666748,-1.1901855,-0.43041992,1.921875,0.3720703,-0.16210938,8.396483,7.0263996,-0.47921583,-19.470825,-0.352417,0.7998047,-0.65148926,3.7001953,-1.0917969,-1.0947266,64.30965,19.307056,-55.950108,-14.779661,-0.70654297,-0.89904785,1.3272095,-1.2802734,3.8935547,2.2890625,16.40394,-34.198048,-101.99737,-28.97188,0.0,0.0,0.0,0.0,0.0,0.0,0.0,-27.590624,-117.86795,-18.742336,0.0,0.0,0.0,0.0,0.0,0.0,0.0,-3.3380003,44.821636,-2.3077276,
1.6171874518040572,69,-0.114990234,-0.5593872,0.30841064,0.25585938,-0.51660156,0.7998047,0.0,0.0,0.0,0.0,0.0,0.0,0.0,0.0,0.0,0.0,0.0,-0.35757312,0.016433088,0.9338441,0.13531494,-0.92822266,-0.20727539,-2.2851562,-0.9951172,0.09667969,6.973783,-7.402872,0.3402159,19.333467,-0.98669434,-0.15075684,-0.105529785,-0.27734375,0.03125,-0.30371094,16.12957,2.3634853,-55.8188,18.772959,0.5625,0.55358887,0.6309204,0.43847656,-0.10253906,-0.08203125,13.822554,-4.6586456,-127.4893,19.212107,0.0,0.0,0.0,0.0,0.0,0.0,0.0,7.0541363,-129.75723,35.26806,0.0,0.0,0.0,0.0,0.0,0.0,0.0,0.35757312,-0.016433088,-0.9338441,-0.014038086,-0.90734863,-0.44592285,2.1279297,0.2998047,0.115234375,11.554506,7.402872,-0.3402159,-19.333467,-0.51135254,0.68896484,-0.5461426,0.13867188,-2.6210938,-1.2119141,63.45678,21.988117,-55.251396,-14.702285,-0.3607788,-0.85235596,1.0790405,-1.4472656,4.9101562,3.0908203,14.747218,-29.152557,-104.25424,-27.64988,0.0,0.0,0.0,0.0,0.0,0.0,0.0,-20.327578,-118.86394,-17.219093,0.0,0.0,0.0,0.0,0.0,0.0,0.0,-2.7691271,44.88096,-1.8500928,
1.6406249511055653,70,0.05621338,-0.526001,0.3706665,-0.09667969,-0.4013672,0.65625,0.0,0.0,0.0,0.0,0.0,0.0,0.0,0.0,0.0,0.0,0.0,-0.37262437,0.005688457,0.92809415,0.1729126,-0.88812256,-0.15533447,-2.265625,-0.76660156,0.056640625,4.5224237,-7.714479,0.117768675,19.214428,-0.94073486,-0.07318115,-0.028259277,-0.34960938,0.08984375,-0.43554688,13.050035,-0.7321992,-56.45003,18.271708,0.54125977,0.6027832,0.583313,0.21386719,-0.024414062,0.028320312,12.654542,-7.465116,-128.14592,17.893963,0.0,0.0,0.0,0.0,0.0,0.0,0.0,4.1663194,-130.57738,33.9852,0.0,0.0,0.0,0.0,0.0,0.0,0.0,0.37262437,-0.005688457,-0.92809415,-0.058288574,-0.7670288,-0.39154053,2.21875,-0.6044922,0.6875,14.762369,7.714479,-0.117768675,-19.214428,-0.49835205,0.37078857,-0.44458008,-0.24804688,-3.5146484,-1.8095703,61.737152,24.864548,-54.175022,-13.503645,0.07470703,-1.0066528,0.9660034,-1.1611328,5.620117,3.4248047,11.591447,-22.572334,-107.25692,-24.388433,0.0,0.0,0.0,0.0,0.0,0.0,0.0,-11.426787,-120.05888,-13.802596,0.0,0.0,0.0,0.0,0.0,0.0,0.0,-2.6459575,44.90764,-1.3375834,
1.6640624504070733,71,0.009033203,-0.6470337,0.3157959,-0.2685547,-0.45898438,0.67578125,0.0,0.0,0.0,0.0,0.0,0.0,0.0,0.0,0.0,0.0,0.0,-0.38581127,-0.0055159284,0.92269343,0.1416626,-0.8807373,-0.19592285,-2.399414,-0.86328125,0.19140625,2.3657093,-7.987489,-0.1141968,19.102613,-0.9949341,-0.17883301,-0.047668457,-0.2548828,0.10839844,-0.39746094,10.046295,-3.8773408,-56.962738,17.934547,0.55804443,0.5765991,0.6279907,-0.049804688,0.072265625,0.15625,11.094642,-10.493611,-128.66307,16.614738,0.0,0.0,0.0,0.0,0.0,0.0,0.0,1.1033545,-131.15552,32.720993,0.0,0.0,0.0,0.0,0.0,0.0,0.0,0.38581127,0.0055159284,-0.92269343,-0.29486084,-0.7449341,-0.5218506,2.0683594,-1.296875,0.3330078,17.125973,7.987489,0.1141968,-19.102613,-0.5652466,0.5058594,-0.48931885,0.20605469,-4.0166016,-2.25,58.053726,26.766195,-53.23555,-11.989312,0.5031738,-0.92633057,0.82928467,-0.7626953,5.7890625,3.7353516,10.415048,-15.492083,-110.89328,-20.722942,0.0,0.0,0.0,0.0,0.0,0.0,0.0,-2.2270184,-121.40135,-10.053026,0.0,0.0,0.0,0.0,0.0,0.0,0.0,-2.6251397,44.921207,-0.8291229,
1.6874999497085814,72,-0.06378174,-0.71551514,0.3114624,-0.19433594,-0.4013672,0.52734375,0.0,0.0,0.0,0.0,0.0,0.0,0.0,0.0,0.0,0.0,0.0,-0.39936084,-0.017067935,0.9167388,0.14752197,-0.96398926,-0.25549316,-2.3652344,-0.48242188,0.45898438,2.9180598,-8.268006,-0.35335907,18.979334,-0.92755127,-0.07836914,-0.028259277,0.23730469,0.16015625,-0.24511719,6.9671135,-7.1031294,-57.335224,17.676655,0.5784302,0.5504761,0.61779785,-0.0625,0.22460938,0.24707031,10.298582,-13.538142,-129.03294,15.628552,0.0,0.0,0.0,0.0,0.0,0.0,0.0,-1.9769325,-131.51103,31.76271,0.0,0.0,0.0,0.0,0.0,0.0,0.0,0.39936084,0.017067935,-0.9167388,-0.33166504,-0.5706787,-0.56707764,1.5966797,-1.8583984,0.12792969,19.014883,8.268006,0.35335907,-18.979334,-0.44952393,0.37023926,-0.58447266,-0.57714844,-4.4628906,-2.538086,53.360233,28.228836,-52.353237,-10.447226,0.6095581,-0.7685547,0.8407593,-1.0292969,5.0947266,3.8076172,9.529761,-7.919815,-114.35016,-16.410162,0.0,0.0,0.0,0.0,0.0,0.0,0.0,6.9679966,-122.330505,-5.6929283,0.0,0.0,0.0,0.0,0.0,0.0,0.0,-2.743012,44.91918,-0.35863435,
1.7109374490100895,73,-0.08215332,-0.74420166,0.2699585,-0.48632812,-0.34375,0.38183594,0.0,0.0,0.0,0.0,0.0,0.0,0.0,0.0,0.0,0.0,0.0,-0.40986958,-0.027288433,0.911797,0.15637207,-0.9298706,-0.13171387,-2.1396484,0.07324219,0.66796875,5.2240853,-8.48557,-0.56495523,18.877026,-0.9892578,-0.030212402,-6.713867E-4,0.07128906,0.24023438,-0.47070312,4.5538454,-9.659981,-57.548367,17.531689,0.5745239,0.5010376,0.66064453,-0.17480469,0.3203125,0.24609375,9.705876,-15.92038,-129.25058,15.083936,0.0,0.0,0.0,0.0,0.0,0.0,0.0,-4.4356747,-131.61804,31.288548,0.0,0.0,0.0,0.0,0.0,0.0,0.0,0.40986958,0.027288433,-0.911797,-0.0635376,-0.6264038,-0.51568604,1.3515625,-2.1669922,-0.07714844,20.721704,8.48557,0.56495523,-18.877026,-0.52874756,0.2972412,-0.6401367,-0.50097656,-4.666992,-2.8398438,48.09196,29.891842,-51.425102,-9.4798565,0.88720703,-1.0403442,1.0658569,-1.0498047,4.379883,3.96875,8.930148,1.1912975,-117.39173,-12.794785,0.0,0.0,0.0,0.0,0.0,0.0,0.0,17.16105,-122.78514,-2.022232,0.0,0.0,0.0,0.0,0.0,0.0,0.0,-3.0292325,44.900436,-0.017906904,
1.7343749483115976,74,-0.028137207,-0.7418823,0.17352295,-0.6640625,-0.24707031,0.21777344,0.0,0.0,0.0,0.0,0.0,0.0,0.0,0.0,0.0,0.0,0.0,-0.4169168,-0.039416693,0.9081645,0.20983887,-1.0195923,-0.17462158,-2.3105469,0.24316406,0.7246094,7.9211226,-8.631469,-0.8160477,18.80182,-0.914917,-0.11065674,-0.020507812,0.20898438,0.39257812,-0.4873047,3.0207057,-11.918376,-57.711555,17.4149,0.5614624,0.49169922,0.6956787,-0.2685547,0.359375,0.26367188,8.9459305,-18.500963,-129.35661,14.268972,0.0,0.0,0.0,0.0,0.0,0.0,0.0,-7.057665,-131.5725,30.524063,0.0,0.0,0.0,0.0,0.0,0.0,0.0,0.4169168,0.039416693,-0.9081645,0.1305542,-0.5317993,-0.32824707,1.2773438,-1.6220703,-0.18652344,22.102198,8.631469,0.8160477,-18.80182,-0.7178955,0.31274414,-0.5039673,-0.23828125,-4.814453,-3.2373047,42.935406,31.520233,-50.41392,-8.749296,1.0372925,-1.0253296,1.1793823,-0.9560547,3.6044922,4.3320312,9.855286,10.49505,-119.26381,-9.078514,0.0,0.0,0.0,0.0,0.0,0.0,0.0,27.033146,-121.979614,1.8458672,0.0,0.0,0.0,0.0,0.0,0.0,0.0,-3.5715857,44.860058,0.30741227,
1.7578124476131056,75,0.027709961,-0.80700684,0.1652832,-0.9326172,-0.3232422,0.1640625,0.0,0.0,0.0,0.0,0.0,0.0,0.0,0.0,0.0,0.0,0.0,-0.4225384,-0.05370404,0.90492046,0.1149292,-1.2088013,-0.052246094,-2.4794922,0.6230469,0.6464844,12.415287,-8.747855,-1.11184,18.73466,-0.9807129,-0.07183838,-0.020568848,0.47558594,0.42871094,-0.52441406,2.126885,-15.45529,-57.70513,17.141714,0.5663452,0.5392456,0.64782715,-0.22949219,0.39746094,0.24511719,8.652037,-22.399246,-129.27652,13.216136,0.0,0.0,0.0,0.0,0.0,0.0,0.0,-11.0007515,-131.29036,29.530571,0.0,0.0,0.0,0.0,0.0,0.0,0.0,0.4225384,0.05370404,-0.90492046,-0.0021362305,-0.42541504,-0.0524292,1.2587891,-1.1845703,-0.07324219,23.055662,8.747855,1.11184,-18.73466,-0.84161377,0.21844482,-0.4527588,0.36035156,-4.8134766,-3.4716797,37.53977,33.01467,-49.353027,-8.03436,1.0637207,-0.95581055,1.1921997,-0.296875,2.4882812,3.5058594,10.884827,20.274277,-120.17403,-5.8332562,0.0,0.0,0.0,0.0,0.0,0.0,0.0,36.866745,-120.60855,5.332153,0.0,0.0,0.0,0.0,0.0,0.0,0.0,-4.4151797,44.785778,0.59628916,
1.7812499469146137,76,0.13647461,-0.93603516,0.22161865,-0.9121094,-0.38085938,0.0146484375,0.0,0.0,0.0,0.0,0.0,0.0,0.0,0.0,0.0,0.0,0.0,-0.43519866,-0.06574881,0.897821,-0.023254395,-1.0343018,-0.049926758,-2.0234375,0.9345703,0.47265625,16.257708,-9.00996,-1.3612043,18.587679,-0.9710083,0.07232666,0.13659668,0.42578125,0.58496094,-0.73046875,3.6377113,-18.116669,-57.607094,16.776285,0.60705566,0.5183716,0.64642334,-0.39648438,0.53222656,0.28027344,8.427626,-25.204208,-129.13257,12.410482,0.0,0.0,0.0,0.0,0.0,0.0,0.0,-13.885051,-130.9355,28.80408,0.0,0.0,0.0,0.0,0.0,0.0,0.0,0.43519866,0.06574881,-0.897821,-0.12054443,-0.49346924,-0.14794922,0.6933594,-0.3046875,0.043945312,23.097067,9.00996,1.3612043,-18.587679,-0.90509033,0.270813,-0.44885254,0.921875,-4.7773438,-3.3691406,31.659819,34.28277,-48.50495,-7.46469,1.211731,-0.98986816,1.1234741,0.07714844,1.53125,2.2597656,11.869747,30.201458,-120.23444,-3.203658,0.0,0.0,0.0,0.0,0.0,0.0,0.0,46.63022,-119.14414,8.155734,0.0,0.0,0.0,0.0,0.0,0.0,0.0,-5.507151,44.653248,0.60055757,
1.8046874462161218,77,0.0925293,-0.90216064,0.21691895,-0.765625,-0.18847656,-0.095703125,0.0,0.0,0.0,0.0,0.0,0.0,0.0,0.0,0.0,0.0,0.0,-0.45194313,-0.07330692,0.8888684,-0.034362793,-0.986145,-0.27056885,-1.1513672,1.3457031,0.31835938,18.84671,-9.356624,-1.5176804,18.40233,-0.81707764,0.026672363,0.1182251,0.3046875,0.8955078,-0.9716797,4.2105904,-19.626194,-57.550404,16.289473,0.5097046,0.5009155,0.74401855,-0.53125,0.5341797,0.24316406,8.474819,-27.532158,-128.95071,11.22138,0.0,0.0,0.0,0.0,0.0,0.0,0.0,-16.271084,-130.44745,27.684364,0.0,0.0,0.0,0.0,0.0,0.0,0.0,0.45194313,0.07330692,-0.8888684,-0.016113281,-0.5668335,-0.07421875,0.051757812,0.103515625,0.2705078,22.312275,9.356624,1.5176804,-18.40233,-0.88842773,0.18109131,-0.4421997,-0.48242188,-4.7773438,-3.2890625,25.451324,34.925144,-48.108486,-6.8578386,1.7258911,-0.99871826,0.91918945,0.07421875,0.4560547,1.5146484,13.189056,39.07991,-119.682465,-0.8805375,0.0,0.0,0.0,0.0,0.0,0.0,0.0,55.277798,-117.78731,10.70005,0.0,0.0,0.0,0.0,0.0,0.0,0.0,-6.5644417,44.51086,0.33323288,
1.8281249455176298,78,-0.09954834,-0.9213257,0.21380615,-0.47265625,-0.265625,-0.025390625,0.0,0.0,0.0,0.0,0.0,0.0,0.0,0.0,0.0,0.0,0.0,-0.4629302,-0.08254776,0.8824808,-0.030761719,-1.03125,-0.20819092,-0.75097656,0.5498047,-0.08105469,19.99999,-9.584091,-1.7089947,18.270088,-0.9610596,-0.021240234,-0.15698242,0.27148438,0.9736328,-1.1220703,3.2441342,-20.07063,-57.682312,15.633499,0.62475586,0.43511963,0.850647,-0.21777344,0.20703125,0.13574219,9.759632,-30.007656,-128.76527,9.768324,0.0,0.0,0.0,0.0,0.0,0.0,0.0,-18.753704,-129.95132,26.262987,0.0,0.0,0.0,0.0,0.0,0.0,0.0,0.4629302,0.08254776,-0.8824808,0.10760498,-0.64611816,0.29052734,0.37402344,-0.21191406,-0.047851562,21.727,9.584091,1.7089947,-18.270088,-0.9088135,-0.024597168,-0.6343994,-0.056640625,-4.3291016,-3.274414,19.539696,35.191746,-47.854954,-6.5783777,1.9589844,-1.1264648,0.66156006,-9.765625E-4,0.37402344,2.1230469,15.658518,47.137123,-118.51514,-0.08726692,0.0,0.0,0.0,0.0,0.0,0.0,0.0,62.96441,-115.94792,11.873249,0.0,0.0,0.0,0.0,0.0,0.0,0.0,-7.2523766,44.407883,0.34950042,
1.851562444819138,79,-0.10913086,-1.1430054,0.19873047,-0.4375,-0.72558594,0.043945312,0.0,0.0,0.0,0.0,0.0,0.0,0.0,0.0,0.0,0.0,0.0,-0.48074204,-0.090987384,0.87217176,-0.2984619,-0.86798096,-0.34765625,-0.9560547,-0.5390625,-0.34472656,21.218029,-9.95285,-1.8837211,18.056658,-1.2030029,0.0012207031,-0.30718994,-0.32910156,1.171875,-1.1953125,3.0379598,-20.958927,-57.7561,15.407719,0.5973511,0.34832764,0.8587036,0.055664062,-0.25390625,0.19726562,10.58569,-33.17959,-128.43938,9.013042,0.0,0.0,0.0,0.0,0.0,0.0,0.0,-21.949402,-129.56107,25.527071,0.0,0.0,0.0,0.0,0.0,0.0,0.0,0.48074204,0.090987384,-0.87217176,0.059509277,-0.99749756,0.9470825,1.8798828,-1.2783203,0.22167969,23.271503,9.95285,1.8837211,-18.056658,-1.02771,0.012939453,-0.3616333,-0.7910156,-3.6796875,-2.4179688,16.605114,37.093853,-46.60832,-5.3749866,1.9608765,-0.5928345,0.22265625,-1.1855469,2.5644531,4.142578,17.411442,55.680965,-115.74707,1.5165133,0.0,0.0,0.0,0.0,0.0,0.0,0.0,71.07291,-111.650185,13.617981,0.0,0.0,0.0,0.0,0.0,0.0,0.0,-7.7869024,44.32162,0.3316065,
1.874999944120646,80,-0.08605957,-1.2886353,0.168396,-0.040039062,-1.0898438,0.036132812,0.0,0.0,0.0,0.0,0.0,0.0,0.0,0.0,0.0,0.0,0.0,-0.4987508,-0.0916691,0.8620175,-0.2939453,-0.8673706,-0.45324707,-1.203125,-0.7138672,-0.28710938,23.047237,-10.325687,-1.8978345,17.846434,-1.0084839,-0.28375244,-0.2616577,-0.5107422,1.3671875,-1.4003906,4.077559,-22.699741,-57.49751,15.572292,0.039123535,0.33062744,0.9232178,0.19140625,-0.84765625,0.2783203,11.030872,-37.628845,-127.56131,8.255684,0.0,0.0,0.0,0.0,0.0,0.0,0.0,-26.4465,-128.8783,24.783115,0.0,0.0,0.0,0.0,0.0,0.0,0.0,0.4987508,0.0916691,-0.8620175,0.21557617,-1.5679932,1.1763916,0.76464844,-2.265625,0.40820312,24.727846,10.325687,1.8978345,-17.846434,-0.90600586,-0.60650635,0.26617432,0.3779297,-2.3398438,-1.4199219,14.944524,38.468987,-45.58507,-3.6010742,1.96875,0.7508545,-0.65301514,-1.2792969,3.28125,3.9638672,16.662355,62.14755,-113.20586,3.6223016,0.0,0.0,0.0,0.0,0.0,0.0,0.0,76.87431,-106.58099,15.428579,0.0,0.0,0.0,0.0,0.0,0.0,0.0,-8.119593,44.266663,0.009549737,
1.898437443422154,81,0.10662842,-1.1585693,0.12976074,-0.0390625,-1.0527344,0.27734375,0.0,0.0,0.0,0.0,0.0,0.0,0.0,0.0,0.0,0.0,0.0,-0.52067536,-0.090292156,0.8491513,0.09820557,-1.2416992,-0.50164795,-1.1845703,-0.8095703,-0.26757812,24.64652,-10.7795925,-1.8693275,17.580065,-1.1873169,-0.08166504,-0.08129883,0.265625,1.4921875,-0.96484375,4.3112526,-24.604963,-57.113438,14.941035,0.46655273,0.49945068,1.0007324,0.03515625,-1.6298828,0.39746094,11.157415,-42.341476,-126.453674,6.999275,0.0,0.0,0.0,0.0,0.0,0.0,0.0,-31.15669,-128.23811,23.485128,0.0,0.0,0.0,0.0,0.0,0.0,0.0,0.52067536,0.090292156,-0.8491513,0.26837158,-1.6039429,1.2562256,1.4296875,-0.8613281,-0.3515625,26.030708,10.7795925,1.8693275,-17.580065,-0.7174072,-0.05480957,0.5258179,1.4824219,-0.14257812,-0.24804688,14.169536,39.90213,-44.75743,-2.5160284,1.9738159,1.5561523,-1.149353,-0.984375,1.0419922,1.4736328,16.488426,66.55158,-111.160545,5.4192877,0.0,0.0,0.0,0.0,0.0,0.0,0.0,80.834305,-102.99018,16.793867,0.0,0.0,0.0,0.0,0.0,0.0,0.0,-8.139147,44.264076,-0.2839942,
1.921874942723662,82,0.34436035,-1.3235474,0.015686035,-0.18945312,-0.5917969,0.33984375,0.0,0.0,0.0,0.0,0.0,0.0,0.0,0.0,0.0,0.0,0.0,-0.53649414,-0.09549984,0.83864003,0.26898193,-1.4094849,-0.25115967,-0.74902344,-1.0527344,-0.26660156,26.027128,-11.107092,-1.9771425,17.362448,-1.3574219,0.07952881,-0.046691895,0.27734375,1.7441406,-1.3388672,5.013603,-26.075039,-56.905838,14.478782,0.4883423,0.5539551,1.0235596,-0.103515625,-2.5478516,0.796875,10.569578,-47.035904,-125.27524,5.995574,0.0,0.0,0.0,0.0,0.0,0.0,0.0,-35.749992,-127.89854,22.30164,0.0,0.0,0.0,0.0,0.0,0.0,0.0,0.53649414,0.09549984,-0.83864003,0.058410645,-1.5187988,0.85339355,1.2246094,0.21191406,-0.4580078,27.424269,11.107092,1.9771425,-17.362448,-0.9144287,0.63671875,0.20098877,1.4697266,1.4746094,1.1826172,16.495308,41.74124,-43.683647,-2.321351,1.9611816,0.35632324,-0.8052368,0.6738281,-0.38867188,-1.8007812,18.924427,66.89687,-110.63717,5.8342934,0.0,0.0,0.0,0.0,0.0,0.0,0.0,81.367905,-102.64467,17.094398,0.0,0.0,0.0,0.0,0.0,0.0,0.0,-8.273953,44.2381,-0.25540924,
1.9453124420251702,83,0.32696533,-1.6390381,-0.08557129,-0.1171875,-0.41992188,0.41503906,0.0,0.0,0.0,0.0,0.0,0.0,0.0,0.0,0.0,0.0,0.0,-0.54595506,-0.104012646,0.83147794,0.16381836,-1.4987183,-0.24133301,-0.6933594,-1.109375,-0.18945312,27.116259,-11.30296,-2.1533842,17.21417,-1.3810425,0.10443115,0.015380859,-0.111328125,2.0185547,-1.5058594,6.685862,-27.105675,-56.845497,14.219774,0.50372314,0.6536255,0.9846802,0.35253906,-3.5107422,1.3808594,9.110999,-51.823032,-123.885376,5.1493006,0.0,0.0,0.0,0.0,0.0,0.0,0.0,-40.60429,-127.7622,21.250702,0.0,0.0,0.0,0.0,0.0,0.0,0.0,0.54595506,0.104012646,-0.83147794,-0.30273438,-1.0420532,0.49713135,1.3916016,-0.27441406,0.09765625,29.11497,11.30296,2.1533842,-17.21417,-1.0214233,0.81781006,-0.28588867,-1.1240234,2.4804688,1.9423828,21.348787,43.363247,-42.405968,-1.8391771,1.9545288,-0.5164795,-0.35510254,0.74902344,-0.29101562,-1.9853516,18.795042,64.19243,-110.853264,6.3805227,0.0,0.0,0.0,0.0,0.0,0.0,0.0,79.189026,-103.75112,17.550486,0.0,0.0,0.0,0.0,0.0,0.0,0.0,-8.464686,44.202225,-0.028562427,
1.9687499413266782,84,0.1819458,-1.4534302,0.09362793,-0.08105469,-0.30566406,0.6201172,0.0,0.0,0.0,0.0,0.0,0.0,0.0,0.0,0.0,0.0,0.0,-0.55588275,-0.11277151,0.8237018,0.19891357,-1.5968628,6.1035156E-4,-0.6171875,-1.0693359,-0.26660156,28.050402,-11.508495,-2.3347197,17.05318,-1.5003052,0.21813965,0.32244873,-0.19726562,2.2890625,-1.5966797,8.893245,-28.17373,-56.756447,13.860923,0.414917,0.74768066,1.1472168,0.8779297,-4.8203125,2.3017578,6.4732656,-57.029366,-122.03373,4.26188,0.0,0.0,0.0,0.0,0.0,0.0,0.0,-46.263664,-127.69589,20.142073,0.0,0.0,0.0,0.0,0.0,0.0,0.0,0.55588275,0.11277151,-0.8237018,-0.19311523,-0.89398193,0.7476196,1.1044922,-1.4472656,0.7441406,30.864378,11.508495,2.3347197,-17.05318,-1.7503052,-0.08569336,-0.10321045,-6.2128906,-0.01953125,1.6953125,25.942337,44.02197,-41.353924,-0.20851135,-0.789917,-1.973999,-1.9827881,0.52246094,-6.067383,-5.8222656,15.446318,59.969467,-110.971054,9.070332,0.0,0.0,0.0,0.0,0.0,0.0,0.0,75.33219,-105.310165,20.564482,0.0,0.0,0.0,0.0,0.0,0.0,0.0,-8.509579,44.191776,0.30744696,
1.9921874406281863,85,0.4888916,-1.4152832,0.56829834,-1.21875,0.3251953,0.9716797,0.0,0.0,0.0,0.0,0.0,0.0,0.0,0.0,0.0,0.0,0.0,-0.5560422,-0.14033961,0.8193264,0.28759766,-1.9489746,0.20715332,0.02734375,-0.58496094,-0.34375,29.517933,-11.511795,-2.9054646,16.962597,-1.9522095,0.41741943,0.111328125,-0.20214844,2.7324219,-1.6660156,11.964379,-28.750984,-57.13842,13.587551,0.4440918,0.80059814,1.0961914,0.96875,-6.758789,3.6367188,3.515579,-62.220467,-120.134834,3.699398,0.0,0.0,0.0,0.0,0.0,0.0,0.0,-52.47397,-128.12216,19.237173,0.0,0.0,0.0,0.0,0.0,0.0,0.0,0.5560422,0.14033961,-0.8193264,-0.12884521,-0.9133301,-0.74053955,-4.0634766,1.0283203,1.515625,31.609423,11.511795,2.9054646,-16.962597,-2.0,-0.35705566,-1.2336426,-3.5175781,1.7744141,1.3427734,28.30488,43.264366,-40.58889,1.7292309,1.9645386,-0.20654297,0.076660156,2.868164,-2.756836,0.67089844,9.751973,56.878235,-110.82493,9.955293,0.0,0.0,0.0,0.0,0.0,0.0,0.0,72.74922,-108.00115,21.800766,0.0,0.0,0.0,0.0,0.0,0.0,0.0,-9.245626,44.02575,1.2664037,
2.0156249399296944,86,0.047607422,-1.5375977,0.4356079,-0.08203125,0.25195312,0.3095703,0.0,0.0,0.0,0.0,0.0,0.0,0.0,0.0,0.0,0.0,0.0,-0.55307317,-0.15918224,0.8179689,0.32666016,-1.4655151,0.51000977,1.9970703,-1.5898438,-0.6455078,28.08173,-11.450329,-3.2955656,16.93449,-1.8793335,1.496582,0.2672119,-0.13085938,2.5966797,-1.6494141,17.685701,-26.94223,-58.084393,14.068936,0.2911377,1.2458496,0.92474365,0.93066406,-8.854492,5.6933594,8.534743,-64.782745,-118.5128,3.9427757,0.0,0.0,0.0,0.0,0.0,0.0,0.0,-57.10072,-129.22371,18.99137,0.0,0.0,0.0,0.0,0.0,0.0,0.0,0.55307317,0.15918224,-0.8179689,0.07006836,-1.5115356,0.4017334,2.2158203,-3.1142578,0.56640625,30.01093,11.450329,3.2955656,-16.93449,-0.5913086,0.13372803,-0.31011963,-2.991211,2.1416016,2.6445312,30.209152,40.91608,-41.729866,1.8868332,1.9989014,1.0255127,1.3743286,3.0791016,0.7998047,-2.4990234,7.9608717,48.261745,-112.888374,10.142952,0.0,0.0,0.0,0.0,0.0,0.0,0.0,64.01041,-111.94869,22.442215,0.0,0.0,0.0,0.0,0.0,0.0,0.0,-9.596973,43.923473,2.0587664,
2.0390624392312025,87,-0.26739502,-1.1741333,0.4564209,-0.4951172,0.34960938,-0.33496094,0.0,0.0,0.0,0.0,0.0,0.0,0.0,0.0,0.0,0.0,0.0,-0.54627573,-0.16344763,0.8216731,-1.2642822,-0.8491211,0.2298584,2.7441406,1.1835938,0.38085938,25.216629,-11.309603,-3.3838727,17.01118,-1.484375,1.1868286,0.63897705,-1.7265625,2.8476562,-2.3457031,25.809135,-23.556274,-59.04787,15.77755,0.40026855,1.3317871,0.5817871,-1.078125,-11.426758,7.276367,16.268526,-65.97394,-116.24588,5.038046,0.0,0.0,0.0,0.0,0.0,0.0,0.0,-61.407333,-129.4767,19.328602,0.0,0.0,0.0,0.0,0.0,0.0,0.0,0.54627573,0.16344763,-0.8216731,0.86987305,-0.8640137,-0.8689575,-3.491211,0.78808594,-0.103515625,28.775488,11.309603,3.3838727,-17.01118,0.15618896,0.35998535,-0.7324219,-0.7441406,1.7919922,1.3339844,32.42495,39.19879,-42.501587,2.1302547,-2.0,-2.0,1.3655396,0.90625,0.3408203,0.859375,3.9896343,41.551674,-114.07405,9.712929,0.0,0.0,0.0,0.0,0.0,0.0,0.0,57.581036,-113.21052,21.647472,0.0,0.0,0.0,0.0,0.0,0.0,0.0,-9.947033,43.842648,2.1080818,
2.0624999385327105,88,-0.29943848,-0.6503296,0.6956177,0.17480469,0.5605469,-0.17285156,0.0,0.0,0.0,0.0,0.0,0.0,0.0,0.0,0.0,0.0,0.0,-0.5202287,-0.15745765,0.8355116,-0.16021729,-1.4345703,-0.13031006,3.006836,-1.0644531,0.4658203,22.139906,-10.770348,-3.2598612,17.29768,-1.2263184,-1.0603638,-0.012329102,-5.1777344,3.0703125,-1.6679688,33.90746,-19.87779,-59.531242,18.087727,1.973877,-2.0,0.3829956,-5.3828125,-6.616211,7.2753906,22.21394,-66.879234,-113.092804,7.6770506,0.0,0.0,0.0,0.0,0.0,0.0,0.0,-65.08923,-127.79033,21.128864,0.0,0.0,0.0,0.0,0.0,0.0,0.0,0.5202287,0.15745765,-0.8355116,1.126831,-0.38519287,-1.098938,-1.4189453,4.751953,1.9101562,25.972477,10.770348,3.2598612,-17.29768,-1.3748779,0.08728027,-0.7244873,1.0556641,1.7167969,1.3779297,32.290718,36.03016,-44.520485,0.81951904,1.7775269,0.8868408,0.6483154,-0.6455078,0.61816406,1.0976562,3.9076066,34.330204,-116.21217,7.2773685,0.0,0.0,0.0,0.0,0.0,0.0,0.0,50.55395,-115.69938,18.964355,0.0,0.0,0.0,0.0,0.0,0.0,0.0,-9.830578,43.711983,2.1168318,
2.0859374378342186,89,-0.3623047,-0.55895996,0.6390991,0.26367188,0.29003906,0.3251953,0.0,0.0,0.0,0.0,0.0,0.0,0.0,0.0,0.0,0.0,0.0,-0.46349496,-0.14503977,0.8670762,0.49157715,-1.6036987,-1.1137085,2.3769531,-3.7988281,-0.8857422,19.210438,-9.595783,-3.0027728,17.951166,-1.4660645,-1.9899292,-1.5453491,-0.29296875,2.5644531,-2.4042969,41.83861,-15.888727,-59.564144,21.20316,1.9818115,-1.0193481,-1.9783325,-0.80859375,0.8027344,0.31445312,19.868212,-66.972145,-109.1257,10.2176485,0.0,0.0,0.0,0.0,0.0,0.0,0.0,-64.65113,-123.96961,23.420856,0.0,0.0,0.0,0.0,0.0,0.0,0.0,0.46349496,0.14503977,-0.8670762,-1.404602,-0.9875488,-0.4763794,-1.2666016,2.6845703,0.75,26.122818,9.595783,3.0027728,-17.951166,-0.9295654,0.8553467,-0.855896,-0.045898438,1.4355469,1.6933594,33.416447,33.343178,-45.430622,0.46453667,0.14923096,0.16900635,0.8248291,0.14550781,0.14648438,-0.7949219,7.2534986,28.499157,-117.06308,6.046442,0.0,0.0,0.0,0.0,0.0,0.0,0.0,44.626274,-116.170555,17.840544,0.0,0.0,0.0,0.0,0.0,0.0,0.0,-9.111851,43.715836,2.441813,
2.1093749371357267,90,-0.20611572,-1.1206055,0.3189087,-0.8671875,0.69140625,0.4892578,0.0,0.0,0.0,0.0,0.0,0.0,0.0,0.0,0.0,0.0,0.0,-0.4259892,-0.16154064,0.88869536,-0.19781494,-1.7260742,-1.5809326,3.1201172,0.046875,-1.2636719,17.403986,-8.819296,-3.344392,18.398746,-1.3670654,-0.5489502,-0.96655273,7.0322266,0.62890625,0.20214844,48.10741,-11.651282,-60.099674,22.913626,-0.4260254,-2.0,1.2512207,2.2675781,2.5976562,1.8632812,13.484633,-64.4384,-107.36751,10.08817,0.0,0.0,0.0,0.0,0.0,0.0,0.0,-62.084705,-121.292496,24.252476,0.0,0.0,0.0,0.0,0.0,0.0,0.0,0.4259892,0.16154064,-0.88869536,-0.40667725,-1.5340576,-0.409729,-1.7597656,-0.9169922,0.125,26.217434,8.819296,3.344392,-18.398746,-0.7727051,0.4133911,-0.5136719,-1.6513672,0.7285156,1.2304688,34.563324,30.983572,-45.829315,0.039985657,0.4527588,-0.7581177,0.8041992,-0.36328125,0.140625,0.26171875,10.657799,21.938883,-116.900024,6.1670933,0.0,0.0,0.0,0.0,0.0,0.0,0.0,37.772728,-115.63226,18.323547,0.0,0.0,0.0,0.0,0.0,0.0,0.0,-9.368961,43.815228,3.4734774,
2.1328124364372347,91,0.124694824,-1.8132324,0.25195312,-0.6513672,0.9638672,-0.47558594,0.0,0.0,0.0,0.0,0.0,0.0,0.0,0.0,0.0,0.0,0.0,-0.40239978,-0.17999524,0.8976697,-0.03765869,-1.2052002,-0.5005493,3.8164062,2.1914062,-0.7919922,15.088523,-8.330924,-3.7264593,18.584545,-1.1798706,0.89245605,-0.5183716,1.0292969,-0.44726562,0.20117188,53.26502,-5.927207,-60.456295,23.685001,0.619751,1.1923218,1.217102,0.26171875,3.7890625,0.53808594,13.575356,-58.431416,-107.83481,10.098938,0.0,0.0,0.0,0.0,0.0,0.0,0.0,-55.48605,-120.62886,25.188189,0.0,0.0,0.0,0.0,0.0,0.0,0.0,0.40239978,0.17999524,-0.8976697,0.30267334,-0.86517334,-0.2946167,-1.890625,-0.6796875,0.051757812,24.300138,8.330924,3.7264593,-18.584545,-1.0153198,-0.38464355,-0.41363525,-0.3017578,0.5253906,0.79589844,33.46492,28.103748,-46.794624,-1.1427765,0.45654297,-0.43426514,0.8187256,-0.23144531,0.1796875,0.11328125,11.93147,16.54502,-117.615715,4.879755,0.0,0.0,0.0,0.0,0.0,0.0,0.0,32.239647,-116.28588,17.203907,0.0,0.0,0.0,0.0,0.0,0.0,0.0,-10.424942,43.589584,4.067112,
2.156249935738743,92,0.26519775,-1.088623,0.2670288,0.5341797,0.71484375,-0.453125,0.0,0.0,0.0,0.0,0.0,0.0,0.0,0.0,0.0,0.0,0.0,-0.38340557,-0.17138818,0.9077182,0.017211914,-1.0863037,-0.352417,3.1289062,1.1894531,-0.23242188,12.493592,-7.937683,-3.5482666,18.792582,-1.1798706,0.89245605,-0.5183716,1.0292969,-0.44726562,0.20117188,58.06514,-0.8233633,-59.80093,24.710323,-0.15509033,1.1763306,0.81762695,0.41210938,4.7421875,-1.9130859,10.746128,-53.32757,-107.17944,11.12426,0.0,0.0,0.0,0.0,0.0,0.0,0.0,-49.015385,-118.99303,26.678467,0.0,0.0,0.0,0.0,0.0,0.0,0.0,0.38340557,0.17138818,-0.9077182,0.20574951,-0.911499,-0.2944336,-2.171875,0.48535156,-0.053710938,21.783922,7.937683,3.5482666,-18.792582,-0.9491577,0.16723633,-0.48864746,2.375,0.80371094,0.9765625,31.598799,25.195723,-48.365475,-2.8090773,0.42132568,-0.36212158,0.82421875,-0.5908203,0.14257812,0.28222656,15.490762,12.055969,-118.90178,2.6750321,0.0,0.0,0.0,0.0,0.0,0.0,0.0,27.676369,-117.55238,15.090218,0.0,0.0,0.0,0.0,0.0,0.0,0.0,-10.360676,43.628056,3.8613214,
2.179687435040251,93,0.08996582,-0.4623413,0.41729736,0.072265625,0.6953125,-0.39257812,0.0,0.0,0.0,0.0,0.0,0.0,0.0,0.0,0.0,0.0,0.0,-0.36911386,-0.15809914,0.91596407,0.025146484,-1.1945801,-0.4500122,2.5205078,0.30371094,0.038085938,11.788899,-7.641801,-3.2731426,18.963297,-0.4710083,-0.6293335,-0.6727295,-3.553711,-1.7363281,1.5,58.368214,2.930787,-58.839485,26.040989,0.047180176,0.62127686,0.73217773,0.4345703,4.498047,-2.5751953,3.8936505,-47.19716,-109.28525,14.687997,0.0,0.0,0.0,0.0,0.0,0.0,0.0,-41.36697,-119.99474,30.531551,0.0,0.0,0.0,0.0,0.0,0.0,0.0,0.36911386,0.15809914,-0.91596407,0.058288574,-1.0033569,-0.09729004,-1.9257812,0.29785156,-0.3720703,18.932177,7.641801,3.2731426,-18.963297,-1.0344238,0.4607544,-0.32208252,0.13183594,0.31933594,0.82421875,29.469988,22.433632,-49.943935,-4.8806553,0.5159302,-0.5473633,0.85302734,-0.5908203,0.23925781,0.26464844,18.778116,7.7380466,-120.22101,0.7297869,0.0,0.0,0.0,0.0,0.0,0.0,0.0,23.239655,-118.67438,13.276239,0.0,0.0,0.0,0.0,0.0,0.0,0.0,-10.055418,43.727985,3.4955115,
2.203124934341759,94,-0.045898438,-0.5703125,0.24145508,0.14648438,0.77246094,-0.46679688,0.0,0.0,0.0,0.0,0.0,0.0,0.0,0.0,0.0,0.0,0.0,-0.35151318,-0.1522918,0.9238487,0.14880371,-1.1236572,-0.8156738,2.1816406,0.26171875,-0.13476562,12.649645,-7.277413,-3.1529126,19.126534,-0.61920166,-0.9260864,-0.70025635,-3.0761719,-2.7060547,2.0546875,57.170574,6.035112,-57.96554,27.362785,0.38531494,0.5496216,0.6583252,1.1582031,4.6679688,-3.1689453,0.5200178,-40.736237,-111.99075,18.379896,0.0,0.0,0.0,0.0,0.0,0.0,0.0,-33.84565,-121.144104,34.766724,0.0,0.0,0.0,0.0,0.0,0.0,0.0,0.35151318,0.1522918,-0.9238487,0.09338379,-0.9312744,-0.07446289,-2.265625,0.7402344,-0.08984375,16.833982,7.277413,3.1529126,-19.126534,-0.95635986,-0.09863281,-0.048828125,-0.80371094,0.18945312,0.8017578,26.945147,19.42048,-51.162823,-6.7780476,0.4185791,-0.5199585,0.78619385,-0.5722656,0.14160156,0.3564453,18.71027,3.5455084,-121.08035,-0.41362143,0.0,0.0,0.0,0.0,0.0,0.0,0.0,18.961735,-119.412964,12.219763,0.0,0.0,0.0,0.0,0.0,0.0,0.0,-10.037665,43.74074,3.391232,
2.226562433643267,95,-0.08544922,-0.5932617,0.15075684,0.45214844,0.8310547,-0.5996094,0.0,0.0,0.0,0.0,0.0,0.0,0.0,0.0,0.0,0.0,0.0,-0.33259547,-0.14051543,0.93267655,0.0446167,-0.6555176,-1.0499878,2.7871094,1.6240234,-0.13867188,13.568443,-6.885757,-2.9091048,19.309298,-0.3935547,-0.888916,-0.76031494,-1.203125,-3.475586,2.1035156,55.321655,9.5668545,-56.775623,28.133516,0.5744629,0.41833496,0.67645264,1.8027344,4.926758,-2.7460938,0.6110179,-32.51351,-114.81871,21.33506,0.0,0.0,0.0,0.0,0.0,0.0,0.0,-25.106133,-122.28934,38.342422,0.0,0.0,0.0,0.0,0.0,0.0,0.0,0.33259547,0.14051543,-0.93267655,-0.1784668,-0.8560791,-0.08117676,-2.4726562,1.1982422,0.061523438,15.67492,6.885757,2.9091048,-19.309298,-0.993103,-0.076538086,0.04937744,0.84277344,0.43164062,0.73828125,23.85538,16.022049,-52.22229,-8.047157,0.46051025,-0.6418457,0.72943115,-0.26953125,0.16113281,0.09472656,18.199512,-0.14841652,-122.06256,-1.5974636,0.0,0.0,0.0,0.0,0.0,0.0,0.0,15.247072,-120.27372,11.047765,0.0,0.0,0.0,0.0,0.0,0.0,0.0,-9.815616,43.812634,3.1004548,
2.249999932944775,96,-0.067871094,-0.54345703,0.22387695,-0.06933594,0.8310547,-0.6689453,0.0,0.0,0.0,0.0,0.0,0.0,0.0,0.0,0.0,0.0,0.0,-0.31175342,-0.12889203,0.9414995,0.18572998,-0.28082275,-0.7855835,2.5009766,2.0019531,0.10839844,14.336253,-6.4542623,-2.6684647,19.491959,-0.28063965,-0.71588135,-0.6203613,0.6669922,-4.1523438,2.6064453,52.58227,12.440695,-55.70752,28.405933,1.0303955,0.5892334,0.671875,2.618164,5.4179688,-2.9736328,4.0347824,-24.702154,-117.289314,24.797174,0.0,0.0,0.0,0.0,0.0,0.0,0.0,-16.958166,-123.29165,42.237762,0.0,0.0,0.0,0.0,0.0,0.0,0.0,0.31175342,0.12889203,-0.9414995,-0.2064209,-0.91973877,-0.045715332,-2.5488281,1.1640625,0.22851562,15.828548,6.4542623,2.6684647,-19.491959,-1.0187988,0.3255005,-0.049072266,0.6933594,0.3935547,0.796875,20.994514,12.350512,-52.998062,-8.700722,0.4312744,-0.73791504,0.7601929,-0.061523438,0.23828125,-0.0546875,19.268423,-4.571453,-122.631165,-1.6643219,0.0,0.0,0.0,0.0,0.0,0.0,0.0,10.844003,-120.78815,10.94949,0.0,0.0,0.0,0.0,0.0,0.0,0.0,-9.790135,43.840508,2.760048,
2.273437432246283,97,0.056030273,-0.50006104,0.23199463,-0.28027344,0.7919922,-0.59277344,0.0,0.0,0.0,0.0,0.0,0.0,0.0,0.0,0.0,0.0,0.0,-0.29174244,-0.12212199,0.9487709,0.25439453,-0.40533447,-0.58288574,1.9511719,1.6708984,0.22460938,15.692291,-6.039974,-2.5283039,19.642498,-0.3140869,-0.18237305,-0.5874634,0.06542969,-4.4560547,3.0546875,48.824924,15.550203,-54.499878,28.71905,0.9470825,0.61309814,0.6307373,2.4121094,5.495117,-2.8085938,7.6803284,-14.477243,-119.93883,27.272871,0.0,0.0,0.0,0.0,0.0,0.0,0.0,-6.5596256,-124.35717,45.10137,0.0,0.0,0.0,0.0,0.0,0.0,0.0,0.29174244,0.12212199,-0.9487709,-0.013244629,-0.96362305,0.090026855,-2.8701172,0.6748047,0.041992188,17.149534,6.039974,2.5283039,-19.642498,-0.878479,-0.060302734,-0.061035156,-1.2548828,0.22753906,0.56640625,18.33879,8.570377,-53.46737,-9.277641,0.44818115,-0.4498291,0.8138428,-0.15527344,0.296875,-0.015625,19.010668,-9.495197,-122.74383,-1.5036998,0.0,0.0,0.0,0.0,0.0,0.0,0.0,5.8757133,-120.992516,11.171761,0.0,0.0,0.0,0.0,0.0,0.0,0.0,-10.046174,43.794685,2.5479262,
2.296874931547791,98,0.04260254,-0.55548096,0.22088623,-0.640625,0.65625,-0.3486328,0.0,0.0,0.0,0.0,0.0,0.0,0.0,0.0,0.0,0.0,0.0,-0.2721491,-0.12395536,0.9543491,0.06317139,-0.3400879,-0.4208374,1.6484375,1.1708984,0.1875,16.933779,-5.6343284,-2.5662606,19.757986,-0.546875,-0.20269775,-0.6080322,-1.7431641,-4.651367,3.2392578,43.45764,18.043873,-53.58588,29.032211,1.1223755,0.68408203,0.76208496,2.4853516,4.866211,-3.0410156,8.967821,-3.3401814,-122.33385,30.38288,0.0,0.0,0.0,0.0,0.0,0.0,0.0,4.505697,-125.2957,48.542847,0.0,0.0,0.0,0.0,0.0,0.0,0.0,0.2721491,0.12395536,-0.9543491,0.25671387,-1.0603027,0.41571045,-2.7177734,-0.022460938,-0.42578125,19.097046,5.6343284,2.5662606,-19.757986,-1.0236816,-0.37145996,0.015197754,-0.16992188,0.46875,0.7558594,15.654241,5.204532,-53.64814,-10.30062,0.4434204,-0.49725342,0.8106079,-0.26953125,0.23925781,0.040039062,17.563887,-13.232876,-122.75913,-3.1083207,0.0,0.0,0.0,0.0,0.0,0.0,0.0,2.0503902,-120.985275,9.66991,0.0,0.0,0.0,0.0,0.0,0.0,0.0,-10.628422,43.65206,2.6388602,
2.3203124308492993,99,0.0446167,-0.6659546,0.12182617,-0.48339844,0.6171875,-0.14648438,0.0,0.0,0.0,0.0,0.0,0.0,0.0,0.0,0.0,0.0,0.0,-0.2555327,-0.1300401,0.95814306,-0.07897949,-0.3862915,-0.23114014,1.3076172,0.9189453,0.2265625,18.163404,-5.290319,-2.6922333,19.836533,-0.664917,-0.5201416,-0.61779785,-1.6142578,-4.8623047,3.0107422,38.74682,20.140089,-52.846058,29.2356,1.1253052,0.7532959,0.77111816,2.0830078,3.7841797,-3.491211,10.935295,6.425355,-123.36345,33.887936,0.0,0.0,0.0,0.0,0.0,0.0,0.0,14.280708,-125.22409,52.18961,0.0,0.0,0.0,0.0,0.0,0.0,0.0,0.2555327,0.1300401,-0.95814306,-0.32696533,-1.0269775,0.1765747,-2.7167969,0.6855469,-0.515625,21.432974,5.290319,2.6922333,-19.836533,-0.88616943,-0.034423828,0.01977539,0.6904297,0.7285156,1.1162109,13.366434,1.9428461,-53.61698,-11.613253,0.44714355,-0.50897217,0.7984619,-0.3076172,0.24023438,-0.08886719,17.820183,-17.452108,-122.63387,-5.0169535,0.0,0.0,0.0,0.0,0.0,0.0,0.0,-2.1698208,-120.862686,7.764447,0.0,0.0,0.0,0.0,0.0,0.0,0.0,-11.158932,43.501747,2.9280584,
2.3437499301508073,100,0.05999756,-0.7578125,0.101623535,-0.40429688,0.57910156,-0.091796875,0.0,0.0,0.0,0.0,0.0,0.0,0.0,0.0,0.0,0.0,0.0,-0.24064445,-0.13569723,0.96122915,-0.016479492,-0.39453125,-0.125,0.8154297,0.32128906,0.22851562,19.267223,-4.9820867,-2.8093534,19.900423,-0.66760254,-0.53912354,-0.4772339,-0.20019531,-5.0703125,3.1982422,34.002575,21.640726,-52.291695,29.502214,1.1295776,0.80566406,0.8679199,1.3076172,2.109375,-3.2490234,14.56822,15.268254,-123.637245,36.58822,0.0,0.0,0.0,0.0,0.0,0.0,0.0,23.411858,-124.78232,54.821976,0.0,0.0,0.0,0.0,0.0,0.0,0.0,0.24064445,0.13569723,-0.96122915,-0.56707764,-1.2542114,-0.07354736,-2.6230469,0.39453125,-0.44335938,24.144123,4.9820867,2.8093534,-19.900423,-0.97943115,0.0960083,0.046936035,0.6894531,0.8408203,1.0605469,11.06669,-1.6777754,-53.405346,-13.193739,0.4661255,-0.5988159,0.8051758,-0.26953125,0.20117188,-0.107421875,18.887686,-22.638382,-121.97258,-6.570602,0.0,0.0,0.0,0.0,0.0,0.0,0.0,-7.3262844,-120.194214,6.1764894,0.0,0.0,0.0,0.0,0.0,0.0,0.0,-11.486785,43.394314,3.2502728,
2.3671874294523154,101,0.08862305,-0.8043213,0.031433105,-0.7128906,0.59765625,0.041015625,0.0,0.0,0.0,0.0,0.0,0.0,0.0,0.0,0.0,0.0,0.0,-0.22555411,-0.14550868,0.9633649,0.0020751953,-0.4165039,-0.21594238,0.47460938,-0.0078125,0.22949219,20.013447,-4.6696687,-3.0124807,19.944641,-0.8751221,-0.2645874,-0.35559082,0.2919922,-5.0751953,3.2363281,27.918005,22.488352,-52.133602,29.902674,1.7886963,1.036499,1.104126,0.40429688,1.0615234,-2.5898438,18.485838,24.573486,-123.65047,37.933815,0.0,0.0,0.0,0.0,0.0,0.0,0.0,33.23401,-124.35443,55.950935,0.0,0.0,0.0,0.0,0.0,0.0,0.0,0.22555411,0.14550868,-0.9633649,-0.18530273,-1.1289673,-0.203125,-1.5126953,-0.92285156,-0.26660156,26.861574,4.6696687,3.0124807,-19.944641,-1.0640259,0.089904785,-0.0446167,-0.3232422,0.8779297,1.078125,9.730094,-4.4809747,-52.95124,-14.15401,0.42559814,-0.6021118,0.87579346,-0.21386719,-0.047851562,-0.29492188,19.310387,-26.978003,-121.026855,-7.5120707,0.0,0.0,0.0,0.0,0.0,0.0,0.0,-11.607439,-119.27734,5.1686716,0.0,0.0,0.0,0.0,0.0,0.0,0.0,-11.936426,43.22979,3.7348242,
2.3906249287538235,102,0.16540527,-0.8951416,0.022094727,-0.7158203,0.71191406,0.22753906,0.0,0.0,0.0,0.0,0.0,0.0,0.0,0.0,0.0,0.0,0.0,-0.21303576,-0.15900478,0.963701,-0.03845215,-0.5484619,-0.16906738,0.6455078,0.35742188,0.20898438,20.763157,-4.410501,-3.291892,19.951601,-1.1447144,-0.5166626,-0.3380127,-0.01953125,-4.8398438,2.899414,21.351704,23.372923,-52.006256,30.175608,1.999939,0.97436523,1.1550903,1.6660156,1.6923828,-4.076172,20.187933,34.76413,-122.6247,38.51983,0.0,0.0,0.0,0.0,0.0,0.0,0.0,43.942833,-122.947975,56.288563,0.0,0.0,0.0,0.0,0.0,0.0,0.0,0.21303576,0.15900478,-0.963701,0.0791626,-1.0090942,-0.19445801,-1.3251953,-0.94140625,-0.099609375,29.055164,4.410501,3.291892,-19.951601,-1.059082,-0.13500977,-0.07879639,-0.36132812,0.9902344,1.1542969,9.517397,-6.24558,-52.471096,-14.797375,0.43878174,-0.5442505,0.89282227,-0.36621094,-0.31640625,-0.4423828,19.154104,-30.321478,-120.01015,-8.804933,0.0,0.0,0.0,0.0,0.0,0.0,0.0,-14.850426,-118.39356,3.7695408,0.0,0.0,0.0,0.0,0.0,0.0,0.0,-12.516304,42.992783,4.3266916,
2.4140624280553316,103,0.19274902,-1.0158081,0.03125,-0.390625,0.8652344,0.44921875,0.0,0.0,0.0,0.0,0.0,0.0,0.0,0.0,0.0,0.0,0.0,-0.2125462,-0.1716428,0.9613226,0.08453369,-1.067749,0.1274414,1.2539062,1.2236328,0.0146484375,21.132486,-4.400366,-3.5535383,19.902359,-1.055603,-0.30841064,-0.42919922,1.2167969,-4.5078125,3.3388672,15.292831,24.394407,-51.72583,29.911865,1.999939,0.68811035,0.71972656,1.0917969,2.1054688,-5.133789,21.5203,44.827858,-120.27842,38.194534,0.0,0.0,0.0,0.0,0.0,0.0,0.0,54.73903,-119.9179,55.564766,0.0,0.0,0.0,0.0,0.0,0.0,0.0,0.2125462,0.1716428,-0.9613226,0.25708008,-0.9250488,0.0,-1.4365234,0.2607422,0.053710938,30.487171,4.400366,3.5535383,-19.902359,-1.1045532,-0.1272583,0.17822266,0.6113281,1.1757812,1.3818359,10.163647,-7.047945,-52.13265,-15.753372,0.39294434,-0.70806885,0.9661865,-0.25390625,-0.8125,-1.1845703,19.336435,-32.88875,-119.13646,-10.727033,0.0,0.0,0.0,0.0,0.0,0.0,0.0,-17.308916,-117.83525,1.7497511,0.0,0.0,0.0,0.0,0.0,0.0,0.0,-13.194648,42.734257,4.7128344,
2.4374999273568396,104,0.17352295,-1.2350464,0.16674805,-0.22167969,1.0371094,0.57910156,0.0,0.0,0.0,0.0,0.0,0.0,0.0,0.0,0.0,0.0,0.0,-0.19596952,-0.18481065,0.96317,-0.087768555,-1.588623,0.88983154,0.29003906,2.7382812,-0.030273438,21.872444,-4.057178,-3.8261535,19.940603,-1.2720337,0.06921387,-0.22351074,0.31152344,-3.8427734,2.9501953,9.406298,25.722527,-51.61202,28.858303,1.999939,-0.6742554,0.0769043,1.0625,1.3935547,-4.2753906,22.144165,54.23844,-117.1888,37.35827,0.0,0.0,0.0,0.0,0.0,0.0,0.0,64.890526,-115.92194,54.241585,0.0,0.0,0.0,0.0,0.0,0.0,0.0,0.19596952,0.18481065,-0.96317,0.1303711,-0.9492798,0.01763916,-1.625,0.8457031,0.18652344,30.948872,4.057178,3.8261535,-19.940603,-0.87786865,0.068115234,0.01171875,-0.028320312,1.4365234,1.4316406,11.633302,-8.032877,-51.799545,-16.87019,0.43023682,-0.7301636,0.98394775,-0.3486328,-1.1660156,-0.39257812,20.539845,-36.375572,-117.85301,-12.609325,0.0,0.0,0.0,0.0,0.0,0.0,0.0,-21.283531,-116.937126,0.48235416,0.0,0.0,0.0,0.0,0.0,0.0,0.0,-13.082432,42.705494,5.5324316,
2.4609374266583477,105,0.010864258,-1.4293213,0.32305908,-0.32128906,1.0195312,0.17089844,0.0,0.0,0.0,0.0,0.0,0.0,0.0,0.0,0.0,0.0,0.0,-0.17139003,-0.197175,0.9653527,-0.2767334,-1.8118896,1.6430054,0.81640625,1.5234375,0.22363281,22.578247,-3.548306,-4.082134,19.985794,-0.85809326,0.916626,1.1129761,-0.2685547,-1.5761719,1.4306641,5.2494907,26.782948,-51.654766,28.141197,1.9614868,-2.0,-1.1560059,1.9697266,1.3300781,-1.8916016,24.230583,60.60173,-114.649055,36.754692,0.0,0.0,0.0,0.0,0.0,0.0,0.0,71.4443,-113.095825,53.492596,0.0,0.0,0.0,0.0,0.0,0.0,0.0,0.17139003,0.197175,-0.9653527,0.033813477,-1.182251,-0.064941406,-1.2285156,1.2060547,0.18652344,32.321133,3.548306,4.082134,-19.985794,-1.0249634,-0.078552246,0.018310547,-0.46191406,1.6982422,1.3662109,12.04125,-9.945513,-51.251225,-17.671856,0.42944336,-0.48339844,1.0426636,-0.21777344,-1.8212891,-0.54589844,20.106102,-40.39159,-116.390625,-14.849863,0.0,0.0,0.0,0.0,0.0,0.0,0.0,-25.396122,-116.11796,-1.6137705,0.0,0.0,0.0,0.0,0.0,0.0,0.0,-12.98507,42.611874,6.3981657,
2.4843749259598558,106,-0.28735352,-1.5299072,0.28308105,-0.13183594,0.38867188,-0.5605469,0.0,0.0,0.0,0.0,0.0,0.0,0.0,0.0,0.0,0.0,0.0,-0.1542289,-0.19910264,0.96785337,0.099975586,-1.8937378,1.0115967,1.2685547,0.3642578,0.30566406,23.429052,-3.1930153,-4.1220417,20.037567,-0.18719482,-0.9557495,0.1687622,-0.9970703,1.0810547,-0.9902344,7.8669147,28.471546,-50.84871,28.017586,1.9898071,-1.1323242,-0.7088623,-1.1474609,0.037109375,1.0625,23.01983,60.88383,-114.30409,36.610306,0.0,0.0,0.0,0.0,0.0,0.0,0.0,71.609146,-112.69816,53.41679,0.0,0.0,0.0,0.0,0.0,0.0,0.0,0.1542289,0.19910264,-0.96785337,-0.23919678,-1.2791138,0.066101074,-0.73828125,0.91015625,0.18359375,33.74995,3.1930153,4.1220417,-20.037567,-1.2017822,-0.1560669,0.052001953,-0.67089844,1.9970703,1.4833984,14.11389,-11.38482,-50.957703,-18.239021,0.41851807,-0.6022949,1.1065674,-0.3330078,-2.6699219,-0.62402344,20.61728,-45.406418,-114.41651,-16.861105,0.0,0.0,0.0,0.0,0.0,0.0,0.0,-30.674719,-114.977325,-3.340907,0.0,0.0,0.0,0.0,0.0,0.0,0.0,-13.332985,42.471733,6.6124716,
2.507812425261364,107,0.10473633,-1.3302612,-0.5463867,1.1318359,0.640625,-0.90527344,0.0,0.0,0.0,0.0,0.0,0.0,0.0,0.0,0.0,0.0,0.0,-0.14365786,-0.17517172,0.97410554,-0.08917236,-1.1619263,0.269104,0.7363281,0.33789062,0.6113281,24.350903,-2.9741628,-3.6265974,20.167006,-0.8012085,-0.6658325,-0.48614502,1.6923828,2.390625,-2.4423828,15.653052,29.651783,-49.58036,28.757944,1.999939,-0.46264648,-0.02746582,-1.8046875,-0.26464844,1.25,22.674622,55.011803,-116.61146,35.642426,0.0,0.0,0.0,0.0,0.0,0.0,0.0,65.504524,-114.69407,52.563347,0.0,0.0,0.0,0.0,0.0,0.0,0.0,0.14365786,0.17517172,-0.97410554,-0.38702393,-1.4605713,0.09844971,-0.7001953,1.3652344,0.25976562,33.795815,2.9741628,3.6265974,-20.167006,-1.336731,-0.1864624,0.045654297,-0.67285156,2.2392578,1.6347656,16.775854,-12.47654,-51.22706,-18.697544,0.41784668,-0.8104248,1.0501709,-0.8857422,-3.7626953,-1.0878906,20.535688,-50.273666,-112.52474,-19.076706,0.0,0.0,0.0,0.0,0.0,0.0,0.0,-35.96981,-114.24947,-5.2003307,0.0,0.0,0.0,0.0,0.0,0.0,0.0,-13.026939,42.691696,5.756006,
2.531249924562872,108,0.58203125,-1.2420654,-0.37451172,0.22460938,0.6777344,-0.7470703,0.0,0.0,0.0,0.0,0.0,0.0,0.0,0.0,0.0,0.0,0.0,-0.12659127,-0.1496229,0.9807813,0.2923584,-0.14471436,-0.066833496,1.0644531,1.8701172,0.03125,24.747463,-2.620832,-3.097658,20.305214,-1.2397461,-0.4928589,-1.1035767,2.118164,2.7509766,-2.3046875,21.807772,30.957285,-48.434246,28.496975,1.5668335,0.22851562,-0.63897705,-1.5322266,-1.21875,0.91015625,22.22047,50.294525,-117.54634,34.51796,0.0,0.0,0.0,0.0,0.0,0.0,0.0,60.971817,-115.426346,51.29905,0.0,0.0,0.0,0.0,0.0,0.0,0.0,0.12659127,0.1496229,-0.9807813,-0.24432373,-1.3511963,-0.054016113,-0.8876953,2.9316406,0.41503906,33.62076,2.620832,3.097658,-20.305214,-1.3734131,-0.46105957,0.19628906,-0.29882812,2.4042969,2.1152344,20.061277,-13.501757,-51.57181,-19.227676,0.35211182,-0.8718872,1.0314941,-1.5332031,-4.986328,-2.1035156,19.326933,-55.325165,-110.157684,-21.370743,0.0,0.0,0.0,0.0,0.0,0.0,0.0,-41.595886,-113.52708,-7.21706,0.0,0.0,0.0,0.0,0.0,0.0,0.0,-12.656836,42.911163,4.9126625,
2.55468742386438,109,-0.051818848,-1.9234009,1.0583496,2.9199219,1.5224609,-0.37695312,0.0,0.0,0.0,0.0,0.0,0.0,0.0,0.0,0.0,0.0,0.0,-0.100265175,-0.12751645,0.9869002,-0.4356079,-1.4226685,-0.58880615,-1.4199219,1.3261719,-1.0810547,23.408018,-2.0758007,-2.6399858,20.431896,-2.0,0.77197266,-0.2442627,1.7675781,1.7548828,4.1533203,21.997364,31.116766,-48.636375,26.161245,-1.1932373,-0.044799805,1.269165,-3.1357422,-1.453125,6.1064453,30.950937,49.0588,-118.09,32.527653,0.0,0.0,0.0,0.0,0.0,0.0,0.0,59.232697,-117.86262,49.750008,0.0,0.0,0.0,0.0,0.0,0.0,0.0,0.100265175,0.12751645,-0.9869002,0.19805908,-1.5859375,0.9265747,1.1289062,0.60058594,0.15722656,32.237923,2.0758007,2.6399858,-20.431896,-1.5565796,-0.22601318,0.20465088,2.1308594,3.0009766,2.227539,24.556908,-13.944804,-52.062973,-19.592134,0.1942749,-0.77111816,1.3624878,-1.8037109,-6.9052734,-3.147461,17.733122,-59.901276,-107.347206,-23.79842,0.0,0.0,0.0,0.0,0.0,0.0,0.0,-47.14736,-112.98336,-9.453726,0.0,0.0,0.0,0.0,0.0,0.0,0.0,-11.828141,43.202835,4.3805046,
2.578124923165888,110,-1.1882324,-1.90094,0.2532959,0.7128906,-0.08886719,-0.7597656,0.0,0.0,0.0,0.0,0.0,0.0,0.0,0.0,0.0,0.0,0.0,-0.08332834,-0.09012228,0.99256563,0.22106934,-1.9910889,-0.2310791,0.3046875,0.203125,-1.4589844,23.974089,-1.725155,-1.8658106,20.549187,-0.92071533,-0.8319092,-0.897522,3.140625,3.2050781,-2.694336,27.233212,31.747612,-47.809643,24.894072,1.999939,-0.4212036,0.6279907,-0.8251953,-4.413086,-1.8056641,31.527637,43.570305,-118.49536,31.991596,0.0,0.0,0.0,0.0,0.0,0.0,0.0,54.222034,-118.722176,48.92195,0.0,0.0,0.0,0.0,0.0,0.0,0.0,0.08332834,0.09012228,-0.99256563,0.04156494,-1.8462524,0.49395752,-0.078125,1.0126953,0.21875,29.991251,1.725155,1.8658106,-20.549187,-2.0,-1.0408325,-0.107910156,-2.024414,2.3330078,1.4707031,29.032139,-14.024418,-52.904934,-19.56228,0.10064697,-1.324646,1.2897339,-2.2285156,-9.4375,-4.7646484,14.38604,-63.53595,-104.80614,-25.972557,0.0,0.0,0.0,0.0,0.0,0.0,0.0,-52.794113,-113.37531,-11.434247,0.0,0.0,0.0,0.0,0.0,0.0,0.0,-10.528948,43.64826,3.079213,
2.601562422467396,111,-0.06762695,0.49938965,0.72106934,0.9638672,-0.6269531,-0.4892578,0.0,0.0,0.0,0.0,0.0,0.0,0.0,0.0,0.0,0.0,0.0,-0.08858776,-0.062108412,0.9937589,-0.9661865,-0.331604,-1.3012695,0.08984375,-0.90722656,-0.8798828,22.382881,-1.8340406,-1.2858369,20.57389,-0.0690918,-0.53167725,-1.2887573,3.8652344,1.7304688,-1.8447266,30.924572,30.755627,-47.989594,23.077414,0.46417236,-2.0,1.2466431,-5.1171875,0.55078125,3.2548828,31.470499,36.678745,-119.469536,29.514797,0.0,0.0,0.0,0.0,0.0,0.0,0.0,47.92794,-118.45665,46.02481,0.0,0.0,0.0,0.0,0.0,0.0,0.0,0.08858776,0.062108412,-0.9937589,0.62164307,-1.3682251,0.3328247,1.6210938,0.9921875,-0.2705078,27.859276,1.8340406,1.2858369,-20.57389,-1.2459717,-1.3182373,0.48028564,2.0029297,2.6279297,2.0214844,34.26181,-12.566136,-53.863224,-19.736492,-0.22070312,-1.7907715,0.92437744,0.27929688,-13.282227,-5.9970703,14.333521,-65.22896,-102.32852,-27.739265,0.0,0.0,0.0,0.0,0.0,0.0,0.0,-58.518753,-114.21622,-13.112918,0.0,0.0,0.0,0.0,0.0,0.0,0.0,-10.148645,43.785328,1.8318248,
