TOTAL_TIME,0m9s
TOTAL_FRAMES,383
SELECTED_FRAMES,383
NO_OF_JOINTS,12
FREQUENCY,42.666668
DESCRIPTION,Capture 10
TIME_STAMP,Jul 8, 2010

Time,Frame,Pelvis_accelX_Pelvis,Pelvis_accelY_Pelvis,Pelvis_accelZ_Pelvis,Pelvis_gyroX_Pelvis,Pelvis_gyroY_Pelvis,Pelvis_gyroZ_Pelvis,Pelvis_Joint angle_Pelvis,Pelvis_Relative pos X_Pelvis,Pelvis_Relative pos Y_Pelvis,Pelvis_Relative pos Z_Pelvis,RightPelvis_accelX_RightPelvis,RightPelvis_accelY_RightPelvis,RightPelvis_accelZ_RightPelvis,RightPelvis_gyroX_RightPelvis,RightPelvis_gyroY_RightPelvis,RightPelvis_gyroZ_RightPelvis,RightPelvis_Joint angle_RightPelvis,RightPelvis_Relative pos X_RightPelvis,RightPelvis_Relative pos Y_RightPelvis,RightPelvis_Relative pos Z_RightPelvis,RightUpLeg_accelX_RightUpLeg,RightUpLeg_accelY_RightUpLeg,RightUpLeg_accelZ_RightUpLeg,RightUpLeg_gyroX_RightUpLeg,RightUpLeg_gyroY_RightUpLeg,RightUpLeg_gyroZ_RightUpLeg,RightUpLeg_Joint angle_RightUpLeg,RightUpLeg_Relative pos X_RightUpLeg,RightUpLeg_Relative pos Y_RightUpLeg,RightUpLeg_Relative pos Z_RightUpLeg,RightLeg_accelX_RightLeg,RightLeg_accelY_RightLeg,RightLeg_accelZ_RightLeg,RightLeg_gyroX_RightLeg,RightLeg_gyroY_RightLeg,RightLeg_gyroZ_RightLeg,RightLeg_Joint angle_RightLeg,RightLeg_Relative pos X_RightLeg,RightLeg_Relative pos Y_RightLeg,RightLeg_Relative pos Z_RightLeg,RightFoot_accelX_RightFoot,RightFoot_accelY_RightFoot,RightFoot_accelZ_RightFoot,RightFoot_gyroX_RightFoot,RightFoot_gyroY_RightFoot,RightFoot_gyroZ_RightFoot,RightFoot_Joint angle_RightFoot,RightFoot_Relative pos X_RightFoot,RightFoot_Relative pos Y_RightFoot,RightFoot_Relative pos Z_RightFoot,RightFootEnd_accelX_RightFootEnd,RightFootEnd_accelY_RightFootEnd,RightFootEnd_accelZ_RightFootEnd,RightFootEnd_gyroX_RightFootEnd,RightFootEnd_gyroY_RightFootEnd,RightFootEnd_gyroZ_RightFootEnd,RightFootEnd_Joint angle_RightFootEnd,RightFootEnd_Relative pos X_RightFootEnd,RightFootEnd_Relative pos Y_RightFootEnd,RightFootEnd_Relative pos Z_RightFootEnd,LeftPelvis_accelX_LeftPelvis,LeftPelvis_accelY_LeftPelvis,LeftPelvis_accelZ_LeftPelvis,LeftPelvis_gyroX_LeftPelvis,LeftPelvis_gyroY_LeftPelvis,LeftPelvis_gyroZ_LeftPelvis,LeftPelvis_Joint angle_LeftPelvis,LeftPelvis_Relative pos X_LeftPelvis,LeftPelvis_Relative pos Y_LeftPelvis,LeftPelvis_Relative pos Z_LeftPelvis,LeftUpLeg_accelX_LeftUpLeg,LeftUpLeg_accelY_LeftUpLeg,LeftUpLeg_accelZ_LeftUpLeg,LeftUpLeg_gyroX_LeftUpLeg,LeftUpLeg_gyroY_LeftUpLeg,LeftUpLeg_gyroZ_LeftUpLeg,LeftUpLeg_Joint angle_LeftUpLeg,LeftUpLeg_Relative pos X_LeftUpLeg,LeftUpLeg_Relative pos Y_LeftUpLeg,LeftUpLeg_Relative pos Z_LeftUpLeg,LeftLeg_accelX_LeftLeg,LeftLeg_accelY_LeftLeg,LeftLeg_accelZ_LeftLeg,LeftLeg_gyroX_LeftLeg,LeftLeg_gyroY_LeftLeg,LeftLeg_gyroZ_LeftLeg,LeftLeg_Joint angle_LeftLeg,LeftLeg_Relative pos X_LeftLeg,LeftLeg_Relative pos Y_LeftLeg,LeftLeg_Relative pos Z_LeftLeg,LeftFoot_accelX_LeftFoot,LeftFoot_accelY_LeftFoot,LeftFoot_accelZ_LeftFoot,LeftFoot_gyroX_LeftFoot,LeftFoot_gyroY_LeftFoot,LeftFoot_gyroZ_LeftFoot,LeftFoot_Joint angle_LeftFoot,LeftFoot_Relative pos X_LeftFoot,LeftFoot_Relative pos Y_LeftFoot,LeftFoot_Relative pos Z_LeftFoot,LeftFootEnd_accelX_LeftFootEnd,LeftFootEnd_accelY_LeftFootEnd,LeftFootEnd_accelZ_LeftFootEnd,LeftFootEnd_gyroX_LeftFootEnd,LeftFootEnd_gyroY_LeftFootEnd,LeftFootEnd_gyroZ_LeftFootEnd,LeftFootEnd_Joint angle_LeftFootEnd,LeftFootEnd_Relative pos X_LeftFootEnd,LeftFootEnd_Relative pos Y_LeftFootEnd,LeftFootEnd_Relative pos Z_LeftFootEnd,Spine_accelX_Spine,Spine_accelY_Spine,Spine_accelZ_Spine,Spine_gyroX_Spine,Spine_gyroY_Spine,Spine_gyroZ_Spine,Spine_Joint angle_Spine,Spine_Relative pos X_Spine,Spine_Relative pos Y_Spine,Spine_Relative pos Z_Spine,
0.0,0,0.0,0.0,0.0,0.0,0.0,0.0,0.0,0.0,0.0,0.0,0.0,0.0,0.0,0.0,0.0,0.0,0.0,0.0,0.0,0.0,0.0,0.0,0.0,0.0,0.0,0.0,NaN,0.0,0.0,0.0,0.0,0.0,0.0,0.0,0.0,0.0,NaN,0.0,0.0,0.0,0.0,0.0,0.0,0.0,0.0,0.0,NaN,0.0,0.0,0.0,0.0,0.0,0.0,0.0,0.0,0.0,0.0,0.0,0.0,0.0,0.0,0.0,0.0,0.0,0.0,0.0,0.0,0.0,0.0,0.0,0.0,0.0,0.0,0.0,0.0,0.0,NaN,0.0,0.0,0.0,0.0,0.0,0.0,0.0,0.0,0.0,NaN,0.0,0.0,0.0,0.0,0.0,0.0,0.0,0.0,0.0,NaN,0.0,0.0,0.0,0.0,0.0,0.0,0.0,0.0,0.0,0.0,0.0,0.0,0.0,0.0,0.0,0.0,0.0,0.0,0.0,0.0,0.0,0.0,0.0,
0.02343749930150809,1,0.0,0.0,0.0,0.0,0.0,0.0,0.0,0.0,0.0,0.0,0.0,0.0,0.0,0.0,0.0,0.0,0.0,0.0,0.0,0.0,0.0,0.0,0.0,0.0,0.0,0.0,NaN,0.0,0.0,0.0,0.0,0.0,0.0,0.0,0.0,0.0,NaN,0.0,0.0,0.0,0.0,0.0,0.0,0.0,0.0,0.0,NaN,0.0,0.0,0.0,0.0,0.0,0.0,0.0,0.0,0.0,0.0,0.0,0.0,0.0,0.0,0.0,0.0,0.0,0.0,0.0,0.0,0.0,0.0,0.0,0.0,0.0,0.0,0.0,0.0,0.0,NaN,0.0,0.0,0.0,0.0,0.0,0.0,0.0,0.0,0.0,NaN,0.0,0.0,0.0,0.0,0.0,0.0,0.0,0.0,0.0,NaN,0.0,0.0,0.0,0.0,0.0,0.0,0.0,0.0,0.0,0.0,0.0,0.0,0.0,0.0,0.0,0.0,0.0,0.0,0.0,0.0,0.0,0.0,0.0,
0.04687499860301618,2,0.0,0.0,0.0,0.0,0.0,0.0,0.0,0.0,0.0,0.0,0.0,0.0,0.0,0.0,0.0,0.0,0.0,0.0,0.0,0.0,0.0,0.0,0.0,0.0,0.0,0.0,NaN,0.0,0.0,0.0,0.0,0.0,0.0,0.0,0.0,0.0,NaN,0.0,0.0,0.0,0.0,0.0,0.0,0.0,0.0,0.0,NaN,0.0,0.0,0.0,0.0,0.0,0.0,0.0,0.0,0.0,0.0,0.0,0.0,0.0,0.0,0.0,0.0,0.0,0.0,0.0,0.0,0.0,0.0,0.0,0.0,0.0,0.0,0.0,0.0,0.0,NaN,0.0,0.0,0.0,0.0,0.0,0.0,0.0,0.0,0.0,NaN,0.0,0.0,0.0,0.0,0.0,0.0,0.0,0.0,0.0,NaN,0.0,0.0,0.0,0.0,0.0,0.0,0.0,0.0,0.0,0.0,0.0,0.0,0.0,0.0,0.0,0.0,0.0,0.0,0.0,0.0,0.0,0.0,0.0,
0.07031249790452426,3,-0.017089844,-0.9628906,0.34838867,9.765625E-4,0.00390625,0.028320312,0.0,0.0,0.0,0.0,0.0,0.0,0.0,0.0,0.0,0.0,0.0,-0.15625283,-0.026344273,0.98756146,-0.02758789,-0.93408203,-0.36773682,0.0048828125,0.005859375,-9.765625E-4,3.4306242,-3.2349176,-0.54540807,20.445585,-0.9590454,-0.07507324,-0.16217041,-0.016601562,0.0078125,-0.001953125,2.3225417,-3.97454,-57.548187,20.792522,0.5439453,0.42474365,0.739563,0.00390625,0.015625,-0.028320312,15.256469,-4.807139,-129.52867,18.882101,0.0,0.0,0.0,0.0,0.0,0.0,0.0,9.525644,-130.1261,32.820625,0.0,0.0,0.0,0.0,0.0,0.0,0.0,0.15625283,0.026344273,-0.98756146,-0.018005371,-0.99194336,-0.27868652,0.015625,0.028320312,0.0107421875,5.7920375,3.2349176,0.54540807,-20.445585,-0.9817505,-0.016906738,-0.10699463,-0.055664062,0.061523438,0.041015625,2.3753695,1.0113072,-56.368484,-18.064213,0.44543457,-0.53326416,0.7734375,-0.0048828125,0.005859375,0.036132812,4.081591,1.9677718,-128.2425,-13.759535,0.0,0.0,0.0,0.0,0.0,0.0,0.0,20.829924,-128.85144,-7.130166,0.0,0.0,0.0,0.0,0.0,0.0,0.0,-1.8367896,44.96202,0.90879226,
0.09374999720603236,4,-0.014099121,-0.9708252,0.35528564,-0.038085938,0.022460938,0.028320312,0.0,0.0,0.0,0.0,0.0,0.0,0.0,0.0,0.0,0.0,0.0,-0.15475816,-0.025637683,0.98768973,-0.0072021484,-0.9303589,-0.38079834,0.0048828125,-0.0126953125,-9.765625E-4,3.4192483,-3.2039735,-0.53077954,20.44824,-0.9819946,-0.05444336,-0.17883301,-0.034179688,0.045898438,0.036132812,2.2110736,-3.9838185,-57.530434,20.764042,0.5549927,0.4244995,0.7374878,0.0029296875,-0.00390625,-0.0087890625,15.227591,-4.8098774,-129.51935,18.94375,0.0,0.0,0.0,0.0,0.0,0.0,0.0,9.525864,-130.11797,32.879387,0.0,0.0,0.0,0.0,0.0,0.0,0.0,0.15475816,0.025637683,-0.98768973,0.020324707,-0.973999,-0.2791748,-0.00390625,0.046875,0.0107421875,5.709868,3.2039735,0.53077954,-20.44824,-0.98876953,-0.0061035156,-0.12261963,-0.018554688,0.080078125,0.021484375,2.356591,0.9848592,-56.384525,-18.13283,0.4533081,-0.55340576,0.7800293,0.0146484375,0.025390625,-9.765625E-4,4.027544,1.9108028,-128.26315,-13.882573,0.0,0.0,0.0,0.0,0.0,0.0,0.0,20.771576,-128.86232,-7.2483654,0.0,0.0,0.0,0.0,0.0,0.0,0.0,-1.819305,44.957672,0.88191485,
0.11718749650754046,5,0.009094238,-0.95739746,0.352417,-0.055664062,-0.015625,0.028320312,0.0,0.0,0.0,0.0,0.0,0.0,0.0,0.0,0.0,0.0,0.0,-0.15463752,-0.025420714,0.9877479,-0.020324707,-0.9368286,-0.40368652,0.0048828125,-0.032226562,0.018554688,3.478515,-3.2014773,-0.52628773,20.449444,-0.97247314,-0.08087158,-0.16027832,-0.03515625,0.0078125,0.016601562,2.1559486,-4.0555964,-57.532795,20.749775,0.574646,0.4104004,0.7223511,0.0029296875,-0.022460938,0.009765625,15.240355,-4.893384,-129.51854,18.958742,0.0,0.0,0.0,0.0,0.0,0.0,0.0,9.438926,-130.12094,32.897945,0.0,0.0,0.0,0.0,0.0,0.0,0.0,0.15463752,0.025420714,-0.9877479,-0.009094238,-0.9989624,-0.2868042,0.015625,0.046875,0.0107421875,5.687547,3.2014773,0.52628773,-20.449444,-0.98394775,0.012634277,-0.11456299,-0.055664062,0.061523438,0.041015625,2.3347292,0.9786298,-56.386353,-18.168198,0.4342041,-0.5317383,0.75787354,-0.080078125,0.08300781,0.055664062,3.9476926,1.8623767,-128.27165,-13.939999,0.0,0.0,0.0,0.0,0.0,0.0,0.0,20.723295,-128.85059,-7.3016686,0.0,0.0,0.0,0.0,0.0,0.0,0.0,-1.8222172,44.959255,0.87179464,
0.14062499580904855,6,-0.014953613,-0.9472656,0.34558105,-0.056640625,0.022460938,0.046875,0.0,0.0,0.0,0.0,0.0,0.0,0.0,0.0,0.0,0.0,0.0,-0.15204999,-0.02521089,0.9881796,-0.01928711,-0.9232788,-0.39855957,0.0048828125,-0.032226562,-0.020507812,3.501181,-3.1479063,-0.5219437,20.458384,-0.97839355,-0.06878662,-0.16217041,-0.0546875,0.026367188,0.0546875,2.1180325,-4.0682673,-57.523975,20.739538,0.5432129,0.39794922,0.739563,0.00390625,0.015625,-0.009765625,15.32659,-4.967575,-129.51437,18.966442,0.0,0.0,0.0,0.0,0.0,0.0,0.0,9.360962,-130.11768,32.910908,0.0,0.0,0.0,0.0,0.0,0.0,0.0,0.15204999,0.02521089,-0.9881796,-0.0025024414,-0.9567871,-0.27764893,-0.00390625,0.0107421875,0.0107421875,5.683652,3.1479063,0.5219437,-20.458384,-0.9974365,-0.049438477,-0.116882324,-0.0546875,-0.03125,0.0029296875,2.4238203,0.8953395,-56.39419,-18.17774,0.4505005,-0.56677246,0.8088379,-0.061523438,0.08300781,0.055664062,3.8730772,1.8334148,-128.27034,-13.87866,0.0,0.0,0.0,0.0,0.0,0.0,0.0,20.691668,-128.81357,-7.2280235,0.0,0.0,0.0,0.0,0.0,0.0,0.0,-1.7964633,44.96141,0.87065655,
0.16406249511055665,7,-0.017028809,-0.94714355,0.3406372,9.765625E-4,0.00390625,0.046875,0.0,0.0,0.0,0.0,0.0,0.0,0.0,0.0,0.0,0.0,0.0,-0.15083387,-0.024982817,0.9883632,-0.022399902,-0.9397583,-0.39868164,0.0234375,0.005859375,-9.765625E-4,3.5641973,-3.122728,-0.51722175,20.462183,-0.9780884,-0.061462402,-0.17889404,-0.053710938,0.045898438,0.07324219,2.0469837,-4.124543,-57.512684,20.72358,0.5470581,0.39404297,0.7305298,0.0029296875,-0.00390625,-0.0087890625,15.343002,-5.0514154,-129.50688,18.998589,0.0,0.0,0.0,0.0,0.0,0.0,0.0,9.276872,-130.10883,32.94268,0.0,0.0,0.0,0.0,0.0,0.0,0.0,0.15083387,0.024982817,-0.9883632,-0.020874023,-0.97698975,-0.3012085,-0.022460938,0.046875,0.029296875,5.6766477,3.122728,0.51722175,-20.462183,-0.9780884,0.0107421875,-0.08691406,0.018554688,0.09863281,0.021484375,2.4190514,0.8517468,-56.402187,-18.20653,0.4423828,-0.5523071,0.78930664,-0.061523438,0.06347656,0.055664062,3.7866175,1.7649434,-128.28738,-13.950018,0.0,0.0,0.0,0.0,0.0,0.0,0.0,20.609667,-128.81659,-7.2677536,0.0,0.0,0.0,0.0,0.0,0.0,0.0,-1.7959878,44.96121,0.86239743,
0.18749999441206475,8,0.007080078,-0.9564209,0.35437012,-0.018554688,0.022460938,0.046875,0.0,0.0,0.0,0.0,0.0,0.0,0.0,0.0,0.0,0.0,0.0,-0.1507195,-0.024476923,0.98834616,-0.015258789,-0.9320679,-0.4006958,0.0048828125,0.08203125,-0.001953125,3.6050003,-3.120361,-0.50674814,20.461828,-0.93481445,-0.049072266,-0.1786499,-0.07324219,0.026367188,0.07324219,1.9324932,-4.182507,-57.50203,20.705343,0.5598755,0.418396,0.7384033,-0.016601562,-0.022460938,-0.0087890625,15.339877,-5.1202374,-129.49545,19.089771,0.0,0.0,0.0,0.0,0.0,0.0,0.0,9.210424,-130.09836,33.031563,0.0,0.0,0.0,0.0,0.0,0.0,0.0,0.1507195,0.024476923,-0.98834616,0.0040283203,-0.99438477,-0.26623535,-0.022460938,0.046875,0.0107421875,5.6242027,3.120361,0.50674814,-20.461828,-0.9796753,-0.013000488,-0.124816895,-0.018554688,0.061523438,0.0029296875,2.4369473,0.85083437,-56.406902,-18.267616,0.4586792,-0.5529785,0.8027954,-0.080078125,0.044921875,0.055664062,3.670292,1.7633629,-128.28525,-14.025353,0.0,0.0,0.0,0.0,0.0,0.0,0.0,20.603355,-128.79272,-7.322126,0.0,0.0,0.0,0.0,0.0,0.0,0.0,-1.7977479,44.95948,0.8392951,
0.21093749371357284,9,-0.028930664,-0.93341064,0.3505249,0.001953125,-0.015625,0.02734375,0.0,0.0,0.0,0.0,0.0,0.0,0.0,0.0,0.0,0.0,0.0,-0.14939478,-0.024474517,0.98853457,-0.020446777,-0.9456787,-0.38580322,0.0234375,0.025390625,-9.765625E-4,3.6078234,-3.0929353,-0.50669837,20.46573,-0.9706421,-0.05432129,-0.18963623,-0.016601562,0.026367188,0.036132812,1.8665545,-4.183951,-57.506954,20.691317,0.56536865,0.39526367,0.7463379,0.0029296875,-0.00390625,-0.0087890625,15.355064,-5.1402826,-129.49829,19.13469,0.0,0.0,0.0,0.0,0.0,0.0,0.0,9.190707,-130.10213,33.076706,0.0,0.0,0.0,0.0,0.0,0.0,0.0,0.14939478,0.024474517,-0.98853457,0.014404297,-0.9659424,-0.2888794,-0.022460938,0.046875,0.047851562,5.5749936,3.0929353,0.50669837,-20.46573,-0.9644165,-0.040649414,-0.12542725,-0.018554688,0.061523438,0.0029296875,2.4471264,0.8173919,-56.410786,-18.34043,0.43200684,-0.5516968,0.7677002,-0.080078125,0.044921875,0.055664062,3.5665038,1.701333,-128.29042,-14.106287,0.0,0.0,0.0,0.0,0.0,0.0,0.0,20.534096,-128.78029,-7.383296,0.0,0.0,0.0,0.0,0.0,0.0,0.0,-1.7810107,44.959488,0.8439646,
0.23437499301508094,10,-0.031433105,-1.0097046,0.35406494,-0.017578125,0.00390625,0.028320312,0.0,0.0,0.0,0.0,0.0,0.0,0.0,0.0,0.0,0.0,0.0,-0.14885679,-0.024616208,0.9886719,-0.018371582,-0.93310547,-0.38372803,0.0234375,0.025390625,-9.765625E-4,3.6613183,-3.0817983,-0.50963175,20.468573,-0.9828491,-0.051208496,-0.18963623,-0.055664062,-0.03125,0.03515625,1.7783927,-4.2137246,-57.50613,20.655426,0.53759766,0.4225464,0.71069336,-0.015625,-0.00390625,0.009765625,15.412879,-5.212396,-129.49736,19.159966,0.0,0.0,0.0,0.0,0.0,0.0,0.0,9.114573,-130.10474,33.106136,0.0,0.0,0.0,0.0,0.0,0.0,0.0,0.14885679,0.024616208,-0.9886719,-0.019836426,-0.9771118,-0.28546143,-0.041015625,0.029296875,0.0107421875,5.58767,3.0817983,0.50963175,-20.468573,-0.9639282,-0.015808105,-0.06768799,-0.055664062,0.061523438,0.059570312,2.396779,0.80813193,-56.40758,-18.364777,0.44293213,-0.5790405,0.7860718,-0.0234375,0.025390625,0.017578125,3.3650522,1.6236706,-128.28879,-14.1558,0.0,0.0,0.0,0.0,0.0,0.0,0.0,20.44285,-128.74582,-7.395943,0.0,0.0,0.0,0.0,0.0,0.0,0.0,-1.8038793,44.961163,0.8478582,
0.25781249231658904,11,-0.019165039,-0.982605,0.3630371,-0.036132812,-0.015625,0.046875,0.0,0.0,0.0,0.0,0.0,0.0,0.0,0.0,0.0,0.0,0.0,-0.14665174,-0.024370264,0.9889637,-0.010253906,-0.9350586,-0.3937378,0.0048828125,0.005859375,-9.765625E-4,3.6882267,-3.0361466,-0.50454,20.474615,-0.93725586,-0.071899414,-0.18371582,-0.034179688,0.045898438,0.036132812,1.7264643,-4.22448,-57.49504,20.632442,0.5670166,0.4232788,0.7313843,0.022460938,-0.00390625,0.009765625,15.448406,-5.2632837,-129.48369,19.159101,0.0,0.0,0.0,0.0,0.0,0.0,0.0,9.064352,-130.09488,33.103813,0.0,0.0,0.0,0.0,0.0,0.0,0.0,0.14665174,0.024370264,-0.9889637,0.003112793,-0.9873657,-0.28790283,-0.022460938,-0.0078125,0.029296875,5.5625,3.0361466,0.50454,-20.474615,-0.9890747,-0.0029296875,-0.0670166,-0.09277344,0.061523438,0.060546875,2.3959622,0.7715137,-56.413227,-18.372704,0.44641113,-0.5524292,0.7891846,-0.080078125,0.08300781,0.055664062,3.3495986,1.5565809,-128.29817,-14.082308,0.0,0.0,0.0,0.0,0.0,0.0,0.0,20.37242,-128.74983,-7.310436,0.0,0.0,0.0,0.0,0.0,0.0,0.0,-1.7918932,44.9598,0.8421925,
0.2812499916180971,12,-0.030212402,-0.97943115,0.35717773,-0.037109375,0.00390625,-0.0087890625,0.0,0.0,0.0,0.0,0.0,0.0,0.0,0.0,0.0,0.0,0.0,-0.14582896,-0.024029654,0.9891885,-0.009216309,-0.93896484,-0.39282227,0.0234375,0.025390625,0.037109375,3.7070785,-3.0191123,-0.49748835,20.479269,-0.96484375,-0.06378174,-0.1729126,-0.053710938,0.02734375,0.016601562,1.6319484,-4.2563396,-57.495613,20.590322,0.55163574,0.4116211,0.73846436,0.0029296875,-0.022460938,-0.0087890625,15.451394,-5.2692957,-129.49297,19.161642,0.0,0.0,0.0,0.0,0.0,0.0,0.0,9.051364,-130.1025,33.114132,0.0,0.0,0.0,0.0,0.0,0.0,0.0,0.14582896,0.024029654,-0.9891885,0.006958008,-1.0033569,-0.2574463,-0.022460938,0.029296875,0.047851562,5.5184984,3.0191123,0.49748835,-20.479269,-0.9727783,-0.016845703,-0.09429932,0.01953125,0.024414062,0.001953125,2.431721,0.77043915,-56.425964,-18.403683,0.4345703,-0.54852295,0.8074341,-0.080078125,0.08300781,0.07421875,3.3459728,1.5977119,-128.30424,-14.091241,0.0,0.0,0.0,0.0,0.0,0.0,0.0,20.416155,-128.73506,-7.3224916,0.0,0.0,0.0,0.0,0.0,0.0,0.0,-1.7865491,44.96448,0.8289122,
0.3046874909196052,13,-0.019165039,-0.97857666,0.35327148,-0.056640625,0.00390625,0.028320312,0.0,0.0,0.0,0.0,0.0,0.0,0.0,0.0,0.0,0.0,0.0,-0.14516264,-0.023772482,0.98926604,-0.011291504,-0.94195557,-0.3838501,0.0048828125,0.043945312,-9.765625E-4,3.6829135,-3.0053167,-0.4921641,20.480873,-0.97961426,-0.046081543,-0.19750977,-0.016601562,0.0068359375,0.03515625,1.5585903,-4.2483306,-57.485775,20.552156,0.555603,0.4159546,0.71850586,-0.015625,0.015625,-0.028320312,15.430217,-5.258196,-129.48299,19.164553,0.0,0.0,0.0,0.0,0.0,0.0,0.0,9.06813,-130.10155,33.109444,0.0,0.0,0.0,0.0,0.0,0.0,0.0,0.14516264,0.023772482,-0.98926604,0.008300781,-0.97369385,-0.2878418,-0.041015625,0.06542969,0.029296875,5.442477,3.0053167,0.4921641,-20.480873,-0.98272705,-0.013000488,-0.11682129,-0.018554688,0.061523438,0.040039062,2.4264836,0.78840184,-56.431793,-18.460295,0.4376831,-0.59173584,0.7821045,-0.061523438,0.08300781,0.055664062,3.268843,1.6327162,-128.31027,-14.18906,0.0,0.0,0.0,0.0,0.0,0.0,0.0,20.442963,-128.72678,-7.3995457,0.0,0.0,0.0,0.0,0.0,0.0,0.0,-1.775018,44.96391,0.82003975,
0.32812499022111324,14,-0.041259766,-0.97436523,0.35424805,-0.11621094,0.060546875,0.029296875,0.0,0.0,0.0,0.0,0.0,0.0,0.0,0.0,0.0,0.0,0.0,-0.14313263,-0.025402553,0.9894381,-0.0073242188,-0.9450073,-0.36895752,0.0234375,0.025390625,0.017578125,3.7765725,-2.9632897,-0.52591157,20.484436,-0.96502686,-0.06512451,-0.15618896,-0.0146484375,0.064453125,0.036132812,1.5128435,-4.2064986,-57.519337,20.5467,0.5397949,0.4177246,0.7475586,0.0029296875,-0.0029296875,-0.02734375,15.424324,-5.2196846,-129.5113,19.206575,0.0,0.0,0.0,0.0,0.0,0.0,0.0,9.10257,-130.12778,33.15535,0.0,0.0,0.0,0.0,0.0,0.0,0.0,0.14313263,0.025402553,-0.9894381,-0.0060424805,-0.9981079,-0.27600098,0.052734375,0.009765625,0.029296875,5.5083323,2.9632897,0.52591157,-20.484436,-0.9688721,-0.010009766,-0.09625244,-0.055664062,0.061523438,0.00390625,2.4254348,0.78079915,-56.40383,-18.490492,0.4376831,-0.59173584,0.7821045,-0.061523438,0.08300781,0.055664062,3.261888,1.6415479,-128.28659,-14.20537,0.0,0.0,0.0,0.0,0.0,0.0,0.0,20.451794,-128.7031,-7.4158554,0.0,0.0,0.0,0.0,0.0,0.0,0.0,-1.8317759,44.956615,0.8892176,
0.3515624895226213,15,-0.04925537,-0.9763794,0.3670044,-0.056640625,0.00390625,0.009765625,0.0,0.0,0.0,0.0,0.0,0.0,0.0,0.0,0.0,0.0,0.0,-0.14007747,-0.026853897,0.98987734,-0.020446777,-0.93792725,-0.3857422,0.041992188,0.025390625,0.017578125,3.8473072,-2.9000378,-0.55595905,20.49353,-0.94000244,-0.045410156,-0.1609497,0.00390625,0.045898438,0.016601562,1.4662037,-4.1532946,-57.55061,20.528006,0.53479004,0.416687,0.7536011,-0.015625,0.015625,-0.009765625,15.405153,-5.1430583,-129.54985,19.204987,0.0,0.0,0.0,0.0,0.0,0.0,0.0,9.177437,-130.1616,33.156235,0.0,0.0,0.0,0.0,0.0,0.0,0.0,0.14007747,0.026853897,-0.98987734,0.0051879883,-0.98358154,-0.27209473,0.14746094,0.02734375,0.009765625,5.5037055,2.9000378,0.55595905,-20.49353,-0.9696045,-0.03564453,-0.101501465,-0.055664062,0.061523438,0.022460938,2.3588324,0.826133,-56.373543,-18.501928,0.4501953,-0.57543945,0.796875,-0.061523438,0.08300781,0.055664062,3.2034464,1.7327851,-128.25735,-14.229219,0.0,0.0,0.0,0.0,0.0,0.0,0.0,20.531322,-128.64624,-7.4071455,0.0,0.0,0.0,0.0,0.0,0.0,0.0,-1.867562,44.95558,0.9552996,
0.3749999888241294,16,-0.05908203,-0.94000244,0.36132812,-0.115234375,0.041992188,0.047851562,0.0,0.0,0.0,0.0,0.0,0.0,0.0,0.0,0.0,0.0,0.0,-0.13789713,-0.028149072,0.99010205,-0.011291504,-0.93707275,-0.37982178,0.0048828125,0.043945312,0.017578125,3.9153666,-2.854897,-0.58277303,20.498182,-0.97595215,-0.053710938,-0.16900635,0.00390625,0.045898438,0.016601562,1.4625957,-4.133795,-57.576443,20.522589,0.5593872,0.402771,0.7264404,0.00390625,-0.00390625,0.009765625,15.38779,-5.1025124,-129.56618,19.182692,0.0,0.0,0.0,0.0,0.0,0.0,0.0,9.219225,-130.18404,33.133083,0.0,0.0,0.0,0.0,0.0,0.0,0.0,0.13789713,0.028149072,-0.99010205,-0.011047363,-0.99694824,-0.28674316,0.22265625,0.08105469,0.028320312,5.3402333,2.854897,0.58277303,-20.498182,-0.9998779,-0.015808105,-0.08673096,0.01953125,0.080078125,0.05859375,2.0753744,1.0635369,-56.35337,-18.50804,0.46551514,-0.56396484,0.7965698,-0.080078125,0.044921875,0.07421875,3.1122522,1.9295248,-128.2363,-14.272587,0.0,0.0,0.0,0.0,0.0,0.0,0.0,20.728945,-128.60022,-7.4489875,0.0,0.0,0.0,0.0,0.0,0.0,0.0,-1.8855857,44.95149,1.0153761,
0.39843748812563745,17,0.017028809,-0.9711914,0.35528564,-0.076171875,0.00390625,0.028320312,0.0,0.0,0.0,0.0,0.0,0.0,0.0,0.0,0.0,0.0,0.0,-0.13672575,-0.02975224,0.9902232,-0.0030517578,-0.93603516,-0.41174316,0.0048828125,0.043945312,-9.765625E-4,4.1108027,-2.8306458,-0.61596364,20.50069,-0.9495239,-0.06591797,-0.17388916,-0.052734375,0.06542969,0.036132812,1.4306712,-4.176075,-57.605576,20.518045,0.5488281,0.3894043,0.71551514,0.00390625,0.015625,0.0087890625,15.4131365,-5.154333,-129.60422,19.199587,0.0,0.0,0.0,0.0,0.0,0.0,0.0,9.163666,-130.22285,33.15217,0.0,0.0,0.0,0.0,0.0,0.0,0.0,0.13672575,0.02975224,-0.9902232,-0.04345703,-1.0189819,-0.2894287,0.3544922,0.080078125,0.009765625,5.215113,2.8306458,0.61596364,-20.50069,-0.96362305,-0.027770996,-0.111450195,-0.09277344,0.080078125,0.041992188,1.5922532,1.4384906,-56.33791,-18.439886,0.44036865,-0.53515625,0.7735596,-0.080078125,0.06347656,0.09277344,2.9401143,2.131818,-128.2258,-14.232476,0.0,0.0,0.0,0.0,0.0,0.0,0.0,20.919344,-128.58871,-7.3770256,0.0,0.0,0.0,0.0,0.0,0.0,0.0,-1.9755825,44.946426,1.0776801,
0.4218749874271455,18,-0.021972656,-0.9493408,0.3671875,-0.057617188,0.022460938,0.028320312,0.0,0.0,0.0,0.0,0.0,0.0,0.0,0.0,0.0,0.0,0.0,-0.13586146,-0.030351937,0.99037826,-0.011230469,-0.9312134,-0.39172363,0.0048828125,0.025390625,0.017578125,4.148174,-2.8127537,-0.6283792,20.503899,-0.9840088,-0.09838867,-0.17315674,-0.015625,0.045898438,0.036132812,1.4165125,-4.1934147,-57.618675,20.503187,0.5533447,0.40289307,0.7284546,-0.015625,-0.0029296875,-0.0087890625,15.428251,-5.200068,-129.618,19.177563,0.0,0.0,0.0,0.0,0.0,0.0,0.0,9.124722,-130.24062,33.124218,0.0,0.0,0.0,0.0,0.0,0.0,0.0,0.13586146,0.030351937,-0.99037826,-0.0037841797,-0.9764404,-0.28570557,0.3359375,0.080078125,0.046875,4.953375,2.8127537,0.6283792,-20.503899,-0.9607544,-0.024780273,-0.087646484,-0.055664062,0.061523438,0.041015625,1.2276449,1.889003,-56.332264,-18.363077,0.41748047,-0.5831299,0.77178955,-0.080078125,0.06347656,0.055664062,2.87099,2.5907648,-128.2229,-14.145303,0.0,0.0,0.0,0.0,0.0,0.0,0.0,21.370922,-128.56549,-7.267559,0.0,0.0,0.0,0.0,0.0,0.0,0.0,-1.9737425,44.94822,1.1067588,
0.4453124867286536,19,-0.017333984,-0.99505615,0.3383789,-0.038085938,0.022460938,0.028320312,0.0,0.0,0.0,0.0,0.0,0.0,0.0,0.0,0.0,0.0,0.0,-0.13593042,-0.030772623,0.9903813,-0.0234375,-0.9406738,-0.40667725,-0.0146484375,0.024414062,0.017578125,4.2061696,-2.8141818,-0.6370886,20.503963,-0.97735596,-0.11968994,-0.16241455,0.0029296875,0.045898438,0.036132812,1.3767192,-4.2459373,-57.62562,20.482637,0.5706787,0.40722656,0.7363281,0.00390625,-0.00390625,0.009765625,15.454392,-5.2834334,-129.62265,19.177017,0.0,0.0,0.0,0.0,0.0,0.0,0.0,9.041342,-130.23566,33.124146,0.0,0.0,0.0,0.0,0.0,0.0,0.0,0.13593042,0.030772623,-0.9903813,0.008605957,-0.9522095,-0.25408936,0.14746094,0.08203125,0.06640625,4.7451186,2.8141818,0.6370886,-20.503963,-0.98095703,0.015625,-0.12054443,-0.055664062,0.061523438,0.041015625,1.0245022,2.1989646,-56.32936,-18.391191,0.46600342,-0.576416,0.772583,-0.080078125,0.044921875,0.055664062,2.7760096,2.8302097,-128.21906,-14.252308,0.0,0.0,0.0,0.0,0.0,0.0,0.0,21.601353,-128.55797,-7.350544,0.0,0.0,0.0,0.0,0.0,0.0,0.0,-1.9812324,44.94858,1.1246939,
0.46874998603016166,20,-0.017028809,-0.93914795,0.3209839,-0.01953125,0.041992188,0.028320312,0.0,0.0,0.0,0.0,0.0,0.0,0.0,0.0,0.0,0.0,0.0,-0.13659874,-0.03092048,0.990238,-0.03149414,-0.927063,-0.3965454,0.0048828125,0.005859375,-9.765625E-4,4.29286,-2.8280165,-0.64014983,20.500998,-0.98205566,-0.058288574,-0.18475342,-0.03515625,0.026367188,0.036132812,1.328985,-4.30536,-57.631435,20.501928,0.53778076,0.38848877,0.7236328,0.0029296875,-0.0029296875,-0.02734375,15.514234,-5.4174514,-129.62523,19.284395,0.0,0.0,0.0,0.0,0.0,0.0,0.0,8.905903,-130.2364,33.23231,0.0,0.0,0.0,0.0,0.0,0.0,0.0,0.13659874,0.03092048,-0.990238,0.030700684,-0.9507446,-0.246521,0.09082031,0.064453125,0.029296875,4.5361757,2.8280165,0.64014983,-20.500998,-0.96954346,-0.0032958984,-0.16064453,9.765625E-4,0.061523438,0.021484375,1.0200996,2.4257646,-56.32992,-18.512745,0.46643066,-0.54559326,0.76885986,-0.061523438,0.025390625,0.0546875,2.6145663,3.0125237,-128.22725,-14.462795,0.0,0.0,0.0,0.0,0.0,0.0,0.0,21.774775,-128.54796,-7.537524,0.0,0.0,0.0,0.0,0.0,0.0,0.0,-2.0107522,44.945152,1.1260519,
0.4921874853316697,21,-0.03527832,-0.9713745,0.33850098,-0.0390625,0.041992188,0.028320312,0.0,0.0,0.0,0.0,0.0,0.0,0.0,0.0,0.0,0.0,0.0,-0.13667256,-0.03093931,0.99024564,-0.025390625,-0.9299927,-0.39959717,-0.0146484375,0.005859375,-9.765625E-4,4.3681636,-2.8295455,-0.64053965,20.501156,-0.9641113,-0.0881958,-0.19763184,-0.053710938,0.045898438,0.036132812,1.3479912,-4.3637323,-57.626553,20.52049,0.54730225,0.40515137,0.7235718,0.022460938,-0.022460938,0.009765625,15.552986,-5.4989233,-129.6185,19.297853,0.0,0.0,0.0,0.0,0.0,0.0,0.0,8.827363,-130.23497,33.245255,0.0,0.0,0.0,0.0,0.0,0.0,0.0,0.13667256,0.03093931,-0.99024564,0.032592773,-0.9595947,-0.24859619,-0.07910156,0.083984375,0.06640625,4.450563,2.8295455,0.64053965,-20.501156,-0.96466064,-0.0032348633,-0.13696289,-0.017578125,0.061523438,0.078125,1.109946,2.449727,-56.334267,-18.619476,0.45281982,-0.5647583,0.75115967,-0.061523438,0.06347656,0.07324219,2.4601293,2.9292626,-128.2287,-14.585471,0.0,0.0,0.0,0.0,0.0,0.0,0.0,21.680769,-128.55031,-7.633288,0.0,0.0,0.0,0.0,0.0,0.0,0.0,-2.0237536,44.94542,1.1249619,
0.5156249846331779,22,-0.025390625,-0.99591064,0.33740234,9.765625E-4,0.022460938,0.046875,0.0,0.0,0.0,0.0,0.0,0.0,0.0,0.0,0.0,0.0,0.0,-0.13567084,-0.030697273,0.9903942,-0.005126953,-0.9283447,-0.39074707,0.0048828125,0.005859375,0.017578125,4.3629594,-2.8088067,-0.6355287,20.504229,-0.9630127,-0.07849121,-0.18579102,-0.03515625,0.026367188,0.0546875,1.2975441,-4.368682,-57.620647,20.504045,0.5744629,0.40020752,0.7352905,0.00390625,0.015625,0.0087890625,15.591075,-5.536339,-129.62193,19.318703,0.0,0.0,0.0,0.0,0.0,0.0,0.0,8.7897835,-130.24258,33.262947,0.0,0.0,0.0,0.0,0.0,0.0,0.0,0.13567084,0.030697273,-0.9903942,0.0044555664,-0.9638672,-0.26794434,-0.17382812,0.0126953125,0.047851562,4.554362,2.8088067,0.6355287,-20.504229,-0.9819946,0.0078125,-0.09680176,-0.055664062,0.061523438,0.041015625,1.2541381,2.1863358,-56.335762,-18.679405,0.4623413,-0.56365967,0.784729,-0.061523438,0.06347656,0.055664062,2.3601594,2.6187508,-128.22958,-14.557403,0.0,0.0,0.0,0.0,0.0,0.0,0.0,21.369228,-128.53664,-7.598559,0.0,0.0,0.0,0.0,0.0,0.0,0.0,-2.0069168,44.946484,1.1181955,
0.5390624839346859,23,-0.007019043,-0.9570923,0.34350586,0.001953125,-0.015625,0.045898438,0.0,0.0,0.0,0.0,0.0,0.0,0.0,0.0,0.0,0.0,0.0,-0.13513198,-0.031170454,0.9904401,-0.02142334,-0.93688965,-0.39471436,-0.0146484375,0.005859375,-9.765625E-4,4.385437,-2.7976515,-0.645325,20.505178,-0.93414307,-0.074645996,-0.19750977,-0.0546875,0.0078125,0.0546875,1.272109,-4.3874283,-57.635303,20.48784,0.5308838,0.42077637,0.7546387,0.00390625,0.015625,-0.009765625,15.611545,-5.5668454,-129.63104,19.310898,0.0,0.0,0.0,0.0,0.0,0.0,0.0,8.758348,-130.24857,33.2574,0.0,0.0,0.0,0.0,0.0,0.0,0.0,0.13513198,0.031170454,-0.9904401,-0.010864258,-0.9822998,-0.26983643,-0.2109375,0.0126953125,0.048828125,4.7894564,2.7976515,0.645325,-20.505178,-0.98291016,-0.007019043,-0.09692383,0.01953125,0.005859375,0.020507812,1.4421151,1.8508047,-56.319595,-18.696915,0.44226074,-0.5197754,0.7468262,-0.080078125,0.06347656,0.055664062,2.374133,2.2601538,-128.20474,-14.457346,0.0,0.0,0.0,0.0,0.0,0.0,0.0,21.01112,-128.51651,-7.4980006,0.0,0.0,0.0,0.0,0.0,0.0,0.0,-1.9985595,44.94569,1.1418236,
0.562499983236194,24,0.003112793,-0.9595337,0.375,-0.01953125,0.041992188,0.028320312,0.0,0.0,0.0,0.0,0.0,0.0,0.0,0.0,0.0,0.0,0.0,-0.13423303,-0.03110249,0.99058,-0.0072631836,-0.94873047,-0.38989258,-0.0146484375,0.005859375,-9.765625E-4,4.3886514,-2.779039,-0.6439179,20.508076,-0.9627075,-0.05316162,-0.15814209,-0.03515625,0.0078125,0.016601562,1.2321,-4.3847857,-57.631466,20.47694,0.5407715,0.42297363,0.7316284,0.0029296875,-0.022460938,-0.0087890625,15.554222,-5.525593,-129.63057,19.330368,0.0,0.0,0.0,0.0,0.0,0.0,0.0,8.806271,-130.24289,33.27153,0.0,0.0,0.0,0.0,0.0,0.0,0.0,0.13423303,0.03110249,-0.99058,-0.005493164,-1.0326538,-0.25952148,-0.07910156,0.047851562,0.029296875,4.9038067,2.779039,0.6439179,-20.508076,-0.97558594,-0.03765869,-0.11029053,-0.037109375,0.061523438,0.041015625,1.5143949,1.6878715,-56.32056,-18.679617,0.4338379,-0.56359863,0.7675781,-0.080078125,0.044921875,0.07421875,2.3974323,2.1643906,-128.2098,-14.4274235,0.0,0.0,0.0,0.0,0.0,0.0,0.0,20.911297,-128.51268,-7.4569025,0.0,0.0,0.0,0.0,0.0,0.0,0.0,-1.9925907,44.946663,1.141232,
0.5859374825377021,25,-6.1035156E-5,-0.97283936,0.34735107,-0.018554688,0.022460938,0.009765625,0.0,0.0,0.0,0.0,0.0,0.0,0.0,0.0,0.0,0.0,0.0,-0.13425359,-0.030631933,0.9906136,-0.018371582,-0.93310547,-0.3887329,-0.0146484375,0.005859375,0.017578125,4.355051,-2.7794647,-0.634176,20.508774,-0.96624756,-0.043151855,-0.20135498,-0.0546875,0.0078125,0.0546875,1.1933739,-4.3657584,-57.61827,20.46389,0.5427246,0.41784668,0.7385864,0.0029296875,-0.022460938,-0.0087890625,15.5512295,-5.4935875,-129.61362,19.348873,0.0,0.0,0.0,0.0,0.0,0.0,0.0,8.840946,-130.22417,33.28577,0.0,0.0,0.0,0.0,0.0,0.0,0.0,0.13425359,0.030631933,-0.9906136,0.012145996,-0.9908447,-0.22485352,-0.07910156,0.029296875,0.029296875,4.8958898,2.7794647,0.634176,-20.508774,-0.97961426,-0.03857422,-0.0993042,9.765625E-4,0.024414062,0.040039062,1.5805342,1.6532267,-56.332443,-18.701826,0.41784668,-0.5593872,0.7739868,-0.080078125,0.06347656,0.09277344,2.34435,2.157831,-128.2168,-14.421426,0.0,0.0,0.0,0.0,0.0,0.0,0.0,20.893122,-128.50586,-7.420342,0.0,0.0,0.0,0.0,0.0,0.0,0.0,-1.9908482,44.94824,1.1200867,
0.6093749818392101,26,-0.010803223,-0.9298096,0.35546875,-0.017578125,-0.015625,0.046875,0.0,0.0,0.0,0.0,0.0,0.0,0.0,0.0,0.0,0.0,0.0,-0.13376448,-0.030789835,0.99067736,-0.020385742,-0.9291992,-0.38568115,-0.0146484375,-0.013671875,0.017578125,4.344109,-2.7693388,-0.63744503,20.510092,-0.96014404,-0.07244873,-0.14343262,-0.072265625,0.045898438,0.036132812,1.1964854,-4.355633,-57.62154,20.465208,0.54382324,0.4249878,0.72662354,0.0029296875,-0.00390625,-0.0087890625,15.5418005,-5.44571,-129.61958,19.346191,0.0,0.0,0.0,0.0,0.0,0.0,0.0,8.885634,-130.23524,33.287056,0.0,0.0,0.0,0.0,0.0,0.0,0.0,0.13376448,0.030789835,-0.99067736,-0.0016479492,-0.9718628,-0.22741699,-0.09765625,0.06640625,0.029296875,4.9479136,2.7693388,0.63744503,-20.510092,-0.9776001,-0.008117676,-0.1427002,-0.017578125,0.061523438,0.05859375,1.6009557,1.5707839,-56.319794,-18.702118,0.44909668,-0.552063,0.7652588,-0.080078125,0.08300781,0.055664062,2.2406185,2.0723124,-128.2037,-14.440826,0.0,0.0,0.0,0.0,0.0,0.0,0.0,20.804394,-128.4656,-7.4311748,0.0,0.0,0.0,0.0,0.0,0.0,0.0,-1.9786,44.948647,1.129828,
0.6328124811407182,27,-0.001953125,-0.9594116,0.37109375,9.765625E-4,0.022460938,0.028320312,0.0,0.0,0.0,0.0,0.0,0.0,0.0,0.0,0.0,0.0,0.0,-0.13180268,-0.030686641,0.9909113,-0.012329102,-0.9361572,-0.3748169,-0.033203125,0.024414062,-9.765625E-4,4.3029313,-2.7287235,-0.63530856,20.514936,-0.9785156,-0.07672119,-0.16418457,-0.016601562,0.0068359375,0.03515625,1.2116001,-4.309346,-57.623447,20.469995,0.5723877,0.39520264,0.73828125,0.00390625,-0.00390625,0.009765625,15.532135,-5.378822,-129.61897,19.332485,0.0,0.0,0.0,0.0,0.0,0.0,0.0,8.9548645,-130.22998,33.27077,0.0,0.0,0.0,0.0,0.0,0.0,0.0,0.13180268,0.030686641,-0.9909113,0.004211426,-0.9817505,-0.24139404,-0.13574219,-0.0068359375,0.029296875,4.961042,2.7287235,0.63530856,-20.514936,-0.9657593,-0.010986328,-0.10925293,-0.055664062,0.024414062,0.00390625,1.6692948,1.4685581,-56.32309,-18.71707,0.4272461,-0.5418701,0.78082275,-0.0234375,0.005859375,0.036132812,2.2407932,1.9704456,-128.2045,-14.415463,0.0,0.0,0.0,0.0,0.0,0.0,0.0,20.697824,-128.46838,-7.392697,0.0,0.0,0.0,0.0,0.0,0.0,0.0,-1.9479402,44.948475,1.1328701,
0.6562499804422263,28,-0.029174805,-0.9627075,0.3474121,9.765625E-4,0.022460938,0.028320312,0.0,0.0,0.0,0.0,0.0,0.0,0.0,0.0,0.0,0.0,0.0,-0.13179764,-0.031088969,0.9909069,-0.016296387,-0.92822266,-0.39068604,-0.0146484375,-0.013671875,0.037109375,4.3175626,-2.7286193,-0.64363796,20.514845,-0.97546387,-0.045959473,-0.20532227,-0.0546875,0.026367188,0.0546875,1.1490992,-4.324948,-57.629402,20.465054,0.555542,0.41192627,0.72052,0.0029296875,-0.00390625,-0.0087890625,15.493177,-5.4203215,-129.62834,19.398766,0.0,0.0,0.0,0.0,0.0,0.0,0.0,8.918367,-130.24263,33.332844,0.0,0.0,0.0,0.0,0.0,0.0,0.0,0.13179764,0.031088969,-0.9909069,2.4414062E-4,-0.9765625,-0.27392578,-0.17382812,-0.005859375,0.047851562,5.0981593,2.7286193,0.64363796,-20.514845,-0.9719238,0.00970459,-0.11090088,0.01953125,0.005859375,0.0390625,1.7824597,1.2847123,-56.312393,-18.738594,0.46154785,-0.5836792,0.7457886,-0.080078125,0.06347656,0.055664062,2.203626,1.7990773,-128.19653,-14.4623165,0.0,0.0,0.0,0.0,0.0,0.0,0.0,20.52651,-128.46268,-7.440884,0.0,0.0,0.0,0.0,0.0,0.0,0.0,-1.9423871,44.948563,1.1518764,
0.6796874797437343,29,-0.0029296875,-0.9534912,0.3671875,9.765625E-4,0.022460938,0.028320312,0.0,0.0,0.0,0.0,0.0,0.0,0.0,0.0,0.0,0.0,0.0,-0.13188976,-0.031151978,0.9908649,-0.015197754,-0.91851807,-0.3965454,-0.0146484375,-0.013671875,-9.765625E-4,4.352262,-2.7305264,-0.64494246,20.513975,-0.9893799,-0.06329346,-0.17791748,-0.072265625,0.06542969,0.07421875,1.1248317,-4.3624573,-57.631824,20.46656,0.5715332,0.40118408,0.73931885,0.00390625,0.015625,0.0087890625,15.459262,-5.461889,-129.62698,19.434233,0.0,0.0,0.0,0.0,0.0,0.0,0.0,8.878292,-130.24667,33.366653,0.0,0.0,0.0,0.0,0.0,0.0,0.0,0.13188976,0.031151978,-0.9908649,0.0038452148,-1.0092773,-0.24658203,-0.13574219,-0.005859375,0.047851562,5.2637305,2.7305264,0.64494246,-20.513975,-0.9840698,0.0029296875,-0.08190918,-0.017578125,0.024414062,0.040039062,1.9173442,1.0640388,-56.311157,-18.75388,0.4500122,-0.5620117,0.7671509,-0.080078125,0.08300781,0.09277344,2.105521,1.5141835,-128.1927,-14.457324,0.0,0.0,0.0,0.0,0.0,0.0,0.0,20.236727,-128.44618,-7.418966,0.0,0.0,0.0,0.0,0.0,0.0,0.0,-1.9415145,44.947285,1.1546791,
0.7031249790452424,30,-0.020019531,-0.9510498,0.34161377,-0.017578125,0.00390625,0.046875,0.0,0.0,0.0,0.0,0.0,0.0,0.0,0.0,0.0,0.0,0.0,-0.1306274,-0.03105926,0.9910138,-0.021362305,-0.9320679,-0.3916626,-0.0146484375,0.005859375,0.017578125,4.36906,-2.7043912,-0.64302295,20.517057,-0.94818115,-0.055664062,-0.18762207,-0.053710938,0.045898438,0.036132812,1.0916362,-4.3775644,-57.626842,20.458391,0.55023193,0.4053955,0.7085571,0.0029296875,-0.00390625,-0.0087890625,15.494737,-5.4986124,-129.6323,19.454388,0.0,0.0,0.0,0.0,0.0,0.0,0.0,8.842245,-130.25581,33.385372,0.0,0.0,0.0,0.0,0.0,0.0,0.0,0.1306274,0.03105926,-0.9910138,-0.045532227,-1.0249634,-0.2677002,-0.022460938,-0.0078125,0.029296875,5.3302064,2.7043912,0.64302295,-20.517057,-0.9788208,-0.007019043,-0.101989746,-0.036132812,0.024414062,0.040039062,1.9329995,0.9659468,-56.30913,-18.716581,0.4621582,-0.5522461,0.7579346,-0.080078125,0.044921875,0.055664062,2.1220944,1.404729,-128.19066,-14.41518,0.0,0.0,0.0,0.0,0.0,0.0,0.0,20.130445,-128.44481,-7.387004,0.0,0.0,0.0,0.0,0.0,0.0,0.0,-1.9258186,44.947014,1.1548339,
0.7265624783467505,31,-0.024963379,-0.94140625,0.35742188,-0.0390625,0.060546875,0.047851562,0.0,0.0,0.0,0.0,0.0,0.0,0.0,0.0,0.0,0.0,0.0,-0.13044122,-0.03167324,0.9910048,-0.018371582,-0.93408203,-0.37976074,-0.033203125,-0.032226562,0.037109375,4.353117,-2.7005372,-0.65573424,20.516872,-0.989624,-0.066711426,-0.15924072,-0.07324219,0.045898438,0.0546875,1.0826362,-4.389264,-57.63712,20.450994,0.5463867,0.40911865,0.7235718,0.0234375,0.015625,-0.009765625,15.476382,-5.483946,-129.63277,19.452923,0.0,0.0,0.0,0.0,0.0,0.0,0.0,8.856016,-130.25111,33.385,0.0,0.0,0.0,0.0,0.0,0.0,0.0,0.13044122,0.03167324,-0.9910048,-0.019165039,-1.0038452,-0.25604248,0.034179688,0.028320312,0.06640625,5.3405266,2.7005372,0.65573424,-20.516872,-0.991333,-0.056396484,-0.12701416,-0.018554688,0.061523438,0.040039062,1.9070072,0.978601,-56.293022,-18.665482,0.45794678,-0.5761719,0.7727661,-0.080078125,0.06347656,0.07421875,2.16338,1.464286,-128.17581,-14.370401,0.0,0.0,0.0,0.0,0.0,0.0,0.0,20.184708,-128.42693,-7.328266,0.0,0.0,0.0,0.0,0.0,0.0,0.0,-1.8908223,44.947014,1.1876596,
0.7499999776482585,32,-0.008178711,-0.9784546,0.33258057,-0.018554688,0.022460938,0.046875,0.0,0.0,0.0,0.0,0.0,0.0,0.0,0.0,0.0,0.0,0.0,-0.13070753,-0.032262232,0.99102217,-0.026489258,-0.93878174,-0.39367676,-0.0146484375,-0.032226562,0.018554688,4.339237,-2.7060516,-0.66792816,20.517231,-0.97094727,-0.059753418,-0.17095947,-0.07128906,0.06542969,0.017578125,1.0439899,-4.388815,-57.65336,20.460213,0.5317993,0.42089844,0.74768066,0.0029296875,-0.00390625,-0.0087890625,15.425877,-5.494749,-129.65622,19.520288,0.0,0.0,0.0,0.0,0.0,0.0,0.0,8.847234,-130.26703,33.451477,0.0,0.0,0.0,0.0,0.0,0.0,0.0,0.13070753,0.032262232,-0.99102217,0.006286621,-0.9758301,-0.25128174,0.034179688,0.064453125,0.047851562,5.3061466,2.7060516,0.66792816,-20.517231,-0.97802734,0.0018920898,-0.08703613,-0.018554688,0.061523438,0.040039062,1.8682313,1.0244406,-56.287827,-18.676443,0.44573975,-0.567688,0.7572632,-0.061523438,0.064453125,0.037109375,2.145757,1.5151887,-128.17181,-14.417406,0.0,0.0,0.0,0.0,0.0,0.0,0.0,20.228888,-128.41678,-7.3606586,0.0,0.0,0.0,0.0,0.0,0.0,0.0,-1.8712946,44.95025,1.2165248,
0.7734374769497666,33,-0.026062012,-0.9430542,0.33374023,-0.037109375,0.00390625,0.028320312,0.0,0.0,0.0,0.0,0.0,0.0,0.0,0.0,0.0,0.0,0.0,-0.13021684,-0.032712817,0.9910111,-0.008178711,-0.92541504,-0.39068604,-0.033203125,0.024414062,0.017578125,4.3280287,-2.6958926,-0.6772567,20.517,-0.97161865,-0.052246094,-0.19451904,-0.016601562,0.026367188,0.036132812,0.96934634,-4.378997,-57.66202,20.398493,0.53167725,0.4222412,0.73168945,0.022460938,-0.00390625,-0.0087890625,15.461888,-5.5087895,-129.6607,19.473778,0.0,0.0,0.0,0.0,0.0,0.0,0.0,8.833519,-130.2744,33.403275,0.0,0.0,0.0,0.0,0.0,0.0,0.0,0.13021684,0.032712817,-0.9910111,0.01373291,-0.94750977,-0.24127197,-0.060546875,0.06542969,0.047851562,5.2738833,2.6958926,0.6772567,-20.517,-0.9885864,-0.020935059,-0.13067627,-0.018554688,0.061523438,0.040039062,1.8275633,1.0404632,-56.273422,-18.722857,0.446167,-0.552124,0.7733154,-0.080078125,0.06347656,0.055664062,2.0808368,1.4743309,-128.1578,-14.507538,0.0,0.0,0.0,0.0,0.0,0.0,0.0,20.185608,-128.4063,-7.439496,0.0,0.0,0.0,0.0,0.0,0.0,0.0,-1.8713998,44.946945,1.2377796,
0.7968749762512747,34,-0.0010375977,-0.9689331,0.3474121,-0.018554688,0.022460938,0.046875,0.0,0.0,0.0,0.0,0.0,0.0,0.0,0.0,0.0,0.0,0.0,-0.13025683,-0.032977924,0.99102926,-0.010131836,-0.9291992,-0.40368652,-0.051757812,0.024414062,0.017578125,4.353477,-2.6967204,-0.6827453,20.51738,-0.9991455,-0.08251953,-0.16131592,-0.07324219,0.0078125,0.03515625,0.95552063,-4.399459,-57.6705,20.372202,0.53393555,0.42895508,0.73864746,0.022460938,-0.00390625,0.009765625,15.412918,-5.519476,-129.66867,19.433962,0.0,0.0,0.0,0.0,0.0,0.0,0.0,8.823975,-130.28683,33.36155,0.0,0.0,0.0,0.0,0.0,0.0,0.0,0.13025683,0.032977924,-0.99102926,0.017333984,-0.9760742,-0.24255371,-0.07910156,-0.0068359375,0.06640625,5.2788963,2.6967204,0.6827453,-20.51738,-0.9475708,-0.035705566,-0.105895996,-0.055664062,0.061523438,0.041015625,1.8073193,1.0193133,-56.266502,-18.770245,0.4593506,-0.5413208,0.76312256,-0.041992188,0.06347656,0.07324219,1.978827,1.342766,-128.15987,-14.574639,0.0,0.0,0.0,0.0,0.0,0.0,0.0,20.056025,-128.41342,-7.512313,0.0,0.0,0.0,0.0,0.0,0.0,0.0,-1.880987,44.947693,1.2484698,
0.8203124755527827,35,-0.028869629,-0.93182373,0.38110352,0.001953125,-0.015625,0.045898438,0.0,0.0,0.0,0.0,0.0,0.0,0.0,0.0,0.0,0.0,0.0,-0.12949532,-0.033286206,0.99112976,-0.003112793,-0.94195557,-0.39886475,-0.051757812,0.024414062,0.017578125,4.3191047,-2.6809537,-0.6891277,20.519457,-0.9254761,-0.03668213,-0.15887451,-0.07324219,0.045898438,0.0546875,0.8690815,-4.4051757,-57.669987,20.330738,0.5352783,0.39782715,0.75457764,0.0048828125,0.015625,0.02734375,15.335733,-5.5361924,-129.67146,19.448174,0.0,0.0,0.0,0.0,0.0,0.0,0.0,8.7999935,-130.28497,33.38215,0.0,0.0,0.0,0.0,0.0,0.0,0.0,0.12949532,0.033286206,-0.99112976,0.0010986328,-0.9874878,-0.2631836,-0.07910156,-0.0068359375,0.06640625,5.3195715,2.6809537,0.6891277,-20.519457,-0.9898071,-0.010009766,-0.10675049,0.01953125,0.061523438,0.07714844,1.8647712,0.87456536,-56.258076,-18.829628,0.43304443,-0.560791,0.7785034,-0.080078125,0.044921875,0.037109375,1.9058781,1.0990386,-128.15001,-14.6668415,0.0,0.0,0.0,0.0,0.0,0.0,0.0,19.80867,-128.39856,-7.593188,0.0,0.0,0.0,0.0,0.0,0.0,0.0,-1.8401129,44.949295,1.2691634,
0.8437499748542908,36,-0.021118164,-0.9707031,0.35424805,0.040039062,-0.015625,0.02734375,0.0,0.0,0.0,0.0,0.0,0.0,0.0,0.0,0.0,0.0,0.0,-0.12835136,-0.03330016,0.9912988,-0.015319824,-0.9263916,-0.38067627,-0.052734375,-0.033203125,0.037109375,4.298833,-2.6572716,-0.6894166,20.522959,-0.99365234,-0.06744385,-0.17010498,-0.072265625,0.045898438,0.036132812,0.86569756,-4.3813515,-57.669933,20.312416,0.56781006,0.41748047,0.7233887,0.041992188,0.015625,-0.009765625,15.236859,-5.468462,-129.667,19.414108,0.0,0.0,0.0,0.0,0.0,0.0,0.0,8.866845,-130.283,33.35064,0.0,0.0,0.0,0.0,0.0,0.0,0.0,0.12835136,0.03330016,-0.9912988,-0.0040893555,-1.0031128,-0.26324463,-0.13574219,0.01171875,0.06640625,5.39067,2.6572716,0.6894166,-20.522959,-0.9725952,-0.028747559,-0.11126709,-0.017578125,0.061523438,0.05859375,1.9736773,0.72638834,-56.257835,-18.862602,0.4706421,-0.5489502,0.78460693,-0.080078125,0.06347656,0.07421875,1.8555129,0.88896537,-128.14848,-14.639425,0.0,0.0,0.0,0.0,0.0,0.0,0.0,19.603767,-128.3812,-7.5821066,0.0,0.0,0.0,0.0,0.0,0.0,0.0,-1.8279382,44.950596,1.2733232,
0.8671874741557989,37,0.005004883,-0.97906494,0.3729248,0.020507812,0.00390625,0.045898438,0.0,0.0,0.0,0.0,0.0,0.0,0.0,0.0,0.0,0.0,0.0,-0.12864798,-0.033018257,0.9912077,-0.022399902,-0.9417114,-0.39874268,-0.033203125,-0.051757812,-9.765625E-4,4.296645,-2.6634133,-0.68358034,20.521072,-0.96795654,-0.06097412,-0.16210938,-0.109375,0.06640625,0.017578125,0.8379011,-4.3928328,-57.660076,20.31952,0.5504761,0.41314697,0.7155762,0.0048828125,0.034179688,-0.009765625,15.121339,-5.4740496,-129.66374,19.470558,0.0,0.0,0.0,0.0,0.0,0.0,0.0,8.860988,-130.2824,33.405975,0.0,0.0,0.0,0.0,0.0,0.0,0.0,0.12864798,0.033018257,-0.9912077,0.021484375,-0.9631958,-0.27215576,-0.13574219,0.01171875,0.0107421875,5.47135,2.6634133,0.68358034,-20.521072,-0.9585571,-0.015075684,-0.14611816,0.01953125,0.061523438,0.05859375,2.088254,0.5914912,-56.26275,-18.891365,0.41796875,-0.55145264,0.77404785,-0.080078125,0.08300781,0.055664062,1.8204819,0.7530329,-128.15324,-14.674524,0.0,0.0,0.0,0.0,0.0,0.0,0.0,19.466337,-128.37875,-7.612236,0.0,0.0,0.0,0.0,0.0,0.0,0.0,-1.8236425,44.94836,1.2605921,
0.890624973457307,38,-0.033081055,-0.9470215,0.3435669,0.001953125,-0.015625,0.02734375,0.0,0.0,0.0,0.0,0.0,0.0,0.0,0.0,0.0,0.0,0.0,-0.12965214,-0.032965537,0.9911361,-0.03363037,-0.9435425,-0.39666748,-0.033203125,-0.051757812,0.018554688,4.328843,-2.6842003,-0.6824888,20.51959,-0.98913574,-0.055114746,-0.18774414,-0.091796875,0.046875,0.036132812,0.85477906,-4.438608,-57.658375,20.33351,0.5548706,0.4237671,0.72351074,0.0234375,0.015625,0.0087890625,15.063997,-5.5211787,-129.65764,19.48893,0.0,0.0,0.0,0.0,0.0,0.0,0.0,8.812056,-130.27565,33.429153,0.0,0.0,0.0,0.0,0.0,0.0,0.0,0.12965214,0.032965537,-0.9911361,0.04345703,-0.9696045,-0.2666626,-0.17285156,0.06640625,0.01171875,5.565177,2.6842003,0.6824888,-20.51959,-0.9795532,-0.04156494,-0.105285645,0.1328125,0.024414062,0.07519531,2.2633023,0.4382198,-56.25374,-18.97605,0.4376831,-0.5836792,0.77423096,-0.13671875,0.14160156,0.09375,1.6925793,0.5932659,-128.14548,-14.769621,0.0,0.0,0.0,0.0,0.0,0.0,0.0,19.312807,-128.31676,-7.7239146,0.0,0.0,0.0,0.0,0.0,0.0,0.0,-1.8281316,44.950874,1.2559412,
0.914062472758815,39,-0.014892578,-0.949646,0.38586426,0.0029296875,-0.03515625,0.02734375,0.0,0.0,0.0,0.0,0.0,0.0,0.0,0.0,0.0,0.0,0.0,-0.13014564,-0.03262806,0.9910688,-0.026428223,-0.9251709,-0.39953613,-0.013671875,-0.032226562,-0.020507812,4.37466,-2.6944175,-0.67550206,20.518196,-0.96435547,-0.03314209,-0.15899658,-0.11035156,0.06542969,0.036132812,0.85660845,-4.503637,-57.65599,20.357328,0.5429077,0.4215088,0.7505493,0.00390625,-0.00390625,0.02734375,14.895247,-5.523068,-129.66235,19.581167,0.0,0.0,0.0,0.0,0.0,0.0,0.0,8.812807,-130.28064,33.518295,0.0,0.0,0.0,0.0,0.0,0.0,0.0,0.13014564,0.03262806,-0.9910688,0.013244629,-0.97875977,-0.27514648,-0.15429688,0.103515625,0.048828125,5.67074,2.6944175,0.67550206,-20.518196,-0.9555664,-0.024902344,-0.1274414,0.16894531,0.061523438,0.07421875,2.460527,0.23040605,-56.260094,-19.082428,0.4194336,-0.5308838,0.7860718,-0.09863281,0.10253906,0.037109375,1.4739246,0.33149457,-128.15103,-14.886206,0.0,0.0,0.0,0.0,0.0,0.0,0.0,19.060524,-128.27896,-7.8631706,0.0,0.0,0.0,0.0,0.0,0.0,0.0,-1.8214289,44.950954,1.2406924,
0.9374999720603231,40,-0.031188965,-0.9664917,0.3355713,0.022460938,-0.053710938,0.045898438,0.0,0.0,0.0,0.0,0.0,0.0,0.0,0.0,0.0,0.0,0.0,-0.12896714,-0.03242402,0.99120736,-0.0234375,-0.95422363,-0.41278076,-0.033203125,-0.013671875,0.017578125,4.30889,-2.670019,-0.67127776,20.521065,-0.96240234,-0.058166504,-0.20141602,-0.072265625,0.045898438,0.036132812,0.8455726,-4.494379,-57.649185,20.35382,0.55145264,0.41430664,0.70758057,0.022460938,-0.00390625,0.009765625,14.788644,-5.5097203,-129.65729,19.59209,0.0,0.0,0.0,0.0,0.0,0.0,0.0,8.828796,-130.27585,33.526123,0.0,0.0,0.0,0.0,0.0,0.0,0.0,0.12896714,0.03242402,-0.99120736,-0.004638672,-0.96551514,-0.2984619,-0.13574219,0.030273438,0.06640625,5.8074145,2.670019,0.67127776,-20.521065,-0.98376465,-0.015930176,-0.106933594,9.765625E-4,0.061523438,0.05859375,2.623684,-0.04464388,-56.250977,-19.100725,0.41937256,-0.5171509,0.84783936,-0.15625,-0.07128906,0.12890625,1.1968125,-0.019821882,-128.14331,-14.884452,0.0,0.0,0.0,0.0,0.0,0.0,0.0,18.706085,-128.2167,-7.8505454,0.0,0.0,0.0,0.0,0.0,0.0,0.0,-1.7561135,44.952522,1.241981,
0.9609374713618312,41,-0.014099121,-0.9689331,0.36315918,0.0029296875,-0.053710938,0.02734375,0.0,0.0,0.0,0.0,0.0,0.0,0.0,0.0,0.0,0.0,0.0,-0.1281851,-0.03148233,0.9914078,-0.043823242,-0.9454956,-0.38171387,0.0048828125,-0.032226562,0.018554688,4.264067,-2.6538284,-0.6517819,20.525215,-0.9841919,-0.066101074,-0.19171143,-0.09082031,0.06542969,0.0546875,0.839068,-4.4832406,-57.625984,20.399292,0.5390625,0.39630127,0.72857666,0.022460938,-0.022460938,0.009765625,14.618912,-5.489494,-129.62817,19.70633,0.0,0.0,0.0,0.0,0.0,0.0,0.0,8.849653,-130.24493,33.638634,0.0,0.0,0.0,0.0,0.0,0.0,0.0,0.1281851,0.03148233,-0.9914078,0.0043945312,-0.96569824,-0.29663086,-0.15429688,0.048828125,0.029296875,5.9071393,2.6538284,0.6517819,-20.525215,-0.9734497,-0.023010254,-0.15484619,0.09472656,0.024414062,0.056640625,2.7442377,-0.25764918,-56.256493,-19.111746,0.4255371,-0.5964966,0.7873535,-0.17480469,-0.013671875,0.16699219,1.007748,-0.27321994,-128.14818,-14.918661,0.0,0.0,0.0,0.0,0.0,0.0,0.0,18.44076,-128.19872,-7.8559585,0.0,0.0,0.0,0.0,0.0,0.0,0.0,-1.7161721,44.958126,1.2057588,
0.9843749706633392,42,-0.0049438477,-0.96539307,0.38775635,0.0048828125,-0.09277344,0.045898438,0.0,0.0,0.0,0.0,0.0,0.0,0.0,0.0,0.0,0.0,0.0,-0.12815368,-0.030345947,0.99146444,-0.03149414,-0.9241333,-0.3965454,-0.0146484375,-0.051757812,0.018554688,4.2235937,-2.6531792,-0.6282551,20.526388,-0.9351196,-0.06121826,-0.17181396,-0.11035156,0.046875,0.036132812,0.8357967,-4.491833,-57.604435,20.440113,0.5586548,0.42108154,0.7055054,0.022460938,-0.022460938,0.009765625,14.496441,-5.480546,-129.61156,19.814753,0.0,0.0,0.0,0.0,0.0,0.0,0.0,8.861613,-130.2371,33.742573,0.0,0.0,0.0,0.0,0.0,0.0,0.0,0.12815368,0.030345947,-0.99146444,-0.032165527,-0.99645996,-0.29730225,-0.17285156,0.01171875,0.0107421875,6.0848274,2.6531792,0.6282551,-20.526388,-0.98999023,0.02154541,-0.11633301,0.13183594,0.04296875,0.056640625,2.9175901,-0.52449346,-56.269257,-19.086607,0.4734497,-0.5527954,0.77453613,-0.21289062,-0.07128906,0.12988281,0.5924829,-0.5916518,-128.15582,-14.876968,0.0,0.0,0.0,0.0,0.0,0.0,0.0,18.116108,-128.1621,-7.7958174,0.0,0.0,0.0,0.0,0.0,0.0,0.0,-1.6808062,44.961456,1.1588881,
1.0078124699648474,43,-0.012817383,-0.92492676,0.3574829,0.04296875,-0.09277344,0.044921875,0.0,0.0,0.0,0.0,0.0,0.0,0.0,0.0,0.0,0.0,0.0,-0.12826917,-0.029760344,0.9914528,-0.016235352,-0.9213867,-0.397583,-0.0146484375,-0.0703125,-9.765625E-4,4.217887,-2.65557,-0.6161314,20.526148,-0.9718628,-0.07763672,-0.21923828,-0.11035156,0.06542969,0.036132812,0.79917383,-4.519268,-57.59173,20.459383,0.53900146,0.42993164,0.732666,0.0234375,0.015625,-0.009765625,14.393186,-5.589176,-129.59402,19.887615,0.0,0.0,0.0,0.0,0.0,0.0,0.0,8.759443,-130.23032,33.810745,0.0,0.0,0.0,0.0,0.0,0.0,0.0,0.12826917,0.029760344,-0.9914528,-0.055358887,-1.006897,-0.2901001,-0.15429688,-0.09765625,-0.0078125,6.347582,2.65557,0.6161314,-20.526148,-0.99401855,0.018615723,-0.1083374,-0.091796875,-0.0126953125,0.022460938,3.1150188,-0.7914002,-56.26509,-18.954649,0.4418335,-0.5637207,0.76239014,-0.17480469,0.005859375,0.09277344,0.40638232,-0.88647795,-128.1421,-14.597191,0.0,0.0,0.0,0.0,0.0,0.0,0.0,17.808563,-128.10533,-7.4868236,0.0,0.0,0.0,0.0,0.0,0.0,0.0,-1.6592515,44.96222,1.1349611,
1.0312499692663555,44,0.0032348633,-0.947876,0.38494873,0.022460938,-0.03515625,0.064453125,0.0,0.0,0.0,0.0,0.0,0.0,0.0,0.0,0.0,0.0,0.0,-0.12874025,-0.029136192,0.99138623,-0.018310547,-0.93878174,-0.4126587,-0.0146484375,-0.032226562,-9.765625E-4,4.1769204,-2.6653233,-0.6032095,20.524769,-0.9854126,-0.07318115,-0.18487549,-0.053710938,0.045898438,0.036132812,0.78459483,-4.579448,-57.577263,20.459019,0.5455322,0.41625977,0.7145996,-0.015625,-0.022460938,0.028320312,14.404036,-5.700676,-129.58568,19.91242,0.0,0.0,0.0,0.0,0.0,0.0,0.0,8.647116,-130.22998,33.835297,0.0,0.0,0.0,0.0,0.0,0.0,0.0,0.12874025,0.029136192,-0.99138623,-0.047729492,-0.9586792,-0.3125,-0.1171875,-0.13378906,0.0107421875,6.481046,2.6653233,0.6032095,-20.524769,-0.9776001,-0.054260254,-0.077697754,0.01953125,0.061523438,0.001953125,3.346207,-0.96485186,-56.26017,-18.831789,0.43182373,-0.5686035,0.772522,-0.099609375,-0.051757812,0.0546875,0.5024107,-0.89616764,-128.14001,-14.41635,0.0,0.0,0.0,0.0,0.0,0.0,0.0,17.797932,-128.0648,-7.300669,0.0,0.0,0.0,0.0,0.0,0.0,0.0,-1.5921004,44.96408,1.1147168,
1.0546874685678636,45,-0.0028686523,-0.94750977,0.35736084,0.0029296875,-0.03515625,0.045898438,0.0,0.0,0.0,0.0,0.0,0.0,0.0,0.0,0.0,0.0,0.0,-0.12866193,-0.02791266,0.9914283,0.0021362305,-0.91467285,-0.41558838,-0.033203125,-0.013671875,-9.765625E-4,4.168754,-2.6637018,-0.57787865,20.52564,-0.93481445,-0.04534912,-0.16583252,-0.03515625,0.045898438,0.0546875,0.68528444,-4.632528,-57.555763,20.434202,0.5437012,0.42108154,0.7236328,0.00390625,-0.00390625,0.009765625,14.447477,-5.838615,-129.56339,19.984568,0.0,0.0,0.0,0.0,0.0,0.0,0.0,8.51062,-130.20747,33.90548,0.0,0.0,0.0,0.0,0.0,0.0,0.0,0.12866193,0.02791266,-0.9914283,0.0211792,-0.9859009,-0.26641846,-0.07910156,-0.061523438,-0.0078125,6.4985104,2.6637018,0.57787865,-20.52564,-0.9499512,0.0028076172,-0.08959961,0.01953125,0.024414062,0.001953125,3.5206435,-1.0522861,-56.28137,-18.828114,0.41748047,-0.57507324,0.76586914,-0.080078125,0.043945312,0.12890625,0.5417637,-0.8619733,-128.15376,-14.371307,0.0,0.0,0.0,0.0,0.0,0.0,0.0,17.827724,-128.04852,-7.2423854,0.0,0.0,0.0,0.0,0.0,0.0,0.0,-1.5661521,44.96611,1.0627286,
1.0781249678693716,46,-0.0029296875,-0.95751953,0.37701416,9.765625E-4,0.00390625,0.009765625,0.0,0.0,0.0,0.0,0.0,0.0,0.0,0.0,0.0,0.0,0.0,-0.12840796,-0.026096867,0.99147475,-0.012145996,-0.92907715,-0.41461182,-0.052734375,0.024414062,0.037109375,4.1513824,-2.658442,-0.5402861,20.526602,-0.97058105,-0.05230713,-0.19256592,-0.0546875,0.026367188,0.0546875,0.69576925,-4.6989307,-57.509933,20.419428,0.5361328,0.39294434,0.74957275,0.00390625,-0.00390625,0.02734375,14.495813,-5.9303718,-129.50995,19.970732,0.0,0.0,0.0,0.0,0.0,0.0,0.0,8.41745,-130.15222,33.892445,0.0,0.0,0.0,0.0,0.0,0.0,0.0,0.12840796,0.026096867,-0.99147475,0.0032958984,-0.9738159,-0.2453003,-0.041015625,0.0107421875,0.029296875,6.3097224,2.658442,0.5402861,-20.526602,-0.975708,-0.05029297,-0.06781006,-0.036132812,0.04296875,0.059570312,3.5424318,-0.9678631,-56.326374,-18.858192,0.44085693,-0.54852295,0.7485962,-0.061523438,-0.032226562,0.0546875,0.6180231,-0.7099621,-128.19275,-14.295216,0.0,0.0,0.0,0.0,0.0,0.0,0.0,17.98097,-128.07797,-7.173196,0.0,0.0,0.0,0.0,0.0,0.0,0.0,-1.5219516,44.967754,0.986497,
1.1015624671708797,47,-0.010620117,-0.9244995,0.40966797,0.022460938,-0.053710938,0.045898438,0.0,0.0,0.0,0.0,0.0,0.0,0.0,0.0,0.0,0.0,0.0,-0.12723374,-0.024398182,0.991699,-0.02746582,-0.9281006,-0.39160156,-0.033203125,0.005859375,0.037109375,4.075253,-2.6341317,-0.50511795,20.531244,-0.9750366,-0.06439209,-0.18377686,-0.015625,0.026367188,0.016601562,0.6786853,-4.6993084,-57.473656,20.415215,0.560791,0.41644287,0.73443604,0.0029296875,-0.00390625,-0.0087890625,14.501311,-5.94417,-129.47925,19.992086,0.0,0.0,0.0,0.0,0.0,0.0,0.0,8.411215,-130.12149,33.907364,0.0,0.0,0.0,0.0,0.0,0.0,0.0,0.12723374,0.024398182,-0.991699,-0.012268066,-1.0137329,-0.2730713,-0.060546875,0.12011719,0.047851562,6.1110926,2.6341317,0.50511795,-20.531244,-0.97106934,0.01171875,-0.09106445,0.01953125,0.04296875,0.07714844,3.5180843,-0.8876221,-56.36851,-18.85593,0.4467163,-0.5726929,0.7601929,-0.04296875,-0.051757812,0.036132812,0.7404569,-0.5823314,-128.23161,-14.198159,0.0,0.0,0.0,0.0,0.0,0.0,0.0,18.115366,-128.12314,-7.090658,0.0,0.0,0.0,0.0,0.0,0.0,0.0,-1.4612032,44.972527,0.9189618,
1.1249999664723878,48,-0.018859863,-0.9517212,0.40161133,-9.765625E-4,0.061523438,0.009765625,0.0,0.0,0.0,0.0,0.0,0.0,0.0,0.0,0.0,0.0,0.0,-0.12571874,-0.02370425,0.9918445,-0.018310547,-0.9397583,-0.41070557,-0.0146484375,0.024414062,0.017578125,4.046124,-2.6027687,-0.4907515,20.534256,-0.94433594,-0.06677246,-0.18371582,-0.053710938,0.045898438,0.036132812,0.68098795,-4.7028275,-57.460155,20.426468,0.57788086,0.41497803,0.7352905,0.00390625,-0.00390625,0.009765625,14.498391,-5.9595733,-129.46227,20.032503,0.0,0.0,0.0,0.0,0.0,0.0,0.0,8.395885,-130.1081,33.946922,0.0,0.0,0.0,0.0,0.0,0.0,0.0,0.12571874,0.02370425,-0.9918445,-0.007507324,-0.95562744,-0.29138184,-0.022460938,0.047851562,0.06640625,6.012587,2.6027687,0.4907515,-20.534256,-0.9738159,-0.010986328,-0.103149414,-0.055664062,0.061523438,0.078125,3.4907637,-0.8806083,-56.38046,-18.85503,0.4329834,-0.6068115,0.74731445,-0.080078125,0.025390625,0.07324219,0.6552143,-0.6293194,-128.2367,-14.092608,0.0,0.0,0.0,0.0,0.0,0.0,0.0,18.065763,-128.11676,-6.981053,0.0,0.0,0.0,0.0,0.0,0.0,0.0,-1.414452,44.97161,0.8954984,
1.1484374657738958,49,-0.032043457,-0.95910645,0.3789673,-0.01953125,0.041992188,0.028320312,0.0,0.0,0.0,0.0,0.0,0.0,0.0,0.0,0.0,0.0,0.0,-0.1254665,-0.022805069,0.99191713,-0.035583496,-0.92700195,-0.39752197,-0.0146484375,-0.013671875,-9.765625E-4,4.013711,-2.597544,-0.47213563,20.535759,-0.9628296,-0.0647583,-0.17388916,-0.015625,0.045898438,-0.001953125,0.6994157,-4.728307,-57.43674,20.437859,0.5500488,0.394104,0.72650146,0.0029296875,-0.022460938,0.009765625,14.513158,-5.963138,-129.43532,20.073458,0.0,0.0,0.0,0.0,0.0,0.0,0.0,8.388239,-130.08109,33.992935,0.0,0.0,0.0,0.0,0.0,0.0,0.0,0.1254665,0.022805069,-0.99191713,-0.009765625,-0.97320557,-0.31030273,-0.060546875,0.047851562,0.047851562,5.965191,2.597544,0.47213563,-20.535759,-0.9639282,0.012634277,-0.11303711,0.056640625,0.061523438,0.057617188,3.4639628,-0.90889716,-56.40363,-18.851425,0.45690918,-0.5588989,0.7520752,-0.080078125,0.025390625,0.07324219,0.61165804,-0.68778956,-128.26395,-14.1434,0.0,0.0,0.0,0.0,0.0,0.0,0.0,18.004791,-128.16151,-7.0237103,0.0,0.0,0.0,0.0,0.0,0.0,0.0,-1.3708718,44.974514,0.86060464,
1.171874965075404,50,-0.012817383,-0.94781494,0.39868164,-0.018554688,0.022460938,0.009765625,0.0,0.0,0.0,0.0,0.0,0.0,0.0,0.0,0.0,0.0,0.0,-0.12528855,-0.021922596,0.9919957,-0.015136719,-0.918396,-0.4095459,-0.0146484375,-0.032226562,-9.765625E-4,4.015467,-2.593861,-0.4538657,20.537386,-0.953125,-0.105163574,-0.20458984,-0.034179688,0.045898438,0.016601562,0.7404569,-4.769334,-57.42122,20.469658,0.55352783,0.4171753,0.7095337,0.00390625,-0.00390625,0.02734375,14.573392,-6.0395703,-129.42033,20.093311,0.0,0.0,0.0,0.0,0.0,0.0,0.0,8.313293,-130.07152,34.01113,0.0,0.0,0.0,0.0,0.0,0.0,0.0,0.12528855,0.021922596,-0.9919957,-0.002746582,-0.9732666,-0.32226562,-0.022460938,0.083984375,0.047851562,5.957727,2.593861,0.4538657,-20.537386,-0.9749756,0.021484375,-0.119628906,-0.055664062,0.080078125,0.078125,3.4544542,-0.96719265,-56.408577,-18.855482,0.4621582,-0.5765381,0.78460693,-0.080078125,0.044921875,0.055664062,0.4639383,-0.8602004,-128.26248,-14.104864,0.0,0.0,0.0,0.0,0.0,0.0,0.0,17.831232,-128.15498,-6.981689,0.0,0.0,0.0,0.0,0.0,0.0,0.0,-1.3402925,44.97773,0.82470644,
1.195312464376912,51,-0.023986816,-0.9553833,0.38391113,0.0,0.041992188,0.028320312,0.0,0.0,0.0,0.0,0.0,0.0,0.0,0.0,0.0,0.0,0.0,-0.124668926,-0.021178314,0.9920814,-0.018310547,-0.9310303,-0.40563965,-0.0146484375,0.024414062,0.017578125,4.00399,-2.5810325,-0.43845674,20.53916,-0.9751587,-0.074279785,-0.18676758,-0.034179688,0.045898438,0.016601562,0.7483428,-4.7912884,-57.40682,20.495062,0.5474243,0.40808105,0.72454834,0.0029296875,-0.00390625,-0.0087890625,14.627231,-6.0951934,-129.40483,20.14327,0.0,0.0,0.0,0.0,0.0,0.0,0.0,8.252455,-130.05138,34.064957,0.0,0.0,0.0,0.0,0.0,0.0,0.0,0.124668926,0.021178314,-0.9920814,-0.028808594,-0.97283936,-0.30895996,-0.00390625,0.08300781,0.047851562,5.9351463,2.5810325,0.43845674,-20.53916,-0.95666504,-0.0071411133,-0.1272583,-0.055664062,0.061523438,0.00390625,3.428969,-0.99723196,-56.42796,-18.8186,0.44451904,-0.5834961,0.7571411,-0.080078125,0.043945312,0.091796875,0.42474586,-0.9124826,-128.28566,-14.07819,0.0,0.0,0.0,0.0,0.0,0.0,0.0,17.769766,-128.1904,-6.9333606,0.0,0.0,0.0,0.0,0.0,0.0,0.0,-1.3060623,44.97887,0.79605496,
1.21874996367842,52,1.8310547E-4,-0.95581055,0.39666748,0.0,0.041992188,0.028320312,0.0,0.0,0.0,0.0,0.0,0.0,0.0,0.0,0.0,0.0,0.0,-0.12351096,-0.02062239,0.9922882,-0.026245117,-0.9085083,-0.4173584,-0.013671875,0.043945312,-9.765625E-4,3.99988,-2.5570607,-0.42694739,20.543442,-0.9668579,-0.06085205,-0.16802979,-0.034179688,0.045898438,0.036132812,0.7843454,-4.833538,-57.391556,20.517756,0.54382324,0.42071533,0.74157715,-0.015625,-0.022460938,0.009765625,14.705746,-6.160595,-129.39645,20.18017,0.0,0.0,0.0,0.0,0.0,0.0,0.0,8.1794815,-130.04312,34.111404,0.0,0.0,0.0,0.0,0.0,0.0,0.0,0.12351096,0.02062239,-0.9922882,-0.017944336,-0.9848633,-0.31121826,-0.022460938,0.06542969,0.047851562,5.8929534,2.5570607,0.42694739,-20.543442,-0.98101807,0.0018920898,-0.08892822,0.01953125,0.024414062,0.05859375,3.4693847,-1.039082,-56.434628,-18.79347,0.449646,-0.5756836,0.75512695,-0.080078125,0.08300781,0.07421875,0.4329587,-0.8903395,-128.29611,-14.060051,0.0,0.0,0.0,0.0,0.0,0.0,0.0,17.788929,-128.19356,-6.904803,0.0,0.0,0.0,0.0,0.0,0.0,0.0,-1.2510827,44.982975,0.7791425,
1.242187462979928,53,-0.030944824,-0.93756104,0.37121582,-0.01953125,0.060546875,0.028320312,0.0,0.0,0.0,0.0,0.0,0.0,0.0,0.0,0.0,0.0,0.0,-0.123458445,-0.019846324,0.99223846,-0.02947998,-0.9425659,-0.40863037,-0.0146484375,0.005859375,0.017578125,4.017515,-2.5559716,-0.41088045,20.542412,-0.940979,-0.05102539,-0.17675781,-0.03515625,0.026367188,0.016601562,0.8223435,-4.8730497,-57.372566,20.54702,0.53704834,0.4015503,0.7166748,-0.03515625,-0.0029296875,-0.02734375,14.723117,-6.1863623,-129.37808,20.241661,0.0,0.0,0.0,0.0,0.0,0.0,0.0,8.149079,-130.02997,34.175716,0.0,0.0,0.0,0.0,0.0,0.0,0.0,0.123458445,0.019846324,-0.99223846,0.0134887695,-0.9610596,-0.27990723,-0.041015625,0.046875,0.029296875,5.834756,2.5559716,0.41088045,-20.542412,-0.9649658,0.00970459,-0.09613037,-0.018554688,0.061523438,0.040039062,3.442759,-1.0230749,-56.452644,-18.804762,0.44384766,-0.5708008,0.7692261,-0.080078125,0.08300781,0.037109375,0.39316702,-0.91178715,-128.31004,-14.055412,0.0,0.0,0.0,0.0,0.0,0.0,0.0,17.765045,-128.20786,-6.893095,0.0,0.0,0.0,0.0,0.0,0.0,0.0,-1.235482,44.980747,0.7459616,
1.2656249622814362,54,0.0032348633,-0.94989014,0.3908081,-0.038085938,0.022460938,0.046875,0.0,0.0,0.0,0.0,0.0,0.0,0.0,0.0,0.0,0.0,0.0,-0.12399706,-0.019013787,0.9921863,-0.010131836,-0.9349365,-0.41864014,-0.033203125,0.024414062,0.037109375,4.0053596,-2.5671237,-0.3936443,20.54133,-0.97442627,-0.084350586,-0.18292236,-0.03515625,0.026367188,0.036132812,0.8474219,-4.919139,-57.356087,20.54861,0.53790283,0.42590332,0.7366333,-0.0146484375,0.015625,0.0087890625,14.781564,-6.2514277,-129.35388,20.225998,0.0,0.0,0.0,0.0,0.0,0.0,0.0,8.083692,-130.00288,34.16174,0.0,0.0,0.0,0.0,0.0,0.0,0.0,0.12399706,0.019013787,-0.9921863,-0.017150879,-0.99871826,-0.29852295,-0.060546875,0.029296875,0.047851562,5.803532,2.5671237,0.3936443,-20.54133,-0.9821167,0.016662598,-0.08874512,-0.018554688,0.080078125,0.059570312,3.451449,-1.0313089,-56.469814,-18.792183,0.4375,-0.59558105,0.7751465,-0.080078125,0.10253906,0.037109375,0.34548426,-0.92351925,-128.32327,-14.041698,0.0,0.0,0.0,0.0,0.0,0.0,0.0,17.756325,-128.20148,-6.8882995,0.0,0.0,0.0,0.0,0.0,0.0,0.0,-1.2058972,44.982056,0.7113093,
1.2890624615829442,55,-0.028930664,-0.94750977,0.38391113,0.0,0.041992188,0.046875,0.0,0.0,0.0,0.0,0.0,0.0,0.0,0.0,0.0,0.0,0.0,-0.12421033,-0.019003144,0.9921644,-0.02142334,-0.95043945,-0.40081787,-0.0146484375,0.005859375,0.017578125,3.989487,-2.5715399,-0.39342397,20.540878,-0.9526367,-0.07080078,-0.17785645,-0.03515625,0.026367188,0.036132812,0.8478836,-4.929007,-57.351627,20.541664,0.543396,0.40283203,0.7435303,-0.0146484375,0.015625,0.0087890625,14.790048,-6.276697,-129.36017,20.204153,0.0,0.0,0.0,0.0,0.0,0.0,0.0,8.059899,-130.00691,34.136765,0.0,0.0,0.0,0.0,0.0,0.0,0.0,0.12421033,0.019003144,-0.9921644,-0.02709961,-0.9916382,-0.30523682,-0.00390625,-0.0078125,0.047851562,5.8020797,2.5715399,0.39342397,-20.540878,-0.97991943,0.017578125,-0.12054443,-0.07421875,0.04296875,0.022460938,3.406053,-1.011827,-56.468052,-18.728558,0.4545288,-0.57855225,0.743042,-0.0234375,0.044921875,-9.765625E-4,0.27482533,-0.9425396,-128.32155,-13.913168,0.0,0.0,0.0,0.0,0.0,0.0,0.0,17.736979,-128.18584,-6.7610674,0.0,0.0,0.0,0.0,0.0,0.0,0.0,-1.1895517,44.982666,0.7126414,
1.3124999608844523,56,-0.024841309,-0.9397583,0.38793945,0.020507812,0.00390625,0.045898438,0.0,0.0,0.0,0.0,0.0,0.0,0.0,0.0,0.0,0.0,0.0,-0.123722345,-0.018295825,0.9923019,-0.012207031,-0.9388428,-0.4136963,-0.013671875,0.043945312,-9.765625E-4,3.9745371,-2.561436,-0.37878025,20.543724,-0.93603516,-0.0647583,-0.19055176,-0.0546875,0.026367188,0.0546875,0.83204234,-4.9637375,-57.3391,20.52622,0.541626,0.42138672,0.7126465,-0.015625,-0.00390625,0.009765625,14.828074,-6.354225,-129.33408,20.204905,0.0,0.0,0.0,0.0,0.0,0.0,0.0,7.979373,-129.9797,34.143463,0.0,0.0,0.0,0.0,0.0,0.0,0.0,0.123722345,0.018295825,-0.9923019,-0.01171875,-0.96936035,-0.2874756,-0.041015625,0.0107421875,0.047851562,5.720636,2.561436,0.37878025,-20.543724,-0.96380615,-0.015930176,-0.093444824,-0.018554688,0.061523438,0.040039062,3.4412231,-1.0083253,-56.491455,-18.752836,0.44476318,-0.5727539,0.7642212,-0.0234375,0.064453125,-9.765625E-4,0.30901045,-0.87750995,-128.34378,-13.9508505,0.0,0.0,0.0,0.0,0.0,0.0,0.0,17.806025,-128.19962,-6.8100786,0.0,0.0,0.0,0.0,0.0,0.0,0.0,-1.1516321,44.986893,0.6858696,
1.3359374601859604,57,9.765625E-4,-0.9790039,0.3729248,-0.038085938,0.041992188,0.046875,0.0,0.0,0.0,0.0,0.0,0.0,0.0,0.0,0.0,0.0,0.0,-0.12372342,-0.0181191,0.99229944,-0.028381348,-0.91064453,-0.38745117,-0.033203125,0.024414062,-9.765625E-4,3.9995372,-2.561459,-0.37512156,20.543674,-0.93573,-0.065979004,-0.22796631,-0.036132812,0.0078125,0.03515625,0.8481144,-5.0144396,-57.333862,20.52835,0.552124,0.42730713,0.7484741,0.00390625,0.015625,0.0087890625,14.882954,-6.4268484,-129.33347,20.22336,0.0,0.0,0.0,0.0,0.0,0.0,0.0,7.8979845,-129.97862,34.16948,0.0,0.0,0.0,0.0,0.0,0.0,0.0,0.12372342,0.0181191,-0.99229944,0.0071411133,-0.9844971,-0.28790283,-0.00390625,0.06542969,0.047851562,5.6759567,2.561459,0.37512156,-20.543674,-0.9962158,0.026550293,-0.09136963,-0.0546875,0.024414062,0.041015625,3.423712,-0.9941735,-56.49118,-18.769157,0.44085693,-0.5839844,0.7860718,-0.080078125,0.08300781,0.09277344,0.24944603,-0.8930026,-128.3469,-13.9536,0.0,0.0,0.0,0.0,0.0,0.0,0.0,17.789492,-128.19443,-6.8096805,0.0,0.0,0.0,0.0,0.0,0.0,0.0,-1.132647,44.987213,0.6802311,
1.3593749594874684,58,-0.012878418,-0.93566895,0.35546875,-0.015625,-0.053710938,0.045898438,0.0,0.0,0.0,0.0,0.0,0.0,0.0,0.0,0.0,0.0,0.0,-0.12395382,-0.018154738,0.9922315,-0.020324707,-0.9262085,-0.40057373,-0.0146484375,0.024414062,0.017578125,3.9685214,-2.5662289,-0.37585935,20.542267,-0.94244385,-0.07293701,-0.17779541,-0.053710938,0.02734375,0.016601562,0.85432106,-5.0251946,-57.330635,20.522331,0.5360718,0.4307251,0.74664307,0.00390625,0.015625,0.0087890625,14.892644,-6.4261065,-129.32968,20.22195,0.0,0.0,0.0,0.0,0.0,0.0,0.0,7.8972063,-129.97147,34.17089,0.0,0.0,0.0,0.0,0.0,0.0,0.0,0.12395382,0.018154738,-0.9922315,0.021362305,-0.973938,-0.2890625,-0.00390625,0.06542969,0.047851562,5.605389,2.5662289,0.37585935,-20.542267,-0.9725952,-0.037597656,-0.09844971,-0.017578125,0.061523438,0.05859375,3.4326782,-0.95994925,-56.49145,-18.79651,0.4418335,-0.579834,0.77716064,-0.061523438,0.08300781,0.055664062,0.24549258,-0.84515643,-128.34253,-13.959775,0.0,0.0,0.0,0.0,0.0,0.0,0.0,17.840742,-128.19107,-6.8227615,0.0,0.0,0.0,0.0,0.0,0.0,0.0,-1.1024115,44.986168,0.68538845,
1.3828124587889765,59,-0.059265137,-0.96435547,0.35235596,0.0,0.060546875,0.046875,0.0,0.0,0.0,0.0,0.0,0.0,0.0,0.0,0.0,0.0,0.0,-0.123876214,-0.018541735,0.9922252,-0.03668213,-0.9406128,-0.39068604,-0.0146484375,-0.013671875,0.017578125,3.9366648,-2.5646214,-0.38387138,20.54214,-0.97406006,-0.06359863,-0.17590332,-0.03515625,0.045898438,0.0546875,0.85866195,-5.0077705,-57.341003,20.528343,0.54229736,0.43658447,0.7445679,0.0029296875,-0.00390625,-0.0087890625,14.893705,-6.4067802,-129.34703,20.208258,0.0,0.0,0.0,0.0,0.0,0.0,0.0,7.91477,-129.98605,34.15773,0.0,0.0,0.0,0.0,0.0,0.0,0.0,0.123876214,0.018541735,-0.9922252,0.030273438,-0.97906494,-0.28826904,-0.022460938,0.083984375,0.047851562,5.545528,2.5646214,0.38387138,-20.54214,-0.9527588,-0.0031738281,-0.11834717,9.765625E-4,0.061523438,0.040039062,3.4384341,-0.92445064,-56.48622,-18.834389,0.43414307,-0.5630493,0.7904053,-0.080078125,0.08300781,0.07421875,0.28803554,-0.7638166,-128.34177,-14.031083,0.0,0.0,0.0,0.0,0.0,0.0,0.0,17.91769,-128.19612,-6.8806577,0.0,0.0,0.0,0.0,0.0,0.0,0.0,-1.0837872,44.98592,0.70534545,
1.4062499580904846,60,-0.024963379,-0.95751953,0.40454102,-0.038085938,0.022460938,0.06542969,0.0,0.0,0.0,0.0,0.0,0.0,0.0,0.0,0.0,0.0,0.0,-0.12355593,-0.01860771,0.9922527,-0.022338867,-0.9146118,-0.38653564,-0.0146484375,0.005859375,0.017578125,3.9169166,-2.5579898,-0.38523728,20.542706,-0.9713745,-0.051696777,-0.22009277,-0.07128906,0.08496094,0.055664062,0.8376676,-5.0006113,-57.34227,20.54081,0.5394287,0.40478516,0.74853516,0.00390625,0.015625,-0.028320312,14.85964,-6.3893766,-129.34975,20.287369,0.0,0.0,0.0,0.0,0.0,0.0,0.0,7.931608,-129.98648,34.236244,0.0,0.0,0.0,0.0,0.0,0.0,0.0,0.12355593,0.01860771,-0.9922527,-0.015991211,-0.9888916,-0.3024292,-0.00390625,0.029296875,0.06640625,5.50851,2.5579898,0.38523728,-20.542706,-0.9699707,0.008728027,-0.103027344,-0.036132812,0.024414062,0.021484375,3.4666183,-0.9161196,-56.490276,-18.84647,0.4368286,-0.57470703,0.774353,-0.0234375,0.044921875,0.017578125,0.31090426,-0.720065,-128.3427,-14.01795,0.0,0.0,0.0,0.0,0.0,0.0,0.0,17.966421,-128.19173,-6.8843284,0.0,0.0,0.0,0.0,0.0,0.0,0.0,-1.0646986,44.985783,0.71104133,
1.4296874573919927,61,-0.018798828,-0.9219971,0.36932373,-0.037109375,0.0029296875,0.046875,0.0,0.0,0.0,0.0,0.0,0.0,0.0,0.0,0.0,0.0,0.0,-0.12358898,-0.01818311,0.99223757,-0.024536133,-0.94854736,-0.38879395,-0.0146484375,0.005859375,0.017578125,3.8489358,-2.5586762,-0.37644678,20.542393,-0.9595337,-0.060546875,-0.18566895,-0.053710938,0.045898438,0.0546875,0.81035864,-4.9559326,-57.33092,20.543121,0.52301025,0.43640137,0.7288208,-0.0146484375,0.015625,0.0087890625,14.863381,-6.324304,-129.33192,20.3051,0.0,0.0,0.0,0.0,0.0,0.0,0.0,7.9968762,-129.96243,34.25596,0.0,0.0,0.0,0.0,0.0,0.0,0.0,0.12358898,0.01818311,-0.99223757,-0.008728027,-0.9694214,-0.28656006,-0.022460938,-0.0068359375,0.047851562,5.4734273,2.5586762,0.37644678,-20.542393,-0.9817505,-0.022827148,-0.10211182,-0.018554688,0.061523438,0.040039062,3.4842515,-0.8975768,-56.49805,-18.828249,0.4689331,-0.56817627,0.75268555,-0.080078125,0.06347656,0.055664062,0.41306832,-0.64925075,-128.35023,-13.981751,0.0,0.0,0.0,0.0,0.0,0.0,0.0,18.04145,-128.21513,-6.8578095,0.0,0.0,0.0,0.0,0.0,0.0,0.0,-1.0491753,44.985577,0.693696,
1.4531249566935007,62,-0.0087890625,-0.9379883,0.38891602,-0.057617188,0.022460938,0.028320312,0.0,0.0,0.0,0.0,0.0,0.0,0.0,0.0,0.0,0.0,0.0,-0.123678446,-0.0172604,0.9923464,-0.02758789,-0.95428467,-0.39978027,0.0048828125,-0.0126953125,0.017578125,3.7918372,-2.560528,-0.3573438,20.544645,-0.9614258,-0.05065918,-0.18267822,-0.053710938,0.045898438,0.016601562,0.8216294,-4.936301,-57.318214,20.54742,0.5482178,0.43243408,0.7435303,0.00390625,-0.00390625,0.009765625,14.806747,-6.2410407,-129.31476,20.332483,0.0,0.0,0.0,0.0,0.0,0.0,0.0,8.078716,-129.95305,34.28366,0.0,0.0,0.0,0.0,0.0,0.0,0.0,0.123678446,0.0172604,-0.9923464,-0.0060424805,-0.993103,-0.29077148,-0.022460938,0.0107421875,0.0107421875,5.4323864,2.560528,0.3573438,-20.544645,-0.97961426,-0.027770996,-0.113098145,0.020507812,-0.0126953125,0.001953125,3.4509385,-0.8915708,-56.510048,-18.81263,0.46136475,-0.60772705,0.7595215,-0.080078125,0.06347656,0.055664062,0.3810355,-0.65476775,-128.35979,-13.99532,0.0,0.0,0.0,0.0,0.0,0.0,0.0,18.03875,-128.22264,-6.879863,0.0,0.0,0.0,0.0,0.0,0.0,0.0,-1.0291599,44.991253,0.65428966,
1.4765624559950088,63,0.0010986328,-0.95861816,0.3848877,-0.037109375,-0.015625,0.028320312,0.0,0.0,0.0,0.0,0.0,0.0,0.0,0.0,0.0,0.0,0.0,-0.12360835,-0.016778888,0.9922638,-0.02947998,-0.9299927,-0.39660645,0.0048828125,0.005859375,-9.765625E-4,3.7362258,-2.559076,-0.347375,20.542936,-0.9656372,-0.09881592,-0.16619873,-0.072265625,0.06542969,0.036132812,0.8275619,-4.920494,-57.30103,20.563305,0.565979,0.42437744,0.72839355,0.021484375,-0.061523438,0.028320312,14.780079,-6.231219,-129.30193,20.33285,0.0,0.0,0.0,0.0,0.0,0.0,0.0,8.092377,-129.94098,34.279797,0.0,0.0,0.0,0.0,0.0,0.0,0.0,0.12360835,0.016778888,-0.9922638,-0.018188477,-1.001648,-0.30743408,-0.022460938,-0.0078125,0.029296875,5.3934684,2.559076,0.347375,-20.542936,-0.9849243,0.00970459,-0.11657715,9.765625E-4,0.024414062,0.040039062,3.3702846,-0.88812304,-56.521793,-18.783781,0.43603516,-0.59991455,0.74432373,-0.061523438,0.06347656,0.07324219,0.29208308,-0.7311841,-128.3731,-13.985817,0.0,0.0,0.0,0.0,0.0,0.0,0.0,17.95789,-128.23228,-6.858597,0.0,0.0,0.0,0.0,0.0,0.0,0.0,-0.99622107,44.987797,0.6366291,
1.4999999552965169,64,-0.038024902,-0.9564209,0.40454102,-0.037109375,-0.015625,0.028320312,0.0,0.0,0.0,0.0,0.0,0.0,0.0,0.0,0.0,0.0,0.0,-0.12237328,-0.016678806,0.99239475,-0.0234375,-0.93688965,-0.39068604,0.0048828125,0.005859375,0.017578125,3.6915696,-2.5335062,-0.34530297,20.545649,-0.9817505,-0.051940918,-0.20147705,-0.03515625,0.026367188,0.036132812,0.8372002,-4.8948164,-57.298935,20.567589,0.5584717,0.399292,0.74938965,-0.034179688,-0.0029296875,0.0087890625,14.769847,-6.191144,-129.29767,20.337042,0.0,0.0,0.0,0.0,0.0,0.0,0.0,8.133018,-129.93901,34.284588,0.0,0.0,0.0,0.0,0.0,0.0,0.0,0.12237328,0.016678806,-0.99239475,0.006164551,-0.9815674,-0.28094482,-0.041015625,-0.0068359375,0.029296875,5.3445616,2.5335062,0.34530297,-20.545649,-0.97369385,-0.03656006,-0.08355713,-0.07421875,0.024414062,0.041015625,3.4026027,-0.9034035,-56.53328,-18.78472,0.41455078,-0.57507324,0.77093506,-0.080078125,0.044921875,0.07421875,0.32264063,-0.6888466,-128.38687,-13.977597,0.0,0.0,0.0,0.0,0.0,0.0,0.0,17.99704,-128.24258,-6.8405285,0.0,0.0,0.0,0.0,0.0,0.0,0.0,-0.959703,44.98751,0.6377462,
1.523437454598025,65,-0.00390625,-0.96051025,0.38781738,-0.037109375,0.00390625,0.009765625,0.0,0.0,0.0,0.0,0.0,0.0,0.0,0.0,0.0,0.0,0.0,-0.1225526,-0.016398257,0.99246377,-0.011169434,-0.93499756,-0.4086914,0.0048828125,-0.032226562,-9.765625E-4,3.6838706,-2.5372198,-0.33949476,20.547077,-0.96661377,-0.05645752,-0.1876831,-0.07324219,0.045898438,0.0546875,0.86343426,-4.9024305,-57.298794,20.576187,0.55133057,0.39971924,0.73846436,0.00390625,-0.00390625,0.009765625,14.720119,-6.1684866,-129.30928,20.345175,0.0,0.0,0.0,0.0,0.0,0.0,0.0,8.161483,-129.94783,34.286827,0.0,0.0,0.0,0.0,0.0,0.0,0.0,0.1225526,0.016398257,-0.99246377,-0.013793945,-0.9772339,-0.28753662,-0.041015625,0.046875,0.029296875,5.3193135,2.5372198,0.33949476,-20.547077,-1.0001221,0.011779785,-0.084472656,-0.018554688,0.061523438,0.040039062,3.4353008,-0.8917725,-56.530865,-18.792253,0.44677734,-0.6300049,0.74975586,-0.080078125,0.08300781,0.111328125,0.33043072,-0.6699413,-128.37512,-13.914653,0.0,0.0,0.0,0.0,0.0,0.0,0.0,18.014326,-128.2195,-6.7759995,0.0,0.0,0.0,0.0,0.0,0.0,0.0,-0.95213616,44.991703,0.625815,
1.546874953899533,66,-7.9345703E-4,-0.94592285,0.38690186,-0.037109375,0.00390625,0.028320312,0.0,0.0,0.0,0.0,0.0,0.0,0.0,0.0,0.0,0.0,0.0,-0.12371257,-0.01612895,0.9923245,-0.027404785,-0.92803955,-0.4025879,-0.013671875,0.043945312,-9.765625E-4,3.69088,-2.5612345,-0.3339193,20.544193,-0.9729004,-0.06719971,-0.19366455,-0.052734375,0.06542969,0.036132812,0.8764801,-4.951796,-57.29256,20.588123,0.55145264,0.40899658,0.7225342,-0.015625,-0.00390625,0.009765625,14.756713,-6.2700768,-129.29486,20.328054,0.0,0.0,0.0,0.0,0.0,0.0,0.0,8.057312,-129.92905,34.27047,0.0,0.0,0.0,0.0,0.0,0.0,0.0,0.12371257,0.01612895,-0.9923245,-0.020019531,-0.98876953,-0.3102417,-0.041015625,-0.0068359375,0.047851562,5.282014,2.5612345,0.3339193,-20.544193,-0.97680664,-0.01586914,-0.099121094,-0.07421875,0.061523438,0.041015625,3.3926914,-0.8393245,-56.54387,-18.766106,0.46044922,-0.5916748,0.74871826,-0.080078125,0.025390625,0.091796875,0.261696,-0.6421528,-128.3901,-13.863628,0.0,0.0,0.0,0.0,0.0,0.0,0.0,18.043224,-128.21695,-6.7276196,0.0,0.0,0.0,0.0,0.0,0.0,0.0,-0.9376912,44.992176,0.614388,
1.570312453201041,67,-0.018188477,-0.982666,0.3729248,-0.037109375,0.00390625,0.009765625,0.0,0.0,0.0,0.0,0.0,0.0,0.0,0.0,0.0,0.0,0.0,-0.124494046,-0.016083341,0.9921669,-0.035461426,-0.9172363,-0.40142822,-0.0146484375,-0.032226562,-9.765625E-4,3.7347581,-2.577413,-0.33297503,20.54093,-0.9486084,-0.027770996,-0.18548584,-0.053710938,0.045898438,0.036132812,0.91813207,-5.002982,-57.29274,20.61915,0.5563965,0.40698242,0.7194824,-0.015625,-0.0029296875,-0.0087890625,14.777548,-6.302214,-129.29303,20.393314,0.0,0.0,0.0,0.0,0.0,0.0,0.0,8.023373,-129.92659,34.340546,0.0,0.0,0.0,0.0,0.0,0.0,0.0,0.124494046,0.016083341,-0.9921669,-0.007019043,-0.98999023,-0.31640625,-0.00390625,0.046875,0.047851562,5.2700925,2.577413,0.33297503,-20.54093,-0.97161865,-0.027770996,-0.11328125,-0.018554688,0.061523438,0.040039062,3.3969014,-0.8096025,-56.54008,-18.764921,0.4387207,-0.58673096,0.7791748,-0.080078125,0.06347656,0.07421875,0.3000144,-0.56269455,-128.38835,-13.904658,0.0,0.0,0.0,0.0,0.0,0.0,0.0,18.116934,-128.21973,-6.752329,0.0,0.0,0.0,0.0,0.0,0.0,0.0,-0.9398909,44.98946,0.6113589,
1.5937499525025491,68,0.0041503906,-0.95666504,0.3809204,-0.018554688,0.022460938,0.028320312,0.0,0.0,0.0,0.0,0.0,0.0,0.0,0.0,0.0,0.0,0.0,-0.12517953,-0.015684158,0.99212444,-0.038635254,-0.9260864,-0.38452148,0.0048828125,-0.032226562,-9.765625E-4,3.7286716,-2.5916035,-0.32471064,20.540052,-0.9674072,-0.09527588,-0.1907959,-0.03515625,0.026367188,0.036132812,0.9516218,-5.0225573,-57.28056,20.640902,0.55010986,0.4284668,0.7424927,0.022460938,-0.00390625,0.009765625,14.779542,-6.333825,-129.28093,20.37606,0.0,0.0,0.0,0.0,0.0,0.0,0.0,7.993252,-129.91989,34.321632,0.0,0.0,0.0,0.0,0.0,0.0,0.0,0.12517953,0.015684158,-0.99212444,-0.0095825195,-0.9595337,-0.2883911,-0.022460938,0.029296875,0.029296875,5.2463546,2.5916035,0.32471064,-20.540052,-0.9760742,0.013671875,-0.09289551,-0.018554688,0.061523438,0.040039062,3.3817668,-0.7901509,-56.55234,-18.759148,0.41552734,-0.5841675,0.7788086,-0.0048828125,0.005859375,0.017578125,0.26834098,-0.53545713,-128.406,-13.928917,0.0,0.0,0.0,0.0,0.0,0.0,0.0,18.14478,-128.22762,-6.7767696,0.0,0.0,0.0,0.0,0.0,0.0,0.0,-0.9305937,44.99156,0.5938402,
1.6171874518040572,69,-0.01977539,-0.9430542,0.41644287,0.001953125,-0.015625,0.02734375,0.0,0.0,0.0,0.0,0.0,0.0,0.0,0.0,0.0,0.0,0.0,-0.12490603,-0.015031409,0.9921695,-0.030517578,-0.9328613,-0.40057373,0.0048828125,0.043945312,-9.765625E-4,3.6917288,-2.5859418,-0.31119677,20.540985,-0.9750366,-0.0635376,-0.17791748,-0.053710938,0.02734375,0.016601562,0.93857783,-5.0069165,-57.26547,20.650585,0.55200195,0.42126465,0.7504883,-0.015625,-0.00390625,0.02734375,14.813027,-6.334297,-129.26732,20.392618,0.0,0.0,0.0,0.0,0.0,0.0,0.0,7.983533,-129.91478,34.345768,0.0,0.0,0.0,0.0,0.0,0.0,0.0,0.12490603,0.015031409,-0.9921695,-0.036193848,-0.9984741,-0.2814331,-0.041015625,0.0107421875,0.0107421875,5.2347636,2.5859418,0.31119677,-20.540985,-0.9848633,-0.010986328,-0.10089111,-0.055664062,0.061523438,0.041015625,3.3660994,-0.8087311,-56.557327,-18.734318,0.43884277,-0.5626221,0.76049805,-0.061523438,0.025390625,0.0546875,0.289391,-0.6050378,-128.40439,-13.855422,0.0,0.0,0.0,0.0,0.0,0.0,0.0,18.073513,-128.23895,-6.700566,0.0,0.0,0.0,0.0,0.0,0.0,0.0,-0.91332686,44.992287,0.5666547,
1.6406249511055653,70,-0.0413208,-0.9842529,0.3630371,-0.036132812,-0.015625,0.046875,0.0,0.0,0.0,0.0,0.0,0.0,0.0,0.0,0.0,0.0,0.0,-0.12504432,-0.014777789,0.9921453,-0.018371582,-0.93115234,-0.38671875,0.0048828125,-0.0126953125,-0.020507812,3.6679435,-2.5888057,-0.30594605,20.540485,-0.9530029,-0.031188965,-0.16485596,-0.053710938,0.045898438,0.0546875,0.9503872,-4.993886,-57.262554,20.65377,0.5425415,0.40344238,0.7614746,-0.015625,0.015625,-0.009765625,14.743999,-6.278902,-129.26186,20.402912,0.0,0.0,0.0,0.0,0.0,0.0,0.0,8.04284,-129.91365,34.350983,0.0,0.0,0.0,0.0,0.0,0.0,0.0,0.12504432,0.014777789,-0.9921453,-0.034057617,-0.989624,-0.28631592,0.015625,-0.043945312,0.029296875,5.2206335,2.5888057,0.30594605,-20.540485,-0.9748535,-0.022705078,-0.07348633,-0.017578125,0.005859375,0.021484375,3.3740582,-0.78806734,-56.57146,-18.704834,0.44171143,-0.58270264,0.7711792,-0.080078125,0.06347656,0.07421875,0.32745644,-0.53910375,-128.42178,-13.804293,0.0,0.0,0.0,0.0,0.0,0.0,0.0,18.13876,-128.25786,-6.6483335,0.0,0.0,0.0,0.0,0.0,0.0,0.0,-0.9085968,44.992054,0.55563253,
1.6640624504070733,71,0.0022583008,-0.94000244,0.37805176,-0.038085938,0.022460938,0.046875,0.0,0.0,0.0,0.0,0.0,0.0,0.0,0.0,0.0,0.0,0.0,-0.12582251,-0.014617853,0.9920632,-0.012268066,-0.9350586,-0.39471436,0.0048828125,0.005859375,-0.020507812,3.6682107,-2.604916,-0.3026349,20.538786,-0.9570923,-0.057800293,-0.2220459,-0.03515625,0.026367188,0.036132812,0.92830586,-5.0040307,-57.26312,20.642931,0.54400635,0.4309082,0.7276001,-0.0146484375,0.034179688,0.0087890625,14.761727,-6.2912683,-129.26227,20.410282,0.0,0.0,0.0,0.0,0.0,0.0,0.0,8.02964,-129.92209,34.3581,0.0,0.0,0.0,0.0,0.0,0.0,0.0,0.12582251,0.014617853,-0.9920632,-0.022949219,-0.9829712,-0.286438,0.07128906,-0.044921875,0.028320312,5.2206707,2.604916,0.3026349,-20.538786,-0.9859619,-0.015808105,-0.07318115,-0.12988281,0.024414062,0.041992188,3.3827507,-0.7377212,-56.572914,-18.651232,0.4489746,-0.55181885,0.7543335,-0.061523438,0.06347656,0.055664062,0.4685547,-0.44156575,-128.41306,-13.670809,0.0,0.0,0.0,0.0,0.0,0.0,0.0,18.237524,-128.2608,-6.5173864,0.0,0.0,0.0,0.0,0.0,0.0,0.0,-0.9173691,44.992603,0.54660785,
1.6874999497085814,72,-0.006958008,-0.9572754,0.35827637,-0.09472656,-0.015625,0.028320312,0.0,0.0,0.0,0.0,0.0,0.0,0.0,0.0,0.0,0.0,0.0,-0.12646708,-0.014422974,0.9919288,-0.030578613,-0.9378052,-0.38568115,0.0234375,-0.0126953125,0.037109375,3.655538,-2.6182606,-0.2986003,20.536,-0.9675293,-0.046691895,-0.17681885,-0.03515625,0.026367188,0.0546875,0.9204735,-4.991723,-57.259842,20.639772,0.54663086,0.4169922,0.7265625,-0.034179688,0.015625,-0.009765625,14.733045,-6.238237,-129.26779,20.431587,0.0,0.0,0.0,0.0,0.0,0.0,0.0,8.082947,-129.92497,34.38053,0.0,0.0,0.0,0.0,0.0,0.0,0.0,0.12646708,0.014422974,-0.9919288,-0.0154418945,-1.0214844,-0.2888794,0.3173828,-0.0107421875,0.028320312,4.9562216,2.6182606,0.2986003,-20.536,-0.96380615,-0.0256958,-0.075683594,-0.055664062,0.061523438,0.00390625,3.0869892,-0.37021542,-56.59319,-18.581573,0.41784668,-0.5755615,0.79174805,-0.061523438,0.06347656,0.091796875,0.55778,-0.027574897,-128.43555,-13.587577,0.0,0.0,0.0,0.0,0.0,0.0,0.0,18.648806,-128.28076,-6.428352,0.0,0.0,0.0,0.0,0.0,0.0,0.0,-0.92989165,44.990005,0.5356121,
1.7109374490100895,73,-0.027038574,-0.95721436,0.3789673,-0.055664062,-0.015625,0.028320312,0.0,0.0,0.0,0.0,0.0,0.0,0.0,0.0,0.0,0.0,0.0,-0.12603697,-0.014734819,0.9920472,-0.0234375,-0.9310913,-0.3876953,-0.0146484375,0.043945312,0.017578125,3.682116,-2.6093552,-0.3050564,20.53845,-0.960083,-0.040405273,-0.19543457,-0.0146484375,0.083984375,0.036132812,0.86411387,-4.9626617,-57.263058,20.649145,0.5875244,0.40112305,0.722229,-0.015625,-0.0029296875,-0.0087890625,14.780533,-6.241132,-129.25955,20.494007,0.0,0.0,0.0,0.0,0.0,0.0,0.0,8.076073,-129.9182,34.44599,0.0,0.0,0.0,0.0,0.0,0.0,0.0,0.12603697,0.014734819,-0.9920472,-0.076416016,-1.0823364,-0.28845215,0.8076172,0.203125,0.045898438,4.4356623,2.6093552,0.3050564,-20.53845,-0.9690552,-0.018676758,-0.04675293,-0.09277344,0.061523438,0.07910156,2.4226894,0.3876574,-56.618584,-18.470646,0.4570923,-0.552124,0.75909424,-0.061523438,0.08300781,0.07421875,0.7096917,0.6906328,-128.45465,-13.433676,0.0,0.0,0.0,0.0,0.0,0.0,0.0,19.369038,-128.3262,-6.2757254,0.0,0.0,0.0,0.0,0.0,0.0,0.0,-0.96360004,44.99222,0.5458441,
1.7343749483115976,74,-0.043029785,-0.9390869,0.3475952,-0.21582031,0.15625,0.068359375,0.0,0.0,0.0,0.0,0.0,0.0,0.0,0.0,0.0,0.0,0.0,-0.12577349,-0.017319543,0.9919797,-0.015136719,-0.909729,-0.3994751,-0.0146484375,0.005859375,0.017578125,3.7505584,-2.6039019,-0.3585682,20.537054,-0.96691895,-0.028198242,-0.20227051,0.022460938,0.044921875,0.0546875,0.81517375,-4.935485,-57.322884,20.63517,0.54992676,0.38171387,0.7474365,-0.03515625,-0.0029296875,-0.02734375,14.776021,-6.1893215,-129.33063,20.55717,0.0,0.0,0.0,0.0,0.0,0.0,0.0,8.127238,-129.98349,34.512527,0.0,0.0,0.0,0.0,0.0,0.0,0.0,0.12577349,0.017319543,-0.9919797,-0.11462402,-1.088501,-0.28692627,0.88378906,0.36523438,0.0087890625,3.6675167,2.6039019,0.3585682,-20.537054,-0.9746704,-0.087646484,-0.018615723,-0.16894531,0.099609375,-0.03125,1.7009988,1.7517548,-56.599144,-18.410255,0.49414062,-0.59710693,0.78356934,-0.080078125,0.0068359375,-0.018554688,1.0338188,2.1586924,-128.43279,-13.392836,0.0,0.0,0.0,0.0,0.0,0.0,0.0,20.834663,-128.3078,-6.2310877,0.0,0.0,0.0,0.0,0.0,0.0,0.0,-1.0116954,44.987034,0.65718126,
1.7578124476131056,75,-0.025024414,-0.9633179,0.3986206,-0.1328125,0.0029296875,0.103515625,0.0,0.0,0.0,0.0,0.0,0.0,0.0,0.0,0.0,0.0,0.0,-0.12405181,-0.022657959,0.99217784,-0.026367188,-0.9154663,-0.3955078,-0.0146484375,0.0625,0.037109375,4.021315,-2.5682552,-0.46908998,20.541157,-0.9428711,-0.05255127,-0.1973877,0.07910156,0.044921875,0.036132812,0.7815963,-4.9112635,-57.424923,20.603006,0.54400635,0.42663574,0.7425537,-0.03515625,0.016601562,-0.046875,14.759688,-6.1550174,-129.42548,20.583706,0.0,0.0,0.0,0.0,0.0,0.0,0.0,8.163057,-130.07405,34.534775,0.0,0.0,0.0,0.0,0.0,0.0,0.0,0.12405181,0.022657959,-0.99217784,-0.05706787,-1.1464233,-0.16192627,0.75097656,0.36816406,0.13964844,3.5728118,2.5682552,0.46908998,-20.541157,-0.9800415,-0.06774902,0.02142334,-0.16894531,0.15527344,0.005859375,1.6405597,2.6941507,-56.489452,-18.371307,0.402771,-0.48773193,0.7799072,-0.0048828125,0.064453125,-0.09277344,1.8477973,3.279561,-128.32246,-13.391249,0.0,0.0,0.0,0.0,0.0,0.0,0.0,21.982677,-128.24443,-6.302543,0.0,0.0,0.0,0.0,0.0,0.0,0.0,-1.1681834,44.983383,0.8812095,
1.7812499469146137,76,-0.08154297,-0.9935303,0.36297607,-0.23242188,0.080078125,0.068359375,0.0,0.0,0.0,0.0,0.0,0.0,0.0,0.0,0.0,0.0,0.0,-0.121083766,-0.027365075,0.992379,-0.006225586,-0.94104004,-0.38287354,0.022460938,0.12011719,0.11328125,4.142126,-2.5068097,-0.56654185,20.545322,-0.99768066,-0.06628418,-0.17303467,0.11816406,0.06347656,-9.765625E-4,0.7459858,-4.845717,-57.526283,20.564081,0.5418701,0.4142456,0.7675171,-0.055664062,-0.041015625,-0.045898438,14.880095,-6.106021,-129.52853,20.53526,0.0,0.0,0.0,0.0,0.0,0.0,0.0,8.218097,-130.16606,34.48124,0.0,0.0,0.0,0.0,0.0,0.0,0.0,0.121083766,0.027365075,-0.992379,-0.04168701,-1.2160034,0.0713501,0.65625,0.20507812,0.15722656,3.8388488,2.5068097,0.56654185,-20.545322,-0.9772339,-0.070617676,0.06695557,-0.43164062,0.2109375,0.047851562,1.9781344,3.5817933,-56.38193,-18.138002,0.44787598,-0.64434814,0.7714844,0.16503906,-0.051757812,-0.11425781,2.545221,4.1873164,-128.2086,-13.061056,0.0,0.0,0.0,0.0,0.0,0.0,0.0,22.885744,-128.14062,-5.9601755,0.0,0.0,0.0,0.0,0.0,0.0,0.0,-1.2122266,44.975502,1.0923014,
1.8046874462161218,77,-0.07507324,-0.93518066,0.38598633,-0.1171875,0.099609375,0.048828125,0.0,0.0,0.0,0.0,0.0,0.0,0.0,0.0,0.0,0.0,0.0,-0.11751342,-0.03304693,0.99262935,-0.005126953,-0.9380493,-0.39678955,0.07910156,0.21679688,0.09375,4.2460704,-2.4328916,-0.68417394,20.550505,-0.9729004,-0.09613037,-0.14849854,0.11621094,0.005859375,0.03515625,0.6318005,-4.7535496,-57.650333,20.482746,0.5397949,0.41345215,0.7605591,-0.055664062,-0.041015625,-0.08300781,14.903722,-6.106204,-129.65302,20.423134,0.0,0.0,0.0,0.0,0.0,0.0,0.0,8.239086,-130.27937,34.34804,0.0,0.0,0.0,0.0,0.0,0.0,0.0,0.11751342,0.03304693,-0.99262935,-0.006958008,-0.8703003,0.10559082,0.5986328,-0.50390625,0.099609375,4.617534,2.4328916,0.68417394,-20.550505,-0.9962158,-0.10498047,0.10864258,-0.47070312,0.359375,0.21777344,2.7032743,4.5913944,-56.21429,-17.705868,0.5474243,-0.5550537,0.79644775,0.22265625,0.08300781,-0.16894531,3.7384264,5.1568003,-128.03105,-12.529987,0.0,0.0,0.0,0.0,0.0,0.0,0.0,23.874035,-128.0698,-5.4723167,0.0,0.0,0.0,0.0,0.0,0.0,0.0,-1.2400441,44.967472,1.3502675,
1.8281249455176298,78,-0.08050537,-0.96258545,0.3001709,0.16894531,0.17675781,0.009765625,0.0,0.0,0.0,0.0,0.0,0.0,0.0,0.0,0.0,0.0,0.0,-0.11618316,-0.035138037,0.9926607,0.029052734,-0.97454834,-0.36743164,0.24902344,0.10449219,0.11328125,3.9244087,-2.4053516,-0.7274663,20.551155,-0.9447632,0.009155273,-0.19024658,0.11816406,0.08300781,0.055664062,0.3901695,-4.479604,-57.693134,20.413961,0.5463867,0.40393066,0.73553467,-0.056640625,-0.059570312,-0.045898438,14.845878,-5.759717,-129.70267,20.458498,0.0,0.0,0.0,0.0,0.0,0.0,0.0,8.618151,-130.36053,34.349583,0.0,0.0,0.0,0.0,0.0,0.0,0.0,0.11618316,0.035138037,-0.9926607,-0.011047363,-0.8041992,0.099365234,1.0517578,-0.5449219,0.0234375,5.431412,2.4053516,0.7274663,-20.551155,-0.92285156,-0.016296387,0.11895752,-0.3779297,0.52734375,0.33007812,4.0939994,5.776332,-56.08513,-17.35885,0.4492798,-0.5831909,0.73321533,0.29785156,0.12109375,-0.16894531,4.848362,5.972131,-127.88724,-11.956206,0.0,0.0,0.0,0.0,0.0,0.0,0.0,24.704369,-128.0353,-4.941179,0.0,0.0,0.0,0.0,0.0,0.0,0.0,-1.1324297,44.964523,1.4591048,
1.851562444819138,79,-0.078125,-0.9472046,0.4124756,-0.13964844,0.1953125,0.049804688,0.0,0.0,0.0,0.0,0.0,0.0,0.0,0.0,0.0,0.0,0.0,-0.112959474,-0.038040116,0.99298716,0.1105957,-1.151001,-0.42822266,0.47753906,-0.46484375,-0.037109375,3.440768,-2.338612,-0.78754836,20.557913,-0.9961548,-0.018554688,-0.120666504,0.0234375,0.12207031,0.11230469,0.027976455,-3.8778405,-57.77325,20.445116,0.567688,0.33398438,0.7312622,-0.12988281,-0.022460938,0.08300781,14.623146,-4.9069996,-129.7803,20.728205,0.0,0.0,0.0,0.0,0.0,0.0,0.0,9.465082,-130.44284,34.623985,0.0,0.0,0.0,0.0,0.0,0.0,0.0,0.112959474,0.038040116,-0.99298716,0.033081055,-1.0179443,-0.036743164,0.7890625,-0.015625,0.0078125,6.5454745,2.338612,0.78754836,-20.557913,-0.9530029,0.043701172,0.043823242,-0.734375,0.5830078,0.39160156,6.331468,7.150393,-55.907055,-17.123606,0.40612793,-0.6118164,0.78479004,0.5625,-0.015625,-0.15429688,5.1787295,6.311957,-127.68437,-11.405067,0.0,0.0,0.0,0.0,0.0,0.0,0.0,24.999596,-127.83461,-4.2731137,0.0,0.0,0.0,0.0,0.0,0.0,0.0,-1.0207226,44.96492,1.6064363,
1.874999944120646,80,-0.06774902,-1.0128784,0.3255005,-0.19042969,-0.03515625,0.0107421875,0.0,0.0,0.0,0.0,0.0,0.0,0.0,0.0,0.0,0.0,0.0,-0.110226095,-0.041802447,0.9931213,0.023925781,-1.1611328,-0.35809326,0.34765625,-0.46679688,-0.22949219,3.196717,-2.282021,-0.8654403,20.560692,-1.0128784,0.04119873,-0.059448242,0.21484375,0.19628906,0.1328125,0.5089886,-3.135659,-57.869244,20.540718,0.54974365,0.37164307,0.75439453,0.022460938,-0.08105469,0.15820312,14.619209,-3.958517,-129.87656,21.009838,0.0,0.0,0.0,0.0,0.0,0.0,0.0,10.386179,-130.52956,34.934986,0.0,0.0,0.0,0.0,0.0,0.0,0.0,0.110226095,0.041802447,-0.9931213,0.07727051,-0.9222412,-0.22625732,0.69433594,0.31445312,0.1953125,7.154506,2.282021,0.8654403,-20.560692,-0.96087646,0.009643555,-0.11706543,-0.734375,0.5830078,0.3544922,8.225165,8.076111,-55.743336,-17.19684,0.44470215,-0.58483887,0.77404785,0.58203125,-0.015625,-0.08105469,5.9950204,6.086213,-127.50969,-11.574502,0.0,0.0,0.0,0.0,0.0,0.0,0.0,24.74617,-127.772644,-4.3748865,0.0,0.0,0.0,0.0,0.0,0.0,0.0,-1.124013,44.95544,1.7675102,
1.898437443422154,81,-0.061706543,-1.0108643,0.31170654,-0.037109375,-0.015625,-0.045898438,0.0,0.0,0.0,0.0,0.0,0.0,0.0,0.0,0.0,0.0,0.0,-0.11466977,-0.045393392,0.9925157,0.015686035,-1.2477417,-0.17352295,0.82128906,-0.25,-0.3251953,2.7990427,-2.3740187,-0.93978393,20.548153,-0.99609375,-0.010314941,0.004272461,0.18066406,0.2939453,0.057617188,1.0647758,-2.4497695,-57.945976,20.334063,0.6231079,0.36999512,0.74279785,0.15722656,-0.043945312,0.13867188,14.521973,-2.9292183,-129.95496,20.935936,0.0,0.0,0.0,0.0,0.0,0.0,0.0,11.374294,-130.64203,34.90056,0.0,0.0,0.0,0.0,0.0,0.0,0.0,0.11466977,0.045393392,-0.9925157,-0.111450195,-0.93670654,-0.15020752,0.78808594,0.25976562,0.28710938,8.046423,2.3740187,0.93978393,-20.548153,-0.92297363,0.006164551,-0.26867676,-0.58496094,0.5830078,0.40820312,10.258486,9.042504,-55.54987,-16.76867,0.46325684,-0.48101807,0.7664795,0.6015625,0.061523438,-0.09863281,6.4240065,5.5565815,-127.290115,-11.615229,0.0,0.0,0.0,0.0,0.0,0.0,0.0,24.176012,-127.676636,-4.3186045,0.0,0.0,0.0,0.0,0.0,0.0,0.0,-1.2849169,44.947895,1.9072707,
1.921874942723662,82,0.0052490234,-0.9159546,0.3201294,-0.111328125,-0.13085938,-0.083984375,0.0,0.0,0.0,0.0,0.0,0.0,0.0,0.0,0.0,0.0,0.0,-0.11589289,-0.043245792,0.9924314,0.041381836,-0.9987793,0.3554077,1.6132812,0.8847656,-0.060546875,1.8082937,-2.399341,-0.89532197,20.546408,-0.9224243,0.07501221,-0.01965332,0.34179688,0.46777344,-0.29785156,2.8434484,-0.6144792,-57.873314,20.066978,0.49798584,0.5161743,0.7401123,0.1796875,0.08984375,0.08203125,14.383745,-0.942784,-129.8833,20.766663,0.0,0.0,0.0,0.0,0.0,0.0,0.0,13.305919,-130.61682,34.787083,0.0,0.0,0.0,0.0,0.0,0.0,0.0,0.11589289,0.043245792,-0.9924314,0.022521973,-0.96136475,-0.2514038,0.5048828,0.080078125,0.17578125,8.390073,2.399341,0.89532197,-20.546408,-0.93566895,0.12530518,-0.3267212,-0.32226562,0.52734375,0.3095703,12.110432,9.511442,-55.51554,-16.464113,0.45141602,-0.4567871,0.7590332,0.4873047,0.061523438,-0.07910156,6.4094915,4.2978797,-127.19191,-11.944997,0.0,0.0,0.0,0.0,0.0,0.0,0.0,22.891768,-127.7113,-4.5928235,0.0,0.0,0.0,0.0,0.0,0.0,0.0,-1.375423,44.94801,1.7980192,
1.9453124420251702,83,0.0107421875,-0.947876,0.19494629,-0.18652344,-0.1875,-0.10253906,0.0,0.0,0.0,0.0,0.0,0.0,0.0,0.0,0.0,0.0,0.0,-0.12702179,-0.04380612,0.9909037,-0.1482544,-0.8746338,-0.3336792,0.43652344,-0.4091797,0.25,1.8606738,-2.6297455,-0.9069225,20.51478,-0.934021,-0.21118164,-0.06530762,0.040039062,0.56640625,-0.22167969,4.3020205,0.15620351,-57.846992,20.09233,0.6613159,0.48553467,0.7227173,0.0703125,0.2626953,0.061523438,14.377488,-0.7967701,-129.85898,20.711168,0.0,0.0,0.0,0.0,0.0,0.0,0.0,13.39762,-130.59824,34.78466,0.0,0.0,0.0,0.0,0.0,0.0,0.0,0.12702179,0.04380612,-0.9909037,0.09906006,-0.9411011,-0.27319336,0.12792969,0.12011719,0.19628906,7.7632885,2.6297455,0.9069225,-20.51478,-0.9685669,0.15863037,-0.40301514,-0.50878906,0.43359375,0.3125,13.3699045,9.573754,-55.530647,-16.561993,0.47454834,-0.3883667,0.83258057,0.3359375,0.0234375,-0.00390625,6.3471494,2.5958462,-127.08479,-12.58639,0.0,0.0,0.0,0.0,0.0,0.0,0.0,21.168789,-127.75578,-5.190886,0.0,0.0,0.0,0.0,0.0,0.0,0.0,-1.8410432,44.92698,1.7501438,
1.9687499413266782,84,0.10083008,-1.0038452,0.20349121,-0.26464844,-0.16894531,-0.13867188,0.0,0.0,0.0,0.0,0.0,0.0,0.0,0.0,0.0,0.0,0.0,-0.14225325,-0.045390517,0.98854494,-0.33239746,-0.61364746,-0.39801025,0.8359375,0.015625,0.11425781,2.1958852,-2.945082,-0.93972445,20.465946,-0.9401245,-0.22821045,-0.3359375,0.47460938,0.5234375,-0.203125,6.1901727,0.62660813,-57.833263,20.478762,0.5363159,0.44067383,0.7446289,-0.029296875,0.16796875,0.043945312,15.220283,-1.7483869,-129.80058,21.047089,0.0,0.0,0.0,0.0,0.0,0.0,0.0,12.428219,-130.52832,35.138126,0.0,0.0,0.0,0.0,0.0,0.0,0.0,0.14225325,0.045390517,-0.98854494,0.12915039,-1.0198975,-0.19439697,-0.041992188,-0.11425781,0.19628906,6.987692,2.945082,0.93972445,-20.465946,-0.90411377,-0.018920898,-0.39038086,-0.58203125,0.28515625,0.20117188,14.259145,9.707906,-55.536533,-16.638332,0.44921875,-0.39471436,0.8341675,0.033203125,0.08203125,0.109375,6.9057784,1.4296885,-126.98683,-13.336702,0.0,0.0,0.0,0.0,0.0,0.0,0.0,19.993626,-127.75431,-5.927843,0.0,0.0,0.0,0.0,0.0,0.0,0.0,-2.5538466,44.884663,1.6934435,
1.9921874406281863,85,0.084472656,-1.0445557,0.18951416,-0.17089844,-0.07324219,-0.1015625,0.0,0.0,0.0,0.0,0.0,0.0,0.0,0.0,0.0,0.0,0.0,-0.15669006,-0.046362326,0.98619026,-0.008911133,-0.9536743,-0.2276001,0.3251953,0.047851562,0.11425781,2.1872225,-3.2439704,-0.9598438,20.417196,-0.97216797,0.05090332,-0.35046387,0.6982422,0.42382812,-0.07128906,7.92682,1.1670527,-57.79695,20.536945,0.5388794,0.29388428,0.7862549,0.038085938,-0.080078125,-0.06347656,16.550137,-2.3071964,-129.71172,21.805397,0.0,0.0,0.0,0.0,0.0,0.0,0.0,11.850471,-130.35431,35.921383,0.0,0.0,0.0,0.0,0.0,0.0,0.0,0.15669006,0.046362326,-0.98619026,0.07977295,-0.9616089,-0.2345581,-0.19238281,-0.095703125,0.103515625,6.1378207,3.2439704,0.9598438,-20.417196,-0.9053345,-0.05706787,-0.29058838,0.09277344,0.22851562,0.2265625,14.413367,9.649452,-55.570053,-16.818783,0.42144775,-0.38568115,0.86376953,-0.080078125,0.140625,0.12988281,7.536322,0.7947693,-126.99046,-14.401661,0.0,0.0,0.0,0.0,0.0,0.0,0.0,19.34395,-127.75834,-6.958461,0.0,0.0,0.0,0.0,0.0,0.0,0.0,-3.2001333,44.841133,1.5996001,
2.0156249399296944,86,0.07647705,-1.0568237,0.24945068,-0.26953125,-0.015625,-0.15527344,0.0,0.0,0.0,0.0,0.0,0.0,0.0,0.0,0.0,0.0,0.0,-0.16482693,-0.048568472,0.98506665,-0.19293213,-0.911438,-0.11859131,0.23046875,-0.029296875,0.13378906,2.7235456,-3.4124293,-1.005518,20.393934,-0.9190674,0.10406494,-0.21032715,-0.5263672,0.5917969,-0.31640625,8.847666,1.57299,-57.79283,21.096897,0.55303955,0.33312988,0.788208,0.35839844,-0.17675781,-0.20996094,16.20041,-2.3104742,-129.663,23.426521,0.0,0.0,0.0,0.0,0.0,0.0,0.0,11.855758,-130.3392,37.533535,0.0,0.0,0.0,0.0,0.0,0.0,0.0,0.16482693,0.048568472,-0.98506665,0.012268066,-0.9904175,-0.13690186,-0.21191406,-0.041015625,0.103515625,5.71251,3.4124293,1.005518,-20.393934,-0.9689331,0.14318848,-0.3040161,0.09375,0.22851562,0.26367188,14.644073,9.428133,-55.56893,-16.850788,0.43878174,-0.5043335,0.77386475,-0.080078125,0.16015625,0.12988281,7.620507,-0.17438507,-126.904396,-14.752828,0.0,0.0,0.0,0.0,0.0,0.0,0.0,18.37606,-127.598076,-7.302392,0.0,0.0,0.0,0.0,0.0,0.0,0.0,-3.7743587,44.811028,1.5778491,
2.0390624392312025,87,0.03265381,-1.0187988,0.30578613,-0.3076172,-0.053710938,-0.2109375,0.0,0.0,0.0,0.0,0.0,0.0,0.0,0.0,0.0,0.0,0.0,-0.16596982,-0.05017911,0.9849246,-0.075805664,-1.0427246,0.1395874,0.060546875,0.044921875,0.07519531,3.278113,-3.4360895,-1.0388632,20.390993,-0.96759033,0.08294678,0.0107421875,-0.40722656,0.7636719,-0.40820312,10.024208,2.320549,-57.73876,21.638485,0.6351929,0.31292725,0.7984619,0.69921875,-0.25585938,-0.28320312,14.652593,-2.0872593,-129.55734,24.485874,0.0,0.0,0.0,0.0,0.0,0.0,0.0,12.078174,-130.41444,38.583168,0.0,0.0,0.0,0.0,0.0,0.0,0.0,0.16596982,0.05017911,-0.9849246,0.014709473,-0.95910645,-0.10601807,-0.38085938,-0.11328125,0.048828125,5.5640855,3.4360895,1.0388632,-20.390993,-0.911438,0.07116699,-0.28118896,-0.46777344,0.080078125,0.16015625,14.846224,9.020534,-55.57787,-16.851513,0.44995117,-0.456604,0.8027954,-0.15527344,0.16015625,0.13085938,8.235948,-1.3716431,-126.80412,-14.812138,0.0,0.0,0.0,0.0,0.0,0.0,0.0,17.185379,-127.440056,-7.37412,0.0,0.0,0.0,0.0,0.0,0.0,0.0,-4.2236295,44.777027,1.5695379,
2.0624999385327105,88,-0.010253906,-0.8617554,0.3912964,-0.3798828,-0.20703125,-0.24902344,0.0,0.0,0.0,0.0,0.0,0.0,0.0,0.0,0.0,0.0,0.0,-0.16136196,-0.049145937,0.9857001,-0.12176514,-1.1348267,0.34020996,0.4189453,0.43066406,0.18945312,3.4448056,-3.3406928,-1.0174732,20.407045,-0.9024048,0.49475098,0.3031006,-0.67578125,1.1347656,-0.7998047,10.715736,3.0680501,-57.6472,21.895031,0.44073486,0.49664307,0.7036743,0.85058594,-0.29492188,-0.3017578,12.597906,-1.3364413,-129.42123,25.631975,0.0,0.0,0.0,0.0,0.0,0.0,0.0,12.7925205,-130.56628,39.744858,0.0,0.0,0.0,0.0,0.0,0.0,0.0,0.16136196,0.049145937,-0.9857001,0.015258789,-0.9926758,-0.095458984,-0.4560547,-0.040039062,0.01171875,5.3176184,3.3406928,1.0174732,-20.407045,-0.94415283,-0.029052734,-0.1932373,-0.29882812,0.09863281,0.12011719,14.492237,8.52482,-55.654205,-17.03172,0.44958496,-0.50561523,0.82629395,-0.25,0.1796875,0.16894531,9.148342,-1.9315805,-126.87421,-15.166226,0.0,0.0,0.0,0.0,0.0,0.0,0.0,16.63852,-127.43379,-7.754529,0.0,0.0,0.0,0.0,0.0,0.0,0.0,-4.5614862,44.744904,1.4842037,
2.0859374378342186,89,-0.07055664,-0.71240234,0.39019775,-0.18261719,-0.2841797,-0.06640625,0.0,0.0,0.0,0.0,0.0,0.0,0.0,0.0,0.0,0.0,0.0,-0.16235161,-0.049446672,0.9855956,-0.13519287,-1.1137695,0.41516113,0.92871094,0.24609375,0.22851562,3.6729047,-3.3611822,-1.0236995,20.404884,-0.96533203,0.36865234,0.17834473,-1.2128906,1.4306641,-1.1367188,12.33379,4.011593,-57.52816,22.002058,0.3647461,0.74957275,0.70477295,0.48828125,-0.40820312,-0.0048828125,10.209451,-1.0659561,-129.1868,26.961521,0.0,0.0,0.0,0.0,0.0,0.0,0.0,12.935606,-130.62491,41.171814,0.0,0.0,0.0,0.0,0.0,0.0,0.0,0.16235161,0.049446672,-0.9855956,-0.043823242,-0.98773193,-0.072753906,-0.3623047,-0.00390625,0.048828125,5.423541,3.3611822,1.0236995,-20.404884,-0.967041,0.07751465,-0.18664551,-0.1875,0.17285156,0.24902344,14.257107,8.109598,-55.679543,-17.022694,0.46166992,-0.55810547,0.8076172,-0.11816406,0.064453125,0.07421875,9.797133,-2.5900974,-126.869354,-15.205351,0.0,0.0,0.0,0.0,0.0,0.0,0.0,15.993582,-127.3545,-7.8202496,0.0,0.0,0.0,0.0,0.0,0.0,0.0,-4.834069,44.720753,1.4473209,
2.1093749371357267,90,-0.036621094,-0.72595215,0.3428955,-0.14160156,-0.3232422,0.17480469,0.0,0.0,0.0,0.0,0.0,0.0,0.0,0.0,0.0,0.0,0.0,-0.16886869,-0.05157955,0.9844371,-0.09411621,-1.2355957,0.40093994,1.0800781,-0.5917969,0.19335938,4.6477246,-3.496106,-1.0678567,20.3809,-1.2697754,0.09020996,-0.087646484,-1.3007812,1.5488281,-1.4375,15.972286,5.3341646,-57.35228,22.371616,0.48590088,0.9484253,0.8187866,-0.13964844,-0.5800781,0.66308594,7.6845946,-2.5088425,-128.74103,27.695948,0.0,0.0,0.0,0.0,0.0,0.0,0.0,11.44132,-130.41531,41.93308,0.0,0.0,0.0,0.0,0.0,0.0,0.0,0.16886869,0.05157955,-0.9844371,-0.1515503,-1.0170288,-0.08703613,-0.38085938,0.068359375,0.030273438,5.8140936,3.496106,1.0678567,-20.3809,-0.9342041,0.08734131,-0.168396,-0.16796875,0.13574219,0.19238281,14.199778,7.8808184,-55.653603,-16.817251,0.38580322,-0.50683594,0.815979,-0.17480469,0.16113281,0.0390625,10.427151,-3.1949968,-126.78176,-14.8282385,0.0,0.0,0.0,0.0,0.0,0.0,0.0,15.398639,-127.214355,-7.4677277,0.0,0.0,0.0,0.0,0.0,0.0,0.0,-4.9954405,44.703846,1.485347,
2.1328124364372347,91,-0.02545166,-0.9794922,0.265625,-0.16210938,-0.265625,0.28710938,0.0,0.0,0.0,0.0,0.0,0.0,0.0,0.0,0.0,0.0,0.0,-0.17597097,-0.05683414,0.9829013,-0.17047119,-1.5333252,0.28918457,1.4384766,-1.0839844,0.2529297,6.4184794,-3.6431446,-1.1766428,20.349102,-1.557373,0.013183594,-0.17553711,-0.76953125,1.4873047,-1.6259766,20.218645,6.688142,-57.165592,23.122742,0.7470093,0.89624023,0.99102783,-0.15917969,-0.91015625,1.4248047,6.0672436,-4.6562624,-128.09361,28.22443,0.0,0.0,0.0,0.0,0.0,0.0,0.0,9.149116,-130.04105,42.567177,0.0,0.0,0.0,0.0,0.0,0.0,0.0,0.17597097,0.05683414,-0.9829013,-0.26306152,-1.0255737,-0.11395264,-0.34375,-0.13085938,0.0859375,6.6843367,3.6431446,1.1766428,-20.349102,-1.0130005,0.22589111,-0.050231934,0.018554688,0.20996094,0.19042969,14.147365,7.6430607,-55.54243,-16.261679,0.4647827,-0.6154785,0.7961426,-0.080078125,0.1015625,0.12988281,10.803615,-3.8167667,-126.59279,-13.818643,0.0,0.0,0.0,0.0,0.0,0.0,0.0,14.781813,-126.93073,-6.467529,0.0,0.0,0.0,0.0,0.0,0.0,0.0,-4.9825444,44.697853,1.6925206,
2.156249935738743,92,0.016723633,-1.397583,0.18151855,-0.49121094,-0.22753906,0.21582031,0.0,0.0,0.0,0.0,0.0,0.0,0.0,0.0,0.0,0.0,0.0,-0.18298933,-0.06662392,0.9809727,-0.035705566,-1.6942139,0.13659668,2.6699219,-0.018554688,0.13574219,9.087548,-3.7884462,-1.3793216,20.309175,-1.5892334,0.012878418,-0.27990723,-0.69140625,1.5253906,-1.7197266,26.116983,9.462415,-56.716087,23.749224,0.87176514,1.4621582,1.1016846,0.22949219,-0.34472656,2.008789,6.02109,-5.49207,-127.01867,28.250116,0.0,0.0,0.0,0.0,0.0,0.0,0.0,7.894293,-129.3276,42.93245,0.0,0.0,0.0,0.0,0.0,0.0,0.0,0.18298933,0.06662392,-0.9809727,-0.27722168,-1.0279541,-0.16711426,-0.30664062,-0.2763672,0.140625,8.133856,3.7884462,1.3793216,-20.309175,-1.0027466,0.355896,-0.10064697,-0.24414062,0.24804688,0.1953125,14.380885,7.4159336,-55.3008,-15.410631,0.4175415,-0.5913696,0.78759766,-0.00390625,0.08203125,0.12890625,11.022605,-4.74967,-126.20065,-12.263189,0.0,0.0,0.0,0.0,0.0,0.0,0.0,13.839048,-126.47492,-4.8788996,0.0,0.0,0.0,0.0,0.0,0.0,0.0,-5.2486925,44.650906,2.0534348,
2.179687435040251,93,0.16021729,-1.416565,0.1459961,-0.034179688,-0.111328125,-0.046875,0.0,0.0,0.0,0.0,0.0,0.0,0.0,0.0,0.0,0.0,0.0,-0.1869216,-0.069287375,0.9800709,-0.071899414,-1.3588867,-0.26464844,2.334961,0.16894531,-0.30664062,11.769729,-3.8698559,-1.4344635,20.290506,-1.3341675,-0.06506348,-0.34240723,-0.8886719,1.3339844,-1.5527344,32.317154,12.696585,-55.8812,23.600096,-0.04736328,0.842041,1.0076904,-0.22558594,-0.16796875,1.9150391,6.496911,-5.6054554,-125.42163,27.4105,0.0,0.0,0.0,0.0,0.0,0.0,0.0,7.346264,-127.72362,42.478992,0.0,0.0,0.0,0.0,0.0,0.0,0.0,0.1869216,0.069287375,-0.9800709,-0.06921387,-1.0022583,-0.1920166,-0.28808594,-0.2763672,0.19628906,8.968216,3.8698559,1.4344635,-20.290506,-0.9659424,0.20458984,-0.21014404,-0.5810547,0.17285156,0.16308594,14.54663,6.9888024,-55.226856,-14.864204,0.4668579,-0.5371094,0.7907715,0.109375,0.04296875,0.08984375,11.607615,-5.983978,-125.9677,-11.263976,0.0,0.0,0.0,0.0,0.0,0.0,0.0,12.591011,-126.234795,-3.8508844,0.0,0.0,0.0,0.0,0.0,0.0,0.0,-5.3406067,44.63716,2.1371078,
2.203124934341759,94,0.28656006,-1.1611938,0.17016602,0.30664062,0.04296875,-0.27148438,0.0,0.0,0.0,0.0,0.0,0.0,0.0,0.0,0.0,0.0,0.0,-0.18635169,-0.06482621,0.98047227,-0.021057129,-1.2085571,-0.6092529,1.578125,-0.46972656,-0.34277344,13.849102,-3.8580556,-1.3421036,20.298817,-1.1974487,-0.19036865,-0.44781494,-0.68359375,0.7324219,-1.1074219,36.921856,15.132938,-55.00332,23.379509,-0.29101562,1.3273926,0.8310547,-0.2841797,-0.08984375,1.6181641,7.272704,-5.630577,-123.887566,26.511703,0.0,0.0,0.0,0.0,0.0,0.0,0.0,6.8480034,-126.19427,41.9741,0.0,0.0,0.0,0.0,0.0,0.0,0.0,0.18635169,0.06482621,-0.98047227,0.124572754,-0.9893799,-0.17626953,-0.34375,0.034179688,0.21582031,8.898898,3.8580556,1.3421036,-20.298817,-0.92596436,-0.006652832,-0.26080322,-0.31835938,0.13574219,0.15820312,14.435741,6.5335793,-55.343304,-14.904555,0.42132568,-0.40057373,0.8666382,0.14648438,0.08300781,-0.020507812,12.112303,-6.827131,-126.01613,-11.470222,0.0,0.0,0.0,0.0,0.0,0.0,0.0,11.73456,-126.3318,-4.0246887,0.0,0.0,0.0,0.0,0.0,0.0,0.0,-5.32656,44.647316,1.939579,
2.226562433643267,95,0.29437256,-1.2025146,0.18469238,0.47070312,0.29296875,-0.5126953,0.0,0.0,0.0,0.0,0.0,0.0,0.0,0.0,0.0,0.0,0.0,-0.17944214,-0.05284316,0.9824836,-0.0072631836,-1.0563354,-0.28430176,1.7861328,0.23828125,-0.32617188,15.823865,-3.7150085,-1.0940174,20.340456,-0.98480225,-0.09613037,-0.41711426,-0.12597656,-0.06542969,-0.55078125,39.966476,17.327063,-54.004147,23.118885,-0.98999023,1.1481934,0.73291016,0.17773438,-0.3173828,0.93652344,7.869584,-4.4391384,-122.61032,25.481989,0.0,0.0,0.0,0.0,0.0,0.0,0.0,7.7326794,-124.95467,41.180717,0.0,0.0,0.0,0.0,0.0,0.0,0.0,0.17944214,0.05284316,-0.9824836,0.18688965,-0.97753906,-0.22558594,-0.39941406,0.63378906,0.16308594,8.0514965,3.7150085,1.0940174,-20.340456,-0.95391846,0.05126953,-0.35687256,0.54296875,0.24707031,0.25585938,14.136294,5.8895106,-55.66464,-15.468822,0.45550537,-0.46661377,0.85424805,-0.0234375,0.044921875,0.017578125,12.19356,-7.7163873,-126.32263,-12.6922035,0.0,0.0,0.0,0.0,0.0,0.0,0.0,10.83699,-126.678825,-5.225144,0.0,0.0,0.0,0.0,0.0,0.0,0.0,-5.1391273,44.687603,1.4649186,
2.249999932944775,96,0.25585938,-1.1032715,0.1852417,0.5625,0.42773438,-0.53027344,0.0,0.0,0.0,0.0,0.0,0.0,0.0,0.0,0.0,0.0,0.0,-0.1682486,-0.03718014,0.9852091,0.03161621,-0.92626953,-0.17480469,1.6318359,0.63671875,-0.001953125,17.564655,-3.4832683,-0.7697441,20.396883,-0.809021,-0.032226562,-0.3444214,-0.2685547,-0.8183594,0.10058594,41.08387,19.198673,-53.023525,22.521137,-0.78656006,1.116333,0.81591797,0.56933594,-0.16015625,-0.19238281,7.1965017,-1.7618103,-121.89172,24.395115,0.0,0.0,0.0,0.0,0.0,0.0,0.0,10.245266,-124.43925,40.18911,0.0,0.0,0.0,0.0,0.0,0.0,0.0,0.1682486,0.03718014,-0.9852091,-0.029907227,-0.97784424,-0.2932129,-0.51171875,0.87109375,0.12695312,7.266092,3.4832683,0.7697441,-20.396883,-0.95251465,0.24853516,-0.34490967,0.43164062,0.13476562,0.29492188,13.9796295,4.9762306,-56.039494,-15.965181,0.3972168,-0.49951172,0.8326416,-0.0234375,0.064453125,-0.055664062,11.854445,-9.35364,-126.559845,-13.343976,0.0,0.0,0.0,0.0,0.0,0.0,0.0,9.194857,-126.93393,-5.868761,0.0,0.0,0.0,0.0,0.0,0.0,0.0,-4.856783,44.736298,0.858858,
2.273437432246283,97,0.08380127,-0.85736084,0.23883057,0.4423828,0.54296875,-0.546875,0.0,0.0,0.0,0.0,0.0,0.0,0.0,0.0,0.0,0.0,0.0,-0.16472757,-0.02014331,0.98608005,0.046691895,-0.8220215,-0.24267578,1.5732422,0.75,0.16992188,19.49259,-3.4103723,-0.41702893,20.414917,-0.6901245,-0.17095947,-0.32403564,-0.31933594,-1.6298828,0.8066406,41.351105,21.221994,-51.793484,22.382526,-0.80249023,1.0037231,0.94854736,0.89160156,0.13085938,-1.1005859,6.066694,2.5468864,-121.32033,24.067558,0.0,0.0,0.0,0.0,0.0,0.0,0.0,14.581408,-124.07686,39.805267,0.0,0.0,0.0,0.0,0.0,0.0,0.0,0.16472757,0.02014331,-0.98608005,-0.057617188,-0.9580078,-0.22735596,-0.6064453,0.6347656,0.0146484375,7.004683,3.4103723,0.41702893,-20.414917,-0.9137573,0.13323975,-0.3092041,-0.07324219,0.0234375,0.19042969,13.6616125,4.148792,-56.424397,-16.20642,0.49249268,-0.4578247,0.8126221,-0.15625,0.14160156,0.01953125,11.88667,-10.798576,-126.81279,-13.387033,0.0,0.0,0.0,0.0,0.0,0.0,0.0,7.7588654,-127.20536,-5.930244,0.0,0.0,0.0,0.0,0.0,0.0,0.0,-4.8852844,44.73155,0.09765983,
2.296874931547791,98,-0.0022583008,-0.7873535,0.19390869,0.24902344,0.56152344,-0.5449219,0.0,0.0,0.0,0.0,0.0,0.0,0.0,0.0,0.0,0.0,0.0,-0.1489256,-0.008223524,0.9889012,0.20599365,-0.77301025,-0.13861084,1.3457031,1.1865234,0.20703125,21.452433,-3.0832222,-0.17025246,20.473322,-0.72314453,-0.21148682,-0.27612305,0.055664062,-2.1572266,1.4609375,40.11421,23.211685,-50.72525,22.197155,-0.15820312,1.0036621,1.100647,0.9003906,0.7861328,-2.0146484,5.4129806,8.32972,-121.16806,24.03045,0.0,0.0,0.0,0.0,0.0,0.0,0.0,20.541382,-124.00499,39.61744,0.0,0.0,0.0,0.0,0.0,0.0,0.0,0.1489256,0.008223524,-0.9889012,0.04473877,-0.963501,-0.12927246,-0.6435547,0.5800781,-0.041015625,6.8873773,3.0832222,0.17025246,-20.473322,-0.9320679,-0.037963867,-0.19360352,0.16992188,0.0048828125,0.111328125,12.923874,3.1988194,-56.69751,-16.57426,0.44415283,-0.47399902,0.8395996,-0.23144531,0.16210938,-0.016601562,12.175405,-11.642329,-127.106514,-13.850677,0.0,0.0,0.0,0.0,0.0,0.0,0.0,6.9377832,-127.450676,-6.4503746,0.0,0.0,0.0,0.0,0.0,0.0,0.0,-4.752799,44.750877,-0.3436172,
2.3203124308492993,99,0.05419922,-0.7668457,0.21966553,0.07714844,0.52246094,-0.41308594,0.0,0.0,0.0,0.0,0.0,0.0,0.0,0.0,0.0,0.0,0.0,-0.13351485,-7.2916225E-4,0.99114263,0.18963623,-0.7709961,-0.115600586,1.3085938,1.3769531,0.20605469,23.118786,-2.764173,-0.015095968,20.519724,-0.81225586,-0.15661621,-0.2662964,0.36035156,-2.5097656,2.0605469,37.857964,25.029837,-49.767487,21.82398,-0.09661865,0.6848755,1.0377197,0.62402344,1.2880859,-2.4082031,5.698357,15.068655,-121.04871,24.196627,0.0,0.0,0.0,0.0,0.0,0.0,0.0,27.646713,-123.61116,39.53815,0.0,0.0,0.0,0.0,0.0,0.0,0.0,0.13351485,7.2916225E-4,-0.99114263,-0.051696777,-0.97875977,-0.057678223,-0.6064453,0.57910156,-0.041015625,7.052158,2.764173,0.015095968,-20.519724,-0.91186523,0.023376465,-0.12786865,0.7314453,0.13476562,0.27148438,12.151807,2.3898883,-56.87295,-16.902838,0.41363525,-0.52008057,0.7982788,-0.21289062,0.20117188,-0.07128906,12.173866,-12.128923,-127.35454,-14.304546,0.0,0.0,0.0,0.0,0.0,0.0,0.0,6.480398,-127.63158,-6.97648,0.0,0.0,0.0,0.0,0.0,0.0,0.0,-4.760991,44.74761,-0.6084237,
2.3437499301508073,100,0.100097656,-0.80114746,0.17614746,-0.18847656,0.40722656,-0.3564453,0.0,0.0,0.0,0.0,0.0,0.0,0.0,0.0,0.0,0.0,0.0,-0.12131679,0.0028225332,0.9927579,0.06964111,-0.71118164,0.011169434,1.1572266,1.4130859,0.22460938,24.48508,-2.5116339,0.058435097,20.553165,-0.8222046,-0.09454346,-0.26904297,0.5576172,-2.7265625,2.5107422,34.84636,26.656975,-48.917816,21.331354,0.1784668,0.6678467,0.85479736,0.08691406,1.1376953,-2.1845703,7.091437,22.496723,-120.73805,24.59178,0.0,0.0,0.0,0.0,0.0,0.0,0.0,35.441338,-122.82558,39.69453,0.0,0.0,0.0,0.0,0.0,0.0,0.0,0.12131679,-0.0028225332,-0.9927579,-0.16833496,-1.0033569,-0.0095825195,-0.51171875,0.37695312,-0.15332031,7.4231462,2.5116339,-0.058435097,-20.553165,-0.94177246,0.08770752,-0.06311035,0.39453125,0.13476562,0.31445312,11.811177,1.9118116,-56.93862,-16.876171,0.4484253,-0.5605469,0.7969971,-0.21289062,0.20019531,-0.034179688,12.166512,-12.485814,-127.438774,-14.037214,0.0,0.0,0.0,0.0,0.0,0.0,0.0,6.1568537,-127.62876,-6.7893953,0.0,0.0,0.0,0.0,0.0,0.0,0.0,-4.9296837,44.729874,-0.7295886,
2.3671874294523154,101,0.11981201,-0.8390503,0.13067627,-0.31933594,0.31152344,-0.24414062,0.0,0.0,0.0,0.0,0.0,0.0,0.0,0.0,0.0,0.0,0.0,-0.11199877,0.0019498765,0.99381804,-0.11364746,-0.68115234,0.1907959,1.0625,1.1445312,0.22558594,25.446135,-2.31872,0.040368527,20.575115,-0.86572266,-0.060424805,-0.2522583,0.43847656,-2.8232422,2.7548828,31.443924,28.028526,-48.21767,20.899977,0.15124512,0.57214355,0.6783447,-0.46679688,0.08496094,-1.1191406,9.432943,30.006578,-120.06979,25.251518,0.0,0.0,0.0,0.0,0.0,0.0,0.0,43.11257,-121.56146,40.28134,0.0,0.0,0.0,0.0,0.0,0.0,0.0,0.11199877,-0.0019498765,-0.99381804,-0.17687988,-0.9657593,-0.017028809,-0.625,0.14160156,-0.15429688,8.15892,2.31872,-0.040368527,-20.575115,-0.93499756,0.1104126,-0.051086426,0.018554688,0.20996094,0.32128906,11.628169,1.43303,-56.910164,-16.7802,0.40899658,-0.55755615,0.7930908,-0.0234375,0.20019531,-0.07324219,12.41203,-13.131734,-127.34738,-13.453623,0.0,0.0,0.0,0.0,0.0,0.0,0.0,5.5311823,-127.46885,-6.2581897,0.0,0.0,0.0,0.0,0.0,0.0,0.0,-5.2673144,44.690495,-0.681285,
2.3906249287538235,102,0.15759277,-0.8659668,0.048828125,-0.4326172,0.234375,-0.18847656,0.0,0.0,0.0,0.0,0.0,0.0,0.0,0.0,0.0,0.0,0.0,-0.104118675,-0.001888087,0.99465877,-0.20422363,-0.62835693,0.30828857,0.796875,0.4736328,0.26660156,26.155794,-2.1555789,-0.039089255,20.592522,-0.789978,0.03930664,-0.25054932,0.17382812,-2.8007812,2.7363281,27.642185,29.216557,-47.634018,20.72784,0.5095825,0.55810547,0.6692505,-0.40429688,-1.2763672,-0.3828125,13.202701,37.66706,-118.949104,26.18212,0.0,0.0,0.0,0.0,0.0,0.0,0.0,51.030697,-120.522705,40.98298,0.0,0.0,0.0,0.0,0.0,0.0,0.0,0.104118675,0.001888087,-0.99465877,-0.0758667,-0.99035645,-0.016906738,-0.66308594,-0.12988281,-0.13671875,9.05,2.1555789,0.039089255,-20.592522,-0.92108154,0.036254883,-0.10571289,0.09375,0.24707031,0.39453125,11.456916,0.93889904,-56.822575,-16.746248,0.491333,-0.538147,0.81396484,-0.061523438,0.21972656,-0.109375,12.873771,-13.841276,-127.20769,-13.20905,0.0,0.0,0.0,0.0,0.0,0.0,0.0,4.868059,-127.3455,-6.1352086,0.0,0.0,0.0,0.0,0.0,0.0,0.0,-5.6708136,44.642673,-0.50886655,
2.4140624280553316,103,0.17266846,-0.8651123,0.04486084,-0.546875,0.21484375,-0.09472656,0.0,0.0,0.0,0.0,0.0,0.0,0.0,0.0,0.0,0.0,0.0,-0.10833797,-0.008444533,0.99383605,-0.30230713,-0.56884766,0.29248047,0.28515625,-0.029296875,0.26757812,25.803692,-2.2429318,-0.17482798,20.575487,-0.74328613,0.07476807,-0.12036133,0.17578125,-2.7050781,2.7753906,23.31856,29.690428,-47.398003,20.896503,1.4884033,0.73236084,0.9834595,0.07519531,-1.6005859,-0.96972656,18.474516,44.52311,-117.56585,27.447163,0.0,0.0,0.0,0.0,0.0,0.0,0.0,58.262257,-119.70089,41.826866,0.0,0.0,0.0,0.0,0.0,0.0,0.0,0.10833797,0.008444533,-0.99383605,0.068237305,-0.940979,-0.016845703,-0.7578125,-0.23828125,-0.15527344,10.399187,2.2429318,0.17482798,-20.575487,-0.914978,-0.056640625,-0.17529297,0.017578125,0.35839844,0.41503906,11.325765,0.62997794,-56.684757,-16.938303,0.43902588,-0.46875,0.83081055,-0.09863281,0.20019531,-0.109375,13.523856,-14.488122,-127.005844,-13.5889015,0.0,0.0,0.0,0.0,0.0,0.0,0.0,4.2460775,-127.12623,-6.5808086,0.0,0.0,0.0,0.0,0.0,0.0,0.0,-6.4658318,44.520912,-0.32654965,
2.4374999273568396,104,0.16369629,-0.8641968,0.058654785,-0.54589844,0.21386719,-0.001953125,0.0,0.0,0.0,0.0,0.0,0.0,0.0,0.0,0.0,0.0,0.0,-0.10198051,-0.017160058,0.994743,-0.26843262,-0.62615967,0.37841797,-0.07324219,-0.12890625,0.171875,25.3372,-2.1113112,-0.35526627,20.594265,-0.7928467,-0.14312744,-0.117614746,0.0234375,-2.3720703,2.0810547,18.988462,29.893541,-47.519684,21.213036,1.999939,0.79473877,0.744812,-0.66308594,1.1669922,-2.6103516,21.391468,50.3191,-116.17871,28.618338,0.0,0.0,0.0,0.0,0.0,0.0,0.0,64.63177,-118.111206,42.45803,0.0,0.0,0.0,0.0,0.0,0.0,0.0,0.10198051,0.017160058,-0.994743,0.17095947,-0.98321533,-0.040649414,-0.9082031,-0.07421875,-0.22851562,11.341231,2.1113112,0.35526627,-20.594265,-0.90838623,-0.04071045,-0.11871338,0.16601562,0.5078125,0.5449219,11.164755,0.06548309,-56.52654,-17.507505,0.4196167,-0.4810791,0.8262329,-0.23144531,0.23925781,-0.015625,14.404515,-15.416066,-126.78682,-14.58176,0.0,0.0,0.0,0.0,0.0,0.0,0.0,3.3483,-126.84423,-7.6543317,0.0,0.0,0.0,0.0,0.0,0.0,0.0,-6.909904,44.471012,0.058758616,
2.4609374266583477,105,0.17565918,-0.8820801,0.0713501,-0.39648438,0.3671875,0.072265625,0.0,0.0,0.0,0.0,0.0,0.0,0.0,0.0,0.0,0.0,0.0,-0.09780377,-0.025752038,0.99465126,-0.042785645,-0.8743286,0.49145508,0.21289062,0.31347656,0.016601562,25.274553,-2.024842,-0.5331471,20.592363,-0.8101196,-0.061401367,-0.05731201,0.57910156,-2.1279297,2.1220703,15.589524,30.385605,-47.419315,21.591516,0.7352295,-0.12390137,0.41381836,-0.3486328,1.4501953,-2.6132812,22.13656,55.543484,-114.457306,29.306068,0.0,0.0,0.0,0.0,0.0,0.0,0.0,70.38893,-115.54371,42.65827,0.0,0.0,0.0,0.0,0.0,0.0,0.0,0.09780377,0.025752038,-0.99465126,0.045837402,-0.9651489,-0.018676758,-1.171875,0.27441406,-0.1328125,12.589355,2.024842,0.5331471,-20.592363,-0.93652344,0.0914917,-0.114746094,0.42773438,0.61816406,0.7089844,11.048724,-0.754756,-56.34778,-18.12213,0.463562,-0.53411865,0.84954834,-0.23144531,0.16113281,0.0390625,15.073888,-17.045452,-126.43723,-15.251072,0.0,0.0,0.0,0.0,0.0,0.0,0.0,1.746357,-126.40617,-8.398765,0.0,0.0,0.0,0.0,0.0,0.0,0.0,-7.3680325,44.380634,0.424541,
2.4843749259598558,106,0.1776123,-0.9099121,0.11254883,-0.36132812,0.48242188,0.11035156,0.0,0.0,0.0,0.0,0.0,0.0,0.0,0.0,0.0,0.0,0.0,-0.10479355,-0.033405725,0.99351496,-0.066223145,-0.95410156,0.40124512,0.34570312,0.5449219,-0.041015625,25.488665,-2.1695518,-0.691602,20.56884,-0.84106445,0.19659424,-0.018798828,0.98535156,-1.8623047,2.0888672,13.022889,31.017555,-47.029972,21.688368,1.1426392,0.12683105,0.26019287,-0.25976562,0.79296875,-1.5527344,24.136517,60.505066,-112.237015,29.778988,0.0,0.0,0.0,0.0,0.0,0.0,0.0,75.70326,-112.85709,42.763107,0.0,0.0,0.0,0.0,0.0,0.0,0.0,0.10479355,0.033405725,-0.99351496,0.0016479492,-0.9682617,-0.008056641,-1.5869141,0.44335938,-0.07519531,14.459708,2.1695518,0.691602,-20.56884,-0.9486084,0.12298584,-0.13995361,0.16503906,0.6748047,0.75097656,10.836925,-1.7654438,-56.13584,-18.445683,0.44329834,-0.5517578,0.862854,-0.21289062,0.08496094,-0.016601562,15.812365,-19.227036,-125.93281,-15.472672,0.0,0.0,0.0,0.0,0.0,0.0,0.0,-0.41389084,-125.85281,-8.677866,0.0,0.0,0.0,0.0,0.0,0.0,0.0,-7.960594,44.266537,0.6487436,
2.507812425261364,107,0.20513916,-1.003418,0.1395874,-0.84277344,0.4248047,-0.033203125,0.0,0.0,0.0,0.0,0.0,0.0,0.0,0.0,0.0,0.0,0.0,-0.110802144,-0.044467755,0.9925287,-0.1628418,-0.8531494,0.58898926,0.23144531,0.6191406,0.03515625,25.27293,-2.2939477,-0.92062026,20.548418,-0.8022461,0.27716064,0.060424805,0.4580078,-1.390625,1.3583984,10.939831,31.61363,-46.723324,22.15517,1.281311,-0.07183838,0.24267578,-0.16210938,0.6357422,-1.0146484,25.74382,64.5146,-110.233795,30.47876,0.0,0.0,0.0,0.0,0.0,0.0,0.0,79.89068,-110.45221,43.27095,0.0,0.0,0.0,0.0,0.0,0.0,0.0,0.110802144,0.044467755,-0.9925287,0.02368164,-0.96520996,-0.10229492,-1.7763672,0.2998047,0.018554688,17.324537,2.2939477,0.92062026,-20.548418,-0.9524536,0.11407471,-0.15582275,-0.061523438,0.8046875,0.7558594,10.243671,-3.3215275,-55.778023,-18.75906,0.42687988,-0.5447998,0.8305054,-0.26953125,0.06542969,-0.016601562,16.801702,-22.118784,-125.23195,-15.828209,0.0,0.0,0.0,0.0,0.0,0.0,0.0,-3.283453,-125.16417,-9.095673,0.0,0.0,0.0,0.0,0.0,0.0,0.0,-8.889545,44.08775,0.9828448,
2.531249924562872,108,0.25646973,-1.1538086,0.15344238,-0.3486328,0.63671875,-0.12890625,0.0,0.0,0.0,0.0,0.0,0.0,0.0,0.0,0.0,0.0,0.0,-0.10101125,-0.05362694,0.9935163,-0.22601318,-1.0749512,0.58636475,0.4189453,0.67871094,0.2265625,25.208605,-2.0912466,-1.1102438,20.568869,-0.8562012,0.2972412,0.18035889,-0.06640625,-0.78515625,0.7050781,9.880972,32.295578,-46.54656,22.11113,1.2929688,-0.09899902,0.15472412,-0.2685547,0.6513672,-0.45996094,26.322756,67.26308,-108.935165,30.518547,0.0,0.0,0.0,0.0,0.0,0.0,0.0,82.714935,-108.80892,43.219467,0.0,0.0,0.0,0.0,0.0,0.0,0.0,0.10101125,0.05362694,-0.9935163,0.042175293,-0.91082764,-0.37872314,-1.4179688,0.4248047,0.0546875,19.812456,2.0912466,1.1102438,-20.568869,-0.9210205,0.051879883,-0.14526367,0.013671875,0.84277344,0.7919922,9.539802,-5.299574,-55.398556,-19.342464,0.46777344,-0.48632812,0.8856201,-0.2890625,-0.06933594,9.765625E-4,17.950209,-25.395052,-124.49605,-16.695995,0.0,0.0,0.0,0.0,0.0,0.0,0.0,-6.5479507,-124.41581,-9.999655,0.0,0.0,0.0,0.0,0.0,0.0,0.0,-9.452089,43.976967,1.4127425,
2.55468742386438,109,0.31280518,-1.2872925,0.13494873,-0.25585938,0.7519531,-0.14746094,0.0,0.0,0.0,0.0,0.0,0.0,0.0,0.0,0.0,0.0,0.0,-0.08364385,-0.05698506,0.9950001,-0.08483887,-1.111206,0.5344238,0.22851562,0.65722656,0.2841797,25.446087,-1.7316856,-1.1797675,20.599588,-0.8828125,0.08654785,0.15960693,-0.34375,-0.08691406,0.16601562,9.681253,32.97495,-46.382095,22.135063,1.2175903,-0.2514038,0.18103027,0.01953125,0.47265625,0.1328125,25.777082,68.50004,-108.50147,30.208052,0.0,0.0,0.0,0.0,0.0,0.0,0.0,83.89619,-108.148125,42.97251,0.0,0.0,0.0,0.0,0.0,0.0,0.0,0.08364385,0.05698506,-0.9950001,-0.053527832,-1.0111694,-0.41662598,-0.9453125,0.81933594,0.016601562,21.468254,1.7316856,1.1797675,-20.599588,-0.9644165,0.19940186,-0.30151367,0.3671875,1.140625,0.9375,9.536216,-7.1129036,-55.12309,-19.818956,0.8006592,-0.31500244,1.1467896,-0.10058594,-0.51464844,0.033203125,18.857407,-28.972992,-123.70326,-17.689247,0.0,0.0,0.0,0.0,0.0,0.0,0.0,-10.124954,-123.74322,-10.992392,0.0,0.0,0.0,0.0,0.0,0.0,0.0,-9.611078,43.93465,1.7082524,
