TOTAL_TIME,0m6s
TOTAL_FRAMES,271
SELECTED_FRAMES,271
NO_OF_JOINTS,12
FREQUENCY,42.666668
DESCRIPTION,Capture 23
TIME_STAMP,Jul 8, 2010

Time,Frame,Pelvis_accelX_Pelvis,Pelvis_accelY_Pelvis,Pelvis_accelZ_Pelvis,Pelvis_gyroX_Pelvis,Pelvis_gyroY_Pelvis,Pelvis_gyroZ_Pelvis,Pelvis_Joint angle_Pelvis,Pelvis_Relative pos X_Pelvis,Pelvis_Relative pos Y_Pelvis,Pelvis_Relative pos Z_Pelvis,RightPelvis_accelX_RightPelvis,RightPelvis_accelY_RightPelvis,RightPelvis_accelZ_RightPelvis,RightPelvis_gyroX_RightPelvis,RightPelvis_gyroY_RightPelvis,RightPelvis_gyroZ_RightPelvis,RightPelvis_Joint angle_RightPelvis,RightPelvis_Relative pos X_RightPelvis,RightPelvis_Relative pos Y_RightPelvis,RightPelvis_Relative pos Z_RightPelvis,RightUpLeg_accelX_RightUpLeg,RightUpLeg_accelY_RightUpLeg,RightUpLeg_accelZ_RightUpLeg,RightUpLeg_gyroX_RightUpLeg,RightUpLeg_gyroY_RightUpLeg,RightUpLeg_gyroZ_RightUpLeg,RightUpLeg_Joint angle_RightUpLeg,RightUpLeg_Relative pos X_RightUpLeg,RightUpLeg_Relative pos Y_RightUpLeg,RightUpLeg_Relative pos Z_RightUpLeg,RightLeg_accelX_RightLeg,RightLeg_accelY_RightLeg,RightLeg_accelZ_RightLeg,RightLeg_gyroX_RightLeg,RightLeg_gyroY_RightLeg,RightLeg_gyroZ_RightLeg,RightLeg_Joint angle_RightLeg,RightLeg_Relative pos X_RightLeg,RightLeg_Relative pos Y_RightLeg,RightLeg_Relative pos Z_RightLeg,RightFoot_accelX_RightFoot,RightFoot_accelY_RightFoot,RightFoot_accelZ_RightFoot,RightFoot_gyroX_RightFoot,RightFoot_gyroY_RightFoot,RightFoot_gyroZ_RightFoot,RightFoot_Joint angle_RightFoot,RightFoot_Relative pos X_RightFoot,RightFoot_Relative pos Y_RightFoot,RightFoot_Relative pos Z_RightFoot,RightFootEnd_accelX_RightFootEnd,RightFootEnd_accelY_RightFootEnd,RightFootEnd_accelZ_RightFootEnd,RightFootEnd_gyroX_RightFootEnd,RightFootEnd_gyroY_RightFootEnd,RightFootEnd_gyroZ_RightFootEnd,RightFootEnd_Joint angle_RightFootEnd,RightFootEnd_Relative pos X_RightFootEnd,RightFootEnd_Relative pos Y_RightFootEnd,RightFootEnd_Relative pos Z_RightFootEnd,LeftPelvis_accelX_LeftPelvis,LeftPelvis_accelY_LeftPelvis,LeftPelvis_accelZ_LeftPelvis,LeftPelvis_gyroX_LeftPelvis,LeftPelvis_gyroY_LeftPelvis,LeftPelvis_gyroZ_LeftPelvis,LeftPelvis_Joint angle_LeftPelvis,LeftPelvis_Relative pos X_LeftPelvis,LeftPelvis_Relative pos Y_LeftPelvis,LeftPelvis_Relative pos Z_LeftPelvis,LeftUpLeg_accelX_LeftUpLeg,LeftUpLeg_accelY_LeftUpLeg,LeftUpLeg_accelZ_LeftUpLeg,LeftUpLeg_gyroX_LeftUpLeg,LeftUpLeg_gyroY_LeftUpLeg,LeftUpLeg_gyroZ_LeftUpLeg,LeftUpLeg_Joint angle_LeftUpLeg,LeftUpLeg_Relative pos X_LeftUpLeg,LeftUpLeg_Relative pos Y_LeftUpLeg,LeftUpLeg_Relative pos Z_LeftUpLeg,LeftLeg_accelX_LeftLeg,LeftLeg_accelY_LeftLeg,LeftLeg_accelZ_LeftLeg,LeftLeg_gyroX_LeftLeg,LeftLeg_gyroY_LeftLeg,LeftLeg_gyroZ_LeftLeg,LeftLeg_Joint angle_LeftLeg,LeftLeg_Relative pos X_LeftLeg,LeftLeg_Relative pos Y_LeftLeg,LeftLeg_Relative pos Z_LeftLeg,LeftFoot_accelX_LeftFoot,LeftFoot_accelY_LeftFoot,LeftFoot_accelZ_LeftFoot,LeftFoot_gyroX_LeftFoot,LeftFoot_gyroY_LeftFoot,LeftFoot_gyroZ_LeftFoot,LeftFoot_Joint angle_LeftFoot,LeftFoot_Relative pos X_LeftFoot,LeftFoot_Relative pos Y_LeftFoot,LeftFoot_Relative pos Z_LeftFoot,LeftFootEnd_accelX_LeftFootEnd,LeftFootEnd_accelY_LeftFootEnd,LeftFootEnd_accelZ_LeftFootEnd,LeftFootEnd_gyroX_LeftFootEnd,LeftFootEnd_gyroY_LeftFootEnd,LeftFootEnd_gyroZ_LeftFootEnd,LeftFootEnd_Joint angle_LeftFootEnd,LeftFootEnd_Relative pos X_LeftFootEnd,LeftFootEnd_Relative pos Y_LeftFootEnd,LeftFootEnd_Relative pos Z_LeftFootEnd,Spine_accelX_Spine,Spine_accelY_Spine,Spine_accelZ_Spine,Spine_gyroX_Spine,Spine_gyroY_Spine,Spine_gyroZ_Spine,Spine_Joint angle_Spine,Spine_Relative pos X_Spine,Spine_Relative pos Y_Spine,Spine_Relative pos Z_Spine,
0.0,0,0.0,0.0,0.0,0.0,0.0,0.0,0.0,0.0,0.0,0.0,0.0,0.0,0.0,0.0,0.0,0.0,0.0,0.0,0.0,0.0,0.0,0.0,0.0,0.0,0.0,0.0,NaN,0.0,0.0,0.0,0.0,0.0,0.0,0.0,0.0,0.0,NaN,0.0,0.0,0.0,0.0,0.0,0.0,0.0,0.0,0.0,NaN,0.0,0.0,0.0,0.0,0.0,0.0,0.0,0.0,0.0,0.0,0.0,0.0,0.0,0.0,0.0,0.0,0.0,0.0,0.0,0.0,0.0,0.0,0.0,0.0,0.0,0.0,0.0,0.0,0.0,NaN,0.0,0.0,0.0,0.0,0.0,0.0,0.0,0.0,0.0,NaN,0.0,0.0,0.0,0.0,0.0,0.0,0.0,0.0,0.0,NaN,0.0,0.0,0.0,0.0,0.0,0.0,0.0,0.0,0.0,0.0,0.0,0.0,0.0,0.0,0.0,0.0,0.0,0.0,0.0,0.0,0.0,0.0,0.0,
0.02343749930150809,1,0.0,0.0,0.0,0.0,0.0,0.0,0.0,0.0,0.0,0.0,0.0,0.0,0.0,0.0,0.0,0.0,0.0,0.0,0.0,0.0,0.0,0.0,0.0,0.0,0.0,0.0,NaN,0.0,0.0,0.0,0.0,0.0,0.0,0.0,0.0,0.0,NaN,0.0,0.0,0.0,0.0,0.0,0.0,0.0,0.0,0.0,NaN,0.0,0.0,0.0,0.0,0.0,0.0,0.0,0.0,0.0,0.0,0.0,0.0,0.0,0.0,0.0,0.0,0.0,0.0,0.0,0.0,0.0,0.0,0.0,0.0,0.0,0.0,0.0,0.0,0.0,NaN,0.0,0.0,0.0,0.0,0.0,0.0,0.0,0.0,0.0,NaN,0.0,0.0,0.0,0.0,0.0,0.0,0.0,0.0,0.0,NaN,0.0,0.0,0.0,0.0,0.0,0.0,0.0,0.0,0.0,0.0,0.0,0.0,0.0,0.0,0.0,0.0,0.0,0.0,0.0,0.0,0.0,0.0,0.0,
0.04687499860301618,2,0.0,0.0,0.0,0.0,0.0,0.0,0.0,0.0,0.0,0.0,0.0,0.0,0.0,0.0,0.0,0.0,0.0,0.0,0.0,0.0,0.0,0.0,0.0,0.0,0.0,0.0,NaN,0.0,0.0,0.0,0.0,0.0,0.0,0.0,0.0,0.0,NaN,0.0,0.0,0.0,0.0,0.0,0.0,0.0,0.0,0.0,NaN,0.0,0.0,0.0,0.0,0.0,0.0,0.0,0.0,0.0,0.0,0.0,0.0,0.0,0.0,0.0,0.0,0.0,0.0,0.0,0.0,0.0,0.0,0.0,0.0,0.0,0.0,0.0,0.0,0.0,NaN,0.0,0.0,0.0,0.0,0.0,0.0,0.0,0.0,0.0,NaN,0.0,0.0,0.0,0.0,0.0,0.0,0.0,0.0,0.0,NaN,0.0,0.0,0.0,0.0,0.0,0.0,0.0,0.0,0.0,0.0,0.0,0.0,0.0,0.0,0.0,0.0,0.0,0.0,0.0,0.0,0.0,0.0,0.0,
0.07031249790452426,3,-0.012939453,-0.9484253,0.36029053,-0.038085938,0.022460938,0.06542969,0.0,0.0,0.0,0.0,0.0,0.0,0.0,0.0,0.0,0.0,0.0,-0.10684541,-0.012935987,-0.9942721,0.018371582,-0.9293823,-0.42175293,-0.0146484375,0.005859375,0.017578125,5.822852,-2.2120328,-0.26781505,-20.584515,-0.96466064,-0.10656738,-0.17706299,-0.03515625,0.026367188,0.016601562,1.6243762,2.0257096,-57.117012,-20.302555,0.0,0.0,0.0,0.0,0.0,0.0,NaN,5.549821,-129.01013,-18.061436,0.0,0.0,0.0,0.0,0.0,0.0,0.0,5.549821,-129.01013,-18.061436,0.0,0.0,0.0,0.0,0.0,0.0,0.0,0.10684541,0.012935987,0.9942721,-0.04071045,-0.9628906,-0.2859497,-0.022460938,-0.0078125,0.0107421875,6.376613,2.2120328,0.26781505,20.584515,-0.96691895,8.544922E-4,-0.096191406,-0.055664062,0.061523438,0.041015625,2.6915185,4.1558595,-56.531036,16.179688,0.42694092,-0.5697632,0.7885742,0.0146484375,0.043945312,0.017578125,89.23294,2.2327464,-128.31804,10.789044,0.0,0.0,0.0,0.0,0.0,0.0,0.0,4.7204304,-128.23012,-9.054606,0.0,0.0,0.0,0.0,0.0,0.0,0.0,1.1986156,44.981976,-0.7140428,
0.09374999720603236,4,-0.017150879,-0.9727783,0.36114502,-0.055664062,-0.03515625,0.046875,0.0,0.0,0.0,0.0,0.0,0.0,0.0,0.0,0.0,0.0,0.0,-0.10433066,-0.013401832,-0.9946295,0.014221191,-0.923645,-0.40075684,-0.033203125,0.024414062,-9.765625E-4,5.750298,-2.159967,-0.27745953,-20.591915,-0.9708252,-0.10272217,-0.16821289,-0.03515625,0.026367188,0.0546875,1.5823903,2.0217104,-57.127983,-20.306139,0.0,0.0,0.0,0.0,0.0,0.0,NaN,5.5054226,-129.02496,-18.101774,0.0,0.0,0.0,0.0,0.0,0.0,0.0,5.5054226,-129.02496,-18.101774,0.0,0.0,0.0,0.0,0.0,0.0,0.0,0.10433066,0.013401832,0.9946295,-0.048034668,-0.98431396,-0.3078003,0.015625,-0.0078125,0.029296875,6.376275,2.159967,0.27745953,20.591915,-1.0,0.0087890625,-0.101379395,-0.07421875,0.080078125,0.022460938,2.698491,4.141616,-56.524025,16.22059,0.44622803,-0.5795288,0.8078613,-0.0048828125,-0.013671875,0.036132812,89.22347,2.2564738,-128.31111,10.846024,0.0,0.0,0.0,0.0,0.0,0.0,0.0,4.698162,-128.22849,-9.00304,0.0,0.0,0.0,0.0,0.0,0.0,0.0,1.1841396,44.98642,-0.7303649,
0.11718749650754046,5,-0.017028809,-0.96118164,0.3690796,-0.11621094,0.060546875,0.047851562,0.0,0.0,0.0,0.0,0.0,0.0,0.0,0.0,0.0,0.0,0.0,-0.10232887,-0.014655442,-0.99472004,0.017211914,-0.93634033,-0.3939209,-0.033203125,0.024414062,0.037109375,5.698495,-2.118525,-0.30341306,-20.59379,-0.9782715,-0.078186035,-0.19073486,-0.015625,0.045898438,0.036132812,1.5223856,1.9989314,-57.15865,-20.299036,0.5372925,0.39886475,0.7505493,0.0029296875,-0.0029296875,-0.02734375,91.415405,5.432231,-129.0595,-18.149422,0.0,0.0,0.0,0.0,0.0,0.0,0.0,12.856276,-129.22458,-36.719482,0.0,0.0,0.0,0.0,0.0,0.0,0.0,0.10232887,0.014655442,0.99472004,-0.021850586,-0.9779663,-0.2952881,0.052734375,-0.0078125,0.029296875,6.421564,2.118525,0.30341306,20.59379,-0.9840698,0.0078125,-0.08880615,-0.09277344,0.061523438,0.041992188,2.6708577,4.110887,-56.497345,16.248495,0.4338379,-0.55145264,0.75372314,-0.041992188,0.043945312,0.0546875,89.282196,2.2721853,-128.28348,10.826979,0.0,0.0,0.0,0.0,0.0,0.0,0.0,4.6953025,-128.20224,-9.025721,0.0,0.0,0.0,0.0,0.0,0.0,0.0,1.1882191,44.98093,-0.78494895,
0.14062499580904855,6,-0.031066895,-0.9651489,0.39367676,-0.09667969,0.041992188,0.047851562,0.0,0.0,0.0,0.0,0.0,0.0,0.0,0.0,0.0,0.0,0.0,-0.09896588,-0.016316343,-0.9950928,0.009033203,-0.93151855,-0.3779297,-0.0146484375,0.043945312,0.017578125,5.647363,-2.048899,-0.3377989,-20.601505,-0.9407959,-0.086242676,-0.16314697,0.0029296875,0.026367188,0.036132812,1.474721,2.0034053,-57.199833,-20.2916,0.5186157,0.4225464,0.7338257,0.00390625,0.015625,0.0087890625,91.52111,5.387678,-129.10245,-18.17113,0.0,0.0,0.0,0.0,0.0,0.0,0.0,12.787596,-129.27885,-36.749928,0.0,0.0,0.0,0.0,0.0,0.0,0.0,0.09896588,0.016316343,0.9950928,-0.038879395,-1.0526733,-0.26904297,0.37402344,-0.029296875,0.02734375,6.290708,2.048899,0.3377989,20.601505,-0.9899292,-1.2207031E-4,-0.09869385,-0.11230469,0.09863281,0.041992188,2.3650475,3.7491484,-56.479076,16.318806,0.4290161,-0.5628052,0.7825928,-0.04296875,0.005859375,0.0546875,89.26918,1.9262984,-128.26297,10.903666,0.0,0.0,0.0,0.0,0.0,0.0,0.0,4.326268,-128.18402,-8.952124,0.0,0.0,0.0,0.0,0.0,0.0,0.0,1.1917133,44.982155,-0.85608417,
0.16406249511055665,7,-0.03527832,-0.98236084,0.3630371,-0.15527344,0.060546875,0.048828125,0.0,0.0,0.0,0.0,0.0,0.0,0.0,0.0,0.0,0.0,0.0,-0.09801534,-0.019893786,-0.9951891,0.029418945,-0.93640137,-0.40795898,-0.0146484375,0.043945312,0.017578125,5.7137113,-2.029221,-0.41186306,-20.6035,-0.9637451,-0.10308838,-0.15441895,0.022460938,0.044921875,0.036132812,1.4540075,1.9678223,-57.279278,-20.263546,0.5375366,0.41619873,0.7286377,-0.0146484375,0.015625,0.0087890625,91.44485,5.3374405,-129.18117,-18.107677,0.0,0.0,0.0,0.0,0.0,0.0,0.0,12.705671,-129.37346,-36.701233,0.0,0.0,0.0,0.0,0.0,0.0,0.0,0.09801534,0.019893786,0.9951891,-0.123046875,-1.0418701,-0.32092285,0.76953125,0.2578125,0.064453125,5.965651,2.029221,0.41186306,20.6035,-0.9812622,0.012878418,-0.053100586,-0.13085938,0.061523438,0.0234375,1.5055821,2.8246489,-56.436813,16.475555,0.4501953,-0.5673218,0.7859497,-0.041992188,0.025390625,0.0546875,89.57932,0.95520616,-128.22527,11.048186,0.0,0.0,0.0,0.0,0.0,0.0,0.0,3.3569524,-128.14896,-8.812011,0.0,0.0,0.0,0.0,0.0,0.0,0.0,1.266057,44.979633,-1.0238338,
0.18749999441206475,8,-0.016906738,-0.94750977,0.37506104,-0.13574219,0.060546875,0.048828125,0.0,0.0,0.0,0.0,0.0,0.0,0.0,0.0,0.0,0.0,0.0,-0.095801115,-0.02317819,-0.99523324,0.009094238,-0.9420166,-0.40386963,-0.0146484375,0.043945312,0.037109375,5.7527514,-1.9833791,-0.4798604,-20.604414,-0.9852295,-0.07562256,-0.21142578,0.022460938,0.064453125,0.0546875,1.4031874,1.969105,-57.348583,-20.239899,0.5308838,0.42388916,0.74664307,-0.052734375,0.015625,0.0087890625,91.57407,5.2677164,-129.25847,-18.125706,0.0,0.0,0.0,0.0,0.0,0.0,0.0,12.6185055,-129.46349,-36.725403,0.0,0.0,0.0,0.0,0.0,0.0,0.0,0.095801115,0.02317819,0.99523324,-0.10247803,-1.0871582,-0.21398926,0.7519531,0.4580078,0.028320312,5.650139,1.9833791,0.4798604,20.604414,-0.98010254,-0.01965332,-0.030639648,-0.15039062,0.13671875,0.024414062,0.71900505,1.8491485,-56.39017,16.68237,0.4182129,-0.5680542,0.81463623,-0.0234375,-0.013671875,0.07324219,89.94394,-0.095090866,-128.17717,11.321005,0.0,0.0,0.0,0.0,0.0,0.0,0.0,2.2802203,-128.10516,-8.542238,0.0,0.0,0.0,0.0,0.0,0.0,0.0,1.3082031,44.970276,-1.1732495,
0.21093749371357284,9,-0.04815674,-0.9678345,0.39068604,-0.115234375,0.041992188,0.06640625,0.0,0.0,0.0,0.0,0.0,0.0,0.0,0.0,0.0,0.0,0.0,-0.092576236,-0.026586566,-0.9954453,0.032470703,-0.9219971,-0.39093018,-0.0146484375,0.06347656,0.017578125,5.786993,-1.9166157,-0.55042434,-20.608803,-0.9526367,-0.07269287,-0.18377686,0.0029296875,0.026367188,0.0546875,1.3161123,1.9961348,-57.424805,-20.206444,0.519104,0.39312744,0.7626953,-0.015625,0.015625,-0.009765625,91.67092,5.24831,-129.33752,-18.160143,0.0,0.0,0.0,0.0,0.0,0.0,0.0,12.580675,-129.55624,-36.76667,0.0,0.0,0.0,0.0,0.0,0.0,0.0,0.092576236,0.026586566,0.9954453,0.013000488,-1.0849609,-0.12988281,0.6191406,0.20507812,0.064453125,5.4126544,1.9166157,0.55042434,20.608803,-1.0003052,0.0030517578,-0.034973145,-0.15039062,0.13671875,0.04296875,0.7372789,0.8083799,-56.321735,16.938036,0.43798828,-0.5679321,0.7822876,-0.0048828125,-0.013671875,0.053710938,90.38396,-1.0795715,-128.10757,11.594392,0.0,0.0,0.0,0.0,0.0,0.0,0.0,1.2962303,-128.04126,-8.267051,0.0,0.0,0.0,0.0,0.0,0.0,0.0,1.3411125,44.964718,-1.3256506,
0.23437499301508094,10,-0.059570312,-1.0054932,0.35998535,-0.17382812,0.060546875,0.0859375,0.0,0.0,0.0,0.0,0.0,0.0,0.0,0.0,0.0,0.0,0.0,-0.08920011,-0.03151256,-0.9955746,0.028320312,-0.93847656,-0.38305664,-0.033203125,0.0625,0.037109375,5.8178344,-1.846718,-0.6524076,-20.61148,-0.9879761,-0.08856201,-0.16625977,0.0029296875,0.045898438,0.036132812,1.2566321,2.0609589,-57.522106,-20.157383,0.54034424,0.43096924,0.77453613,0.00390625,0.015625,-0.028320312,91.71857,5.2918425,-129.43219,-18.134392,0.0,0.0,0.0,0.0,0.0,0.0,0.0,12.609361,-129.65988,-36.74655,0.0,0.0,0.0,0.0,0.0,0.0,0.0,0.08920011,0.03151256,0.9955746,-0.011779785,-1.060852,-0.12927246,0.52441406,0.20703125,0.1953125,5.554885,1.846718,0.6524076,20.61148,-0.9840088,-0.034423828,-0.035705566,-0.28222656,0.2109375,0.045898438,1.6961597,-0.23831928,-56.200302,17.055813,0.4421997,-0.54803467,0.7734375,-0.0048828125,0.005859375,0.072265625,90.46828,-1.9617875,-127.991196,11.688116,0.0,0.0,0.0,0.0,0.0,0.0,0.0,0.3964193,-127.94159,-8.176491,0.0,0.0,0.0,0.0,0.0,0.0,0.0,1.326344,44.956684,-1.5418333,
0.25781249231658904,11,-0.087402344,-0.96209717,0.3562622,-0.13574219,0.060546875,0.0859375,0.0,0.0,0.0,0.0,0.0,0.0,0.0,0.0,0.0,0.0,0.0,-0.086015135,-0.03670485,-0.9956769,0.032470703,-0.9258423,-0.39691162,-0.0146484375,0.08203125,0.055664062,5.8967104,-1.7807811,-0.7599042,-20.613596,-0.9798584,-0.14447021,-0.16748047,0.080078125,0.06347656,0.036132812,1.2660956,2.110756,-57.630306,-20.126055,0.53149414,0.40576172,0.75860596,-0.015625,0.015625,-0.009765625,91.69592,5.367305,-129.53699,-18.022253,0.0,0.0,0.0,0.0,0.0,0.0,0.0,12.664489,-129.77425,-36.64384,0.0,0.0,0.0,0.0,0.0,0.0,0.0,0.086015135,0.03670485,0.9956769,-0.05029297,-1.0863647,-0.1842041,0.3544922,0.13476562,0.046875,5.843115,1.7807811,0.7599042,20.613596,-0.96069336,-0.07385254,-0.022705078,-0.28222656,0.2109375,0.08300781,2.2761507,-0.88474333,-56.073883,17.129997,0.41815186,-0.57092285,0.80963135,-0.080078125,0.045898438,-0.055664062,90.81435,-2.52737,-127.87795,11.929266,0.0,0.0,0.0,0.0,0.0,0.0,0.0,-0.17324018,-127.83087,-7.934269,0.0,0.0,0.0,0.0,0.0,0.0,0.0,1.3440113,44.947628,-1.7730665,
0.2812499916180971,12,-0.06549072,-0.9736328,0.30993652,-0.13574219,0.060546875,0.0859375,0.0,0.0,0.0,0.0,0.0,0.0,0.0,0.0,0.0,0.0,0.0,-0.08255413,-0.040443968,-0.9958384,0.05078125,-0.9260254,-0.39501953,-0.033203125,0.0625,0.055664062,5.9897866,-1.7091258,-0.8373155,-20.616941,-0.9449463,-0.073913574,-0.1315918,0.080078125,0.08300781,0.07421875,1.2078797,2.1951015,-57.709774,-20.048538,0.54003906,0.42340088,0.7585449,-0.0146484375,0.03515625,-0.028320312,91.85989,5.416581,-129.61887,-17.946793,0.0,0.0,0.0,0.0,0.0,0.0,0.0,12.682648,-129.86398,-36.582436,0.0,0.0,0.0,0.0,0.0,0.0,0.0,0.08255413,0.040443968,0.9958384,-0.03326416,-0.9569092,0.016296387,0.7128906,-0.26953125,0.0068359375,5.996197,1.7091258,0.8373155,20.616941,-1.0015869,-0.039001465,0.07574463,-0.24609375,0.39648438,0.25195312,3.2797847,-1.8608701,-55.9519,17.398869,0.4578247,-0.520813,0.77923584,-0.19433594,0.0078125,-0.0546875,91.57672,-3.415487,-127.756454,12.254599,0.0,0.0,0.0,0.0,0.0,0.0,0.0,-1.1264856,-127.74745,-7.6134815,0.0,0.0,0.0,0.0,0.0,0.0,0.0,1.3778,44.94034,-1.9393797,
0.3046874909196052,13,-0.08666992,-1.0040894,0.34814453,0.13378906,0.099609375,0.045898438,0.0,0.0,0.0,0.0,0.0,0.0,0.0,0.0,0.0,0.0,0.0,-0.07862267,-0.042283207,-0.9961721,0.020996094,-0.9821167,-0.38739014,-0.052734375,0.10058594,0.07519531,5.85461,-1.6277331,-0.8753935,-20.62385,-1.0026855,-0.10070801,-0.1486206,-0.0146484375,0.083984375,0.017578125,1.1146958,2.2356005,-57.750282,-19.989084,0.54345703,0.4058838,0.7385254,-0.016601562,-0.022460938,-0.02734375,91.969315,5.417873,-129.66238,-17.925589,0.0,0.0,0.0,0.0,0.0,0.0,0.0,12.658691,-129.9196,-36.567818,0.0,0.0,0.0,0.0,0.0,0.0,0.0,0.07862267,0.042283207,0.9961721,-0.019165039,-0.88378906,0.09283447,0.9013672,-0.5078125,-0.06933594,6.4429336,1.6277331,0.8753935,20.62385,-0.92297363,0.048583984,0.048217773,-0.43359375,0.4345703,0.27441406,4.681446,-3.09055,-55.850372,17.55572,0.4492798,-0.59832764,0.7489624,-0.041992188,0.123046875,-0.091796875,92.926094,-4.403026,-127.64171,12.111475,0.0,0.0,0.0,0.0,0.0,0.0,0.0,-2.1039982,-127.62534,-7.7546387,0.0,0.0,0.0,0.0,0.0,0.0,0.0,1.2921655,44.94392,-2.0096593,
0.32812499022111324,14,-0.099487305,-0.9699707,0.37298584,0.095703125,0.061523438,0.02734375,0.0,0.0,0.0,0.0,0.0,0.0,0.0,0.0,0.0,0.0,0.0,-0.07549435,-0.042195577,-0.99635446,0.013916016,-0.9694214,-0.3892212,0.00390625,0.08203125,0.07519531,5.514484,-1.5629668,-0.87357926,-20.627626,-0.97387695,-0.10266113,-0.16723633,0.04296875,0.10253906,0.037109375,0.9981881,2.2485428,-57.752228,-19.96623,0.5327759,0.37805176,0.7555542,-0.016601562,-0.022460938,-0.02734375,92.11237,5.455177,-129.66774,-17.98041,0.0,0.0,0.0,0.0,0.0,0.0,0.0,12.684153,-129.9202,-36.63002,0.0,0.0,0.0,0.0,0.0,0.0,0.0,0.07549435,0.042195577,0.99635446,-0.020263672,-0.94647217,-0.1329956,0.69433594,-0.05078125,0.06347656,7.046537,1.5629668,0.87357926,20.627626,-0.94836426,0.075683594,-0.11663818,-0.5830078,0.45214844,0.3330078,6.4977865,-4.229115,-55.7621,17.730616,0.4779663,-0.53186035,0.7089844,0.22265625,0.08300781,-0.16894531,92.73936,-4.7249985,-127.53084,11.808735,0.0,0.0,0.0,0.0,0.0,0.0,0.0,-2.3697264,-127.540855,-8.051693,0.0,0.0,0.0,0.0,0.0,0.0,0.0,1.0663054,44.94813,-1.9843464,
0.3515624895226213,15,-0.049072266,-0.93096924,0.32598877,-0.033203125,-0.13085938,0.0087890625,0.0,0.0,0.0,0.0,0.0,0.0,0.0,0.0,0.0,0.0,0.0,-0.07434142,-0.042384867,-0.99640495,-0.0014038086,-0.95880127,-0.34820557,0.0234375,0.06347656,0.055664062,5.3968463,-1.5390974,-0.87749815,-20.628672,-0.91241455,-0.01550293,-0.08496094,0.0234375,0.083984375,0.017578125,0.85569423,2.1570725,-57.75656,-19.912626,0.5671387,0.43139648,0.72442627,-0.015625,-0.0029296875,-0.0087890625,92.64444,5.2913227,-129.66559,-18.015121,0.0,0.0,0.0,0.0,0.0,0.0,0.0,12.509346,-129.92737,-36.67144,0.0,0.0,0.0,0.0,0.0,0.0,0.0,0.07434142,0.042384867,0.99640495,0.008544922,-0.9560547,-0.27087402,0.46777344,0.11621094,0.17675781,7.2939854,1.5390974,0.87749815,20.628672,-0.97509766,0.09124756,-0.2052002,-0.5830078,0.41503906,0.2763672,8.1448555,-4.8113813,-55.69569,17.905493,0.39886475,-0.5592041,0.7893677,0.22265625,0.12109375,-0.09472656,91.02022,-4.0149727,-127.43553,11.6698065,0.0,0.0,0.0,0.0,0.0,0.0,0.0,-1.7272408,-127.47302,-8.196498,0.0,0.0,0.0,0.0,0.0,0.0,0.0,1.0717528,44.946404,-1.9918838,
0.3749999888241294,16,-0.06304932,-0.927124,0.34765625,0.09863281,-0.034179688,-0.0107421875,0.0,0.0,0.0,0.0,0.0,0.0,0.0,0.0,0.0,0.0,0.0,-0.071802825,-0.042335592,-0.99661046,-0.0037841797,-0.98339844,-0.29663086,0.09863281,-0.107421875,0.018554688,5.0787916,-1.4865406,-0.87647796,-20.632927,-0.97979736,-0.053527832,-0.08343506,-0.10546875,0.18164062,-0.038085938,0.58517206,1.958307,-57.77232,-19.840466,0.5509033,0.42785645,0.7225342,-0.015625,-0.0029296875,-0.0087890625,93.372,4.9793944,-129.69366,-18.11238,0.0,0.0,0.0,0.0,0.0,0.0,0.0,12.187717,-129.95972,-36.77304,0.0,0.0,0.0,0.0,0.0,0.0,0.0,0.071802825,0.042335592,0.99661046,0.008728027,-0.94744873,-0.22833252,0.3544922,0.099609375,0.23242188,7.4917436,1.4865406,0.87647796,20.632927,-0.9682007,0.051452637,-0.30792236,-0.50878906,0.41601562,0.23730469,9.364833,-5.040308,-55.672203,17.849777,0.4663086,-0.49835205,0.7871094,0.22265625,0.1015625,-0.040039062,88.84048,-2.8476846,-127.382034,11.672415,0.0,0.0,0.0,0.0,0.0,0.0,0.0,-0.6368017,-127.47886,-8.204334,0.0,0.0,0.0,0.0,0.0,0.0,0.0,1.0298496,44.948524,-1.983592,
0.39843748812563745,17,0.013916016,-0.97888184,0.3433838,-0.034179688,-0.111328125,-0.028320312,0.0,0.0,0.0,0.0,0.0,0.0,0.0,0.0,0.0,0.0,0.0,-0.073984206,-0.041284088,-0.99651986,0.018249512,-1.0236816,-0.26623535,0.17578125,-0.125,-0.0390625,4.62872,-1.531702,-0.85470855,-20.631052,-0.97265625,-0.03857422,-0.041992188,-0.14160156,0.24023438,-0.037109375,0.18238425,1.4625647,-57.77012,-19.621838,0.5362549,0.43347168,0.7565918,-0.034179688,0.015625,0.0087890625,93.84884,4.354743,-129.69638,-18.059896,0.0,0.0,0.0,0.0,0.0,0.0,0.0,11.53109,-129.97598,-36.732094,0.0,0.0,0.0,0.0,0.0,0.0,0.0,0.073984206,0.041284088,0.99651986,0.03656006,-0.9605713,-0.2654419,0.22265625,0.08203125,0.12109375,7.4408355,1.531702,0.85470855,20.631052,-0.9164429,0.07312012,-0.28796387,-0.24511719,0.32226562,0.1953125,10.317325,-4.9183846,-55.696583,17.72431,0.4555664,-0.46923828,0.78167725,0.14648438,0.08203125,0.03515625,86.87007,-1.3065038,-127.37343,11.886148,0.0,0.0,0.0,0.0,0.0,0.0,0.0,0.8648884,-127.521675,-7.993992,0.0,0.0,0.0,0.0,0.0,0.0,0.0,1.0853928,44.95012,-1.9427875,
0.4218749874271455,18,-0.011108398,-0.9546509,0.30517578,-0.07128906,-0.13085938,-0.009765625,0.0,0.0,0.0,0.0,0.0,0.0,0.0,0.0,0.0,0.0,0.0,-0.07497242,-0.040885113,-0.9965331,0.032287598,-1.0299072,-0.22851562,0.29003906,-0.14257812,-0.115234375,4.094334,-1.5521605,-0.84644854,-20.631325,-0.9558716,-0.058166504,-0.022338867,-0.043945312,0.31640625,-0.13085938,0.8011303,0.8916433,-57.779484,-19.197964,0.5157471,0.45880127,0.7558594,-0.07128906,0.03515625,0.02734375,94.326904,3.8936253,-129.70415,-17.728054,0.0,0.0,0.0,0.0,0.0,0.0,0.0,11.034891,-129.99796,-36.41078,0.0,0.0,0.0,0.0,0.0,0.0,0.0,0.07497242,0.040885113,0.9965331,0.060180664,-0.9985962,-0.2454834,0.18457031,0.15527344,0.103515625,7.1728544,1.5521605,0.84644854,20.631325,-0.951416,0.07904053,-0.3079834,-0.13183594,0.24804688,0.15527344,11.121178,-4.7728767,-55.729218,17.840828,0.44659424,-0.52734375,0.7744751,-0.00390625,0.08203125,0.12890625,84.55293,0.053084373,-127.371414,12.35989,0.0,0.0,0.0,0.0,0.0,0.0,0.0,2.013987,-127.53015,-7.535387,0.0,0.0,0.0,0.0,0.0,0.0,0.0,1.1845108,44.95119,-1.9333428,
0.4453124867286536,19,-0.007019043,-0.9530029,0.3287964,-0.11035156,-0.13085938,-0.028320312,0.0,0.0,0.0,0.0,0.0,0.0,0.0,0.0,0.0,0.0,0.0,-0.07637292,-0.04090838,-0.9964319,0.05657959,-1.0177612,-0.19366455,0.38378906,-0.16113281,-0.115234375,3.5638678,-1.5811574,-0.8469303,-20.629229,-0.96087646,-0.036010742,0.018066406,-9.765625E-4,0.45117188,-0.18554688,1.8199445,0.24705696,-57.783337,-18.626324,0.5315552,0.42053223,0.71875,-0.09082031,0.015625,0.045898438,95.11179,3.4345112,-129.70119,-17.31019,0.0,0.0,0.0,0.0,0.0,0.0,0.0,10.540819,-130.0047,-36.008766,0.0,0.0,0.0,0.0,0.0,0.0,0.0,0.07637292,0.04090838,0.9964319,0.03753662,-0.96569824,-0.2319336,0.052734375,0.15625,0.140625,6.8316483,1.5811574,0.8469303,20.629229,-0.989563,0.06542969,-0.2626953,-0.24316406,0.13574219,0.15722656,11.617388,-4.497981,-55.76577,17.923786,0.43530273,-0.49597168,0.8078613,-0.080078125,0.06347656,0.09277344,82.8639,1.2790966,-127.35235,12.630795,0.0,0.0,0.0,0.0,0.0,0.0,0.0,3.179784,-127.5076,-7.275383,0.0,0.0,0.0,0.0,0.0,0.0,0.0,1.3314983,44.94675,-1.9473376,
0.46874998603016166,20,0.030212402,-0.9436035,0.3180542,-0.14941406,-0.111328125,-0.02734375,0.0,0.0,0.0,0.0,0.0,0.0,0.0,0.0,0.0,0.0,0.0,-0.07995498,-0.041562725,-0.9960392,0.05529785,-1.0432739,-0.15405273,0.5732422,-0.12011719,-0.13476562,3.0085626,-1.6553162,-0.8604773,-20.6211,-0.9753418,0.05517578,0.0076293945,-0.1484375,0.5878906,-0.2783203,3.2444358,-0.6058605,-57.777702,-17.794254,0.52716064,0.3897705,0.7695923,-0.0146484375,0.015625,0.045898438,96.276955,2.7923918,-129.67606,-16.80201,0.0,0.0,0.0,0.0,0.0,0.0,0.0,9.898885,-129.96661,-35.5009,0.0,0.0,0.0,0.0,0.0,0.0,0.0,0.07995498,0.041562725,0.9960392,-0.04248047,-1.0285034,-0.17883301,-0.07910156,0.12109375,0.0859375,6.6549034,1.6553162,0.8604773,20.6211,-0.9493408,0.04663086,-0.26971436,-0.09375,0.13574219,0.15429688,11.918413,-4.269173,-55.768772,17.88418,0.46594238,-0.51293945,0.7741089,-0.23144531,0.08300781,0.13085938,81.543396,2.1032224,-127.31903,12.706275,0.0,0.0,0.0,0.0,0.0,0.0,0.0,3.9147406,-127.449524,-7.2101297,0.0,0.0,0.0,0.0,0.0,0.0,0.0,1.52247,44.9347,-1.9972484,
0.4921874853316697,21,-0.0068969727,-0.9434204,0.3446045,-0.18847656,-0.09277344,-0.026367188,0.0,0.0,0.0,0.0,0.0,0.0,0.0,0.0,0.0,0.0,0.0,-0.07924798,-0.042737514,-0.99607646,0.0680542,-1.0623779,-0.072631836,0.78222656,-0.022460938,-0.19238281,2.6407132,-1.6406789,-0.884799,-20.62187,-0.9550781,0.010192871,0.04486084,-0.2939453,0.7441406,-0.38964844,5.181907,-1.549829,-57.749805,-16.675491,0.5178833,0.42614746,0.75177,-0.055664062,-0.080078125,0.028320312,96.97492,2.312286,-129.63147,-16.03367,0.0,0.0,0.0,0.0,0.0,0.0,0.0,9.382666,-129.9261,-34.74214,0.0,0.0,0.0,0.0,0.0,0.0,0.0,0.07924798,0.042737514,0.99607646,-0.0345459,-0.9650879,-0.10333252,-0.060546875,-0.07910156,0.06640625,6.6514544,1.6406789,0.884799,20.62187,-0.95495605,0.07543945,-0.19683838,-0.16796875,0.09863281,0.15527344,12.241536,-4.233607,-55.74459,17.761696,0.4104004,-0.5195923,0.7784424,-0.15527344,0.12207031,0.11230469,80.98988,2.6207747,-127.244484,12.534176,0.0,0.0,0.0,0.0,0.0,0.0,0.0,4.473253,-127.30521,-7.3797455,0.0,0.0,0.0,0.0,0.0,0.0,0.0,1.7157166,44.926083,-2.0640945,
0.5156249846331779,22,0.013183594,-0.9296875,0.3161621,-0.3408203,-0.15039062,0.01171875,0.0,0.0,0.0,0.0,0.0,0.0,0.0,0.0,0.0,0.0,0.0,-0.07951763,-0.044683155,-0.99601394,0.066101074,-1.0420532,-0.059448242,0.9716797,-0.01953125,-0.2109375,2.9541957,-1.6462605,-0.9250799,-20.620575,-1.0081177,-0.018066406,-0.04498291,-0.23144531,0.87890625,-0.51953125,7.7451153,-2.689322,-57.670307,-15.330688,0.57299805,0.4598999,0.72943115,-0.072265625,-0.061523438,0.15820312,97.28997,1.9866261,-129.52051,-15.285375,0.0,0.0,0.0,0.0,0.0,0.0,0.0,8.966263,-129.86526,-34.024178,0.0,0.0,0.0,0.0,0.0,0.0,0.0,0.07951763,0.044683155,0.99601394,0.05432129,-0.9995117,-0.06750488,-0.13574219,-0.13378906,0.0107421875,6.4694176,1.6462605,0.9250799,20.620575,-0.9390869,-0.031066895,-0.1953125,-0.12988281,0.061523438,0.15429688,12.392774,-4.227831,-55.71072,17.889439,0.41522217,-0.4925537,0.81036377,-0.19335938,0.16113281,0.07519531,80.11428,2.8008895,-127.190674,12.684113,0.0,0.0,0.0,0.0,0.0,0.0,0.0,4.4806337,-127.178375,-7.242838,0.0,0.0,0.0,0.0,0.0,0.0,0.0,1.9898946,44.91159,-2.173688,
0.5390624839346859,23,0.0256958,-0.86950684,0.34210205,-0.36132812,-0.13085938,0.030273438,0.0,0.0,0.0,0.0,0.0,0.0,0.0,0.0,0.0,0.0,0.0,-0.0773873,-0.047381233,-0.9959759,0.07922363,-1.0692749,-0.081726074,1.0859375,0.0390625,-0.25,3.8735318,-1.6021562,-0.9809384,-20.619787,-0.9421997,-6.1035156E-4,-0.15386963,-0.11425781,0.99316406,-0.5185547,10.780671,-3.8639474,-57.546547,-13.90517,0.5161133,0.42443848,0.7866821,-0.053710938,-0.08105469,0.21386719,98.08993,1.881679,-129.31146,-14.820572,0.0,0.0,0.0,0.0,0.0,0.0,0.0,8.868971,-129.6513,-33.55716,0.0,0.0,0.0,0.0,0.0,0.0,0.0,0.0773873,0.047381233,0.9959759,0.06976318,-0.9680786,-0.10205078,-0.13574219,0.083984375,0.01171875,6.1656423,1.6021562,0.9809384,20.619787,-0.9678955,0.028320312,-0.14453125,0.056640625,0.13574219,0.20800781,12.432366,-4.213853,-55.670925,18.138603,0.38171387,-0.5507202,0.78289795,-0.21289062,0.16113281,0.11230469,80.08124,2.8996758,-127.14108,12.947271,0.0,0.0,0.0,0.0,0.0,0.0,0.0,4.4895782,-127.04242,-6.9879665,0.0,0.0,0.0,0.0,0.0,0.0,0.0,2.3264208,44.884655,-2.3160458,
0.562499983236194,24,-0.03704834,-0.92108154,0.3024292,-0.38085938,-0.11230469,0.0859375,0.0,0.0,0.0,0.0,0.0,0.0,0.0,0.0,0.0,0.0,0.0,-0.07049593,-0.051493403,-0.9963633,0.02532959,-1.1121826,-0.11462402,1.0849609,-0.076171875,-0.17285156,4.8312807,-1.4594835,-1.0660731,-20.627808,-1.0231323,-0.0038452148,-0.27612305,-0.15039062,1.0126953,-0.6123047,13.953438,-4.914874,-57.408043,-12.681836,0.5551758,0.44250488,0.8203125,-0.05859375,-0.27246094,0.3076172,98.89193,2.0241175,-129.04132,-14.939999,0.0,0.0,0.0,0.0,0.0,0.0,0.0,9.020651,-129.4335,-33.675087,0.0,0.0,0.0,0.0,0.0,0.0,0.0,0.07049593,0.051493403,0.9963633,-0.09161377,-0.9537964,-0.15759277,-0.2109375,0.17578125,0.030273438,6.1177936,1.4594835,1.0660731,20.627808,-0.9605713,0.12591553,-0.15356445,0.01953125,0.09765625,0.2265625,12.523551,-4.0796714,-55.613403,18.151947,0.4312744,-0.60321045,0.7692871,-0.080078125,0.16015625,0.09277344,79.79749,3.4690342,-127.028145,12.762378,0.0,0.0,0.0,0.0,0.0,0.0,0.0,5.1220427,-126.80833,-7.164462,0.0,0.0,0.0,0.0,0.0,0.0,0.0,2.5841813,44.864193,-2.501481,
0.5859374825377021,25,-0.07006836,-1.0576782,0.31341553,-0.26464844,-0.11230469,0.08496094,0.0,0.0,0.0,0.0,0.0,0.0,0.0,0.0,0.0,0.0,0.0,-0.063586175,-0.058770377,-0.99634415,-5.493164E-4,-1.1473389,-0.044067383,1.3105469,-0.053710938,-0.115234375,5.5756264,-1.3164301,-1.2167289,-20.62741,-1.1122437,-0.03314209,-0.34246826,-0.12792969,1.0527344,-0.81933594,17.22641,-5.9811997,-57.324635,-11.676306,0.56829834,0.44006348,0.82714844,-0.10449219,-0.57910156,0.44140625,98.751495,2.6593394,-128.73169,-15.203568,0.0,0.0,0.0,0.0,0.0,0.0,0.0,9.663145,-129.25749,-33.932663,0.0,0.0,0.0,0.0,0.0,0.0,0.0,0.063586175,0.058770377,0.99634415,-0.088378906,-1.0171509,-0.11376953,-0.19238281,-0.09667969,-0.0078125,6.530868,1.3164301,1.2167289,20.62741,-0.9855957,0.11907959,-0.14715576,-0.4296875,0.09863281,0.17871094,12.850007,-4.0964937,-55.466427,17.996086,0.41827393,-0.5519409,0.80181885,-0.080078125,0.16015625,0.111328125,78.80469,3.992672,-126.789795,12.216612,0.0,0.0,0.0,0.0,0.0,0.0,0.0,5.6573315,-126.52222,-7.7120533,0.0,0.0,0.0,0.0,0.0,0.0,0.0,2.7604954,44.831085,-2.8205807,
0.6093749818392101,26,-0.004333496,-1.147522,0.31878662,-0.12988281,-0.09277344,0.083984375,0.0,0.0,0.0,0.0,0.0,0.0,0.0,0.0,0.0,0.0,0.0,-0.06055659,-0.06240235,-0.9962936,0.081848145,-1.2575073,0.024230957,1.6142578,-0.1640625,-0.20996094,7.189738,-1.2537091,-1.2919222,-20.626368,-1.1358643,0.007446289,-0.35809326,-0.3564453,1.0166016,-0.8769531,21.19926,-7.5564747,-57.00762,-10.316669,0.5444946,0.51605225,0.87438965,-0.22949219,-1.0185547,0.68652344,97.94391,3.1745262,-128.07187,-14.890772,0.0,0.0,0.0,0.0,0.0,0.0,0.0,10.176111,-128.8965,-33.609554,0.0,0.0,0.0,0.0,0.0,0.0,0.0,0.06055659,0.06240235,0.9962936,-0.016235352,-1.017334,-0.14855957,-0.30566406,0.140625,0.030273438,6.70651,1.2537091,1.2919222,20.626368,-0.9960327,0.07849121,-0.19494629,-0.12988281,0.09863281,0.19238281,12.773558,-3.857641,-55.417377,17.905552,0.44647217,-0.55255127,0.79711914,-0.080078125,0.043945312,0.11035156,78.12754,4.4885445,-126.68602,11.857194,0.0,0.0,0.0,0.0,0.0,0.0,0.0,6.125753,-126.379265,-8.0739565,0.0,0.0,0.0,0.0,0.0,0.0,0.0,2.8435445,44.814766,-2.9797864,
0.6328124811407182,27,5.493164E-4,-1.1619263,0.2911377,-0.15039062,-0.09277344,0.009765625,0.0,0.0,0.0,0.0,0.0,0.0,0.0,0.0,0.0,0.0,0.0,-0.06009835,-0.06469359,-0.99615055,-0.105529785,-1.1181641,-0.1607666,1.2148438,-0.5517578,0.001953125,8.469048,-1.2442224,-1.339358,-20.623405,-1.2601929,0.078063965,-0.26965332,-0.46679688,1.1142578,-0.9326172,24.73151,-9.096762,-56.695896,-9.491566,0.75128174,0.4869995,0.8685913,0.31835938,-1.4472656,1.171875,97.03744,3.608677,-127.35365,-15.152725,0.0,0.0,0.0,0.0,0.0,0.0,0.0,10.687234,-128.70573,-33.81047,0.0,0.0,0.0,0.0,0.0,0.0,0.0,0.06009835,0.06469359,0.99615055,-0.11230469,-1.0037231,-0.14093018,-0.32421875,0.30566406,0.12402344,6.910946,1.2442224,1.339358,20.623405,-0.9849243,0.14575195,-0.12902832,0.01953125,0.1171875,0.2265625,12.727105,-3.5262372,-55.392075,17.739246,0.44476318,-0.59399414,0.78686523,-0.080078125,0.06347656,0.11035156,78.00061,5.16568,-126.59226,11.351435,0.0,0.0,0.0,0.0,0.0,0.0,0.0,6.8384075,-126.26265,-8.574661,0.0,0.0,0.0,0.0,0.0,0.0,0.0,2.9623866,44.798622,-3.0881057,
0.6562499804422263,28,0.021972656,-1.1155396,0.31311035,-0.034179688,-0.111328125,-0.10253906,0.0,0.0,0.0,0.0,0.0,0.0,0.0,0.0,0.0,0.0,0.0,-0.059317976,-0.06541271,-0.9961493,-0.122680664,-1.2658081,-0.14300537,1.4960938,0.84472656,0.3232422,9.957063,-1.2280658,-1.3542459,-20.623377,-1.1950684,-0.013122559,-0.20202637,-0.6689453,1.2519531,-1.0625,28.492645,-10.544512,-56.297928,-8.617527,0.4885254,0.47235107,0.9436035,-0.27148438,-1.6376953,1.8398438,96.03011,4.4422483,-126.41268,-15.397958,0.0,0.0,0.0,0.0,0.0,0.0,0.0,11.751793,-128.3603,-33.909786,0.0,0.0,0.0,0.0,0.0,0.0,0.0,0.059317976,0.06541271,0.9961493,-0.13775635,-1.0297852,-0.14569092,-0.32421875,0.12402344,0.14257812,7.3329663,1.2280658,1.3542459,20.623377,-0.9700928,0.18115234,-0.14483643,-0.055664062,0.09863281,0.20898438,12.821091,-3.236753,-55.376373,17.313635,0.41485596,-0.5405884,0.8338623,-0.041992188,0.06347656,0.091796875,77.48983,5.994413,-126.48442,10.611808,0.0,0.0,0.0,0.0,0.0,0.0,0.0,7.719227,-126.13747,-9.3106985,0.0,0.0,0.0,0.0,0.0,0.0,0.0,3.040721,44.790955,-3.1222904,
0.6796874797437343,29,0.016784668,-0.96221924,0.24609375,0.17578125,-0.072265625,-0.17871094,0.0,0.0,0.0,0.0,0.0,0.0,0.0,0.0,0.0,0.0,0.0,-0.062378466,-0.059973776,-0.99642026,0.041259766,-1.1713257,0.14471436,2.0263672,1.2138672,0.30273438,12.538111,-1.2914271,-1.2416432,-20.628988,-1.0827637,-0.08203125,-0.31506348,-0.5957031,1.1933594,-1.0449219,33.001675,-12.490561,-55.492447,-7.157181,0.78149414,0.46972656,0.80444336,-0.1953125,-1.7548828,2.0996094,95.36833,4.7376556,-124.9736,-15.037171,0.0,0.0,0.0,0.0,0.0,0.0,0.0,12.39814,-127.52546,-33.336056,0.0,0.0,0.0,0.0,0.0,0.0,0.0,0.062378466,0.059973776,0.99642026,-0.06512451,-0.9974365,-0.19598389,-0.23046875,-0.0048828125,0.06738281,7.3006535,1.2914271,1.2416432,20.628988,-0.94384766,0.064575195,-0.20214844,-0.20605469,0.13574219,0.19335938,12.9342375,-2.9149346,-55.494003,17.037891,0.40911865,-0.56066895,0.8029785,0.051757812,-0.033203125,0.09082031,77.02428,6.8003507,-126.50926,10.0991955,0.0,0.0,0.0,0.0,0.0,0.0,0.0,8.620796,-126.14418,-9.813572,0.0,0.0,0.0,0.0,0.0,0.0,0.0,3.118862,44.806244,-2.8921025,
0.7031249790452424,30,0.1159668,-0.83062744,0.1749878,-0.022460938,0.08105469,-0.17578125,0.0,0.0,0.0,0.0,0.0,0.0,0.0,0.0,0.0,0.0,0.0,-0.07224083,-0.05510343,-0.99593943,0.036621094,-1.0983887,0.13842773,1.9296875,0.9638672,0.4189453,15.338354,-1.4956093,-1.1408118,-20.619034,-1.0292969,-0.101257324,-0.38287354,-0.48242188,1.1347656,-1.1015625,37.868732,-14.748137,-54.4618,-5.4122753,0.6066284,0.49456787,0.7850342,-0.3857422,-2.3457031,2.1621094,94.59351,4.84929,-123.206154,-14.183991,0.0,0.0,0.0,0.0,0.0,0.0,0.0,12.858406,-126.487656,-32.221012,0.0,0.0,0.0,0.0,0.0,0.0,0.0,0.07224083,0.05510343,0.99593943,-0.026306152,-1.0189209,-0.18096924,-0.24902344,0.049804688,0.123046875,7.1913476,1.4956093,1.1408118,20.619034,-0.94781494,0.06652832,-0.2119751,9.765625E-4,0.09765625,0.24609375,13.003113,-2.469308,-55.60655,16.919634,0.41833496,-0.5753174,0.8294678,0.033203125,-0.0146484375,0.12792969,76.580284,7.64174,-126.56503,9.881414,0.0,0.0,0.0,0.0,0.0,0.0,0.0,9.502176,-126.18925,-10.033646,0.0,0.0,0.0,0.0,0.0,0.0,0.0,3.3361025,44.79703,-2.7205195,
0.7265624783467505,31,0.15948486,-0.9316406,0.15472412,0.009765625,0.25390625,-0.26660156,0.0,0.0,0.0,0.0,0.0,0.0,0.0,0.0,0.0,0.0,0.0,-0.09930727,-0.051636398,-0.99377257,-0.11212158,-0.9515991,-0.06561279,1.5498047,0.92089844,0.6298828,17.323368,-2.0559676,-1.0690336,-20.574171,-0.8868408,-0.1585083,-0.4072876,-0.6386719,1.0009766,-1.0664062,42.124348,-17.250355,-53.506157,-4.161358,0.70874023,0.5529175,0.9927368,0.2890625,-1.4326172,1.8925781,94.876686,4.1916466,-121.54298,-14.031002,0.0,0.0,0.0,0.0,0.0,0.0,0.0,12.624259,-125.49098,-31.737919,0.0,0.0,0.0,0.0,0.0,0.0,0.0,0.09930727,0.051636398,0.99377257,-0.0115356445,-0.9649658,-0.1965332,-0.26757812,0.0859375,0.030273438,7.2622304,2.0559676,1.0690336,20.574171,-0.9492798,0.14434814,-0.2399292,0.16992188,0.060546875,0.24316406,13.087748,-1.5439708,-55.7025,16.880764,0.4498291,-0.50445557,0.765625,-0.0048828125,-0.072265625,0.12792969,76.10022,9.124013,-126.57062,9.821212,0.0,0.0,0.0,0.0,0.0,0.0,0.0,10.974769,-126.20735,-10.091739,0.0,0.0,0.0,0.0,0.0,0.0,0.0,3.7910671,44.76092,-2.704616,
0.7499999776482585,32,0.17419434,-1.1542358,0.19677734,-0.14941406,0.40722656,-0.3564453,0.0,0.0,0.0,0.0,0.0,0.0,0.0,0.0,0.0,0.0,0.0,-0.120224595,-0.050536282,-0.99166554,-0.19989014,-1.1240234,-0.4520874,1.0214844,0.09375,0.45996094,17.624252,-2.4890227,-1.0462577,-20.530552,-0.9663696,-0.3400879,-0.40350342,-0.80859375,0.4814453,-0.7705078,44.441566,-18.805841,-53.17714,-4.257145,0.1315918,1.9425049,0.7427368,-0.57128906,0.24414062,0.7451172,94.82037,4.19347,-120.59469,-14.823469,0.0,0.0,0.0,0.0,0.0,0.0,0.0,13.046272,-124.607056,-32.309532,0.0,0.0,0.0,0.0,0.0,0.0,0.0,0.120224595,0.050536282,0.99166554,-0.022033691,-0.9991455,-0.21148682,-0.36132812,0.123046875,0.0126953125,7.5616155,2.4890227,1.0462577,20.530552,-0.9562988,0.09625244,-0.16589355,0.16894531,0.09863281,0.18652344,12.960119,-0.6878035,-55.74958,16.836687,0.40844727,-0.5237427,0.7904053,-0.15625,-0.07128906,0.16601562,75.80537,10.332085,-126.5522,9.678502,0.0,0.0,0.0,0.0,0.0,0.0,0.0,12.18343,-126.17974,-10.231582,0.0,0.0,0.0,0.0,0.0,0.0,0.0,4.159576,44.730034,-2.783774,
0.7734374769497666,33,0.14343262,-1.256897,0.22961426,0.103515625,0.3310547,-0.32226562,0.0,0.0,0.0,0.0,0.0,0.0,0.0,0.0,0.0,0.0,0.0,-0.13125125,-0.047130864,-0.9903832,-0.035461426,-0.9882202,-0.24365234,1.1962891,0.05859375,0.0,18.585083,-2.717308,-0.975755,-20.504004,-0.8513794,-0.12054443,-0.3862915,-0.15234375,-0.18261719,-0.19335938,45.762447,-20.078224,-52.619976,-3.9425755,-0.52612305,0.9934082,0.7736206,0.5488281,0.18066406,0.32128906,95.350815,3.1732864,-119.94223,-14.507183,0.0,0.0,0.0,0.0,0.0,0.0,0.0,12.149864,-123.87791,-31.946764,0.0,0.0,0.0,0.0,0.0,0.0,0.0,0.13125125,0.047130864,0.9903832,-0.04046631,-0.9517212,-0.17816162,-0.49414062,0.3251953,0.10644531,7.734998,2.717308,0.975755,20.504004,-0.9867554,0.15057373,-0.16467285,0.28222656,0.1171875,0.22265625,12.62292,0.137604,-55.850483,16.809486,0.44586182,-0.57592773,0.7741089,-0.15625,0.005859375,0.12988281,75.99865,11.435679,-126.58424,9.411745,0.0,0.0,0.0,0.0,0.0,0.0,0.0,13.27171,-126.17634,-10.495659,0.0,0.0,0.0,0.0,0.0,0.0,0.0,4.3315473,44.716423,-2.70203,
0.7968749762512747,34,0.09112549,-0.98101807,0.2755127,0.18066406,0.3310547,-0.3046875,0.0,0.0,0.0,0.0,0.0,0.0,0.0,0.0,0.0,0.0,0.0,-0.14449176,-0.041034512,-0.9888132,0.018432617,-0.803772,-0.011291504,1.0634766,0.2861328,0.09472656,20.125595,-2.9914289,-0.84954154,-20.4715,-0.7085571,-0.11694336,-0.3189087,-0.2529297,-0.8955078,0.17480469,46.442974,-21.351751,-51.939987,-3.086319,-0.5270386,0.7522583,0.82403564,0.609375,0.60546875,-0.42285156,95.8425,1.3362865,-119.56759,-12.959663,0.0,0.0,0.0,0.0,0.0,0.0,0.0,10.463125,-123.42242,-30.339218,0.0,0.0,0.0,0.0,0.0,0.0,0.0,0.14449176,0.041034512,0.9888132,-0.009216309,-0.9519043,-0.08282471,-0.53125,0.4169922,0.16308594,7.767106,2.9914289,0.84954154,20.4715,-0.9256592,0.10626221,-0.10491943,0.09472656,0.09863281,0.20703125,12.341829,0.8405256,-55.99014,16.71164,0.4555664,-0.53149414,0.7702637,-0.099609375,-0.051757812,0.091796875,76.40478,12.276057,-126.67105,9.027443,0.0,0.0,0.0,0.0,0.0,0.0,0.0,14.112764,-126.246376,-10.882854,0.0,0.0,0.0,0.0,0.0,0.0,0.0,4.3931684,44.722427,-2.4978828,
0.8203124755527827,35,-0.004272461,-0.82141113,0.2705078,0.20410156,0.21582031,-0.30664062,0.0,0.0,0.0,0.0,0.0,0.0,0.0,0.0,0.0,0.0,0.0,-0.15142477,-0.03245079,-0.9880311,0.118896484,-0.8859253,-0.10620117,0.8154297,0.034179688,0.22949219,21.366453,-3.1349616,-0.6718321,-20.455307,-0.7185669,-0.04168701,-0.28808594,-0.67578125,-1.5292969,0.7138672,45.607388,-22.38614,-51.31165,-2.8200665,-0.44360352,0.94262695,0.91345215,1.1816406,0.6982422,-0.71972656,96.325615,-1.4785786,-119.68382,-11.43605,0.0,0.0,0.0,0.0,0.0,0.0,0.0,7.810768,-123.502686,-28.735443,0.0,0.0,0.0,0.0,0.0,0.0,0.0,0.15142477,0.03245079,0.9880311,-0.10839844,-1.0128174,-0.10845947,-0.6826172,0.6542969,0.1640625,7.6620874,3.1349616,0.6718321,20.455307,-0.9536133,0.06109619,-0.05718994,0.35546875,0.20996094,0.22167969,11.799342,1.394034,-56.165974,16.580696,0.41656494,-0.6222534,0.74664307,-0.080078125,0.06347656,0.12890625,78.338425,12.599822,-126.84134,8.528389,0.0,0.0,0.0,0.0,0.0,0.0,0.0,14.565542,-126.372375,-11.364649,0.0,0.0,0.0,0.0,0.0,0.0,0.0,4.389704,44.738373,-2.1421447,
0.8437499748542908,36,-0.012817383,-0.8956299,0.27301025,0.14648438,0.21582031,-0.23144531,0.0,0.0,0.0,0.0,0.0,0.0,0.0,0.0,0.0,0.0,0.0,-0.15724689,-0.0274011,-0.9872951,0.18273926,-0.8811035,-0.059753418,0.7207031,0.14746094,0.24804688,22.231739,-3.2554982,-0.5672878,-20.44007,-0.8578491,-0.24328613,-0.28851318,-1.0341797,-1.9326172,1.2177734,43.52964,-23.198088,-50.885117,-2.655033,0.1184082,0.91571045,1.0722046,1.4160156,1.1396484,-1.3896484,96.616714,-5.428694,-120.30279,-9.846838,0.0,0.0,0.0,0.0,0.0,0.0,0.0,3.95813,-124.080605,-27.104294,0.0,0.0,0.0,0.0,0.0,0.0,0.0,0.15724689,0.0274011,0.9872951,-0.1038208,-0.97473145,-0.07556152,-0.66308594,0.6357422,0.10839844,7.841649,3.2554982,0.5672878,20.44007,-0.94573975,0.113220215,-0.10443115,0.24316406,0.20996094,0.29882812,11.339703,1.9778531,-56.268097,16.37233,0.4463501,-0.5321045,0.7625122,-0.080078125,0.06347656,0.12890625,79.95398,13.151854,-126.91515,7.997982,0.0,0.0,0.0,0.0,0.0,0.0,0.0,15.207378,-126.427635,-11.889784,0.0,0.0,0.0,0.0,0.0,0.0,0.0,4.375266,44.749992,-1.9388285,
0.8671874741557989,37,0.03729248,-0.8956299,0.21691895,-0.0048828125,0.15722656,-0.17480469,0.0,0.0,0.0,0.0,0.0,0.0,0.0,0.0,0.0,0.0,0.0,-0.16403505,-0.025395527,-0.98619974,0.19543457,-0.92736816,0.014526367,0.77734375,0.5107422,0.28515625,22.908077,-3.3960345,-0.52576613,-20.41739,-0.9569092,-0.29351807,-0.21234131,-0.29296875,-2.3466797,1.6474609,40.729916,-23.98159,-50.494926,-2.342947,0.19451904,0.8373413,1.0275269,1.1855469,1.3564453,-2.0205078,96.751045,-10.083931,-120.96914,-7.4257364,0.0,0.0,0.0,0.0,0.0,0.0,0.0,-0.7723713,-124.570435,-24.761734,0.0,0.0,0.0,0.0,0.0,0.0,0.0,0.16403505,0.025395527,0.98619974,-0.13793945,-0.9762573,-0.036499023,-0.7011719,0.3984375,0.0146484375,8.157549,3.3960345,0.52576613,20.41739,-0.9603882,0.0501709,-0.085876465,0.018554688,0.22851562,0.22753906,11.074161,2.5169969,-56.298717,16.29575,0.4180298,-0.567749,0.7977295,-0.061523438,0.08300781,0.11035156,80.87528,13.782141,-126.890076,7.6272297,0.0,0.0,0.0,0.0,0.0,0.0,0.0,15.869593,-126.394104,-12.258272,0.0,0.0,0.0,0.0,0.0,0.0,0.0,4.489169,44.738464,-1.898741,
0.890624973457307,38,0.14581299,-0.90496826,0.23461914,-0.041015625,0.061523438,-0.17578125,0.0,0.0,0.0,0.0,0.0,0.0,0.0,0.0,0.0,0.0,0.0,-0.1752412,-0.022231266,-0.98443407,0.1350708,-0.9119873,0.14245605,0.796875,0.6064453,0.24609375,23.61596,-3.6280344,-0.46025622,-20.380836,-1.0198975,-0.17938232,-0.23565674,0.15429688,-2.46875,1.9853516,37.5752,-24.815414,-49.99468,-1.7707443,0.53552246,0.87158203,0.961853,0.8935547,1.3037109,-2.3164062,97.5425,-15.656428,-121.359406,-4.8028083,0.0,0.0,0.0,0.0,0.0,0.0,0.0,-6.59068,-124.70568,-22.320856,0.0,0.0,0.0,0.0,0.0,0.0,0.0,0.1752412,0.022231266,0.98443407,-0.05987549,-0.98950195,-0.05078125,-0.8144531,0.14550781,-0.0234375,8.802924,3.6280344,0.46025622,20.380836,-0.9573364,0.04724121,-0.08898926,0.12988281,0.32128906,0.3388672,10.528484,3.2974803,-56.367237,16.105946,0.43463135,-0.52423096,0.7827759,-0.0048828125,0.08300781,0.0546875,82.35897,14.52585,-126.93576,7.1987343,0.0,0.0,0.0,0.0,0.0,0.0,0.0,16.68328,-126.442566,-12.677744,0.0,0.0,0.0,0.0,0.0,0.0,0.0,4.7662344,44.71539,-1.8582456,
0.914062472758815,39,0.10772705,-0.87683105,0.20324707,-0.2529297,0.061523438,-0.19140625,0.0,0.0,0.0,0.0,0.0,0.0,0.0,0.0,0.0,0.0,0.0,-0.18602714,-0.022447404,-0.9824113,0.012573242,-0.9425049,0.26940918,0.8730469,0.43652344,0.18945312,24.433851,-3.851338,-0.46473092,-20.338959,-0.97039795,-0.09844971,-0.087524414,0.5126953,-2.4736328,2.15625,34.576645,-25.799694,-49.359764,-0.9182396,0.7751465,0.78125,0.8619385,0.3935547,1.2910156,-2.5195312,98.27134,-21.826689,-121.250694,-1.9192748,0.0,0.0,0.0,0.0,0.0,0.0,0.0,-13.171353,-124.2428,-19.706835,0.0,0.0,0.0,0.0,0.0,0.0,0.0,0.18602714,0.022447404,0.9824113,-0.028259277,-0.95166016,-0.05291748,-0.984375,0.091796875,-0.059570312,9.864819,3.851338,0.46473092,20.338959,-0.9651489,0.09484863,9.765625E-4,0.07324219,0.39648438,0.3955078,9.932463,4.2392263,-56.357178,15.926771,0.41357422,-0.58721924,0.7857666,-0.041992188,0.140625,0.037109375,84.375015,15.476485,-126.85841,6.5205555,0.0,0.0,0.0,0.0,0.0,0.0,0.0,17.691246,-126.33719,-13.348131,0.0,0.0,0.0,0.0,0.0,0.0,0.0,5.1541023,44.664738,-1.9965266,
0.9374999720603231,40,0.1404419,-0.94189453,0.21569824,-0.2548828,0.119140625,-0.24707031,0.0,0.0,0.0,0.0,0.0,0.0,0.0,0.0,0.0,0.0,0.0,-0.19981393,-0.022688273,-0.9796924,-0.06121826,-0.86120605,0.30041504,0.74121094,0.24414062,0.07519531,25.32157,-4.1367674,-0.4697175,-20.282671,-0.989624,-0.051452637,-0.12670898,0.5527344,-2.3779297,2.1757812,31.850815,-26.836315,-48.582264,0.18982124,0.6397705,0.62194824,0.7271118,-0.115234375,0.81640625,-2.2919922,98.79336,-28.125422,-120.575836,1.1545035,0.0,0.0,0.0,0.0,0.0,0.0,0.0,-20.015541,-123.13116,-16.953508,0.0,0.0,0.0,0.0,0.0,0.0,0.0,0.19981393,0.022688273,0.9796924,-0.024108887,-1.0219727,-2.4414062E-4,-1.2675781,-0.05078125,-0.022460938,11.299023,4.1367674,0.4697175,20.282671,-0.9347534,0.079833984,-0.051452637,0.016601562,0.45214844,0.4345703,9.239142,5.4235973,-56.319416,15.690386,0.41204834,-0.5784302,0.74017334,-0.00390625,0.21777344,0.037109375,86.36171,16.734795,-126.74066,5.736638,0.0,0.0,0.0,0.0,0.0,0.0,0.0,19.04212,-126.1877,-14.121467,0.0,0.0,0.0,0.0,0.0,0.0,0.0,5.6650724,44.593727,-2.188151,
0.9609374713618312,41,0.16101074,-1.0081177,0.16809082,-0.25878906,0.21484375,-0.26464844,0.0,0.0,0.0,0.0,0.0,0.0,0.0,0.0,0.0,0.0,0.0,-0.21969903,-0.023669258,-0.9752699,-0.15625,-0.78430176,0.29571533,0.36328125,0.23925781,0.11328125,25.260033,-4.5484505,-0.490027,-20.19111,-0.9758301,-0.023925781,-0.11767578,0.74316406,-2.3222656,2.2148438,28.728596,-27.638649,-48.220688,0.74373436,0.7003784,0.5699463,0.673645,-0.5517578,0.032226562,-1.6728516,98.398285,-33.79471,-119.91511,3.5484667,0.0,0.0,0.0,0.0,0.0,0.0,0.0,-26.30165,-122.151405,-14.864493,0.0,0.0,0.0,0.0,0.0,0.0,0.0,0.21969903,0.023669258,0.9752699,-0.04840088,-1.0311279,-0.042419434,-1.2675781,-0.033203125,-0.059570312,13.077789,4.5484505,0.490027,20.19111,-0.90960693,0.10723877,-0.10723877,-0.0029296875,0.5449219,0.54785156,8.678196,6.8252726,-56.246147,15.297164,0.4128418,-0.5755615,0.7977905,0.034179688,0.29589844,-0.017578125,87.817924,18.520908,-126.5186,4.787098,0.0,0.0,0.0,0.0,0.0,0.0,0.0,20.823338,-125.90932,-15.069952,0.0,0.0,0.0,0.0,0.0,0.0,0.0,6.24133,44.495216,-2.485859,
0.9843749706633392,42,0.18133545,-0.97106934,0.15447998,-0.28027344,0.2919922,-0.2265625,0.0,0.0,0.0,0.0,0.0,0.0,0.0,0.0,0.0,0.0,0.0,-0.2422584,-0.025385655,-0.96994054,-0.15716553,-0.8474121,0.43859863,0.26757812,0.54296875,0.20800781,25.133772,-5.0154996,-0.52556187,-20.080776,-0.98065186,0.099487305,-0.09844971,0.7871094,-2.1298828,2.1982422,25.846058,-28.259483,-47.843685,1.4940681,0.85284424,0.4482422,0.6113281,-0.58496094,-0.5810547,-1.2773438,98.28874,-39.147068,-118.88893,5.9999876,0.0,0.0,0.0,0.0,0.0,0.0,0.0,-32.317562,-121.01483,-12.682666,0.0,0.0,0.0,0.0,0.0,0.0,0.0,0.2422584,0.025385655,0.96994054,-0.10284424,-1.0337524,-0.25891113,-1.0214844,0.16601562,0.0146484375,15.047878,5.0154996,0.52556187,20.080776,-0.94433594,0.103149414,-0.16503906,0.08984375,0.6376953,0.63964844,8.381924,8.241726,-56.12211,14.656519,0.4389038,-0.5206909,0.7976074,0.07128906,0.2763672,-0.055664062,88.698044,20.81406,-126.17683,3.7191868,0.0,0.0,0.0,0.0,0.0,0.0,0.0,23.117733,-125.50638,-16.135988,0.0,0.0,0.0,0.0,0.0,0.0,0.0,6.8174734,44.390938,-2.8645916,
1.0078124699648474,43,0.21173096,-0.9202881,0.12921143,-0.28222656,0.34960938,-0.24414062,0.0,0.0,0.0,0.0,0.0,0.0,0.0,0.0,0.0,0.0,0.0,-0.26593563,-0.027027406,-0.9636952,-0.16033936,-0.89575195,0.40826416,0.39941406,0.46875,0.22753906,25.232944,-5.505692,-0.5595513,-19.95148,-0.88531494,0.16534424,-0.06732178,0.36035156,-1.8935547,1.9550781,23.452885,-28.968105,-47.397194,2.456396,1.057312,0.38879395,0.5476074,-0.21191406,-0.88964844,-1.2558594,98.662125,-44.367558,-117.463486,8.6150055,0.0,0.0,0.0,0.0,0.0,0.0,0.0,-38.191387,-119.741974,-10.277006,0.0,0.0,0.0,0.0,0.0,0.0,0.0,0.26593563,0.027027406,0.9636952,-0.053833008,-0.9588623,-0.42999268,-0.7011719,0.32714844,0.0703125,16.991652,5.505692,0.5595513,19.95148,-0.9403076,0.17773438,-0.28240967,0.08984375,0.65625,0.6591797,8.398751,9.739464,-55.978626,14.077703,0.3869629,-0.50305176,0.8249512,0.07128906,0.21777344,-0.018554688,88.45689,23.699844,-125.72363,2.8552742,0.0,0.0,0.0,0.0,0.0,0.0,0.0,25.916231,-125.02963,-17.00841,0.0,0.0,0.0,0.0,0.0,0.0,0.0,7.3432684,44.280025,-3.2682645,
1.0312499692663555,44,0.22485352,-0.9047241,0.11846924,-0.24707031,0.4453125,-0.24316406,0.0,0.0,0.0,0.0,0.0,0.0,0.0,0.0,0.0,0.0,0.0,-0.29129204,-0.02763611,-0.9562501,-0.175354,-0.8470459,0.41278076,0.28710938,0.35253906,0.16992188,25.368624,-6.0306497,-0.5721531,-19.79734,-0.8755493,0.059631348,-0.028442383,0.05078125,-1.5996094,1.6005859,21.810953,-29.724068,-46.912117,3.3865318,1.3505859,0.23791504,0.6575928,0.4140625,-0.37890625,-1.3720703,97.80397,-48.73706,-115.96668,10.917864,0.0,0.0,0.0,0.0,0.0,0.0,0.0,-43.110477,-118.44936,-8.118774,0.0,0.0,0.0,0.0,0.0,0.0,0.0,0.29129204,0.02763611,0.9562501,0.03289795,-0.9211426,-0.44091797,-0.6826172,0.27246094,0.087890625,18.843634,6.0306497,0.5721531,19.79734,-0.94189453,0.15783691,-0.3302002,-0.022460938,0.65625,0.64160156,8.5841675,11.390144,-55.851074,13.707646,0.42010498,-0.48480225,0.86499023,0.033203125,0.083984375,-0.07519531,87.14125,27.096783,-125.23137,2.4929323,0.0,0.0,0.0,0.0,0.0,0.0,0.0,29.124657,-124.54589,-17.386093,0.0,0.0,0.0,0.0,0.0,0.0,0.0,7.821043,44.164497,-3.6588156,
1.0546874685678636,45,0.22271729,-0.9342041,0.13897705,-0.34472656,0.5029297,-0.20507812,0.0,0.0,0.0,0.0,0.0,0.0,0.0,0.0,0.0,0.0,0.0,-0.31779873,-0.028200135,-0.94788945,-0.086364746,-0.8775635,0.4697876,0.34375,0.27734375,0.11328125,25.515957,-6.5794177,-0.58383024,-19.62425,-0.8300781,9.765625E-4,0.023620605,0.23632812,-1.2724609,1.1708984,20.735386,-30.48632,-46.416435,4.363117,1.329895,0.4244995,0.496521,-0.028320312,0.90625,-1.7197266,96.69308,-52.313118,-114.47975,13.146681,0.0,0.0,0.0,0.0,0.0,0.0,0.0,-47.10618,-116.78649,-6.030758,0.0,0.0,0.0,0.0,0.0,0.0,0.0,0.31779873,0.028200135,0.94788945,0.009338379,-0.960083,-0.4290161,-0.79589844,0.20019531,0.051757812,20.685915,6.5794177,0.58383024,19.62425,-0.94854736,0.14190674,-0.37982178,-0.041015625,0.65625,0.60546875,8.692444,13.096605,-55.703968,13.393312,0.4477539,-0.48101807,0.89312744,-0.08105469,-0.0703125,-0.01953125,86.09894,30.496866,-124.704834,2.3639183,0.0,0.0,0.0,0.0,0.0,0.0,0.0,32.39236,-124.061325,-17.531443,0.0,0.0,0.0,0.0,0.0,0.0,0.0,8.270094,44.051235,-4.083256,
1.0781249678693716,46,0.18933105,-0.9810791,0.16821289,-0.3076172,0.5605469,-0.16796875,0.0,0.0,0.0,0.0,0.0,0.0,0.0,0.0,0.0,0.0,0.0,-0.34280193,-0.029585563,-0.93902564,-0.04309082,-0.9904785,0.4216919,0.42089844,0.48828125,0.0546875,25.629623,-7.097063,-0.612513,-19.440742,-0.89434814,-0.024658203,0.05078125,0.15332031,-0.9423828,0.9482422,20.0737,-31.144527,-45.99024,5.295618,0.95977783,-0.12750244,0.40289307,-0.48632812,1.2685547,-1.0585938,96.32132,-55.05638,-113.20433,15.137157,0.0,0.0,0.0,0.0,0.0,0.0,0.0,-49.9358,-115.02989,-4.054344,0.0,0.0,0.0,0.0,0.0,0.0,0.0,0.34280193,0.029585563,0.93902564,0.029846191,-1.0063477,-0.33691406,-0.79589844,0.20019531,0.013671875,22.250694,7.097063,0.612513,19.440742,-1.0099487,0.101989746,-0.25689697,-0.11621094,0.6933594,0.6064453,8.767999,14.55798,-55.54309,13.077221,0.46759033,-0.48608398,0.87268066,-0.10058594,-0.4169922,-0.07714844,85.79103,33.29533,-124.21065,2.1385822,0.0,0.0,0.0,0.0,0.0,0.0,0.0,35.158485,-123.663345,-17.764505,0.0,0.0,0.0,0.0,0.0,0.0,0.0,8.609782,43.939644,-4.5274906,
1.1015624671708797,47,0.175354,-1.093689,0.10949707,-0.27148438,0.6171875,-0.12988281,0.0,0.0,0.0,0.0,0.0,0.0,0.0,0.0,0.0,0.0,0.0,-0.3631381,-0.03160081,-0.9312347,0.016113281,-0.96173096,0.38275146,0.3076172,0.75390625,0.015625,25.8919,-7.518085,-0.6542349,-19.279446,-0.8518677,0.010559082,-0.03643799,0.37597656,-0.55859375,0.74609375,19.934734,-31.64085,-45.597767,6.172741,1.1119995,7.9345703E-4,0.25323486,-0.0048828125,1.1640625,-0.46679688,97.70636,-57.113617,-112.14197,16.628231,0.0,0.0,0.0,0.0,0.0,0.0,0.0,-51.703777,-114.13671,-2.4146175,0.0,0.0,0.0,0.0,0.0,0.0,0.0,0.3631381,0.03160081,0.9312347,-0.092163086,-1.1384888,-0.2244873,-0.8144531,0.12597656,-0.07910156,23.41688,7.518085,0.6542349,19.279446,-1.0358887,0.05621338,-0.39971924,-0.09863281,0.8046875,0.75683594,9.261937,15.679956,-55.378136,12.692207,-0.22064209,-0.95635986,0.94329834,-0.043945312,-0.94140625,0.28808594,85.81106,35.887207,-123.57544,1.4718971,0.0,0.0,0.0,0.0,0.0,0.0,0.0,37.74888,-123.299736,-18.40812,0.0,0.0,0.0,0.0,0.0,0.0,0.0,8.765587,43.86595,-4.9067316,
1.1249999664723878,48,0.18249512,-1.2166748,0.07928467,-0.23242188,0.6171875,-0.09375,0.0,0.0,0.0,0.0,0.0,0.0,0.0,0.0,0.0,0.0,0.0,-0.37916702,-0.03434541,-0.924759,-0.072387695,-0.98114014,0.38708496,0.04296875,0.9609375,0.0146484375,25.89524,-7.8499327,-0.7110565,-19.145378,-0.87506104,0.17480469,-0.050476074,0.16503906,-0.16894531,0.2783203,20.02058,-31.759579,-45.48539,6.807232,1.1395264,0.005065918,0.15924072,-0.13476562,1.0664062,0.034179688,98.2527,-58.047253,-111.67979,17.47261,0.0,0.0,0.0,0.0,0.0,0.0,0.0,-52.45961,-113.377716,-1.6307449,0.0,0.0,0.0,0.0,0.0,0.0,0.0,0.37916702,0.03434541,0.924759,0.009460449,-1.2634277,-0.24310303,-0.6816406,0.26953125,-0.13476562,24.651941,7.8499327,0.7110565,19.145378,-1.2527466,0.061401367,-0.10632324,0.12695312,0.8232422,0.9394531,9.290539,17.016674,-55.13542,12.3289585,0.33032227,-0.67401123,0.9234009,-0.06542969,-1.3994141,-0.41601562,85.60052,38.546684,-122.924736,1.0393152,0.0,0.0,0.0,0.0,0.0,0.0,0.0,40.596428,-123.16135,-18.843853,0.0,0.0,0.0,0.0,0.0,0.0,0.0,8.780067,43.82736,-5.22772,
1.1484374657738958,49,0.18096924,-1.2858887,0.06311035,-0.13085938,0.48339844,-0.0029296875,0.0,0.0,0.0,0.0,0.0,0.0,0.0,0.0,0.0,0.0,0.0,-0.39121747,-0.038328387,-0.9196085,-0.1449585,-0.9898071,0.4960327,0.09863281,0.5986328,0.0546875,26.007586,-8.099415,-0.79351646,-19.038746,-0.8668823,-0.049682617,-0.10070801,-0.4765625,0.36035156,-0.28125,20.73308,-31.741337,-45.4006,7.435652,1.4716797,-0.1383667,0.2010498,-0.37402344,1.1601562,0.5683594,98.47988,-57.986095,-111.6485,17.85919,0.0,0.0,0.0,0.0,0.0,0.0,0.0,-52.07604,-112.96629,-1.1975403,0.0,0.0,0.0,0.0,0.0,0.0,0.0,0.39121747,0.038328387,0.9196085,-0.09967041,-1.182373,-0.109191895,-0.7763672,0.27246094,0.033203125,25.613796,8.099415,0.79351646,19.038746,-1.140564,0.115234375,-0.19348145,0.0126953125,0.9355469,0.8671875,10.16053,18.140163,-54.880722,12.023856,0.477417,-0.5557251,0.9255371,-0.3125,-1.78125,-0.6738281,85.76511,41.69986,-121.89204,0.1721611,0.0,0.0,0.0,0.0,0.0,0.0,0.0,43.92416,-122.79815,-19.682016,0.0,0.0,0.0,0.0,0.0,0.0,0.0,8.680416,43.813206,-5.5188913,
1.171874965075404,50,0.24963379,-1.2106323,-0.012207031,0.030273438,0.29101562,0.030273438,0.0,0.0,0.0,0.0,0.0,0.0,0.0,0.0,0.0,0.0,0.0,-0.40002456,-0.039345846,-0.91585654,-0.103637695,-1.0177002,0.5354004,0.4970703,0.27929688,-0.020507812,26.42989,-8.281749,-0.8145812,-18.96107,-0.7451172,-0.33966064,-0.2876587,-0.26757812,0.8232422,-0.8417969,22.27961,-31.95454,-45.18666,7.8822784,1.2071533,-0.18792725,0.057556152,-0.3466797,1.3105469,0.8066406,98.50811,-56.713413,-112.104,17.41388,0.0,0.0,0.0,0.0,0.0,0.0,0.0,-50.305176,-112.9204,-1.5161629,0.0,0.0,0.0,0.0,0.0,0.0,0.0,0.40002456,0.039345846,0.91585654,-0.0993042,-1.2348022,-0.06719971,-0.8144531,0.4560547,0.12695312,26.59974,8.281749,0.8145812,18.96107,-1.1114502,0.017944336,-0.05822754,0.048828125,1.1035156,0.90527344,10.7858,19.330616,-54.620407,11.568635,0.44421387,-0.5854492,0.9678955,-0.4658203,-2.2226562,-0.95214844,85.18127,44.912045,-120.84016,-0.53448296,0.0,0.0,0.0,0.0,0.0,0.0,0.0,47.290817,-122.55598,-20.317741,0.0,0.0,0.0,0.0,0.0,0.0,0.0,8.53323,43.834232,-5.6102643,
1.195312464376912,51,0.2541504,-1.2277222,-0.15209961,0.53515625,0.23339844,0.17285156,0.0,0.0,0.0,0.0,0.0,0.0,0.0,0.0,0.0,0.0,0.0,-0.40359282,-0.03672906,-0.9142836,-0.076660156,-0.6191406,0.15820312,-0.3857422,-0.26464844,-0.59472656,27.30234,-8.355621,-0.7604054,-18.928503,-0.5770874,-0.35272217,-0.43371582,0.061523438,1.0126953,-0.9140625,24.06692,-31.810614,-44.897423,8.489668,0.9483032,-0.028381348,0.05407715,0.049804688,0.5439453,0.8339844,100.55237,-54.703007,-112.62301,17.178497,0.0,0.0,0.0,0.0,0.0,0.0,0.0,-47.809128,-113.914894,-1.4086533,0.0,0.0,0.0,0.0,0.0,0.0,0.0,0.40359282,0.03672906,0.9142836,0.06512451,-1.2524414,0.05444336,-0.5878906,0.671875,0.18261719,26.992243,8.355621,0.7604054,18.928503,-1.1682129,-0.12994385,-0.08831787,-0.40234375,1.2519531,1.0263672,12.054715,20.148508,-54.470158,11.181989,0.43188477,-0.5949707,0.96313477,-0.67578125,-2.875,-1.1757812,84.22019,48.139816,-119.645065,-1.266325,0.0,0.0,0.0,0.0,0.0,0.0,0.0,50.761143,-122.41212,-20.904612,0.0,0.0,0.0,0.0,0.0,0.0,0.0,8.251005,43.908985,-5.4061804,
1.21874996367842,52,0.2243042,-1.2478638,0.3930664,0.73535156,0.6357422,0.34277344,0.0,0.0,0.0,0.0,0.0,0.0,0.0,0.0,0.0,0.0,0.0,-0.4083981,-0.033015124,-0.9123339,-0.40393066,-0.33135986,0.105895996,-1.6318359,-0.8330078,-0.88183594,26.64711,-8.455105,-0.6835153,-18.888142,-0.6208496,-0.029785156,0.94696045,1.2099609,0.15332031,-0.77246094,23.71202,-30.487461,-45.915234,7.919628,0.9483032,-0.028381348,0.05407715,0.049804688,0.5439453,0.8339844,100.97818,-51.38309,-114.34941,16.070051,0.0,0.0,0.0,0.0,0.0,0.0,0.0,-44.489212,-115.6413,-2.5170994,0.0,0.0,0.0,0.0,0.0,0.0,0.0,0.4083981,0.033015124,0.9123339,0.111206055,-1.2741699,0.24914551,-0.34277344,1.1621094,0.2763672,26.425716,8.455105,0.6835153,18.888142,-1.2223511,-0.3404541,0.047546387,-0.06738281,1.5498047,1.3027344,13.988985,20.736563,-54.409946,10.927986,0.4552002,-0.6514282,1.034668,-0.8671875,-3.7197266,-1.6044922,82.82373,51.512444,-118.24039,-1.9120979,0.0,0.0,0.0,0.0,0.0,0.0,0.0,54.477882,-122.32572,-21.269627,0.0,0.0,0.0,0.0,0.0,0.0,0.0,7.5207376,44.094048,-4.962245,
1.242187462979928,53,-0.62091064,-1.8131104,0.62786865,1.2314453,0.15820312,-0.001953125,0.0,0.0,0.0,0.0,0.0,0.0,0.0,0.0,0.0,0.0,0.0,-0.4253596,-0.020910397,-0.9050009,-0.49816895,-1.9851074,0.10083008,-0.5185547,-1.9267578,-0.6660156,27.59214,-8.806262,-0.43291003,-18.736322,-2.0,0.061340332,-0.5093384,-0.32617188,1.3251953,-1.0800781,23.78853,-30.286972,-46.03548,7.8864117,1.9776611,-2.0,0.85076904,0.038085938,-1.8535156,-0.26464844,105.78606,-51.833572,-114.37187,15.065841,0.0,0.0,0.0,0.0,0.0,0.0,0.0,-44.34299,-117.93773,-3.1218653,0.0,0.0,0.0,0.0,0.0,0.0,0.0,0.4253596,0.020910397,0.9050009,-0.13909912,-1.6963501,0.3737793,-0.078125,0.921875,0.18164062,24.869001,8.806262,0.43291003,18.736322,-1.5211792,-0.13793945,0.0064086914,0.90234375,1.9970703,1.4199219,16.955503,21.120327,-54.66124,10.845481,0.34246826,-0.8516846,0.9692993,-0.73828125,-5.0683594,-2.0566406,82.32324,55.220703,-116.731415,-2.2175922,0.0,0.0,0.0,0.0,0.0,0.0,0.0,58.79527,-122.52559,-21.030085,0.0,0.0,0.0,0.0,0.0,0.0,0.0,6.630952,44.324753,-4.140755,
1.2656249622814362,54,-0.36328125,-0.92633057,0.43225098,0.77246094,-1.0898438,0.30566406,0.0,0.0,0.0,0.0,0.0,0.0,0.0,0.0,0.0,0.0,0.0,-0.40545318,-0.012021743,-0.91391015,-0.035339355,-1.3979492,0.4598999,-1.3867188,-0.734375,-0.8046875,26.952059,-8.394137,-0.24888739,-18.920773,-0.67700195,-0.44677734,-0.1295166,0.7285156,1.3964844,-1.9082031,24.062185,-28.557796,-46.953445,6.8074417,1.5189209,0.84472656,1.2576904,-1.0332031,-0.8076172,1.5527344,105.554016,-46.61206,-116.37641,12.842369,0.0,0.0,0.0,0.0,0.0,0.0,0.0,-39.592987,-120.64388,-5.391842,0.0,0.0,0.0,0.0,0.0,0.0,0.0,0.40545318,0.012021743,0.91391015,-0.22027588,-1.6311035,0.6039429,1.0507812,0.5703125,0.6591797,23.23802,8.394137,0.24888739,18.920773,-1.6733398,-0.80029297,0.034484863,-1.6806641,1.7363281,1.3867188,20.945934,19.959259,-54.998074,10.942852,0.4421997,-0.9672241,0.9210205,-1.1972656,-6.348633,-3.2607422,79.45054,57.513947,-114.93876,-2.6041317,0.0,0.0,0.0,0.0,0.0,0.0,0.0,61.90883,-122.90091,-20.424883,0.0,0.0,0.0,0.0,0.0,0.0,0.0,6.2012897,44.440388,-3.3357584,
1.2890624615829442,55,0.1616211,-0.43249512,0.46862793,0.5175781,-0.97558594,0.27246094,0.0,0.0,0.0,0.0,0.0,0.0,0.0,0.0,0.0,0.0,0.0,-0.3809752,-0.0033141226,-0.9247797,-0.5453491,-0.28259277,-0.2793579,-0.7841797,-2.6171875,-0.60546875,26.982754,-7.887367,-0.06861256,-19.145807,-0.29968262,-0.1661377,-0.3334961,0.44921875,1.203125,-1.2128906,24.835781,-27.412071,-47.33299,6.046631,-0.042907715,0.40618896,0.64575195,0.65625,0.4248047,0.6699219,106.668365,-42.020287,-117.65256,11.30105,0.0,0.0,0.0,0.0,0.0,0.0,0.0,-34.82238,-121.89008,-6.8370113,0.0,0.0,0.0,0.0,0.0,0.0,0.0,0.3809752,0.0033141226,0.9247797,0.23187256,-1.1327515,0.59033203,3.9960938,0.68066406,-0.001953125,18.571287,7.887367,0.06861256,19.145807,-1.4746094,-1.4873047,0.21948242,0.79589844,1.7871094,2.2978516,28.202692,16.04016,-55.993355,12.798281,0.16699219,-1.0581665,1.0546265,-1.3164062,-8.074219,-4.5625,76.41676,56.994164,-113.37824,-1.8847361,0.0,0.0,0.0,0.0,0.0,0.0,0.0,62.403675,-123.99564,-17.962738,0.0,0.0,0.0,0.0,0.0,0.0,0.0,5.929251,44.540123,-2.6022506,
1.3124999608844523,56,0.39874268,-1.0700073,0.5673218,0.4189453,-0.8984375,0.31152344,0.0,0.0,0.0,0.0,0.0,0.0,0.0,0.0,0.0,0.0,0.0,-0.36266986,0.007481195,-0.9320652,0.24829102,-0.69873047,-0.7328491,-1.3681641,-2.9863281,-0.83496094,25.88745,-7.50839,0.15488401,-19.29664,-1.2869263,-0.06439209,-0.35601807,-1.0810547,1.2587891,-1.5351562,24.992205,-26.203524,-48.0221,4.4046993,1.3087158,0.2244873,0.6419678,-0.6279297,-0.055664062,0.06542969,104.695816,-37.46841,-119.035095,8.388981,0.0,0.0,0.0,0.0,0.0,0.0,0.0,-30.473804,-123.44845,-9.787121,0.0,0.0,0.0,0.0,0.0,0.0,0.0,0.36266986,-0.007481195,0.9320652,1.0951538,-1.060791,0.23602295,2.3574219,0.2705078,-0.77734375,15.555025,7.50839,-0.15488401,19.29664,-1.1656494,-0.2980957,0.059692383,3.8808594,2.4384766,2.6611328,34.31509,14.176527,-56.628017,15.297191,0.930603,-0.5482178,0.8312988,1.2890625,-10.394531,-5.876953,76.144936,58.82927,-110.82524,-0.64771557,0.0,0.0,0.0,0.0,0.0,0.0,0.0,65.830505,-124.31596,-13.561123,0.0,0.0,0.0,0.0,0.0,0.0,0.0,5.8150253,44.589546,-1.9047499,
1.3359374601859604,57,0.3914795,-0.9664917,0.5836792,0.40820312,-0.5908203,0.14746094,0.0,0.0,0.0,0.0,0.0,0.0,0.0,0.0,0.0,0.0,0.0,-0.34540695,0.011476859,-0.9385588,0.94403076,-1.2130737,-0.69158936,-1.40625,-1.078125,-0.7080078,24.619596,-7.150992,0.23760651,-19.431078,-0.9744873,-0.9281006,-0.38171387,-0.8652344,0.9472656,-1.2744141,24.930677,-24.446733,-49.03943,3.4304447,0.5689087,0.6204834,0.6948242,-0.5830078,0.09472656,0.26660156,99.44769,-33.143124,-120.46981,6.403166,0.0,0.0,0.0,0.0,0.0,0.0,0.0,-27.025032,-124.93655,-11.979652,0.0,0.0,0.0,0.0,0.0,0.0,0.0,0.34540695,-0.011476859,0.9385588,-0.039916992,-1.576294,-0.2975464,2.5078125,0.91015625,-0.33007812,12.029326,7.150992,-0.23760651,19.431078,-1.1467896,0.84680176,-0.85827637,6.814453,2.6689453,1.1191406,40.677296,11.369737,-57.06718,17.929907,1.9498291,-2.0,1.0252686,2.118164,-5.736328,-2.5888672,78.57658,59.31857,-108.53257,2.4770966,0.0,0.0,0.0,0.0,0.0,0.0,0.0,68.23996,-123.419655,-7.474189,0.0,0.0,0.0,0.0,0.0,0.0,0.0,5.6926546,44.61908,-1.5493919,
1.3593749594874684,58,-0.001953125,-0.7154541,0.5053711,0.35546875,-0.22558594,-0.10839844,0.0,0.0,0.0,0.0,0.0,0.0,0.0,0.0,0.0,0.0,0.0,-0.33033076,0.02411469,-0.94374204,0.30786133,-1.0304565,-0.32574463,-1.2587891,0.18164062,-0.34765625,24.304577,-6.8388705,0.4992489,-19.538387,-0.82647705,-0.47406006,-0.4331665,1.6318359,0.5878906,-0.087890625,24.985796,-22.58143,-49.5055,2.8639278,0.58288574,0.41082764,0.7382202,-0.39648438,0.018554688,0.08300781,97.925735,-28.919487,-121.06526,5.150812,0.0,0.0,0.0,0.0,0.0,0.0,0.0,-23.08989,-125.51373,-13.410429,0.0,0.0,0.0,0.0,0.0,0.0,0.0,0.33033076,-0.02411469,0.94374204,-0.5203247,-1.7438354,-0.87023926,2.4111328,1.5195312,0.54589844,8.419068,6.8388705,-0.4992489,19.538387,-1.2662354,1.5467529,-1.2849121,0.080078125,1.9208984,1.6572266,46.982086,8.153177,-57.48375,20.209814,1.4522095,0.18365479,1.2473145,0.2919922,-1.8173828,-1.4550781,77.01788,58.746376,-106.36937,4.812422,0.0,0.0,0.0,0.0,0.0,0.0,0.0,68.45157,-121.991234,-3.0554404,0.0,0.0,0.0,0.0,0.0,0.0,0.0,5.555568,44.65643,-0.80350256,
1.3828124587889765,59,-0.13824463,-0.8004761,0.47827148,0.07910156,-0.015625,-0.028320312,0.0,0.0,0.0,0.0,0.0,0.0,0.0,0.0,0.0,0.0,0.0,-0.31948087,0.025709897,-0.94724655,-0.07531738,-0.89312744,-0.30438232,-1.3212891,0.123046875,0.15039062,21.994417,-6.6142445,0.5322746,-19.610939,-1.0352173,0.19866943,-0.40704346,0.21289062,0.50878906,-0.56152344,23.083273,-20.401516,-50.67452,0.93499756,0.5727539,0.3725586,0.73223877,-0.26660156,-0.07714844,-0.0087890625,96.95706,-25.33962,-122.50046,2.6361957,0.0,0.0,0.0,0.0,0.0,0.0,0.0,-20.122372,-126.88105,-16.126654,0.0,0.0,0.0,0.0,0.0,0.0,0.0,0.31948087,-0.025709897,0.94724655,-0.14215088,-1.5977173,-0.8483887,2.3691406,1.1835938,1.3818359,5.065272,6.6142445,-0.5322746,19.610939,-1.1403809,0.45410156,-0.9279785,-5.3808594,0.87890625,1.2197266,53.284866,4.865167,-57.492004,21.119106,0.53479004,-1.3600464,1.0236816,-1.7050781,1.4638672,-0.08496094,71.886894,57.49144,-103.44555,3.684885,0.0,0.0,0.0,0.0,0.0,0.0,0.0,66.6907,-119.24907,-4.4222136,0.0,0.0,0.0,0.0,0.0,0.0,0.0,5.299712,44.68325,-0.57467043,
1.4062499580904846,60,-0.03930664,-1.0274048,0.46514893,0.08105469,-0.016601562,0.32421875,0.0,0.0,0.0,0.0,0.0,0.0,0.0,0.0,0.0,0.0,0.0,-0.3064902,0.020683482,-0.9517478,-0.10217285,-0.9388428,-0.25482178,-1.5478516,-0.12792969,0.16992188,18.89876,-6.345299,0.42821223,-19.704128,-0.92633057,-0.19458008,-0.4232788,-0.7470703,0.5595703,-0.9580078,21.416557,-18.195383,-52.228096,-1.572012,0.5640869,0.41986084,0.7553711,-0.020507812,-0.13671875,-0.026367188,92.65132,-20.709368,-124.138885,-1.018017,0.0,0.0,0.0,0.0,0.0,0.0,0.0,-16.06761,-128.49777,-19.934267,0.0,0.0,0.0,0.0,0.0,0.0,0.0,0.3064902,-0.020683482,0.9517478,-0.06762695,-1.3129883,-0.4389038,3.3134766,0.11328125,0.79785156,2.1769075,6.345299,-0.42821223,19.704128,-0.71484375,-0.5796509,-0.51135254,-2.1132812,0.022460938,0.6542969,59.051273,0.53268385,-57.06082,22.597666,-0.4650879,-0.37683105,1.0767822,-0.9873047,1.171875,-0.3154297,68.15448,53.74798,-101.63233,3.4291134,0.0,0.0,0.0,0.0,0.0,0.0,0.0,62.214096,-117.60417,-5.133808,0.0,0.0,0.0,0.0,0.0,0.0,0.0,4.8824377,44.734573,-0.60010946,
1.4296874573919927,61,0.008911133,-1.0250244,0.458313,0.10644531,-0.1328125,0.6191406,0.0,0.0,0.0,0.0,0.0,0.0,0.0,0.0,0.0,0.0,0.0,-0.3021491,0.012914637,-0.9532868,0.022644043,-0.95288086,-0.25164795,-1.7177734,-0.45410156,0.09472656,16.049486,-6.255423,0.2673731,-19.735994,-0.9685669,-0.3694458,-0.33868408,-0.30273438,0.3984375,-0.50683594,19.526867,-16.274162,-53.495583,-3.7241344,0.5762329,0.4439087,0.68444824,0.16894531,-0.17578125,-0.08105469,88.89195,-16.9663,-125.4797,-3.7007005,0.0,0.0,0.0,0.0,0.0,0.0,0.0,-12.936226,-129.92462,-22.736526,0.0,0.0,0.0,0.0,0.0,0.0,0.0,0.3021491,-0.012914637,0.9532868,-0.014465332,-1.2488403,-0.30975342,2.805664,0.13378906,0.5029297,5.45941,6.255423,-0.2673731,19.735994,-0.36151123,0.06414795,-0.678833,4.1210938,0.025390625,-0.515625,62.315464,-3.2993531,-56.27292,24.409174,0.06213379,-0.857666,1.0759277,-1.0771484,2.28125,1.0214844,68.06547,49.53646,-101.73767,6.3401165,0.0,0.0,0.0,0.0,0.0,0.0,0.0,57.35021,-117.64784,-2.9271355,0.0,0.0,0.0,0.0,0.0,0.0,0.0,4.429753,44.779236,-0.79738665,
1.4531249566935007,62,-0.09552002,-0.7056885,0.4335327,0.2109375,-0.36328125,0.7089844,0.0,0.0,0.0,0.0,0.0,0.0,0.0,0.0,0.0,0.0,0.0,-0.28385156,0.004481122,-0.9589432,0.028137207,-0.881958,-0.2640381,-1.9072266,-0.6279297,0.076171875,13.510823,-5.876607,0.092773065,-19.853096,-0.8562012,-0.19805908,-0.25878906,0.21875,0.16113281,-0.3017578,17.199657,-13.875755,-54.587093,-5.9316616,0.56243896,0.539978,0.66381836,0.1328125,-0.13769531,-0.026367188,85.73713,-13.041427,-126.578476,-5.974365,0.0,0.0,0.0,0.0,0.0,0.0,0.0,-9.633186,-131.17427,-25.091951,0.0,0.0,0.0,0.0,0.0,0.0,0.0,0.28385156,-0.004481122,0.9589432,0.02154541,-1.1057129,-0.31695557,2.203125,0.31835938,0.17089844,9.426377,5.876607,-0.092773065,19.853096,-0.39630127,0.88031006,-0.79956055,3.9042969,-0.92285156,-1.2460938,63.56254,-6.3880367,-55.3979,26.214527,0.03918457,-0.84295654,1.0061035,-1.2802734,3.930664,2.399414,70.19567,45.83912,-102.65636,11.224522,0.0,0.0,0.0,0.0,0.0,0.0,0.0,52.680393,-118.09436,0.49865723,0.0,0.0,0.0,0.0,0.0,0.0,0.0,3.6726727,44.84499,-0.877568,
1.4765624559950088,63,-0.11315918,-0.60791016,0.36224365,-0.091796875,-0.5546875,0.6357422,0.0,0.0,0.0,0.0,0.0,0.0,0.0,0.0,0.0,0.0,0.0,-0.26898715,-0.004753791,-0.96321887,0.15478516,-0.9473877,-0.28424072,-1.8876953,-0.6279297,0.038085938,11.066263,-5.5688677,-0.09841826,-19.941616,-1.0396729,-0.011169434,-0.16015625,-0.48242188,0.12988281,-0.39746094,14.700808,-11.379677,-55.471924,-7.7420845,0.5569458,0.5371094,0.6189575,-0.0146484375,0.015625,0.064453125,83.97456,-9.916493,-127.46,-7.7773676,0.0,0.0,0.0,0.0,0.0,0.0,0.0,-7.1403766,-132.16643,-26.972473,0.0,0.0,0.0,0.0,0.0,0.0,0.0,0.26898715,0.004753791,0.96321887,-0.039245605,-1.0645752,-0.42126465,2.0332031,-0.026367188,0.15136719,12.524071,5.5688677,0.09841826,19.941616,-0.44226074,0.7772217,-0.67163086,0.15332031,-2.2851562,-1.2099609,63.193203,-8.954193,-54.45983,27.819775,0.06518555,-0.93182373,0.8496094,-0.53808594,5.0791016,3.100586,74.05606,40.95656,-104.552376,14.232492,0.0,0.0,0.0,0.0,0.0,0.0,0.0,46.631462,-118.91079,1.5127611,0.0,0.0,0.0,0.0,0.0,0.0,0.0,3.2634149,44.870983,-1.1327893,
1.4999999552965169,64,-0.03338623,-0.68981934,0.34210205,-0.2607422,-0.6699219,0.7109375,0.0,0.0,0.0,0.0,0.0,0.0,0.0,0.0,0.0,0.0,0.0,-0.25035995,-0.01703019,-0.96809304,0.097839355,-0.921875,-0.22192383,-1.90625,-0.57128906,0.037109375,8.912729,-5.1832266,-0.3525777,-20.042528,-0.97314453,-0.21264648,-0.15692139,-0.54003906,0.12988281,-0.32226562,12.454476,-8.859938,-56.20815,-9.248444,0.56140137,0.54852295,0.6359253,-0.21875,0.16894531,0.11816406,81.61723,-6.7652674,-128.1921,-9.109067,0.0,0.0,0.0,0.0,0.0,0.0,0.0,-4.5244575,-132.90762,-28.378807,0.0,0.0,0.0,0.0,0.0,0.0,0.0,0.25035995,0.01703019,0.96809304,-0.13677979,-0.85369873,-0.46618652,1.9560547,-0.62402344,0.2607422,13.301278,5.1832266,0.3525777,20.042528,-0.4006958,0.31048584,-0.44726562,-0.92578125,-3.0673828,-1.5703125,60.534203,-10.035539,-53.748154,28.083853,0.04473877,-0.5187988,0.68359375,-0.4423828,5.290039,3.1933594,74.218575,37.12537,-106.852905,16.205723,0.0,0.0,0.0,0.0,0.0,0.0,0.0,41.036373,-119.971725,1.643631,0.0,0.0,0.0,0.0,0.0,0.0,0.0,3.0277882,44.874416,-1.572428,
1.523437454598025,65,0.068359375,-0.7862549,0.28546143,-0.32226562,-0.57421875,0.73046875,0.0,0.0,0.0,0.0,0.0,0.0,0.0,0.0,0.0,0.0,0.0,-0.23201427,-0.030714737,-0.9722579,0.031799316,-0.9260254,-0.21466064,-2.0205078,-0.6298828,0.13378906,6.9429436,-4.8034143,-0.6358903,-20.128752,-0.9574585,-0.19024658,-0.14202881,0.2734375,0.08300781,-0.2841797,10.069097,-6.4803896,-56.861267,-10.870969,0.5612793,0.53302,0.6647949,-0.4638672,0.24707031,0.17285156,79.26334,-3.54078,-128.80966,-10.238396,0.0,0.0,0.0,0.0,0.0,0.0,0.0,-1.9247835,-133.4175,-29.596117,0.0,0.0,0.0,0.0,0.0,0.0,0.0,0.23201427,0.030714737,0.9722579,-0.2208252,-0.61273193,-0.47644043,1.8046875,-1.5683594,0.20214844,14.436578,4.8034143,0.6358903,20.128752,-0.34606934,0.2531128,-0.46691895,1.0234375,-3.4189453,-2.2226562,56.663486,-11.669435,-53.29906,28.32451,0.48828125,-0.8378296,0.6734009,-0.36621094,5.6552734,3.3242188,76.44056,30.707066,-110.54087,17.711525,0.0,0.0,0.0,0.0,0.0,0.0,0.0,32.72546,-122.05925,1.5423641,0.0,0.0,0.0,0.0,0.0,0.0,0.0,2.8321707,44.863327,-2.0931373,
1.546874953899533,66,0.09625244,-0.81274414,0.25872803,-0.2890625,-0.43945312,0.6201172,0.0,0.0,0.0,0.0,0.0,0.0,0.0,0.0,0.0,0.0,0.0,-0.2162779,-0.044765346,-0.97540706,0.081726074,-0.88098145,-0.20056152,-2.0039062,-0.4580078,0.34375,5.6448293,-4.4776235,-0.9267815,-20.19395,-0.9682007,0.024475098,-0.052490234,0.5566406,0.041992188,-0.30273438,7.3605003,-4.1160555,-57.43423,-12.663446,0.5774536,0.49047852,0.68756104,-0.5175781,0.38085938,0.18945312,79.03809,-0.68544674,-129.34229,-11.4952345,0.0,0.0,0.0,0.0,0.0,0.0,0.0,0.46146166,-133.7125,-30.954155,0.0,0.0,0.0,0.0,0.0,0.0,0.0,0.2162779,0.044765346,0.97540706,-0.22277832,-0.5275879,-0.555603,1.3896484,-2.0214844,-0.0390625,16.498724,4.4776235,0.9267815,20.19395,-0.35375977,0.5220337,-0.55322266,1.0107422,-3.959961,-2.430664,52.74964,-13.993668,-52.317898,28.767187,0.48632812,-0.72039795,0.70721436,-0.17675781,5.5195312,3.2851562,81.60914,22.42833,-113.850586,20.196949,0.0,0.0,0.0,0.0,0.0,0.0,0.0,23.225153,-123.26744,2.5653534,0.0,0.0,0.0,0.0,0.0,0.0,0.0,2.6694489,44.847004,-2.6501086,
1.570312453201041,67,0.05822754,-0.7789917,0.25402832,-0.3310547,-0.34375,0.4921875,0.0,0.0,0.0,0.0,0.0,0.0,0.0,0.0,0.0,0.0,0.0,-0.20366079,-0.05707888,-0.97742534,0.15124512,-0.97320557,-0.18487549,-1.8359375,0.09667969,0.5527344,5.8416724,-4.216409,-1.1817098,-20.235733,-0.9491577,0.011962891,-0.039733887,0.18261719,0.16210938,-0.39648438,5.162701,-2.0016618,-57.820625,-14.184562,0.55548096,0.4593506,0.6846924,-0.44140625,0.38085938,0.17089844,79.625275,1.5690649,-129.7088,-12.779267,0.0,0.0,0.0,0.0,0.0,0.0,0.0,2.3445344,-133.77052,-32.33056,0.0,0.0,0.0,0.0,0.0,0.0,0.0,0.20366079,0.05707888,0.97742534,-0.09613037,-0.51135254,-0.5466919,1.2958984,-2.258789,-0.24414062,18.187918,4.216409,1.1817098,20.235733,-0.3768921,0.4342041,-0.59033203,-0.12792969,-4.4433594,-2.6953125,47.778725,-15.850517,-51.440823,29.061104,0.6548462,-0.95025635,0.7963257,-0.3671875,5.036133,3.5234375,83.274155,13.417362,-116.914566,22.548859,0.0,0.0,0.0,0.0,0.0,0.0,0.0,12.58272,-124.21414,3.9688702,0.0,0.0,0.0,0.0,0.0,0.0,0.0,2.5366454,44.82034,-3.1459284,
1.5937499525025491,68,-0.0038452148,-0.71881104,0.18249512,-0.37597656,-0.20898438,0.25195312,0.0,0.0,0.0,0.0,0.0,0.0,0.0,0.0,0.0,0.0,0.0,-0.19567281,-0.06701246,-0.9785509,0.06378174,-0.97247314,-0.15246582,-1.8740234,0.36328125,0.57128906,7.161632,-4.051034,-1.3873656,-20.259037,-0.9147949,-0.03338623,-0.088012695,0.18457031,0.23828125,-0.3955078,3.664686,-0.21619534,-58.0566,-15.470168,0.5563965,0.35650635,0.7583008,-0.30859375,0.34179688,0.13476562,79.68551,3.8510091,-129.92838,-13.998016,0.0,0.0,0.0,0.0,0.0,0.0,0.0,4.2857165,-133.67387,-33.62423,0.0,0.0,0.0,0.0,0.0,0.0,0.0,0.19567281,0.06701246,0.9785509,-0.026855469,-0.43725586,-0.48291016,1.0703125,-2.0761719,-0.3359375,19.522299,4.051034,1.3873656,20.259037,-0.4956665,0.34875488,-0.5440674,-0.50097656,-4.703125,-3.0644531,42.133854,-17.402454,-50.629894,29.40325,0.8942261,-1.0476074,0.91552734,-0.19824219,4.2783203,3.9228516,85.50308,3.6780777,-119.3443,25.017784,0.0,0.0,0.0,0.0,0.0,0.0,0.0,2.2488985,-124.18746,5.6596603,0.0,0.0,0.0,0.0,0.0,0.0,0.0,2.5904546,44.789783,-3.5852559,
1.6171874518040572,69,0.006652832,-0.7897949,0.13684082,-0.68847656,-0.13183594,0.08886719,0.0,0.0,0.0,0.0,0.0,0.0,0.0,0.0,0.0,0.0,0.0,-0.19152805,-0.07745592,-0.97852504,-0.06878662,-1.0046387,-0.047424316,-2.2910156,0.3203125,0.6855469,9.339741,-3.965224,-1.6035776,-20.258503,-0.9888916,0.06378174,-0.059265137,0.15234375,0.37402344,-0.5253906,2.414597,1.4742205,-58.23988,-17.075285,0.54901123,0.38464355,0.7514038,-0.13964844,0.28320312,0.04296875,80.13577,6.0500393,-130.06789,-15.734274,0.0,0.0,0.0,0.0,0.0,0.0,0.0,6.171241,-133.5468,-35.41448,0.0,0.0,0.0,0.0,0.0,0.0,0.0,0.19152805,0.07745592,0.97852504,0.072143555,-0.40704346,-0.2510376,0.63671875,-1.5078125,-0.2763672,20.120481,3.965224,1.6035776,20.258503,-0.68395996,0.32946777,-0.5045166,-0.6894531,-4.739258,-3.303711,35.931446,-18.458055,-49.966698,29.608757,0.92474365,-1.15448,0.97052,0.15917969,3.0390625,4.2617188,86.68514,-5.9375553,-120.83285,27.684727,0.0,0.0,0.0,0.0,0.0,0.0,0.0,-7.3407474,-123.217674,7.8688984,0.0,0.0,0.0,0.0,0.0,0.0,0.0,2.8585534,44.725967,-4.099828,
1.6406249511055653,70,0.07446289,-0.8921509,0.21105957,-1.0537109,-0.18847656,-0.018554688,0.0,0.0,0.0,0.0,0.0,0.0,0.0,0.0,0.0,0.0,0.0,-0.18938115,-0.09135106,-0.9777399,-0.011108398,-1.1661987,0.039489746,-2.5742188,0.41210938,0.6464844,13.388825,-3.9207764,-1.8912501,-20.242245,-0.94055176,0.070739746,0.05206299,0.10058594,0.5107422,-0.6376953,2.9060268,3.841774,-58.357903,-19.214231,0.5479126,0.42364502,0.739563,-0.025390625,0.28320312,0.005859375,80.68382,9.029209,-130.13931,-18.072348,0.0,0.0,0.0,0.0,0.0,0.0,0.0,8.817885,-133.42812,-37.78591,0.0,0.0,0.0,0.0,0.0,0.0,0.0,0.18938115,0.09135106,0.9777399,0.16363525,-0.3965454,-0.15856934,0.24121094,-0.5566406,-0.08496094,19.527737,3.9207764,1.8912501,20.242245,-0.85961914,0.21063232,-0.4345703,-0.7089844,-4.701172,-3.453125,29.68974,-18.9211,-49.46895,29.726711,1.0361328,-1.0716553,1.06073,0.23144531,1.6113281,4.0478516,85.75094,-14.47232,-121.32839,30.138405,0.0,0.0,0.0,0.0,0.0,0.0,0.0,-15.278061,-121.62951,10.149614,0.0,0.0,0.0,0.0,0.0,0.0,0.0,3.5538983,44.600117,-4.855391,
1.6640624504070733,71,0.14501953,-0.85375977,0.20245361,-0.8466797,-0.053710938,-0.11230469,0.0,0.0,0.0,0.0,0.0,0.0,0.0,0.0,0.0,0.0,0.0,-0.19345766,-0.10227421,-0.97583294,0.039245605,-1.069397,0.012145996,-2.1386719,0.8564453,0.56933594,17.2102,-4.0051746,-2.1173933,-20.202766,-0.9445801,0.05444336,0.1159668,-0.04296875,0.7050781,-0.8613281,4.5071087,5.75054,-58.263157,-20.856762,0.5406494,0.4578247,0.7266846,-0.0068359375,0.26367188,0.005859375,80.82664,11.769019,-129.97792,-19.758722,0.0,0.0,0.0,0.0,0.0,0.0,0.0,11.167277,-133.10437,-39.489582,0.0,0.0,0.0,0.0,0.0,0.0,0.0,0.19345766,0.10227421,0.97583294,0.012207031,-0.55389404,-0.016296387,0.27929688,0.26464844,0.25195312,18.734964,4.0051746,2.1173933,20.202766,-1.0324097,0.17297363,-0.28051758,-0.20703125,-4.383789,-3.609375,23.323656,-19.16486,-49.10387,29.62769,1.4234619,-1.1958008,1.0924072,0.34179688,0.43945312,3.375,84.589584,-23.00695,-120.96597,31.815758,0.0,0.0,0.0,0.0,0.0,0.0,0.0,-22.92005,-119.73936,11.847593,0.0,0.0,0.0,0.0,0.0,0.0,0.0,4.3349714,44.45257,-5.518347,
1.6874999497085814,72,0.047851562,-0.9420166,0.14971924,-0.8486328,-0.015625,-0.16796875,0.0,0.0,0.0,0.0,0.0,0.0,0.0,0.0,0.0,0.0,0.0,-0.20133236,-0.110834755,-0.9734357,0.06506348,-1.1412354,-0.20178223,-1.2285156,1.3447266,0.43359375,20.840385,-4.1682053,-2.2946231,-20.15314,-0.9741821,-0.076660156,0.15258789,0.0234375,0.9375,-1.1230469,5.6918874,7.445236,-58.070446,-22.14539,0.5635376,0.5593262,0.73065186,0.0068359375,0.12988281,-0.029296875,80.42002,15.00428,-129.65135,-20.982424,0.0,0.0,0.0,0.0,0.0,0.0,0.0,14.036664,-132.64972,-40.719597,0.0,0.0,0.0,0.0,0.0,0.0,0.0,0.20133236,0.110834755,0.9734357,-0.05480957,-0.7854004,0.2296753,0.39160156,0.4658203,0.43847656,18.106504,4.1682053,2.2946231,20.15314,-1.0917358,0.08227539,-0.28814697,-1.0166016,-4.102539,-3.7617188,16.671656,-19.538269,-48.724598,29.35682,1.9544678,-1.4923096,0.7192383,0.53222656,1.0585938,3.0820312,83.70787,-32.223263,-119.497635,33.325527,0.0,0.0,0.0,0.0,0.0,0.0,0.0,-31.277748,-117.09931,13.486923,0.0,0.0,0.0,0.0,0.0,0.0,0.0,5.1806316,44.28971,-6.11429,
1.7109374490100895,73,-0.06793213,-0.9798584,0.16625977,-0.5722656,-0.20703125,-0.17285156,0.0,0.0,0.0,0.0,0.0,0.0,0.0,0.0,0.0,0.0,0.0,-0.2002787,-0.11875759,-0.9725992,0.09893799,-0.9564209,-0.28997803,-0.7705078,0.53125,-0.041992188,22.659662,-4.1463895,-2.4586504,-20.135818,-0.98498535,-3.6621094E-4,0.04473877,0.19824219,1.0888672,-1.0634766,5.0838814,8.257763,-58.0606,-22.299631,0.5696411,0.4794922,0.74542236,-0.03125,0.072265625,0.119140625,80.37965,17.576197,-129.4395,-21.566265,0.0,0.0,0.0,0.0,0.0,0.0,0.0,16.235113,-132.3798,-41.29003,0.0,0.0,0.0,0.0,0.0,0.0,0.0,0.2002787,0.11875759,0.9725992,0.039123535,-1.1705322,0.9725342,1.6542969,-0.21972656,0.41210938,18.779411,4.1463895,2.4586504,20.135818,-1.0443115,-0.15435791,-0.5753174,-1.8984375,-3.6953125,-2.866211,11.861293,-20.949976,-47.876427,29.408535,1.9525757,-0.8253784,-0.16375732,0.36621094,3.1035156,3.2998047,80.11938,-41.515343,-116.69048,34.576607,0.0,0.0,0.0,0.0,0.0,0.0,0.0,-40.08342,-112.536354,15.05876,0.0,0.0,0.0,0.0,0.0,0.0,0.0,5.821795,44.13657,-6.588052,
1.7343749483115976,74,-0.044067383,-1.0354004,0.2121582,-0.26757812,-0.62890625,-0.068359375,0.0,0.0,0.0,0.0,0.0,0.0,0.0,0.0,0.0,0.0,0.0,-0.18506736,-0.12348936,-0.9750516,-0.11834717,-0.94140625,-0.27667236,-0.9560547,-0.27246094,-0.32714844,23.760286,-3.8314679,-2.5566125,-20.186592,-0.9691162,-0.045043945,-0.112854004,0.016601562,1.3222656,-1.1933594,3.793696,8.993253,-58.037926,-22.699644,0.56689453,0.38000488,0.8540039,0.07421875,-0.25390625,0.14160156,80.78083,20.23088,-129.14622,-23.236286,0.0,0.0,0.0,0.0,0.0,0.0,0.0,18.686462,-132.03528,-42.95958,0.0,0.0,0.0,0.0,0.0,0.0,0.0,0.18506736,0.12348936,0.9750516,0.1461792,-1.677185,1.3928833,0.23730469,-2.2265625,0.1875,19.500858,3.8314679,2.5566125,20.186592,-0.7393799,-0.79107666,0.28845215,0.90527344,-2.5458984,-1.3554688,8.279698,-22.401852,-47.299778,28.878193,1.968811,0.86120605,-0.77337646,-2.1914062,2.8574219,2.1621094,75.11221,-48.86919,-114.06416,34.219433,0.0,0.0,0.0,0.0,0.0,0.0,0.0,-47.672783,-108.000854,15.188576,0.0,0.0,0.0,0.0,0.0,0.0,0.0,6.20976,44.059223,-6.7586865,
1.7578124476131056,75,-0.062561035,-1.2182617,0.14123535,-0.30664062,-0.61035156,0.005859375,0.0,0.0,0.0,0.0,0.0,0.0,0.0,0.0,0.0,0.0,0.0,-0.17050678,-0.12639134,-0.97725606,-0.1270752,-1.078064,-0.31567383,-1.0136719,-0.6357422,-0.28710938,25.132395,-3.530019,-2.6166925,-20.232231,-1.2059937,-0.13238525,-0.17016602,0.15527344,1.4951172,-1.2480469,2.1971326,9.815514,-57.946495,-23.51353,0.6437378,0.477417,0.93530273,0.18847656,-0.9423828,0.27929688,80.37204,23.597116,-128.59445,-25.78729,0.0,0.0,0.0,0.0,0.0,0.0,0.0,22.017336,-131.76749,-45.471153,0.0,0.0,0.0,0.0,0.0,0.0,0.0,0.17050678,0.12639134,0.97725606,0.28375244,-1.211853,1.3356934,1.5996094,-1.0996094,-0.35253906,20.471092,3.530019,2.6166925,20.232231,-0.5675049,-0.03955078,0.74798584,2.6054688,-0.08691406,-0.19140625,6.8499694,-24.021135,-46.522636,28.933187,1.9675293,0.77197266,-0.77404785,-1.4394531,1.1650391,0.9433594,74.91287,-53.46675,-111.80374,35.354652,0.0,0.0,0.0,0.0,0.0,0.0,0.0,-52.83429,-104.44557,16.759552,0.0,0.0,0.0,0.0,0.0,0.0,0.0,6.6224365,43.982502,-6.843833,
1.7812499469146137,76,0.08477783,-1.4111328,0.09094238,-0.17773438,-0.4189453,0.0625,0.0,0.0,0.0,0.0,0.0,0.0,0.0,0.0,0.0,0.0,0.0,-0.16091704,-0.12963764,-0.9785925,-0.008972168,-1.2731934,-0.39971924,-0.9580078,-0.921875,-0.19042969,26.831394,-3.3314826,-2.6839013,-20.2599,-1.2803345,0.024475098,-0.088012695,0.32910156,1.6269531,-1.2080078,0.87982255,10.94435,-57.72128,-24.395447,0.7432251,0.74713135,1.0087891,-0.24121094,-2.0498047,0.73535156,79.199,27.494297,-127.686554,-28.506962,0.0,0.0,0.0,0.0,0.0,0.0,0.0,25.755852,-131.45334,-48.07502,0.0,0.0,0.0,0.0,0.0,0.0,0.0,0.16091704,0.12963764,0.9785925,0.059814453,-1.4177246,0.91259766,1.6015625,0.2998047,-0.4404297,22.315308,3.3314826,2.6839013,20.2599,-0.90722656,0.802063,0.109313965,2.3857422,1.5869141,1.1865234,10.534966,-26.082045,-45.176968,29.936625,1.9605713,0.34197998,-0.8331299,1.6777344,0.052734375,-2.1210938,79.22549,-53.80831,-111.28348,36.639435,0.0,0.0,0.0,0.0,0.0,0.0,0.0,-53.39907,-104.16819,17.94684,0.0,0.0,0.0,0.0,0.0,0.0,0.0,6.934637,43.92244,-6.9588747,
1.8046874462161218,77,0.1899414,-1.6159058,0.103515625,-0.041015625,-0.47558594,0.041992188,0.0,0.0,0.0,0.0,0.0,0.0,0.0,0.0,0.0,0.0,0.0,-0.15237129,-0.13003226,-0.9798801,0.041503906,-1.401123,-0.24176025,-0.59765625,-1.1455078,-0.28515625,27.95819,-3.1545563,-2.6920712,-20.286556,-1.3091431,0.17895508,-0.061767578,0.055664062,1.9199219,-1.46875,1.3814019,11.74057,-57.50604,-25.147581,0.47021484,0.47912598,1.0195923,-0.14941406,-3.0283203,1.3378906,77.492065,31.248089,-126.54407,-31.442333,0.0,0.0,0.0,0.0,0.0,0.0,0.0,29.3539,-131.26909,-50.788677,0.0,0.0,0.0,0.0,0.0,0.0,0.0,0.15237129,0.13003226,0.9798801,-0.42858887,-1.2258301,0.51031494,1.0136719,0.29589844,0.4169922,23.89017,3.1545563,2.6920712,20.286556,-1.1020508,0.7102661,-0.02935791,-1.4580078,2.1074219,1.9082031,15.868316,-27.73098,-44.138958,30.408749,1.9464722,-0.03869629,-1.5039673,0.7675781,0.061523438,-2.6289062,80.40781,-51.45302,-111.891266,36.067932,0.0,0.0,0.0,0.0,0.0,0.0,0.0,-51.63258,-105.776535,17.02062,0.0,0.0,0.0,0.0,0.0,0.0,0.0,7.1204224,43.895683,-6.93228,
1.8281249455176298,78,0.31115723,-1.4052124,0.19628906,-0.4892578,-0.19042969,0.6621094,0.0,0.0,0.0,0.0,0.0,0.0,0.0,0.0,0.0,0.0,0.0,-0.14041346,-0.13507444,-0.9808584,0.18377686,-1.9015503,-0.19122314,-0.2578125,-0.62597656,-0.24804688,28.45628,-2.906995,-2.7964594,-20.306808,-1.5396729,-0.04675293,0.0012817383,-0.7050781,2.390625,-1.6904297,4.367357,12.326223,-57.484028,-25.50139,0.41210938,0.56518555,1.1469116,-0.0107421875,-4.254883,1.7226562,74.7689,35.196194,-125.17648,-34.473705,0.0,0.0,0.0,0.0,0.0,0.0,0.0,33.29607,-131.30006,-53.424408,0.0,0.0,0.0,0.0,0.0,0.0,0.0,0.14041346,0.13507444,0.9808584,0.17028809,-1.9677734,1.3334961,1.7294922,-1.0761719,0.2421875,26.238567,2.906995,2.7964594,20.306808,-2.0,-0.69311523,-0.54467773,-3.7109375,1.8925781,-0.053710938,20.332796,-29.89139,-42.783203,30.134459,-1.050354,-0.5038452,-1.9636841,2.4980469,-2.7353516,-6.336914,75.37261,-50.871765,-111.50071,35.05192,0.0,0.0,0.0,0.0,0.0,0.0,0.0,-51.929016,-108.5776,15.2768,0.0,0.0,0.0,0.0,0.0,0.0,0.0,7.0644636,43.879654,-7.0539904,
1.851562444819138,79,0.49743652,-1.6812134,0.28430176,-0.22363281,-0.018554688,0.8652344,0.0,0.0,0.0,0.0,0.0,0.0,0.0,0.0,0.0,0.0,0.0,-0.13685054,-0.16179216,-0.9774594,0.16156006,-1.8671265,0.088134766,0.15917969,-0.44921875,-0.34472656,29.030083,-2.8332303,-3.349599,-20.236439,-1.8239746,0.45428467,0.17095947,0.7548828,2.5097656,-1.4228516,8.324778,12.499124,-58.02714,-25.226913,0.3753662,0.8720703,1.0859375,0.5107422,-5.7558594,2.7373047,72.51832,38.917877,-123.94197,-37.213856,0.0,0.0,0.0,0.0,0.0,0.0,0.0,37.28165,-132.00372,-55.450897,0.0,0.0,0.0,0.0,0.0,0.0,0.0,0.13685054,0.16179216,0.9774594,-0.36090088,-1.2403564,1.0999146,-3.9667969,-0.4560547,0.48828125,24.119364,2.8332303,3.349599,20.236439,-1.2227173,-0.055847168,-0.69348145,-3.4833984,2.477539,2.5429688,22.60807,-28.144632,-43.87184,28.035519,1.999939,1.9508667,0.45361328,0.5908203,-2.5341797,-3.6220703,74.21837,-43.095562,-114.23845,31.271687,0.0,0.0,0.0,0.0,0.0,0.0,0.0,-43.55152,-112.92945,11.310459,0.0,0.0,0.0,0.0,0.0,0.0,0.0,6.901815,43.712334,-8.201702,
1.874999944120646,80,-0.021972656,-1.3909912,0.34002686,-0.23925781,0.2529297,-0.059570312,0.0,0.0,0.0,0.0,0.0,0.0,0.0,0.0,0.0,0.0,0.0,-0.13925615,-0.16941664,-0.97573066,0.2218628,-1.684021,0.5206909,1.6347656,-0.7363281,-0.36132812,27.759575,-2.8830345,-3.5074494,-20.200651,-1.9165039,1.3855591,0.16522217,0.20800781,2.4404297,-1.8017578,13.686706,11.516051,-58.501133,-24.458975,0.38012695,1.1325684,0.9626465,0.6738281,-7.6259766,5.0878906,71.213165,41.56267,-122.21248,-39.45209,0.0,0.0,0.0,0.0,0.0,0.0,0.0,40.965958,-132.66386,-56.506714,0.0,0.0,0.0,0.0,0.0,0.0,0.0,0.13925615,0.16941664,0.97573066,0.3774414,-0.5835571,-1.4077148,-2.1552734,-0.6044922,0.109375,23.236826,2.8830345,3.5074494,20.200651,0.24859619,0.3269043,-0.5442505,-1.2695312,1.8486328,1.3242188,25.62318,-26.955795,-44.5872,26.989973,-0.20983887,-2.0,1.3478394,3.4003906,0.47265625,-2.7265625,73.70658,-36.162376,-115.956665,29.656271,0.0,0.0,0.0,0.0,0.0,0.0,0.0,-36.18824,-115.77564,9.647331,0.0,0.0,0.0,0.0,0.0,0.0,0.0,6.649683,43.683502,-8.533832,
1.898437443422154,81,-0.4293213,-1.0291138,0.42767334,-0.34570312,-0.09082031,-0.39648438,0.0,0.0,0.0,0.0,0.0,0.0,0.0,0.0,0.0,0.0,0.0,-0.1430893,-0.169543,-0.9752907,-0.7322998,-1.0495605,0.24389648,5.020508,-0.42773438,-0.33984375,23.830294,-2.962391,-3.5100656,-20.191542,-1.7582397,1.2730713,0.4210205,-2.3925781,2.5683594,-2.8408203,22.715508,7.7257223,-59.47732,-22.063675,0.29559326,1.3823853,1.0276489,0.0859375,-9.623047,7.291992,70.33535,41.87133,-120.36638,-39.761963,0.0,0.0,0.0,0.0,0.0,0.0,0.0,43.44792,-133.2144,-55.026756,0.0,0.0,0.0,0.0,0.0,0.0,0.0,0.1430893,0.169543,0.9752907,0.83374023,-0.2276001,-0.46142578,-1.609375,1.6738281,1.1933594,20.087526,2.962391,3.5100656,20.191542,-0.45385742,0.49371338,-0.515625,0.045898438,1.5478516,1.5429688,26.790615,-24.454597,-45.924618,26.2443,1.5481567,0.6898804,0.7728882,0.60253906,0.81347656,-0.0390625,71.52699,-28.408356,-117.746475,29.71567,0.0,0.0,0.0,0.0,0.0,0.0,0.0,-29.095299,-118.69163,9.788258,0.0,0.0,0.0,0.0,0.0,0.0,0.0,7.1487675,43.592487,-8.626877,
1.921874942723662,82,-0.38970947,-0.8746948,0.5722656,-0.16113281,0.2529297,-0.0048828125,0.0,0.0,0.0,0.0,0.0,0.0,0.0,0.0,0.0,0.0,0.0,-0.14598513,-0.17000164,-0.97475827,-0.62268066,-1.244873,0.5045166,3.6259766,1.1552734,0.97558594,19.785698,-3.022344,-3.5195613,-20.18052,-0.98327637,-0.12451172,-0.9967041,-5.982422,3.0654297,-2.6308594,32.23276,3.7605538,-60.12333,-20.138308,1.4759521,-0.23388672,1.4516602,-2.0390625,-11.017578,7.364258,68.49027,42.300327,-117.34666,-40.80339,0.0,0.0,0.0,0.0,0.0,0.0,0.0,46.107635,-132.19229,-53.6566,0.0,0.0,0.0,0.0,0.0,0.0,0.0,0.14598513,0.17000164,0.97475827,-0.7182617,-1.597229,-0.19085693,-0.6640625,1.3310547,0.5751953,19.009327,3.022344,3.5195613,20.18052,-1.7255249,0.44281006,-1.0406494,-1.4111328,0.95410156,0.89160156,28.040276,-23.430779,-46.60678,25.124771,-0.15258789,0.06213379,0.94506836,-0.0048828125,0.24023438,-0.2578125,69.11405,-24.194891,-118.53211,28.521566,0.0,0.0,0.0,0.0,0.0,0.0,0.0,-25.442638,-119.439644,8.774284,0.0,0.0,0.0,0.0,0.0,0.0,0.0,7.4010067,43.53457,-8.701014,
1.9453124420251702,83,-0.15588379,-0.6084595,0.55023193,0.10546875,0.40527344,0.3095703,0.0,0.0,0.0,0.0,0.0,0.0,0.0,0.0,0.0,0.0,0.0,-0.1319874,-0.18049265,-0.9747565,0.16656494,-1.5270386,-0.98168945,1.8408203,-3.4052734,-0.2939453,15.931665,-2.7325485,-3.7367578,-20.180481,-1.3491821,-1.99823,-1.2351074,-5.5703125,2.3759766,-0.6582031,39.443436,0.44534612,-60.64588,-19.107904,1.999939,1.8079224,1.7969971,-5.8007812,-1.0673828,6.008789,66.47339,40.811626,-115.1051,-43.4177,0.0,0.0,0.0,0.0,0.0,0.0,0.0,45.19279,-130.1742,-55.825356,0.0,0.0,0.0,0.0,0.0,0.0,0.0,0.1319874,0.18049265,0.9747565,0.3581543,-1.3759766,-0.17077637,-2.3457031,-0.34277344,0.64941406,18.392694,2.7325485,3.7367578,20.180481,-1.1478271,-0.38226318,-0.35528564,-2.9423828,0.6904297,1.5507812,28.567764,-21.9774,-47.497475,23.895964,0.7904053,-0.5581665,0.8557129,-0.5908203,0.29492188,0.43066406,62.31906,-19.48722,-119.43584,26.020184,0.0,0.0,0.0,0.0,0.0,0.0,0.0,-21.842192,-120.65246,6.3451805,0.0,0.0,0.0,0.0,0.0,0.0,0.0,6.8387966,43.562256,-8.9923,
1.9687499413266782,84,0.05505371,-0.72198486,0.41577148,-0.068359375,0.44335938,0.47851562,0.0,0.0,0.0,0.0,0.0,0.0,0.0,0.0,0.0,0.0,0.0,-0.13852045,-0.18730798,-0.9726459,-0.14776611,-1.7078247,-1.6378174,2.2548828,-3.9511719,-1.8447266,13.312304,-2.8678029,-3.8778565,-20.136787,-0.8260498,-1.236084,-1.1824951,5.557617,0.9394531,-1.0224609,44.628998,-2.2940965,-60.856144,-18.357485,0.73028564,1.5317993,1.3095093,3.8808594,4.336914,-0.28222656,64.89292,40.499382,-113.06127,-43.450478,0.0,0.0,0.0,0.0,0.0,0.0,0.0,44.999626,-127.05023,-57.022247,0.0,0.0,0.0,0.0,0.0,0.0,0.0,0.13852045,0.18730798,0.9726459,0.15582275,-0.5956421,-0.2699585,-1.4941406,0.6113281,0.4638672,17.460665,2.8678029,3.8778565,20.136787,-0.37805176,-0.40881348,-0.2588501,1.2675781,1.1015625,1.1279297,27.612041,-19.368652,-48.54584,22.605076,0.355896,-0.35925293,0.7583618,-0.3642578,0.16210938,0.05859375,58.787365,-14.545928,-120.36163,24.775114,0.0,0.0,0.0,0.0,0.0,0.0,0.0,-17.930328,-121.59208,5.3276825,0.0,0.0,0.0,0.0,0.0,0.0,0.0,6.243555,43.594162,-9.28436,
1.9921874406281863,85,0.10839844,-1.519104,0.19464111,-1.0146484,0.31054688,-0.31152344,0.0,0.0,0.0,0.0,0.0,0.0,0.0,0.0,0.0,0.0,0.0,-0.14723402,-0.20112659,-0.96853,0.028381348,-1.2388306,-0.8329468,3.5566406,0.6435547,-1.3232422,10.116879,-3.0482006,-4.163944,-20.051573,-1.5111084,0.66674805,-0.5303955,6.041992,-0.9765625,-0.12109375,49.384483,-5.6876225,-60.91556,-15.335957,-1.7050171,-2.0,1.0067139,0.9277344,3.0576172,0.5830078,68.093376,38.97776,-112.60486,-38.12862,0.0,0.0,0.0,0.0,0.0,0.0,0.0,43.76505,-125.385,-52.751926,0.0,0.0,0.0,0.0,0.0,0.0,0.0,0.14723402,0.20112659,0.96853,-0.2672119,-0.95196533,-0.23077393,-1.5302734,0.95214844,0.038085938,16.285997,3.0482006,4.163944,20.051573,-0.980896,0.38128662,-0.48181152,3.8896484,1.2128906,1.1777344,27.2567,-16.964457,-49.057056,21.599722,0.49822998,-0.6053467,0.7953491,-0.30664062,0.19921875,0.16894531,60.69964,-9.603493,-120.6544,24.084158,0.0,0.0,0.0,0.0,0.0,0.0,0.0,-13.803188,-121.975845,4.6454372,0.0,0.0,0.0,0.0,0.0,0.0,0.0,6.691331,43.360794,-10.02158,
2.0156249399296944,86,0.07751465,-1.4263916,0.061279297,0.44921875,0.3701172,-0.4560547,0.0,0.0,0.0,0.0,0.0,0.0,0.0,0.0,0.0,0.0,0.0,-0.15679827,-0.19553754,-0.96823037,0.14215088,-0.9001465,-0.35546875,3.1699219,1.1914062,-0.50097656,5.4837294,-3.246211,-4.048233,-20.04537,-0.10479736,0.30523682,-0.66015625,-1.8134766,-0.97753906,0.45507812,52.346527,-9.417292,-60.14175,-12.037008,0.7210083,0.80688477,0.93322754,1.7783203,3.7939453,-1.8828125,69.53538,33.73227,-113.38664,-34.102646,0.0,0.0,0.0,0.0,0.0,0.0,0.0,38.1096,-125.31507,-49.55176,0.0,0.0,0.0,0.0,0.0,0.0,0.0,0.15679827,0.19553754,0.96823037,-0.24066162,-1.1426392,-0.19940186,-1.6064453,-0.10253906,-0.05859375,14.738508,3.246211,4.048233,20.04537,-1.046875,0.9604492,-0.41479492,-0.4892578,0.50683594,0.7236328,26.262974,-14.758653,-50.02629,21.11774,0.40911865,-0.5637207,0.80596924,-0.080078125,0.12207031,0.055664062,61.329838,-5.922269,-121.44742,23.71774,0.0,0.0,0.0,0.0,0.0,0.0,0.0,-10.743612,-122.77241,4.4606,0.0,0.0,0.0,0.0,0.0,0.0,0.0,7.07496,43.331165,-9.896624,
2.0390624392312025,87,0.16607666,-0.6390381,0.3965454,0.48632812,0.44628906,-0.23242188,0.0,0.0,0.0,0.0,0.0,0.0,0.0,0.0,0.0,0.0,0.0,-0.16863349,-0.18178959,-0.968968,0.16583252,-1.0883179,-0.44195557,2.5185547,0.4951172,0.15234375,2.165369,-3.4912357,-3.7636082,-20.06064,-0.26757812,-0.38391113,-0.5233154,-3.9501953,-1.8457031,1.1591797,53.540318,-12.595797,-59.188065,-10.292559,-0.42578125,1.1414795,0.736084,1.5917969,3.9794922,-3.5302734,67.8272,28.48852,-114.375946,-31.556452,0.0,0.0,0.0,0.0,0.0,0.0,0.0,32.14408,-125.72705,-47.61647,0.0,0.0,0.0,0.0,0.0,0.0,0.0,0.16863349,0.18178959,0.968968,-0.024047852,-0.85998535,-0.095581055,-1.6640625,-0.28222656,0.052734375,13.897911,3.4912357,3.7636082,20.06064,-1.0047607,-0.054748535,-0.23980713,-2.7128906,0.15039062,1.1884766,25.3047,-12.155659,-51.040955,20.058771,0.51348877,-0.49853516,0.84155273,-0.080078125,0.08300781,0.09277344,55.071747,-1.4277363,-122.240875,21.124973,0.0,0.0,0.0,0.0,0.0,0.0,0.0,-7.3895063,-123.769554,2.184496,0.0,0.0,0.0,0.0,0.0,0.0,0.0,6.7606416,43.50694,-9.338987,
2.0624999385327105,88,-0.0040893555,-0.5130615,0.32641602,-0.0146484375,0.38867188,-0.35839844,0.0,0.0,0.0,0.0,0.0,0.0,0.0,0.0,0.0,0.0,0.0,-0.17955929,-0.17636916,-0.9679878,-0.01171875,-0.9929199,-0.61138916,2.0478516,0.25976562,0.018554688,3.3258426,-3.7174335,-3.6513886,-20.040348,-0.53863525,-0.90460205,-0.727417,-3.8515625,-2.8876953,1.4667969,52.61187,-15.499374,-58.363945,-9.187408,0.37683105,0.28607178,0.8364868,1.8720703,3.8642578,-3.6953125,62.043484,21.851112,-116.60322,-29.158516,0.0,0.0,0.0,0.0,0.0,0.0,0.0,23.579277,-127.85803,-45.427193,0.0,0.0,0.0,0.0,0.0,0.0,0.0,0.17955929,0.17636916,0.9679878,0.20568848,-0.93981934,0.0017089844,-1.7568359,0.15332031,-0.07519531,12.91804,3.7174335,3.6513886,20.040348,-0.89038086,-0.43511963,-0.09942627,0.017578125,0.30273438,0.3779297,23.14477,-9.675623,-51.74462,19.790855,0.45166016,-0.5078125,0.8341675,-0.041992188,0.10253906,0.037109375,49.76106,1.2559395,-122.90847,21.021048,0.0,0.0,0.0,0.0,0.0,0.0,0.0,-6.1957283,-124.65845,2.704708,0.0,0.0,0.0,0.0,0.0,0.0,0.0,6.7874813,43.53345,-9.190936,
2.0859374378342186,89,0.0031738281,-0.5742798,0.19317627,0.42578125,0.4658203,-0.546875,0.0,0.0,0.0,0.0,0.0,0.0,0.0,0.0,0.0,0.0,0.0,-0.19112968,-0.16536793,-0.9675587,0.031921387,-0.57336426,-0.8111572,2.0097656,0.5839844,0.037109375,4.0829344,-3.9569778,-3.423629,-20.031464,-0.5128174,-1.0579834,-0.75756836,-1.2480469,-3.8583984,1.7597656,48.520798,-16.466576,-57.6196,-8.372169,0.6890869,0.5479126,0.833313,2.296875,4.4882812,-3.3876953,59.563786,15.826363,-119.511536,-26.063534,0.0,0.0,0.0,0.0,0.0,0.0,0.0,16.2025,-130.48306,-42.762554,0.0,0.0,0.0,0.0,0.0,0.0,0.0,0.19112968,0.16536793,0.9675587,-0.0036621094,-0.99176025,-0.016113281,-1.9462891,0.44726562,0.038085938,12.022967,3.9569778,3.423629,20.031464,-0.942749,0.05670166,-0.20526123,1.2900391,0.5996094,0.78808594,21.094429,-6.9941015,-52.51292,19.485983,0.44696045,-0.44647217,0.79400635,0.0146484375,0.044921875,-0.038085938,48.28942,4.491431,-123.59564,20.66472,0.0,0.0,0.0,0.0,0.0,0.0,0.0,-4.1265383,-125.58871,2.8458557,0.0,0.0,0.0,0.0,0.0,0.0,0.0,6.805155,43.605038,-8.7969265,
2.1093749371357267,90,-0.021118164,-0.5821533,0.13604736,-0.2890625,0.50390625,-0.54003906,0.0,0.0,0.0,0.0,0.0,0.0,0.0,0.0,0.0,0.0,0.0,-0.20676765,-0.15642099,-0.9659186,0.12609863,-0.4335327,-0.8114624,1.8759766,1.2119141,0.16894531,4.5577154,-4.2807307,-3.2383993,-19.997513,-0.29382324,-0.7201538,-0.64501953,0.7167969,-4.4970703,2.3378906,43.35471,-17.066341,-57.178112,-7.241021,0.86468506,0.32531738,0.96209717,2.8554688,5.0722656,-3.006836,61.645824,9.845448,-122.51761,-20.869625,0.0,0.0,0.0,0.0,0.0,0.0,0.0,10.028297,-132.37337,-38.278008,0.0,0.0,0.0,0.0,0.0,0.0,0.0,0.20676765,0.15642099,0.9659186,0.009277344,-0.9199829,-0.041381836,-1.8886719,0.73828125,0.0390625,11.9658785,4.2807307,3.2383993,19.997513,-0.9429321,0.19378662,-0.18499756,0.3173828,0.5058594,0.9160156,19.854752,-4.2693906,-53.11257,19.02062,0.4522705,-0.4418335,0.80688477,-0.041992188,0.103515625,-0.037109375,45.273792,8.734795,-123.94172,19.319746,0.0,0.0,0.0,0.0,0.0,0.0,0.0,-0.95627785,-126.1308,2.064022,0.0,0.0,0.0,0.0,0.0,0.0,0.0,7.019321,43.62095,-8.56656,
2.1328124364372347,91,0.14404297,-0.68408203,0.1541748,-0.19433594,0.56152344,-0.41015625,0.0,0.0,0.0,0.0,0.0,0.0,0.0,0.0,0.0,0.0,0.0,-0.2214022,-0.15267043,-0.96328914,0.354187,-0.44830322,-0.71832275,1.5742188,1.8564453,0.16601562,4.6252484,-4.583712,-3.1607513,-19.943071,-0.3125,-0.08642578,-0.5496216,0.5488281,-4.826172,2.9189453,36.681984,-16.50436,-56.86048,-5.5351048,1.0828247,0.5812988,0.93078613,3.0302734,5.2441406,-3.1933594,66.09365,3.4200249,-125.42269,-14.9620695,0.0,0.0,0.0,0.0,0.0,0.0,0.0,3.7510629,-134.01424,-33.030087,0.0,0.0,0.0,0.0,0.0,0.0,0.0,0.2214022,0.15267043,0.96328914,0.03363037,-0.9798584,0.016967773,-1.9638672,1.0107422,-0.015625,12.648912,4.583712,3.1607513,19.943071,-0.9376221,0.09350586,-0.08892822,-0.82421875,0.35742188,0.8027344,18.465279,-1.6679521,-53.485367,18.754276,0.4522705,-0.4418335,0.80688477,-0.041992188,0.103515625,-0.037109375,45.24617,12.540096,-124.07629,17.58142,0.0,0.0,0.0,0.0,0.0,0.0,0.0,2.8490238,-126.265366,0.32569695,0.0,0.0,0.0,0.0,0.0,0.0,0.0,7.380768,43.555553,-8.599457,
2.156249935738743,92,0.062805176,-0.66864014,0.17297363,-0.55566406,0.4638672,-0.16601562,0.0,0.0,0.0,0.0,0.0,0.0,0.0,0.0,0.0,0.0,0.0,-0.23607641,-0.15587568,-0.9592253,0.184021,-0.41656494,-0.5238037,1.6123047,2.0097656,0.08886719,5.690923,-4.887513,-3.22711,-19.858936,-0.6392822,0.12597656,-0.5231323,-1.6572266,-4.864258,3.4257812,30.737894,-17.502434,-56.495438,-3.9594126,1.048584,0.5042114,1.0496216,2.9863281,4.461914,-3.203125,69.7679,-6.646841,-127.44286,-9.902959,0.0,0.0,0.0,0.0,0.0,0.0,0.0,-6.0130773,-134.89429,-28.462482,0.0,0.0,0.0,0.0,0.0,0.0,0.0,0.23607641,0.15587568,0.9592253,0.029907227,-0.9581909,0.0211792,-2.397461,1.0498047,-0.12597656,14.163047,4.887513,3.22711,19.858936,-0.9678345,-0.16864014,-0.05432129,-0.4501953,0.4873047,0.91015625,16.528616,1.0488,-53.631767,18.58155,0.4534912,-0.53948975,0.77819824,-0.09863281,0.21875,9.765625E-4,37.76671,15.857893,-124.07219,16.300123,0.0,0.0,0.0,0.0,0.0,0.0,0.0,3.8523684,-126.51118,0.57699585,0.0,0.0,0.0,0.0,0.0,0.0,0.0,7.697873,43.42697,-8.95149,
2.179687435040251,93,0.038757324,-0.6515503,0.15338135,-0.28320312,0.44433594,0.072265625,0.0,0.0,0.0,0.0,0.0,0.0,0.0,0.0,0.0,0.0,0.0,-0.24658504,-0.16299444,-0.9554779,-0.1430664,-0.37908936,-0.18389893,1.3105469,1.4726562,0.013671875,7.1934204,-5.105075,-3.3744903,-19.781355,-0.83984375,-0.4038086,-0.4899292,-2.2919922,-4.7783203,2.8222656,26.792463,-19.083868,-55.865726,-2.481987,1.2476196,0.7420044,0.9645996,2.4726562,3.4570312,-3.5605469,68.63607,-16.389935,-127.71098,-5.7127857,0.0,0.0,0.0,0.0,0.0,0.0,0.0,-15.613323,-134.32332,-24.582336,0.0,0.0,0.0,0.0,0.0,0.0,0.0,0.24658504,0.16299444,0.9554779,-0.055603027,-0.83483887,0.091918945,-3.0957031,0.3466797,-0.21875,17.245852,5.105075,3.3744903,19.781355,-0.9081421,-0.045776367,-0.15447998,0.46679688,0.5986328,0.96972656,13.358528,4.9064045,-53.592567,17.788029,0.46697998,-0.4821167,0.8210449,-0.19335938,0.31640625,-0.034179688,35.552216,20.32974,-123.876114,14.946766,0.0,0.0,0.0,0.0,0.0,0.0,0.0,7.310751,-126.38473,0.03564453,0.0,0.0,0.0,0.0,0.0,0.0,0.0,7.8229656,43.311974,-9.407478,
2.203124934341759,94,0.09661865,-0.67962646,0.061706543,-0.49414062,0.4248047,0.12988281,0.0,0.0,0.0,0.0,0.0,0.0,0.0,0.0,0.0,0.0,0.0,-0.25680885,-0.17141129,-0.9512855,-0.078552246,-0.32086182,0.016418457,0.875,0.3408203,-0.001953125,8.192948,-5.31674,-3.548745,-19.69456,-0.80700684,-0.6026001,-0.49865723,-0.7285156,-5.044922,3.046875,22.120842,-20.361954,-55.45794,-1.5616341,1.2225952,0.82458496,0.84625244,1.4960938,1.9726562,-3.118164,68.07076,-26.688293,-127.207,-1.8838705,0.0,0.0,0.0,0.0,0.0,0.0,0.0,-26.112799,-133.26125,-20.94415,0.0,0.0,0.0,0.0,0.0,0.0,0.0,0.25680885,0.17141129,0.9512855,-0.2208252,-1.1948242,0.23944092,-3.1708984,-0.23632812,-0.4248047,20.836248,5.31674,3.548745,19.69456,-0.9484863,0.14447021,-0.20123291,0.16601562,0.6542969,0.97558594,10.47837,9.055916,-53.258915,16.862255,0.43463135,-0.46551514,0.876709,-0.19335938,0.20019531,-0.03515625,32.933678,25.808212,-123.1951,13.16597,0.0,0.0,0.0,0.0,0.0,0.0,0.0,11.905073,-125.725784,-0.9336004,0.0,0.0,0.0,0.0,0.0,0.0,0.0,7.783473,43.2113,-9.887431,
2.226562433643267,95,0.16583252,-0.8106079,-0.015808105,-0.7470703,0.51953125,0.26367188,0.0,0.0,0.0,0.0,0.0,0.0,0.0,0.0,0.0,0.0,0.0,-0.26750144,-0.18658869,-0.9454352,-0.03479004,-0.46447754,0.059753418,0.43945312,-0.14160156,0.018554688,8.114329,-5.53811,-3.8629646,-19.57344,-0.86517334,-0.28253174,-0.59173584,0.76660156,-5.041992,3.1992188,17.917978,-21.265747,-55.465725,-1.1515198,1.9104004,0.947876,1.1109619,1.2148438,0.80859375,-2.8457031,67.04913,-35.5154,-125.86168,1.335599,0.0,0.0,0.0,0.0,0.0,0.0,0.0,-35.37438,-131.67897,-17.80413,0.0,0.0,0.0,0.0,0.0,0.0,0.0,0.26750144,0.18658869,0.9454352,-0.2779541,-1.0787964,-0.22192383,-2.116211,-0.40820312,-0.22460938,24.440588,5.53811,3.8629646,19.57344,-0.9890747,0.11578369,-0.25128174,-0.31933594,0.5800781,1.0576172,8.580299,12.42798,-52.60717,15.978232,0.4404297,-0.5488281,0.86987305,-0.3076172,0.028320312,-0.08984375,31.683823,30.740887,-122.09451,11.309299,0.0,0.0,0.0,0.0,0.0,0.0,0.0,16.488605,-124.63335,-2.4919472,0.0,0.0,0.0,0.0,0.0,0.0,0.0,7.8610015,42.999275,-10.710419,
2.249999932944775,96,0.21789551,-0.85461426,0.01739502,-0.6777344,0.7685547,0.4326172,0.0,0.0,0.0,0.0,0.0,0.0,0.0,0.0,0.0,0.0,0.0,-0.2816012,-0.20462823,-0.937547,-0.01550293,-0.7327881,0.19970703,0.36328125,-0.2763672,0.057617188,7.9233522,-5.830018,-4.2364388,-19.41013,-0.9467163,-0.042907715,-0.31835938,1.3515625,-4.6220703,2.9033203,15.14818,-22.073105,-55.652054,-0.8978462,1.999939,0.89953613,0.85375977,1.0849609,1.8378906,-5.0390625,65.79627,-43.900215,-124.018364,3.795372,0.0,0.0,0.0,0.0,0.0,0.0,0.0,-44.52341,-129.35571,-15.475079,0.0,0.0,0.0,0.0,0.0,0.0,0.0,0.2816012,0.20462823,0.937547,0.013671875,-0.916687,-0.6342163,-2.0771484,-0.08203125,-0.31640625,27.796515,5.830018,4.2364388,19.41013,-1.0712891,-0.018066406,-0.21221924,-0.057617188,0.6171875,1.0537109,6.682077,15.583392,-51.764397,15.1844225,0.4574585,-0.51208496,0.8985596,-0.4404297,-0.1640625,-0.18261719,30.546064,35.11715,-120.85914,9.661417,0.0,0.0,0.0,0.0,0.0,0.0,0.0,20.471777,-123.47382,-3.70047,0.0,0.0,0.0,0.0,0.0,0.0,0.0,7.7918134,42.759396,-11.672977,
2.273437432246283,97,0.17224121,-0.95880127,0.115234375,-0.15722656,0.8642578,0.7060547,0.0,0.0,0.0,0.0,0.0,0.0,0.0,0.0,0.0,0.0,0.0,-0.3026587,-0.21841681,-0.9278405,-0.00970459,-1.2266235,0.37164307,0.61035156,0.43359375,0.016601562,8.831286,-6.265975,-4.521905,-19.209173,-1.0914917,-0.3178711,-0.33691406,0.99121094,-3.9833984,2.8164062,14.864194,-23.302326,-55.556385,-0.37473297,1.9718628,0.39562988,0.46704102,0.10546875,1.1796875,-5.290039,62.54741,-51.854496,-121.357666,5.80017,0.0,0.0,0.0,0.0,0.0,0.0,0.0,-53.699852,-125.71733,-13.637979,0.0,0.0,0.0,0.0,0.0,0.0,0.0,0.3026587,0.21841681,0.9278405,6.1035156E-5,-1.0640869,-0.29449463,-1.7578125,-0.4658203,-0.20800781,30.2794,6.265975,4.521905,19.209173,-1.0367432,-0.054138184,-0.06652832,0.23925781,0.8222656,1.0498047,4.9724026,18.50227,-50.9551,14.524442,0.42053223,-0.5057373,0.92541504,-0.5361328,-0.5292969,-0.20214844,31.742348,39.01241,-119.68755,8.156004,0.0,0.0,0.0,0.0,0.0,0.0,0.0,24.326794,-122.418976,-5.146838,0.0,0.0,0.0,0.0,0.0,0.0,0.0,7.3892875,42.614475,-12.441956,
2.296874931547791,98,0.0072631836,-1.1990356,0.27423096,-0.171875,0.7294922,0.7421875,0.0,0.0,0.0,0.0,0.0,0.0,0.0,0.0,0.0,0.0,0.0,-0.31790155,-0.23182818,-0.9194221,-0.20788574,-1.6375732,1.15802,0.61035156,1.2919922,0.033203125,10.103495,-6.5815473,-4.799562,-19.034887,-1.1713867,0.8076782,0.39715576,1.2128906,-3.0595703,2.3564453,16.310907,-24.017391,-55.450363,0.46661186,1.982727,-1.4572754,-0.5368042,1.1386719,0.66503906,-3.9902344,60.876377,-58.906555,-117.9386,8.477864,0.0,0.0,0.0,0.0,0.0,0.0,0.0,-61.956284,-121.479614,-10.974036,0.0,0.0,0.0,0.0,0.0,0.0,0.0,0.31790155,0.23182818,0.9194221,0.020690918,-1.0656738,0.25646973,-1.3808594,-0.15722656,0.12597656,30.964235,6.5815473,4.799562,19.034887,-1.0344849,-0.006591797,0.0073242188,0.27539062,1.0458984,1.2001953,5.039134,19.576773,-50.438393,13.975154,0.28686523,-0.55133057,0.9404297,-0.59375,-0.91503906,-0.25976562,33.765118,41.029243,-118.78082,6.5859675,0.0,0.0,0.0,0.0,0.0,0.0,0.0,26.378654,-121.74402,-6.7055097,0.0,0.0,0.0,0.0,0.0,0.0,0.0,6.650968,42.55884,-13.030676,
2.3203124308492993,99,-0.11230469,-1.4075317,0.43243408,0.015625,0.8076172,0.3515625,0.0,0.0,0.0,0.0,0.0,0.0,0.0,0.0,0.0,0.0,0.0,-0.3311477,-0.24370418,-0.91164297,0.26031494,-2.0,1.1611328,1.3662109,0.93847656,0.03515625,12.061369,-6.855784,-5.0454326,-18.873835,-0.55303955,-0.09631348,0.6575928,-2.0546875,-0.22363281,0.27539062,17.651293,-25.162535,-54.983467,1.6456375,1.9633789,-2.0,-0.923584,1.7822266,0.44628906,-0.97558594,59.83342,-62.84445,-115.72344,10.232213,0.0,0.0,0.0,0.0,0.0,0.0,0.0,-66.18944,-119.381386,-9.149192,0.0,0.0,0.0,0.0,0.0,0.0,0.0,0.3311477,0.24370418,0.91164297,0.04864502,-1.072876,0.2154541,-1.4179688,0.6611328,0.09277344,31.906782,6.855784,5.0454326,18.873835,-1.0446167,0.04901123,0.13012695,-0.32714844,1.3261719,1.2119141,4.767729,21.083845,-49.858288,13.459767,0.45959473,-0.55584717,0.95581055,-0.44335938,-1.4570312,-0.19042969,36.19705,43.50232,-117.74046,4.8514194,0.0,0.0,0.0,0.0,0.0,0.0,0.0,29.038158,-121.08005,-8.556932,0.0,0.0,0.0,0.0,0.0,0.0,0.0,5.9267445,42.51391,-13.51784,
2.3437499301508073,100,-0.15032959,-1.527771,0.02130127,0.029296875,0.25390625,-0.32226562,0.0,0.0,0.0,0.0,0.0,0.0,0.0,0.0,0.0,0.0,0.0,-0.34211245,-0.24650377,-0.90690935,0.17456055,-1.4865723,0.42407227,0.8535156,0.24511719,0.22851562,13.380358,-7.0827885,-5.103392,-18.775835,-0.5042114,-0.8787842,-0.28253174,-0.81152344,1.4091797,-1.4951172,16.487356,-26.514048,-54.336056,2.4002037,1.999939,-0.5996094,-0.43865967,-0.57910156,0.6738281,2.0898438,57.265923,-61.524338,-116.394424,10.82516,0.0,0.0,0.0,0.0,0.0,0.0,0.0,-64.33831,-120.211464,-8.608499,0.0,0.0,0.0,0.0,0.0,0.0,0.0,0.34211245,0.24650377,0.90690935,-0.328125,-1.3950806,-0.01159668,-1.3037109,0.8232422,0.055664062,33.705784,7.0827885,5.103392,18.775835,-1.2333984,-0.058898926,0.2064209,-0.55566406,1.6611328,1.2929688,4.865666,23.083544,-49.299736,12.997514,0.41778564,-0.70861816,1.0132446,-0.46484375,-2.227539,-0.3623047,37.363552,47.659897,-116.32815,3.576377,0.0,0.0,0.0,0.0,0.0,0.0,0.0,33.523262,-120.20491,-10.032809,0.0,0.0,0.0,0.0,0.0,0.0,0.0,5.930068,42.435528,-13.77124,
2.3671874294523154,101,0.24353027,-1.5163574,-0.39587402,1.0019531,0.52441406,-0.6269531,0.0,0.0,0.0,0.0,0.0,0.0,0.0,0.0,0.0,0.0,0.0,-0.35300902,-0.22781307,-0.9075465,-0.114868164,-0.769104,0.121276855,0.74121094,0.64453125,0.15039062,14.700512,-7.308382,-4.7164364,-18.789028,-1.1991577,-0.6547241,-0.5178833,1.2109375,2.1640625,-2.3320312,15.231322,-27.573826,-53.534042,2.5415096,1.885315,0.056762695,-0.23303223,-0.5859375,0.125,1.4306641,58.838215,-58.35037,-118.06949,11.129663,0.0,0.0,0.0,0.0,0.0,0.0,0.0,-60.516285,-121.90983,-8.383802,0.0,0.0,0.0,0.0,0.0,0.0,0.0,0.35300902,0.22781307,0.9075465,-0.21276855,-1.4174194,0.22937012,-0.7392578,0.5839844,0.3125,34.146873,7.308382,4.7164364,18.789028,-1.4624023,-0.20263672,0.16320801,-0.70703125,1.8847656,1.5390625,6.8194933,24.377077,-49.317413,12.591142,0.40985107,-0.76989746,1.0149536,-0.69433594,-3.1464844,-1.0664062,37.26891,52.56685,-114.78289,2.3862114,0.0,0.0,0.0,0.0,0.0,0.0,0.0,38.93211,-119.56998,-11.4429,0.0,0.0,0.0,0.0,0.0,0.0,0.0,5.9489155,42.66504,-13.023766,
2.3906249287538235,102,0.62316895,-1.3247681,-0.1850586,0.546875,0.2939453,-0.5683594,0.0,0.0,0.0,0.0,0.0,0.0,0.0,0.0,0.0,0.0,0.0,-0.36539307,-0.20520052,-0.9081408,0.32733154,-0.24243164,-0.04498291,1.0849609,1.8701172,-0.12207031,16.672417,-7.564771,-4.248287,-18.801329,-1.0267944,-0.5380249,-0.625,1.9853516,2.3261719,-1.7255859,16.656864,-28.515518,-52.32203,3.5580769,1.9222412,1.1275024,-0.51275635,-2.618164,-1.4921875,0.39648438,59.575096,-54.264267,-119.04764,11.995918,0.0,0.0,0.0,0.0,0.0,0.0,0.0,-56.582882,-122.763985,-7.5229683,0.0,0.0,0.0,0.0,0.0,0.0,0.0,0.36539307,0.20520052,0.9081408,-0.13763428,-1.3562622,0.3008423,-0.49414062,1.2734375,0.40722656,33.96371,7.564771,4.248287,18.801329,-1.3151245,-0.33892822,0.16656494,-0.18554688,2.2939453,1.8505859,9.838412,25.214678,-49.549374,12.1821785,0.36236572,-0.7357178,1.0522461,-1.171875,-4.334961,-1.734375,37.291004,57.53929,-112.9344,1.0983019,0.0,0.0,0.0,0.0,0.0,0.0,0.0,44.64607,-119.05528,-12.916131,0.0,0.0,0.0,0.0,0.0,0.0,0.0,5.8620615,42.961967,-12.066164,
2.4140624280553316,103,-0.4345703,-1.9188232,1.0681763,2.1113281,1.4453125,-0.44335938,0.0,0.0,0.0,0.0,0.0,0.0,0.0,0.0,0.0,0.0,0.0,-0.386447,-0.18934405,-0.9028241,-0.36224365,-1.7295532,-0.2901001,0.48828125,1.3115234,-0.9638672,19.111862,-8.00065,-3.9200087,-18.691257,-2.0,-0.11578369,-0.85253906,0.94433594,1.5410156,2.6591797,19.751196,-29.148096,-50.923534,5.6599407,-0.45941162,-1.9807129,1.2675171,-3.96875,-1.8251953,3.1533203,66.33154,-54.737686,-117.82504,13.141672,0.0,0.0,0.0,0.0,0.0,0.0,0.0,-57.100563,-122.52842,-6.1652794,0.0,0.0,0.0,0.0,0.0,0.0,0.0,0.386447,0.18934405,0.9028241,-0.35546875,-1.746521,0.40948486,-0.4921875,2.0732422,0.41015625,33.19971,8.00065,3.9200087,18.691257,-1.4857178,-0.23779297,0.27246094,1.6455078,2.7773438,2.0283203,13.895679,25.772417,-49.824966,11.98332,0.1932373,-0.7614746,1.2731323,-1.4609375,-6.083008,-2.5546875,38.675514,62.61525,-110.55128,0.13336182,0.0,0.0,0.0,0.0,0.0,0.0,0.0,50.916817,-118.45528,-14.040008,0.0,0.0,0.0,0.0,0.0,0.0,0.0,5.5016146,43.186447,-11.412167,
2.4374999273568396,104,-1.0797119,-1.8267212,0.047058105,1.2041016,-0.31933594,-0.56347656,0.0,0.0,0.0,0.0,0.0,0.0,0.0,0.0,0.0,0.0,0.0,-0.39976224,-0.15285896,-0.9038482,0.8381958,-2.0,0.3529663,0.5107422,1.5224609,-1.2714844,21.218452,-8.276316,-3.1646545,-18.712458,-0.6255493,-0.6903076,-0.9411621,5.3359375,2.6982422,-2.0,22.967157,-28.376411,-50.015713,6.8028736,1.9637451,-1.1526489,1.4628906,-2.7470703,-3.0625,-1.3964844,69.323006,-47.901825,-119.050186,13.16624,0.0,0.0,0.0,0.0,0.0,0.0,0.0,-50.84385,-123.84958,-6.0329657,0.0,0.0,0.0,0.0,0.0,0.0,0.0,0.39976224,0.15285896,0.9038482,-0.0017700195,-1.7443237,0.89575195,1.296875,-0.07128906,0.33984375,31.005873,8.276316,3.1646545,18.712458,-2.0,-0.96868896,-0.07141113,-1.9130859,2.4638672,1.5449219,18.39041,25.81689,-50.653572,11.962114,0.23608398,-1.1481323,1.1097412,-2.0351562,-8.151367,-4.1123047,40.01385,67.10483,-108.36646,-0.29635143,0.0,0.0,0.0,0.0,0.0,0.0,0.0,57.45936,-118.537766,-14.570955,0.0,0.0,0.0,0.0,0.0,0.0,0.0,4.985059,43.684826,-9.592823,
2.4609374266583477,105,0.058044434,0.5941162,0.49816895,0.7841797,-0.47265625,-0.7089844,0.0,0.0,0.0,0.0,0.0,0.0,0.0,0.0,0.0,0.0,0.0,-0.38171154,-0.12877972,-0.9153889,-1.4778442,-0.45343018,-1.2505493,0.82128906,0.3984375,-0.2705078,22.075533,-7.902612,-2.6661396,-18.951387,0.31915283,0.9237671,-1.0631104,3.5449219,1.4785156,-0.99902344,26.222612,-26.22075,-49.68152,7.5856037,1.9637451,-1.1526489,1.4628906,-2.7470703,-3.0625,-1.3964844,73.206604,-38.733177,-120.16889,12.923558,0.0,0.0,0.0,0.0,0.0,0.0,0.0,-41.6752,-124.968285,-6.275647,0.0,0.0,0.0,0.0,0.0,0.0,0.0,0.38171154,0.12877972,0.9153889,0.70996094,-1.362915,0.3116455,1.7714844,0.60839844,-0.328125,27.770067,7.902612,2.6661396,18.951387,-1.5540161,-2.0,0.6781006,1.1621094,2.5898438,2.3535156,24.71272,23.619802,-51.83246,13.279722,-0.2055664,-1.1033325,1.4138794,-2.461914,-11.277344,-6.140625,42.45416,68.89926,-106.259705,0.07829189,0.0,0.0,0.0,0.0,0.0,0.0,0.0,62.697845,-119.07468,-13.979286,0.0,0.0,0.0,0.0,0.0,0.0,0.0,5.003354,43.954834,-8.270069,
2.4843749259598558,106,0.2892456,-1.0627441,0.923645,0.81152344,-0.703125,-0.5810547,0.0,0.0,0.0,0.0,0.0,0.0,0.0,0.0,0.0,0.0,0.0,-0.35492295,-0.11100071,-0.92830247,-0.37542725,0.12573242,-0.30963135,-1.3837891,-3.6152344,-1.1777344,21.155785,-7.348005,-2.2980587,-19.218739,-0.9651489,0.40100098,-0.9036255,-0.234375,1.9101562,-2.6015625,27.16596,-24.846888,-50.10212,6.1999664,0.8919678,0.07885742,0.6711426,0.016601562,0.77441406,0.62890625,73.3038,-33.74357,-121.47212,9.834278,0.0,0.0,0.0,0.0,0.0,0.0,0.0,-36.874672,-124.580925,-9.672482,0.0,0.0,0.0,0.0,0.0,0.0,0.0,0.35492295,0.11100071,0.92830247,0.638855,-1.3269653,-0.05041504,2.6972656,1.2167969,-0.38476562,24.262468,7.348005,2.2980587,19.218739,-1.1308594,0.18292236,-0.6156006,6.7714844,3.4863281,2.0029297,32.189903,20.721092,-53.004105,15.7015505,1.9508667,-1.7297974,0.70043945,2.15625,-11.68457,-6.8720703,56.53859,70.233246,-103.54147,2.249216,0.0,0.0,0.0,0.0,0.0,0.0,0.0,70.20385,-118.1419,-11.426445,0.0,0.0,0.0,0.0,0.0,0.0,0.0,5.4183106,44.066196,-7.3407774,
2.507812425261364,107,0.27130127,-1.2357178,0.6657715,0.056640625,-0.5703125,-0.2939453,0.0,0.0,0.0,0.0,0.0,0.0,0.0,0.0,0.0,0.0,0.0,-0.34416595,-0.09643547,-0.93409294,0.4102173,-1.0897827,-1.4035645,-1.28125,-2.0673828,-1.8349609,20.695107,-7.125301,-1.9965131,-19.33862,-0.8961792,-0.8119507,-1.1885986,-3.3271484,1.7695312,-2.7197266,29.20283,-22.760946,-50.48957,6.230255,0.59588623,-0.6622925,0.97857666,0.03125,0.24316406,0.09863281,68.661125,-26.856384,-122.36199,8.137852,0.0,0.0,0.0,0.0,0.0,0.0,0.0,-29.972218,-125.28801,-11.399256,0.0,0.0,0.0,0.0,0.0,0.0,0.0,0.34416595,0.09643547,0.93409294,-0.2635498,-1.6573486,-1.0238037,2.4326172,3.7929688,0.61035156,20.760757,7.125301,1.9965131,19.33862,-1.8202515,1.9012451,-1.392456,8.362305,2.9355469,-0.044921875,37.935127,17.998795,-53.944874,18.055832,1.9602661,-2.0,1.8520508,4.2958984,-4.654297,-4.2265625,71.59671,70.61796,-101.96547,7.4885054,0.0,0.0,0.0,0.0,0.0,0.0,0.0,74.92984,-116.54376,-5.5099993,0.0,0.0,0.0,0.0,0.0,0.0,0.0,5.7042522,44.143898,-6.659131,
2.531249924562872,108,-0.2298584,-1.0739746,0.73651123,0.20898438,-0.47558594,-0.12792969,0.0,0.0,0.0,0.0,0.0,0.0,0.0,0.0,0.0,0.0,0.0,-0.3342633,-0.08890205,-0.938365,0.62091064,-1.2630005,-0.9829712,-1.5625,-0.92871094,-0.28710938,19.496542,-6.9202867,-1.840548,-19.427067,-0.7279053,-1.215271,-0.54455566,-0.18945312,0.9375,-0.7265625,29.41992,-20.581018,-51.169083,5.667803,0.66967773,0.30664062,0.72735596,0.025390625,0.091796875,0.0078125,66.33832,-21.3147,-123.17201,6.8013043,0.0,0.0,0.0,0.0,0.0,0.0,0.0,-24.389153,-126.188416,-12.707512,0.0,0.0,0.0,0.0,0.0,0.0,0.0,0.3342633,0.08890205,0.938365,-0.4043579,-2.0,-0.7579346,2.2949219,2.4404297,1.6279297,17.643326,6.9202867,1.840548,19.427067,-0.7423096,1.2888184,-1.5110474,-7.1865234,1.4033203,0.99121094,44.21176,14.895415,-54.604797,19.47272,1.4962769,-0.81988525,1.6254272,-3.0810547,3.8984375,0.5722656,66.7297,69.85863,-99.65824,7.859398,0.0,0.0,0.0,0.0,0.0,0.0,0.0,73.88019,-114.92404,-4.423579,0.0,0.0,0.0,0.0,0.0,0.0,0.0,5.9891148,44.153862,-6.316636,
2.55468742386438,109,-0.19213867,-0.8054199,0.633728,0.34375,-0.39941406,0.22460938,0.0,0.0,0.0,0.0,0.0,0.0,0.0,0.0,0.0,0.0,0.0,-0.31110838,-0.08804375,-0.94603014,0.17321777,-0.9954834,-0.38739014,-1.8271484,-0.32128906,-0.2890625,18.38818,-6.440908,-1.8227785,-19.585756,-1.0317993,-0.4036255,-0.5633545,1.4804688,0.49414062,-0.3154297,28.269785,-18.111439,-52.01554,4.669731,0.52349854,0.3692627,0.75860596,-0.06933594,0.091796875,0.044921875,67.17491,-17.83257,-124.02979,5.242895,0.0,0.0,0.0,0.0,0.0,0.0,0.0,-21.012836,-126.9801,-14.2770195,0.0,0.0,0.0,0.0,0.0,0.0,0.0,0.31110838,0.08804375,0.94603014,0.04522705,-1.6425781,-0.520874,3.459961,-1.7939453,1.1064453,12.893116,6.440908,1.8227785,19.585756,-1.4859619,-0.38568115,-0.98895264,-9.144531,-0.96972656,1.4208984,50.97518,10.034245,-55.06631,20.390608,-1.0509644,-1.5120239,1.0507202,-1.9638672,4.729492,-0.33691406,50.344257,65.77896,-97.96325,4.9694805,0.0,0.0,0.0,0.0,0.0,0.0,0.0,67.40971,-114.07894,-6.7644196,0.0,0.0,0.0,0.0,0.0,0.0,0.0,5.703479,44.22205,-5.9912205,
2.578124923165888,110,-0.14465332,-0.8510742,0.46124268,0.39941406,-0.7470703,0.90722656,0.0,0.0,0.0,0.0,0.0,0.0,0.0,0.0,0.0,0.0,0.0,-0.26142773,-0.093965776,-0.96066093,-0.07141113,-0.9213257,-0.3145752,-2.0390625,-0.47753906,0.037109375,16.338646,-5.412366,-1.9453828,-19.88866,-1.0523682,0.18432617,-0.47210693,-0.83496094,0.6777344,-1.296875,25.521055,-14.393748,-53.56431,2.2867355,0.47125244,0.36920166,0.77697754,0.13671875,-0.0048828125,-0.02734375,66.89975,-12.180366,-125.54444,2.8383017,0.0,0.0,0.0,0.0,0.0,0.0,0.0,-15.437975,-128.3381,-16.690693,0.0,0.0,0.0,0.0,0.0,0.0,0.0,0.26142773,0.093965776,0.96066093,0.41192627,-1.3832397,-0.45825195,3.538086,-1.9101562,0.45507812,6.614705,5.412366,1.9453828,19.88866,-0.26391602,-0.9470215,-0.7807617,2.6796875,-0.5283203,-1.6904297,55.205673,4.1314645,-55.001606,22.0523,-0.15246582,-0.95233154,0.90478516,-1.1875,3.8632812,1.1992188,44.480488,58.994595,-98.79158,5.9844913,0.0,0.0,0.0,0.0,0.0,0.0,0.0,58.72251,-115.23647,-5.4007435,0.0,0.0,0.0,0.0,0.0,0.0,0.0,4.455123,44.433563,-5.5585976,
2.601562422467396,111,-0.0602417,-0.9664917,0.3710327,0.26953125,-0.9013672,1.0,0.0,0.0,0.0,0.0,0.0,0.0,0.0,0.0,0.0,0.0,0.0,-0.21619913,-0.10486035,-0.9707321,-0.058654785,-0.9732666,-0.26434326,-2.2861328,-0.8808594,0.15332031,13.256124,-4.4759912,-2.1709344,-20.097164,-0.8874512,-0.51538086,-0.46697998,-1.0351562,0.44628906,-0.95996094,22.470331,-10.800876,-55.252155,-0.45057678,0.5249634,0.30114746,0.78637695,0.2109375,-0.0625,-0.08203125,64.50173,-6.725404,-127.14635,-0.05470842,0.0,0.0,0.0,0.0,0.0,0.0,0.0,-10.085602,-129.86679,-19.57791,0.0,0.0,0.0,0.0,0.0,0.0,0.0,0.21619913,0.10486035,0.9707321,0.16430664,-1.2896118,-0.49188232,2.6748047,-0.9267578,-0.20703125,3.3136349,4.4759912,2.1709344,20.097164,-0.3862915,0.409729,-0.85723877,7.7060547,-0.75683594,-1.1035156,56.88272,-0.48519278,-54.48932,23.930576,0.16192627,-1.2236328,0.8436279,-0.23632812,4.323242,3.2216797,46.252274,53.423744,-100.4971,11.12961,0.0,0.0,0.0,0.0,0.0,0.0,0.0,51.015106,-116.51913,-0.60303783,0.0,0.0,0.0,0.0,0.0,0.0,0.0,3.4566016,44.520164,-5.5790005,
