TOTAL_TIME,0m8s
TOTAL_FRAMES,396
SELECTED_FRAMES,396
NO_OF_JOINTS,12
FREQUENCY,51.2
DESCRIPTION,Capture 11
TIME_STAMP,Jul 8, 2010

Time,Frame,Pelvis_accelX_Pelvis,Pelvis_accelY_Pelvis,Pelvis_accelZ_Pelvis,Pelvis_gyroX_Pelvis,Pelvis_gyroY_Pelvis,Pelvis_gyroZ_Pelvis,Pelvis_Joint angle_Pelvis,Pelvis_Relative pos X_Pelvis,Pelvis_Relative pos Y_Pelvis,Pelvis_Relative pos Z_Pelvis,RightPelvis_accelX_RightPelvis,RightPelvis_accelY_RightPelvis,RightPelvis_accelZ_RightPelvis,RightPelvis_gyroX_RightPelvis,RightPelvis_gyroY_RightPelvis,RightPelvis_gyroZ_RightPelvis,RightPelvis_Joint angle_RightPelvis,RightPelvis_Relative pos X_RightPelvis,RightPelvis_Relative pos Y_RightPelvis,RightPelvis_Relative pos Z_RightPelvis,RightUpLeg_accelX_RightUpLeg,RightUpLeg_accelY_RightUpLeg,RightUpLeg_accelZ_RightUpLeg,RightUpLeg_gyroX_RightUpLeg,RightUpLeg_gyroY_RightUpLeg,RightUpLeg_gyroZ_RightUpLeg,RightUpLeg_Joint angle_RightUpLeg,RightUpLeg_Relative pos X_RightUpLeg,RightUpLeg_Relative pos Y_RightUpLeg,RightUpLeg_Relative pos Z_RightUpLeg,RightLeg_accelX_RightLeg,RightLeg_accelY_RightLeg,RightLeg_accelZ_RightLeg,RightLeg_gyroX_RightLeg,RightLeg_gyroY_RightLeg,RightLeg_gyroZ_RightLeg,RightLeg_Joint angle_RightLeg,RightLeg_Relative pos X_RightLeg,RightLeg_Relative pos Y_RightLeg,RightLeg_Relative pos Z_RightLeg,RightFoot_accelX_RightFoot,RightFoot_accelY_RightFoot,RightFoot_accelZ_RightFoot,RightFoot_gyroX_RightFoot,RightFoot_gyroY_RightFoot,RightFoot_gyroZ_RightFoot,RightFoot_Joint angle_RightFoot,RightFoot_Relative pos X_RightFoot,RightFoot_Relative pos Y_RightFoot,RightFoot_Relative pos Z_RightFoot,RightFootEnd_accelX_RightFootEnd,RightFootEnd_accelY_RightFootEnd,RightFootEnd_accelZ_RightFootEnd,RightFootEnd_gyroX_RightFootEnd,RightFootEnd_gyroY_RightFootEnd,RightFootEnd_gyroZ_RightFootEnd,RightFootEnd_Joint angle_RightFootEnd,RightFootEnd_Relative pos X_RightFootEnd,RightFootEnd_Relative pos Y_RightFootEnd,RightFootEnd_Relative pos Z_RightFootEnd,LeftPelvis_accelX_LeftPelvis,LeftPelvis_accelY_LeftPelvis,LeftPelvis_accelZ_LeftPelvis,LeftPelvis_gyroX_LeftPelvis,LeftPelvis_gyroY_LeftPelvis,LeftPelvis_gyroZ_LeftPelvis,LeftPelvis_Joint angle_LeftPelvis,LeftPelvis_Relative pos X_LeftPelvis,LeftPelvis_Relative pos Y_LeftPelvis,LeftPelvis_Relative pos Z_LeftPelvis,LeftUpLeg_accelX_LeftUpLeg,LeftUpLeg_accelY_LeftUpLeg,LeftUpLeg_accelZ_LeftUpLeg,LeftUpLeg_gyroX_LeftUpLeg,LeftUpLeg_gyroY_LeftUpLeg,LeftUpLeg_gyroZ_LeftUpLeg,LeftUpLeg_Joint angle_LeftUpLeg,LeftUpLeg_Relative pos X_LeftUpLeg,LeftUpLeg_Relative pos Y_LeftUpLeg,LeftUpLeg_Relative pos Z_LeftUpLeg,LeftLeg_accelX_LeftLeg,LeftLeg_accelY_LeftLeg,LeftLeg_accelZ_LeftLeg,LeftLeg_gyroX_LeftLeg,LeftLeg_gyroY_LeftLeg,LeftLeg_gyroZ_LeftLeg,LeftLeg_Joint angle_LeftLeg,LeftLeg_Relative pos X_LeftLeg,LeftLeg_Relative pos Y_LeftLeg,LeftLeg_Relative pos Z_LeftLeg,LeftFoot_accelX_LeftFoot,LeftFoot_accelY_LeftFoot,LeftFoot_accelZ_LeftFoot,LeftFoot_gyroX_LeftFoot,LeftFoot_gyroY_LeftFoot,LeftFoot_gyroZ_LeftFoot,LeftFoot_Joint angle_LeftFoot,LeftFoot_Relative pos X_LeftFoot,LeftFoot_Relative pos Y_LeftFoot,LeftFoot_Relative pos Z_LeftFoot,LeftFootEnd_accelX_LeftFootEnd,LeftFootEnd_accelY_LeftFootEnd,LeftFootEnd_accelZ_LeftFootEnd,LeftFootEnd_gyroX_LeftFootEnd,LeftFootEnd_gyroY_LeftFootEnd,LeftFootEnd_gyroZ_LeftFootEnd,LeftFootEnd_Joint angle_LeftFootEnd,LeftFootEnd_Relative pos X_LeftFootEnd,LeftFootEnd_Relative pos Y_LeftFootEnd,LeftFootEnd_Relative pos Z_LeftFootEnd,Spine_accelX_Spine,Spine_accelY_Spine,Spine_accelZ_Spine,Spine_gyroX_Spine,Spine_gyroY_Spine,Spine_gyroZ_Spine,Spine_Joint angle_Spine,Spine_Relative pos X_Spine,Spine_Relative pos Y_Spine,Spine_Relative pos Z_Spine,
0.0,0,-0.097351074,-0.604187,0.3585205,-0.90527344,0.41015625,-0.83984375,0.0,0.0,0.0,0.0,0.0,0.0,0.0,0.0,0.0,0.0,0.0,-0.23393491,-0.13623284,0.96286094,0.43841553,0.12628174,-0.2944336,-0.35546875,2.5185547,0.18261719,28.817736,-4.8431787,-2.8204422,19.934206,-0.2564087,-0.22283936,-0.9237671,0.2607422,-4.171875,-0.28710938,62.04033,14.447879,-50.595276,44.315178,0.41522217,0.44403076,0.68829346,0.7314453,6.307617,-3.6660156,15.67252,-29.752407,-107.23686,49.077423,0.0,0.0,0.0,0.0,0.0,0.0,0.0,-14.2666,-116.5649,57.62752,0.0,0.0,0.0,0.0,0.0,0.0,0.0,0.23393491,0.13623284,-0.96286094,-0.9907837,0.3255005,-0.1652832,0.7246094,2.1533203,0.2705078,36.122635,4.8431787,2.8204422,-19.934206,-1.0079346,0.24310303,0.07659912,0.21289062,0.73339844,-0.00390625,7.011792,-5.8811245,-50.41248,-2.6092339,-0.5644531,0.4633789,0.75115967,-0.09277344,-0.0859375,-0.2578125,13.6250105,-16.337397,-114.80672,27.884228,0.0,0.0,0.0,0.0,0.0,0.0,0.0,2.8648396,-112.847435,33.11821,0.0,0.0,0.0,0.0,0.0,0.0,0.0,-14.205984,42.62998,2.5801508,
0.0195312497089617,1,-0.097351074,-0.604187,0.3585205,-0.90527344,0.41015625,-0.83984375,0.0,0.0,0.0,0.0,0.0,0.0,0.0,0.0,0.0,0.0,0.0,-0.23393491,-0.13623284,0.96286094,0.43841553,0.12628174,-0.2944336,-0.35546875,2.5185547,0.18261719,28.817736,-4.8431787,-2.8204422,19.934206,-0.2564087,-0.22283936,-0.9237671,0.2607422,-4.171875,-0.28710938,62.04033,14.447879,-50.595276,44.315178,0.41522217,0.44403076,0.68829346,0.7314453,6.307617,-3.6660156,15.67252,-29.752407,-107.23686,49.077423,0.0,0.0,0.0,0.0,0.0,0.0,0.0,-14.2666,-116.5649,57.62752,0.0,0.0,0.0,0.0,0.0,0.0,0.0,0.23393491,0.13623284,-0.96286094,-0.9907837,0.3255005,-0.1652832,0.7246094,2.1533203,0.2705078,36.122635,4.8431787,2.8204422,-19.934206,-1.0079346,0.24310303,0.07659912,0.21289062,0.73339844,-0.00390625,7.011792,-5.8811245,-50.41248,-2.6092339,-0.5644531,0.4633789,0.75115967,-0.09277344,-0.0859375,-0.2578125,13.6250105,-16.337397,-114.80672,27.884228,0.0,0.0,0.0,0.0,0.0,0.0,0.0,2.8648396,-112.847435,33.11821,0.0,0.0,0.0,0.0,0.0,0.0,0.0,-14.205984,42.62998,2.5801508,
0.0390624994179234,2,-0.097351074,-0.604187,0.3585205,-0.90527344,0.41015625,-0.83984375,0.0,0.0,0.0,0.0,0.0,0.0,0.0,0.0,0.0,0.0,0.0,-0.23393491,-0.13623284,0.96286094,0.43841553,0.12628174,-0.2944336,-0.35546875,2.5185547,0.18261719,28.817736,-4.8431787,-2.8204422,19.934206,-0.2564087,-0.22283936,-0.9237671,0.2607422,-4.171875,-0.28710938,62.04033,14.447879,-50.595276,44.315178,0.41522217,0.44403076,0.68829346,0.7314453,6.307617,-3.6660156,15.67252,-29.752407,-107.23686,49.077423,0.0,0.0,0.0,0.0,0.0,0.0,0.0,-14.2666,-116.5649,57.62752,0.0,0.0,0.0,0.0,0.0,0.0,0.0,0.23393491,0.13623284,-0.96286094,-0.9907837,0.3255005,-0.1652832,0.7246094,2.1533203,0.2705078,36.122635,4.8431787,2.8204422,-19.934206,-1.0079346,0.24310303,0.07659912,0.21289062,0.73339844,-0.00390625,7.011792,-5.8811245,-50.41248,-2.6092339,-0.5644531,0.4633789,0.75115967,-0.09277344,-0.0859375,-0.2578125,13.6250105,-16.337397,-114.80672,27.884228,0.0,0.0,0.0,0.0,0.0,0.0,0.0,2.8648396,-112.847435,33.11821,0.0,0.0,0.0,0.0,0.0,0.0,0.0,-14.205984,42.62998,2.5801508,
0.0585937491268851,3,-0.051330566,-0.8514404,0.5708618,0.12890625,0.15332031,-0.06347656,0.0,0.0,0.0,0.0,0.0,0.0,0.0,0.0,0.0,0.0,0.0,-0.27295992,0.042642757,0.9611508,0.84088135,0.042175293,-0.4645996,-0.37890625,-0.09765625,0.23242188,1.344357,-5.651117,0.8828373,19.898802,-0.9747925,-0.029968262,-0.15942383,-0.06640625,0.0087890625,0.0390625,5.4944396,-6.7983274,-56.104202,20.779533,0.46228027,0.57281494,0.65753174,0.19824219,-0.14941406,-0.12402344,5.432819,-2.0030756,-127.91329,18.311417,0.0,0.0,0.0,0.0,0.0,0.0,0.0,17.054432,-128.6162,24.345232,0.0,0.0,0.0,0.0,0.0,0.0,0.0,0.27295992,-0.042642757,-0.9611508,-0.94073486,0.0017700195,-0.3112793,-0.06640625,0.6748047,1.0810547,5.4566817,5.651117,-0.8828373,-19.898802,-0.99816895,-0.123291016,-0.08508301,-0.017578125,0.44433594,0.30371094,5.022817,8.795636,-57.78813,-21.07383,-0.5546875,0.5027466,0.7374878,-0.01953125,0.13671875,0.00390625,52.053463,7.9558263,-129.70515,-24.807827,0.0,0.0,0.0,0.0,0.0,0.0,0.0,26.190027,-128.48152,-32.930996,0.0,0.0,0.0,0.0,0.0,0.0,0.0,0.86185133,44.96077,-1.7499859,
0.0781249988358468,4,-0.044006348,-0.8308716,0.5629883,0.14746094,0.20800781,-0.044921875,0.0,0.0,0.0,0.0,0.0,0.0,0.0,0.0,0.0,0.0,0.0,-0.26927826,0.042555995,0.9621749,0.8913574,0.04888916,-0.4699707,-0.20410156,-0.022460938,0.23144531,1.1986097,-5.5748954,0.881041,19.920004,-0.9816284,0.027770996,-0.14447021,-0.20214844,0.005859375,0.017578125,5.5063396,-6.781481,-56.104225,20.893099,0.44421387,0.5708618,0.6791992,0.27539062,-0.16796875,-0.18066406,5.3067374,-1.996037,-127.92179,18.591434,0.0,0.0,0.0,0.0,0.0,0.0,0.0,17.070297,-128.63237,24.598213,0.0,0.0,0.0,0.0,0.0,0.0,0.0,0.26927826,-0.042555995,-0.9621749,-0.9224243,0.032165527,-0.34545898,0.0078125,0.5410156,0.8535156,4.377659,5.5748954,-0.881041,-19.920004,-0.9736328,-0.08093262,-0.06591797,0.51464844,-0.17871094,0.01953125,4.924855,8.021503,-57.83067,-20.025177,-0.548584,0.5076294,0.71759033,0.055664062,0.17382812,0.040039062,49.662582,7.2201295,-129.75119,-23.656164,0.0,0.0,0.0,0.0,0.0,0.0,0.0,25.739588,-128.56998,-31.112915,0.0,0.0,0.0,0.0,0.0,0.0,0.0,1.0025673,44.958706,-1.7078941,
0.09765624854480849,5,-0.032470703,-0.7937012,0.5710449,0.14746094,0.15332031,-0.044921875,0.0,0.0,0.0,0.0,0.0,0.0,0.0,0.0,0.0,0.0,0.0,-0.26563287,0.0438286,0.9631273,0.91748047,0.0033569336,-0.46032715,-0.068359375,0.072265625,0.19335938,1.0326824,-5.499423,0.90738785,19.93972,-0.9906616,0.008850098,-0.1427002,-0.41601562,9.765625E-4,-0.061523438,5.5446086,-6.7164288,-56.070675,21.130262,0.4411621,0.5760498,0.6536255,0.2763672,-0.1875,-0.19921875,5.177292,-1.8883715,-127.89798,19.091143,0.0,0.0,0.0,0.0,0.0,0.0,0.0,17.185581,-128.63794,25.06976,0.0,0.0,0.0,0.0,0.0,0.0,0.0,0.26563287,-0.0438286,-0.9631273,-0.9121094,0.08203125,-0.3501587,0.12402344,0.484375,0.49414062,3.6463137,5.499423,-0.90738785,-19.93972,-1.019165,0.1237793,-0.08276367,0.62890625,-0.234375,0.01953125,4.596445,7.3113813,-57.87797,-19.273407,-0.5247803,0.54797363,0.70062256,0.14941406,0.2109375,0.076171875,47.012188,6.8844085,-129.81871,-22.529972,0.0,0.0,0.0,0.0,0.0,0.0,0.0,25.647501,-128.64734,-29.353722,0.0,0.0,0.0,0.0,0.0,0.0,0.0,1.1708231,44.953926,-1.7227823,
0.11718749825377019,6,-0.06488037,-0.8147583,0.5783081,0.091796875,0.20898438,-0.06347656,0.0,0.0,0.0,0.0,0.0,0.0,0.0,0.0,0.0,0.0,0.0,-0.2620519,0.042769562,0.96419686,0.8897095,0.07727051,-0.4020996,-0.049804688,0.072265625,0.119140625,0.866827,-5.4252863,0.88546246,19.961866,-0.98706055,-0.088378906,-0.19146729,-0.43554688,0.07421875,-0.0625,5.54521,-6.5510645,-56.092377,21.341228,0.4574585,0.6171875,0.63220215,0.23730469,-0.16796875,-0.18066406,4.966489,-1.737319,-127.92055,19.370926,0.0,0.0,0.0,0.0,0.0,0.0,0.0,17.334621,-128.66414,25.35302,0.0,0.0,0.0,0.0,0.0,0.0,0.0,0.2620519,-0.042769562,-0.96419686,-0.9216919,0.1630249,-0.35369873,0.21582031,0.21582031,0.076171875,3.191323,5.4252863,-0.88546246,-19.961866,-1.0078125,0.16821289,-0.06549072,0.13671875,-0.20214844,0.0,4.051106,6.8083935,-57.859123,-18.907948,-0.55548096,0.517334,0.67718506,0.22363281,0.24804688,0.18652344,44.66261,6.7194595,-129.82648,-21.47128,0.0,0.0,0.0,0.0,0.0,0.0,0.0,25.70583,-128.62024,-27.637135,0.0,0.0,0.0,0.0,0.0,0.0,0.0,1.2781053,44.955654,-1.6467631,
0.1367187479627319,7,-0.081848145,-0.80737305,0.545105,0.12890625,0.15429688,-0.044921875,0.0,0.0,0.0,0.0,0.0,0.0,0.0,0.0,0.0,0.0,0.0,-0.25923553,0.04129237,0.9651971,0.883667,0.0826416,-0.41601562,-0.05078125,0.072265625,0.08203125,0.9337703,-5.3669786,0.8548801,19.98257,-0.9661865,-0.123291016,-0.2041626,-0.2607422,0.0048828125,-0.021484375,5.4765053,-6.328352,-56.12542,21.427715,0.43658447,0.6616821,0.60491943,0.1796875,-0.16796875,-0.12402344,4.761315,-1.6137943,-127.959236,19.311516,0.0,0.0,0.0,0.0,0.0,0.0,0.0,17.464245,-128.71672,25.273201,0.0,0.0,0.0,0.0,0.0,0.0,0.0,0.25923553,-0.04129237,-0.9651971,-0.9176636,0.083984375,-0.29901123,0.29101562,0.15820312,0.056640625,3.1082869,5.3669786,-0.8548801,-19.98257,-0.97613525,0.04425049,-0.031921387,0.024414062,-0.16503906,-0.07714844,3.5872505,6.613204,-57.836,-18.865013,-0.56781006,0.5597534,0.67785645,0.16796875,0.2109375,0.15039062,42.811153,6.8195534,-129.82289,-20.955606,0.0,0.0,0.0,0.0,0.0,0.0,0.0,25.997429,-128.57587,-26.488804,0.0,0.0,0.0,0.0,0.0,0.0,0.0,1.3620791,44.96396,-1.5577847,
0.1562499976716936,8,-0.09289551,-0.8082886,0.56695557,0.09082031,0.17285156,-0.026367188,0.0,0.0,0.0,0.0,0.0,0.0,0.0,0.0,0.0,0.0,0.0,-0.25596574,0.039577283,0.96618694,0.845459,0.15460205,-0.39263916,-0.09277344,-0.022460938,0.028320312,1.2955822,-5.2992845,0.81937253,20.003063,-0.9610596,-0.089782715,-0.19903564,-0.06640625,0.0087890625,0.0390625,5.2066154,-6.036969,-56.164112,21.273369,0.41815186,0.60705566,0.61346436,0.08203125,-0.14941406,-0.123046875,4.6194005,-1.4786243,-128.00056,18.963768,0.0,0.0,0.0,0.0,0.0,0.0,0.0,17.602808,-128.76253,24.917858,0.0,0.0,0.0,0.0,0.0,0.0,0.0,0.25596574,-0.039577283,-0.96618694,-0.9250488,0.12298584,-0.29882812,0.32714844,0.13769531,0.09375,3.2074773,5.2992845,-0.81937253,-20.003063,-0.9824219,0.028564453,-0.0021362305,0.25195312,-0.18164062,-0.115234375,3.3169417,6.5233793,-57.79619,-18.829214,-0.5679321,0.567688,0.6838989,0.14941406,0.13574219,0.07519531,40.872486,7.0943108,-129.78165,-20.680248,0.0,0.0,0.0,0.0,0.0,0.0,0.0,26.436316,-128.50925,-25.60517,0.0,0.0,0.0,0.0,0.0,0.0,0.0,1.4989492,44.965374,-1.4447802,
0.1757812473806553,9,-0.08300781,-0.81921387,0.55584717,0.09082031,0.15429688,-0.044921875,0.0,0.0,0.0,0.0,0.0,0.0,0.0,0.0,0.0,0.0,0.0,-0.25436684,0.037875418,0.96670663,0.82714844,0.17260742,-0.46923828,-0.15136719,-0.09765625,0.046875,1.5714695,-5.2661824,0.78413844,20.013824,-0.97906494,-0.091674805,-0.2399292,0.087890625,0.05078125,0.041015625,4.8451285,-5.903035,-56.207607,20.909948,0.42340088,0.63531494,0.62054443,0.04296875,-0.111328125,-0.103515625,4.5045877,-1.5478253,-128.05066,18.439672,0.0,0.0,0.0,0.0,0.0,0.0,0.0,17.540653,-128.81798,24.373184,0.0,0.0,0.0,0.0,0.0,0.0,0.0,0.25436684,-0.037875418,-0.96670663,-0.9031372,0.21777344,-0.35827637,0.3095703,0.15722656,0.09472656,3.0664372,5.2661824,-0.78413844,-20.013824,-1.005127,0.14642334,-0.001953125,0.2890625,-0.16210938,-0.057617188,2.9778898,6.33057,-57.760124,-18.621788,-0.5275879,0.5606079,0.64727783,0.020507812,-0.03125,0.001953125,38.87089,7.3109875,-129.75797,-20.006077,0.0,0.0,0.0,0.0,0.0,0.0,0.0,26.793528,-128.46692,-24.33445,0.0,0.0,0.0,0.0,0.0,0.0,0.0,1.5548359,44.967617,-1.3527046,
0.19531249708961698,10,-0.067993164,-0.82250977,0.5625,0.072265625,0.13671875,-0.026367188,0.0,0.0,0.0,0.0,0.0,0.0,0.0,0.0,0.0,0.0,0.0,-0.25285316,0.035603233,0.9673045,0.84973145,0.18353271,-0.45147705,-0.14941406,-0.041015625,0.083984375,1.7706729,-5.234846,0.7370973,20.026201,-0.96502686,-0.07574463,-0.20697021,0.107421875,-0.0048828125,0.061523438,4.528267,-5.8008614,-56.26144,20.564802,0.4675293,0.63409424,0.59002686,0.022460938,-0.091796875,-0.12207031,4.451839,-1.5880961,-128.105,17.975897,0.0,0.0,0.0,0.0,0.0,0.0,0.0,17.509932,-128.8754,23.876831,0.0,0.0,0.0,0.0,0.0,0.0,0.0,0.25285316,-0.035603233,-0.9673045,-0.9484253,0.2411499,-0.39575195,0.09863281,0.12109375,0.13085938,2.8468199,5.234846,-0.7370973,-20.026201,-1.007019,0.16210938,-0.01977539,0.0048828125,-0.12792969,-0.01953125,2.837453,6.059125,-57.704025,-18.123219,-0.5639038,0.5794678,0.66607666,-0.0546875,-0.08691406,-0.109375,37.18672,7.3582997,-129.70093,-18.857986,0.0,0.0,0.0,0.0,0.0,0.0,0.0,26.951382,-128.41136,-22.64915,0.0,0.0,0.0,0.0,0.0,0.0,0.0,1.5706859,44.975174,-1.2448083,
0.21484374679857868,11,-0.07824707,-0.8399658,0.5496826,0.072265625,0.099609375,-0.044921875,0.0,0.0,0.0,0.0,0.0,0.0,0.0,0.0,0.0,0.0,0.0,-0.25193998,0.0336052,0.96749276,0.8411865,0.15966797,-0.43847656,-0.16992188,-0.07910156,0.083984375,1.9182627,-5.215939,0.6957319,20.0301,-0.97094727,-0.06591797,-0.20703125,0.08886719,-0.04296875,0.080078125,4.2664547,-5.694865,-56.306538,20.315891,0.41333008,0.6524048,0.5852051,9.765625E-4,-0.015625,-0.06542969,4.431907,-1.5916758,-128.15018,17.653934,0.0,0.0,0.0,0.0,0.0,0.0,0.0,17.498955,-128.90076,23.575405,0.0,0.0,0.0,0.0,0.0,0.0,0.0,0.25193998,-0.0336052,-0.96749276,-0.96154785,0.1453247,-0.2929077,-0.18847656,0.0087890625,0.11035156,2.9791384,5.215939,-0.6957319,-20.0301,-0.9810791,0.061828613,-0.039733887,-0.35351562,-0.07421875,-0.078125,2.8808596,6.0506673,-57.64344,-17.641733,-0.57958984,0.5282593,0.6817627,-0.14746094,-0.14257812,-0.18261719,35.919563,7.518237,-129.64047,-17.843311,0.0,0.0,0.0,0.0,0.0,0.0,0.0,27.20607,-128.39653,-21.123953,0.0,0.0,0.0,0.0,0.0,0.0,0.0,1.5639924,44.972515,-1.154818,
0.23437499650754037,12,-0.09899902,-0.8129883,0.54730225,0.109375,0.06347656,-0.02734375,0.0,0.0,0.0,0.0,0.0,0.0,0.0,0.0,0.0,0.0,0.0,-0.2523115,0.032844227,0.967401,0.90423584,0.11505127,-0.4699707,-0.24804688,-0.13574219,0.06640625,2.1560392,-5.2236285,0.67997724,20.0282,-0.99212646,-0.10168457,-0.17767334,0.08886719,-0.04296875,0.061523438,4.1160398,-5.6442986,-56.32171,20.033197,0.44274902,0.6671753,0.6334839,-0.057617188,0.022460938,-0.0087890625,4.444529,-1.6014004,-128.16144,17.149015,0.0,0.0,0.0,0.0,0.0,0.0,0.0,17.479872,-128.90002,23.106316,0.0,0.0,0.0,0.0,0.0,0.0,0.0,0.2523115,-0.032844227,-0.967401,-0.91363525,0.03289795,-0.2913208,-0.37597656,0.049804688,0.016601562,3.257083,5.2236285,-0.67997724,-20.0282,-0.9639282,-0.13568115,-0.02758789,-0.25976562,-0.0546875,-0.05859375,3.0723689,6.1870413,-57.61758,-17.439697,-0.5605469,0.517395,0.69311523,-0.16601562,-0.16113281,-0.21972656,34.917698,7.686168,-129.61543,-17.60498,0.0,0.0,0.0,0.0,0.0,0.0,0.0,27.450983,-128.43051,-20.408888,0.0,0.0,0.0,0.0,0.0,0.0,0.0,1.6190481,44.970913,-1.1045371,
0.2539062462165021,13,-0.12408447,-0.8196411,0.5900879,0.072265625,0.0087890625,-0.02734375,0.0,0.0,0.0,0.0,0.0,0.0,0.0,0.0,0.0,0.0,0.0,-0.25234497,0.031505357,0.9674147,0.89160156,0.109313965,-0.5108032,-0.2861328,-0.13574219,0.06640625,2.3291056,-5.224323,0.65225863,20.028482,-0.9638672,-0.038757324,-0.15734863,0.08886719,-0.09765625,0.04296875,4.0129795,-5.6711535,-56.34988,19.734695,0.46270752,0.6473999,0.63238525,-0.057617188,0.041992188,0.047851562,4.47282,-1.5839324,-128.1865,16.750603,0.0,0.0,0.0,0.0,0.0,0.0,0.0,17.49346,-128.91689,22.721653,0.0,0.0,0.0,0.0,0.0,0.0,0.0,0.25234497,-0.031505357,-0.9674147,-0.9136963,-0.03704834,-0.33398438,-0.3359375,0.087890625,-0.001953125,3.4058232,5.224323,-0.65225863,-20.028482,-0.9995117,-0.14019775,-0.022460938,-0.013671875,-0.032226562,-0.020507812,3.2541964,6.234332,-57.591984,-17.452719,-0.5566406,0.5194092,0.70495605,-0.12792969,-0.19921875,-0.16503906,33.788715,7.835674,-129.58916,-17.866455,0.0,0.0,0.0,0.0,0.0,0.0,0.0,27.664062,-128.47466,-20.219114,0.0,0.0,0.0,0.0,0.0,0.0,0.0,1.680739,44.969547,-1.026091,
0.2734374959254638,14,-0.13104248,-0.8104248,0.55670166,0.052734375,-0.0078125,0.047851562,0.0,0.0,0.0,0.0,0.0,0.0,0.0,0.0,0.0,0.0,0.0,-0.2522154,0.029713575,0.96734565,0.89160156,0.109313965,-0.5108032,-0.2861328,-0.13574219,0.06640625,2.3071535,-5.2216406,0.6151631,20.027052,-0.987854,-0.042541504,-0.13983154,-0.046875,-0.083984375,0.059570312,4.1039844,-5.6684713,-56.38698,19.733265,0.42840576,0.64331055,0.5979004,-0.05859375,0.060546875,0.08496094,4.547906,-1.4197874,-128.21512,16.766306,0.0,0.0,0.0,0.0,0.0,0.0,0.0,17.645847,-128.92465,22.777128,0.0,0.0,0.0,0.0,0.0,0.0,0.0,0.2522154,-0.029713575,-0.96734565,-0.91833496,-0.068725586,-0.34301758,-0.2607422,0.08691406,-0.020507812,3.3198917,5.2216406,-0.6151631,-20.027052,-1.0021973,-0.06341553,-0.013793945,0.0048828125,-0.0703125,-9.765625E-4,3.1029289,6.0686445,-57.5605,-17.609379,-0.5236206,0.53411865,0.6925049,-0.12890625,-0.16113281,-0.14550781,32.577057,7.803048,-129.55734,-18.06615,0.0,0.0,0.0,0.0,0.0,0.0,0.0,27.680729,-128.49068,-19.973698,0.0,0.0,0.0,0.0,0.0,0.0,0.0,1.746245,44.96227,-0.92579114,
0.2929687456344255,15,-0.15679932,-0.7872925,0.5553589,0.0146484375,-0.061523438,0.08496094,0.0,0.0,0.0,0.0,0.0,0.0,0.0,0.0,0.0,0.0,0.0,-0.2513755,0.027393341,0.96757776,0.8825073,0.05065918,-0.44995117,0.0234375,0.053710938,-0.06542969,2.390892,-5.2042527,0.5671271,20.031858,-0.9828491,-0.03552246,-0.110961914,-0.14355469,-0.048828125,0.0390625,4.034491,-5.5653167,-56.435085,19.612185,0.4282837,0.62060547,0.61846924,-0.1171875,0.11816406,0.123046875,4.5929065,-1.130578,-128.25475,16.728783,0.0,0.0,0.0,0.0,0.0,0.0,0.0,17.915272,-128.94391,22.802513,0.0,0.0,0.0,0.0,0.0,0.0,0.0,0.2513755,-0.027393341,-0.96757776,-0.91363525,-0.040771484,-0.3458252,-0.27929688,0.068359375,-0.0390625,3.274707,5.2042527,-0.5671271,-20.031858,-1.0079346,7.324219E-4,-0.013183594,-0.2607422,-0.016601562,0.055664062,2.818556,5.9700694,-57.518353,-17.766163,-0.5455322,0.51934814,0.6888428,-0.16503906,-0.23632812,-0.14550781,31.55275,7.7948236,-129.51105,-18.06256,0.0,0.0,0.0,0.0,0.0,0.0,0.0,27.712276,-128.48676,-19.533833,0.0,0.0,0.0,0.0,0.0,0.0,0.0,1.7743516,44.96098,-0.8119273,
0.3124999953433872,16,-0.11694336,-0.8067627,0.56048584,-0.0234375,-0.07910156,0.12207031,0.0,0.0,0.0,0.0,0.0,0.0,0.0,0.0,0.0,0.0,0.0,-0.25284284,0.024719685,0.9672335,0.8936157,0.053527832,-0.4580078,0.099609375,0.034179688,-0.083984375,2.3175645,-5.2346315,0.5117742,20.02473,-0.99072266,-0.005004883,-0.17242432,-0.18261719,-0.049804688,0.018554688,4.011808,-5.543453,-56.489334,19.67217,0.4343872,0.6192627,0.64404297,-0.09863281,0.11816406,0.123046875,4.561538,-1.0356946,-128.31058,16.936028,0.0,0.0,0.0,0.0,0.0,0.0,0.0,17.994102,-128.97678,23.06175,0.0,0.0,0.0,0.0,0.0,0.0,0.0,0.25284284,-0.024719685,-0.9672335,-0.9499512,0.0037841797,-0.3083496,-0.2607422,0.06738281,-0.020507812,3.329902,5.2346315,-0.5117742,-20.02473,-1.0256348,-0.099975586,-0.029907227,-0.46875,0.038085938,0.017578125,2.6931906,5.987746,-57.464443,-17.802118,-0.52008057,0.45037842,0.7133789,-0.0546875,-0.08691406,-0.053710938,30.773329,7.8287597,-129.4529,-17.991585,0.0,0.0,0.0,0.0,0.0,0.0,0.0,27.775103,-128.45618,-19.010637,0.0,0.0,0.0,0.0,0.0,0.0,0.0,1.7899841,44.961052,-0.6811576,
0.3320312450523489,17,-0.06915283,-0.8354492,0.5949707,-0.00390625,-0.060546875,0.15917969,0.0,0.0,0.0,0.0,0.0,0.0,0.0,0.0,0.0,0.0,0.0,-0.25414014,0.022090204,0.9669419,0.89453125,0.04522705,-0.44207764,0.15625,0.053710938,-0.13964844,2.2954166,-5.261489,0.4573357,20.018694,-0.99676514,-0.012756348,-0.18048096,-0.125,-0.009765625,-0.018554688,3.9486842,-5.521366,-56.545483,19.694366,0.4595337,0.6287842,0.63720703,-0.07910156,0.11816406,0.14160156,4.5427346,-0.9904332,-128.37144,17.083458,0.0,0.0,0.0,0.0,0.0,0.0,0.0,18.019596,-129.02647,23.270657,0.0,0.0,0.0,0.0,0.0,0.0,0.0,0.25414014,-0.022090204,-0.9669419,-0.9606323,-0.027404785,-0.33410645,-0.14941406,0.0087890625,0.016601562,3.4365547,5.261489,-0.4573357,-20.018694,-1.0189209,-0.17102051,-0.028564453,-0.08984375,0.0625,-0.020507812,2.7647042,6.0632997,-57.418873,-17.890251,-0.5474243,0.48883057,0.71240234,-0.017578125,0.005859375,0.0029296875,29.85472,7.9057636,-129.4053,-18.284388,0.0,0.0,0.0,0.0,0.0,0.0,0.0,27.870363,-128.4084,-18.867138,0.0,0.0,0.0,0.0,0.0,0.0,0.0,1.8174767,44.96109,-0.5494703,
0.3515624947613106,18,-0.08972168,-0.8744507,0.592041,-0.00390625,-0.07910156,0.17773438,0.0,0.0,0.0,0.0,0.0,0.0,0.0,0.0,0.0,0.0,0.0,-0.25753474,0.020308647,0.966352,0.87164307,0.09661865,-0.44976807,0.29003906,0.052734375,-0.17578125,2.329526,-5.331768,0.42045197,20.006483,-0.96569824,-0.0015869141,-0.1463623,-0.16308594,-0.01171875,0.0,3.8349195,-5.509702,-56.585167,19.687822,0.4404297,0.6341553,0.61657715,-0.080078125,0.15625,0.14160156,4.561195,-0.9572902,-128.40935,17.23067,0.0,0.0,0.0,0.0,0.0,0.0,0.0,18.031164,-129.05524,23.483896,0.0,0.0,0.0,0.0,0.0,0.0,0.0,0.25753474,-0.020308647,-0.966352,-0.91033936,0.05291748,-0.390625,-0.015625,0.026367188,0.016601562,3.428969,5.331768,-0.42045197,-20.006483,-0.9937134,-0.021606445,-0.036376953,0.23144531,0.046875,0.017578125,2.7063138,6.100408,-57.379837,-17.964602,-0.56036377,0.4996338,0.6800537,0.01953125,0.061523438,0.021484375,28.557158,8.032712,-129.36554,-18.39713,0.0,0.0,0.0,0.0,0.0,0.0,0.0,28.005276,-128.37317,-18.576458,0.0,0.0,0.0,0.0,0.0,0.0,0.0,1.82671,44.97347,-0.458331,
0.37109374447027227,19,-0.06719971,-0.83618164,0.541626,-0.00390625,-0.060546875,0.17773438,0.0,0.0,0.0,0.0,0.0,0.0,0.0,0.0,0.0,0.0,0.0,-0.26234692,0.01870968,0.9651067,0.8632202,0.11639404,-0.43774414,0.32714844,0.013671875,-0.13867188,2.374133,-5.4313946,0.38734832,19.980701,-0.96875,-0.0013427734,-0.18701172,-0.125,0.02734375,-0.01953125,3.6810524,-5.52873,-56.617287,19.62804,0.446167,0.5790405,0.6437988,-0.07910156,0.11816406,0.123046875,4.5501018,-0.9855037,-128.44962,17.325169,0.0,0.0,0.0,0.0,0.0,0.0,0.0,17.983501,-129.08087,23.638367,0.0,0.0,0.0,0.0,0.0,0.0,0.0,0.26234692,-0.01870968,-0.9651067,-0.8999634,0.10290527,-0.40014648,0.00390625,0.064453125,0.0546875,3.416327,5.4313946,-0.38734832,-19.980701,-1.0023193,0.07476807,-0.048461914,0.061523438,0.08300781,0.017578125,2.505616,6.109514,-57.34607,-17.882114,-0.56762695,0.52923584,0.68548584,0.01953125,0.024414062,0.001953125,27.206741,7.994414,-129.33832,-17.992332,0.0,0.0,0.0,0.0,0.0,0.0,0.0,27.967068,-128.34546,-17.768421,0.0,0.0,0.0,0.0,0.0,0.0,0.0,1.8227372,44.97516,-0.3764155,
0.39062499417923396,20,-0.041748047,-0.81018066,0.5532837,-0.00390625,-0.060546875,0.15917969,0.0,0.0,0.0,0.0,0.0,0.0,0.0,0.0,0.0,0.0,0.0,-0.26667455,0.018487968,0.9639899,0.86486816,0.14538574,-0.44866943,0.23242188,0.033203125,-0.12011719,2.4698167,-5.5209885,0.3827582,19.95758,-0.9897461,-0.0068359375,-0.1763916,-0.125,-0.0107421875,0.0,3.5743458,-5.5589824,-56.622013,19.535036,0.4673462,0.588501,0.64782715,-0.01953125,0.060546875,0.046875,4.5211673,-0.99555063,-128.46106,17.32241,0.0,0.0,0.0,0.0,0.0,0.0,0.0,17.964365,-129.08621,23.670084,0.0,0.0,0.0,0.0,0.0,0.0,0.0,0.26667455,-0.018487968,-0.9639899,-0.90838623,0.14105225,-0.40490723,0.001953125,0.0068359375,0.03515625,3.4274838,5.5209885,-0.3827582,-19.95758,-1.0126953,0.028259277,-0.055786133,-0.08984375,0.04296875,-9.765625E-4,2.4013479,6.085955,-57.34213,-17.719488,-0.54052734,0.5183716,0.6867676,0.01953125,-0.03125,-0.07324219,26.10377,7.915207,-129.33484,-17.521912,0.0,0.0,0.0,0.0,0.0,0.0,0.0,27.878197,-128.32779,-16.911627,0.0,0.0,0.0,0.0,0.0,0.0,0.0,1.8445687,44.977318,-0.3523269,
0.41015624388819566,21,-0.040100098,-0.83587646,0.5648804,-0.022460938,-0.061523438,0.103515625,0.0,0.0,0.0,0.0,0.0,0.0,0.0,0.0,0.0,0.0,0.0,-0.27148637,0.018123819,0.96240455,0.864563,0.13140869,-0.4456787,0.099609375,0.053710938,-0.06542969,2.5492935,-5.62061,0.37521926,19.924757,-0.9567261,-0.0028076172,-0.16802979,-0.125,0.045898438,-0.01953125,3.392749,-5.5743923,-56.629883,19.38958,0.45233154,0.6035156,0.6321411,-0.038085938,0.022460938,0.046875,4.4770656,-1.0141644,-128.46756,17.311195,0.0,0.0,0.0,0.0,0.0,0.0,0.0,17.939457,-129.08739,23.672546,0.0,0.0,0.0,0.0,0.0,0.0,0.0,0.27148637,-0.018123819,-0.96240455,-0.9069214,0.118774414,-0.3932495,-0.14941406,0.0087890625,0.03515625,3.4521296,5.62061,-0.37521926,-19.924757,-0.9986572,-0.029968262,-0.08721924,-0.109375,0.08105469,0.017578125,2.4579005,6.1200194,-57.323166,-17.514465,-0.5695801,0.5194092,0.6963501,-0.017578125,-0.049804688,-0.072265625,25.117403,7.796516,-129.31833,-17.17493,0.0,0.0,0.0,0.0,0.0,0.0,0.0,27.7438,-128.30898,-16.203236,0.0,0.0,0.0,0.0,0.0,0.0,0.0,1.8169285,44.967823,-0.33428493,
0.42968749359715736,22,-0.042785645,-0.8140869,0.5532837,-0.022460938,-0.04296875,0.08496094,0.0,0.0,0.0,0.0,0.0,0.0,0.0,0.0,0.0,0.0,0.0,-0.27436492,0.018030778,0.96157104,0.8619385,0.12567139,-0.4975586,0.061523438,0.0146484375,-0.009765625,2.596763,-5.680204,0.37329304,19.907501,-0.98480225,-0.01159668,-0.21203613,-0.06640625,0.028320312,9.765625E-4,3.2252507,-5.585984,-56.62714,19.2857,0.43927002,0.60076904,0.6321411,0.0,0.041992188,0.028320312,4.45817,-1.1169329,-128.47552,17.26131,0.0,0.0,0.0,0.0,0.0,0.0,0.0,17.833542,-129.0976,23.63028,0.0,0.0,0.0,0.0,0.0,0.0,0.0,0.27436492,-0.018030778,-0.96157104,-0.90057373,0.07208252,-0.4052124,-0.20507812,0.047851562,-0.001953125,3.4454308,5.680204,-0.37329304,-19.907501,-1.0098267,-0.031799316,-0.08416748,-0.08984375,0.04296875,0.017578125,2.5358987,6.090638,-57.32273,-17.349636,-0.5449829,0.4385376,0.7088623,-0.12988281,-0.0126953125,-0.0703125,24.02227,7.64983,-129.31503,-16.921906,0.0,0.0,0.0,0.0,0.0,0.0,0.0,27.578947,-128.30583,-15.58296,0.0,0.0,0.0,0.0,0.0,0.0,0.0,1.791449,44.968052,-0.33205906,
0.44921874330611905,23,-0.050231934,-0.8444214,0.5471802,-0.022460938,-0.025390625,0.047851562,0.0,0.0,0.0,0.0,0.0,0.0,0.0,0.0,0.0,0.0,0.0,-0.27655524,0.019730508,0.960873,0.8619385,0.12567139,-0.4975586,0.061523438,0.0146484375,-0.009765625,2.5914056,-5.7255507,0.40848267,19.893051,-0.99487305,-0.044311523,-0.18054199,-0.0087890625,0.029296875,0.020507812,3.2025907,-5.631331,-56.591953,19.27125,0.4605713,0.6187744,0.66174316,9.765625E-4,0.022460938,0.028320312,4.4461594,-1.2174091,-128.44016,17.204355,0.0,0.0,0.0,0.0,0.0,0.0,0.0,17.728823,-129.0567,23.58989,0.0,0.0,0.0,0.0,0.0,0.0,0.0,0.27655524,-0.019730508,-0.960873,-0.89697266,0.0546875,-0.38757324,-0.2421875,0.047851562,-0.020507812,3.3105612,5.7255507,-0.40848267,-19.893051,-1.013916,-0.03363037,-0.09313965,-0.12792969,0.04296875,-0.001953125,2.5382133,6.0439186,-57.35225,-17.249462,-0.55578613,0.5194702,0.73272705,-0.017578125,0.024414062,0.0029296875,23.075039,7.468849,-129.34691,-16.715591,0.0,0.0,0.0,0.0,0.0,0.0,0.0,27.37012,-128.32816,-15.032566,0.0,0.0,0.0,0.0,0.0,0.0,0.0,1.7447824,44.967545,-0.42118338,
0.46874999301508075,24,-0.015014648,-0.8353882,0.5684204,-0.041992188,-0.061523438,0.047851562,0.0,0.0,0.0,0.0,0.0,0.0,0.0,0.0,0.0,0.0,0.0,-0.2778183,0.021283686,0.96058756,0.8734131,0.09197998,-0.46875,-0.053710938,-0.0029296875,0.0087890625,2.7810116,-5.7517004,0.44063824,19.88714,-0.9708252,-0.021240234,-0.18414307,0.030273438,0.01171875,0.021484375,3.0248506,-5.545989,-56.558197,19.11074,0.45855713,0.6177368,0.66571045,-0.01953125,0.041992188,0.028320312,4.427707,-1.1552625,-128.4054,17.019447,0.0,0.0,0.0,0.0,0.0,0.0,0.0,17.788555,-129.01546,23.411106,0.0,0.0,0.0,0.0,0.0,0.0,0.0,0.2778183,-0.021283686,-0.96058756,-0.9029541,0.011962891,-0.39074707,-0.203125,0.08691406,-0.0390625,3.104758,5.7517004,-0.44063824,-19.88714,-1.0150146,-0.050231934,-0.08135986,-0.07128906,0.024414062,-9.765625E-4,2.5045218,5.914709,-57.385914,-17.235235,-0.55548096,0.49969482,0.70477295,-0.017578125,-0.0126953125,0.0029296875,22.135864,7.2459702,-129.38716,-16.643604,0.0,0.0,0.0,0.0,0.0,0.0,0.0,27.116404,-128.36383,-14.622913,0.0,0.0,0.0,0.0,0.0,0.0,0.0,1.7169805,44.972656,-0.49987674,
0.48828124272404244,25,-0.046203613,-0.8436279,0.5609741,0.0146484375,-0.025390625,0.08496094,0.0,0.0,0.0,0.0,0.0,0.0,0.0,0.0,0.0,0.0,0.0,-0.27915192,0.02222564,0.96013826,0.8841553,0.11541748,-0.46185303,-0.0546875,-0.022460938,0.009765625,2.8751462,-5.779311,0.46013972,19.87784,-0.9859009,-0.05053711,-0.1675415,0.06933594,0.032226562,0.0029296875,2.9838657,-5.5073814,-56.540356,19.065334,0.4494629,0.6350708,0.6116333,-0.0390625,0.060546875,0.047851562,4.46436,-1.0674067,-128.38353,16.976933,0.0,0.0,0.0,0.0,0.0,0.0,0.0,17.872478,-128.99608,23.383715,0.0,0.0,0.0,0.0,0.0,0.0,0.0,0.27915192,-0.02222564,-0.96013826,-0.9224243,0.020690918,-0.36816406,-0.12792969,0.0859375,-9.765625E-4,2.9828815,5.779311,-0.46013972,-19.87784,-0.9884033,-0.0067749023,-0.082092285,-0.033203125,0.043945312,-0.020507812,2.4376702,5.835538,-57.40358,-17.216278,-0.5557251,0.50183105,0.7523804,-0.055664062,0.024414062,0.00390625,21.148186,7.0893636,-129.4036,-16.522814,0.0,0.0,0.0,0.0,0.0,0.0,0.0,26.923042,-128.37883,-14.175087,0.0,0.0,0.0,0.0,0.0,0.0,0.0,1.7066287,44.97075,-0.5448122,
0.5078124924330042,26,-0.08001709,-0.8242798,0.5666504,-0.00390625,-0.0068359375,0.103515625,0.0,0.0,0.0,0.0,0.0,0.0,0.0,0.0,0.0,0.0,0.0,-0.28096172,0.022179658,0.95951545,0.91186523,0.09051514,-0.446167,-0.016601562,-0.022460938,-0.0087890625,2.9512122,-5.816778,0.45918763,19.864943,-0.9998779,-0.04046631,-0.1161499,0.06933594,0.05078125,0.022460938,2.9777582,-5.451516,-56.534744,19.053873,0.45629883,0.5936279,0.6380005,-0.07714844,0.060546875,0.06640625,4.4948363,-0.91252995,-128.37886,16.949978,0.0,0.0,0.0,0.0,0.0,0.0,0.0,18.021313,-128.98563,23.370728,0.0,0.0,0.0,0.0,0.0,0.0,0.0,0.28096172,-0.022179658,-0.95951545,-0.9055176,0.054992676,-0.3511963,-0.0146484375,0.064453125,0.036132812,2.873648,5.816778,-0.45918763,-19.864943,-1.0180054,-0.012451172,-0.05609131,-0.051757812,0.043945312,-9.765625E-4,2.3020577,5.7595634,-57.404205,-17.245897,-0.5324707,0.50946045,0.694458,-0.017578125,0.024414062,0.0029296875,20.220613,6.9957952,-129.39938,-16.422144,0.0,0.0,0.0,0.0,0.0,0.0,0.0,26.790771,-128.37672,-13.761301,0.0,0.0,0.0,0.0,0.0,0.0,0.0,1.7061825,44.966682,-0.53982836,
0.5273437421419659,27,-0.07910156,-0.83239746,0.6050415,0.0146484375,-0.0068359375,0.08496094,0.0,0.0,0.0,0.0,0.0,0.0,0.0,0.0,0.0,0.0,0.0,-0.28113028,0.022524178,0.95942444,0.88342285,0.087524414,-0.45690918,0.00390625,0.015625,0.0087890625,3.048895,-5.820269,0.46632037,19.863062,-0.9837036,-0.0014648438,-0.15649414,0.087890625,0.033203125,-0.015625,2.9628637,-5.3861823,-56.528374,19.041296,0.41033936,0.6282959,0.64801025,-0.0390625,0.060546875,0.06640625,4.538248,-0.8017626,-128.3616,16.88894,0.0,0.0,0.0,0.0,0.0,0.0,0.0,18.126663,-128.95772,23.328373,0.0,0.0,0.0,0.0,0.0,0.0,0.0,0.28113028,-0.022524178,-0.95942444,-0.9524536,0.057006836,-0.36712646,0.00390625,0.064453125,0.036132812,2.8942823,5.820269,-0.46632037,-19.863062,-1.0079956,-0.028259277,-0.036376953,0.0048828125,0.043945312,-9.765625E-4,2.1990025,5.8013086,-57.409042,-17.279644,-0.5456543,0.5095825,0.72247314,-0.017578125,0.005859375,0.0029296875,19.430342,7.069419,-129.40872,-16.373127,0.0,0.0,0.0,0.0,0.0,0.0,0.0,26.823906,-128.3934,-13.421502,0.0,0.0,0.0,0.0,0.0,0.0,0.0,1.7305207,44.9642,-0.54853714,
0.5468749918509276,28,-0.07409668,-0.82733154,0.5654907,-0.00390625,-0.0078125,0.047851562,0.0,0.0,0.0,0.0,0.0,0.0,0.0,0.0,0.0,0.0,0.0,-0.280774,0.02257727,0.95955575,0.8721924,0.1237793,-0.4677124,0.0048828125,0.053710938,-0.009765625,3.1175315,-5.8128924,0.4674195,19.86578,-0.9848633,-0.045959473,-0.15661621,0.068359375,0.0703125,-0.0546875,2.9366498,-5.3184085,-56.529015,19.013721,0.44934082,0.5984497,0.65179443,-0.078125,0.09863281,0.103515625,4.6109967,-0.6856513,-128.35866,16.841799,0.0,0.0,0.0,0.0,0.0,0.0,0.0,18.22808,-128.95027,23.324759,0.0,0.0,0.0,0.0,0.0,0.0,0.0,0.280774,-0.02257727,-0.95955575,-0.9213257,0.039916992,-0.33459473,0.00390625,0.064453125,0.0546875,2.8894763,5.8128924,-0.4674195,-19.86578,-1.0159912,-0.022216797,-0.058166504,0.0048828125,0.043945312,0.017578125,2.1028235,5.8159995,-57.414627,-17.309328,-0.5673218,0.487854,0.6890259,-0.017578125,-0.0126953125,0.0029296875,18.618067,7.072391,-129.41183,-16.321575,0.0,0.0,0.0,0.0,0.0,0.0,0.0,26.779495,-128.39673,-13.075281,0.0,0.0,0.0,0.0,0.0,0.0,0.0,1.7294669,44.965416,-0.55192935,
0.5664062415598893,29,-0.065979004,-0.8225708,0.5713501,-0.07910156,-0.0068359375,0.0107421875,0.0,0.0,0.0,0.0,0.0,0.0,0.0,0.0,0.0,0.0,0.0,-0.28107473,0.02269901,0.9594945,0.8596802,0.11462402,-0.489563,-0.0146484375,0.034179688,0.0087890625,3.1213598,-5.819119,0.4699399,19.864508,-0.95892334,-0.06689453,-0.17120361,0.12695312,0.052734375,0.00390625,2.9567788,-5.334396,-56.524975,18.964382,0.43249512,0.6359863,0.6352539,-0.13769531,0.13769531,0.123046875,4.700655,-0.69225264,-128.34972,16.719538,0.0,0.0,0.0,0.0,0.0,0.0,0.0,18.20039,-128.92032,23.26391,0.0,0.0,0.0,0.0,0.0,0.0,0.0,0.28107473,-0.02269901,-0.9594945,-0.9320679,0.052612305,-0.36114502,0.00390625,0.064453125,0.0546875,2.867852,5.819119,-0.4699399,-19.864508,-1.0079956,-0.040771484,-0.055419922,-0.013671875,0.08203125,-0.001953125,1.9866247,5.8547697,-57.422726,-17.34096,-0.555603,0.49188232,0.74035645,-0.036132812,-0.0126953125,0.0029296875,17.836077,7.067172,-129.41759,-16.257877,0.0,0.0,0.0,0.0,0.0,0.0,0.0,26.728668,-128.40532,-12.747021,0.0,0.0,0.0,0.0,0.0,0.0,0.0,1.7121608,44.967228,-0.56224036,
0.585937491268851,30,-0.084228516,-0.83599854,0.5616455,-0.060546875,-0.0068359375,0.029296875,0.0,0.0,0.0,0.0,0.0,0.0,0.0,0.0,0.0,0.0,0.0,-0.28176546,0.022965495,0.95927334,0.84606934,0.12225342,-0.45751953,-0.015625,0.015625,-0.028320312,3.201001,-5.833419,0.4754569,19.859932,-0.9869995,-0.07519531,-0.1696167,0.22363281,0.07421875,-0.033203125,2.941512,-5.299604,-56.518925,18.895819,0.4310913,0.590271,0.616333,-0.17773438,0.19433594,0.1796875,4.8782115,-0.64226055,-128.33946,16.526186,0.0,0.0,0.0,0.0,0.0,0.0,0.0,18.22366,-128.8819,23.153004,0.0,0.0,0.0,0.0,0.0,0.0,0.0,0.28176546,-0.022965495,-0.95927334,-0.9083252,0.09411621,-0.40515137,-0.0146484375,0.083984375,0.055664062,2.8062365,5.833419,-0.4754569,-19.859932,-0.9986572,-0.021362305,-0.070251465,-0.033203125,0.043945312,-9.765625E-4,1.9717923,5.7676773,-57.424854,-17.289474,-0.5662842,0.4897461,0.6810913,-0.017578125,0.024414062,0.0029296875,17.079441,6.921539,-129.42317,-16.122408,0.0,0.0,0.0,0.0,0.0,0.0,0.0,26.534937,-128.4144,-12.344535,0.0,0.0,0.0,0.0,0.0,0.0,0.0,1.7078651,44.966705,-0.5748781,
0.6054687409778127,31,-0.06463623,-0.79907227,0.58343506,-0.041015625,-0.025390625,0.029296875,0.0,0.0,0.0,0.0,0.0,0.0,0.0,0.0,0.0,0.0,0.0,-0.2819554,0.02329674,0.9592951,0.88061523,0.13110352,-0.4498291,-0.0546875,-0.022460938,0.009765625,3.2883096,-5.837349,0.48231474,19.860384,-0.9647827,-0.012023926,-0.22265625,0.2626953,0.07519531,-0.0126953125,2.8516977,-5.256215,-56.51099,18.831024,0.49414062,0.53125,0.66815186,-0.17578125,0.11816406,0.12402344,5.0683265,-0.683238,-128.33853,16.355303,0.0,0.0,0.0,0.0,0.0,0.0,0.0,18.170513,-128.8641,23.016663,0.0,0.0,0.0,0.0,0.0,0.0,0.0,0.2819554,-0.02329674,-0.9592951,-0.9413452,0.08068848,-0.40924072,-0.013671875,0.103515625,0.017578125,2.7400975,5.837349,-0.48231474,-19.860384,-1.0048218,-0.018493652,-0.050231934,-0.0703125,0.0625,-0.020507812,1.970601,5.6420608,-57.426685,-17.229807,-0.53393555,0.44537354,0.68585205,-0.017578125,0.024414062,0.021484375,16.356192,6.738455,-129.41895,-15.971898,0.0,0.0,0.0,0.0,0.0,0.0,0.0,26.304342,-128.40976,-11.948177,0.0,0.0,0.0,0.0,0.0,0.0,0.0,1.7098036,44.970142,-0.5895678,
0.6249999906867744,32,-0.07116699,-0.8352051,0.5515747,-0.022460938,0.029296875,0.047851562,0.0,0.0,0.0,0.0,0.0,0.0,0.0,0.0,0.0,0.0,0.0,-0.2821533,0.02364133,0.9591387,0.8609009,0.1161499,-0.46862793,-0.091796875,0.016601562,0.0087890625,3.382693,-5.841448,0.4894488,19.857145,-1.003418,0.089660645,-0.23577881,0.049804688,0.049804688,0.0029296875,2.596763,-5.225663,-56.498306,18.718092,0.4663086,0.5776367,0.6595459,-0.0390625,0.041992188,0.009765625,5.166191,-0.798264,-128.33621,16.42146,0.0,0.0,0.0,0.0,0.0,0.0,0.0,18.054134,-128.84378,23.090733,0.0,0.0,0.0,0.0,0.0,0.0,0.0,0.2821533,-0.02364133,-0.9591387,-0.9223633,0.11114502,-0.3972168,0.022460938,0.044921875,0.036132812,2.7271369,5.841448,-0.4894488,-19.857145,-1.006958,-0.025390625,-0.032348633,-0.09082031,0.08105469,0.055664062,1.9691106,5.5985885,-57.430893,-17.162651,-0.5324707,0.49578857,0.72210693,-0.017578125,0.024414062,0.0029296875,15.761022,6.6237693,-129.42804,-15.825839,0.0,0.0,0.0,0.0,0.0,0.0,0.0,26.1402,-128.41966,-11.567041,0.0,0.0,0.0,0.0,0.0,0.0,0.0,1.7013102,44.96634,-0.60787225,
0.6445312403957361,33,-0.06903076,-0.8245239,0.5723877,-0.07910156,0.029296875,0.047851562,0.0,0.0,0.0,0.0,0.0,0.0,0.0,0.0,0.0,0.0,0.0,-0.282814,0.023792336,0.9590572,0.8289795,0.08911133,-0.46539307,-0.034179688,0.015625,0.0087890625,3.3924603,-5.8551264,0.49257505,19.855455,-0.9557495,-0.004211426,-0.21759033,-0.1640625,0.06347656,-0.05859375,2.385647,-5.236871,-56.498077,18.672634,0.43408203,0.5663452,0.65356445,-0.016601562,-0.053710938,0.0087890625,5.1539645,-0.9554205,-128.35797,16.62002,0.0,0.0,0.0,0.0,0.0,0.0,0.0,17.89391,-128.86511,23.294575,0.0,0.0,0.0,0.0,0.0,0.0,0.0,0.282814,-0.023792336,-0.9590572,-0.9349365,0.080322266,-0.44073486,0.0625,0.140625,0.07519531,2.6982734,5.8551264,-0.49257505,-19.855455,-1.0605469,-0.019592285,-0.08178711,-0.07128906,0.10058594,0.07519531,2.016836,5.505975,-57.43141,-17.051695,-0.5465698,0.5036621,0.7214966,-0.017578125,0.024414062,0.0029296875,15.117306,6.392872,-129.42688,-15.64051,0.0,0.0,0.0,0.0,0.0,0.0,0.0,25.854078,-128.40637,-11.147816,0.0,0.0,0.0,0.0,0.0,0.0,0.0,1.6748874,44.972187,-0.6217688,
0.6640624901046978,34,-0.10296631,-0.81396484,0.5631714,-0.07910156,0.047851562,0.0107421875,0.0,0.0,0.0,0.0,0.0,0.0,0.0,0.0,0.0,0.0,0.0,-0.28252065,0.023258187,0.95908886,0.84606934,0.05328369,-0.47955322,0.078125,-0.061523438,-0.02734375,3.2964563,-5.849053,0.48151663,19.856113,-0.9921875,-0.1149292,-0.19555664,-0.047851562,0.029296875,-0.017578125,2.430916,-5.306235,-56.510216,18.6988,0.43511963,0.5651245,0.67718506,-0.038085938,0.022460938,-0.02734375,5.0778275,-1.0874324,-128.36841,16.610952,0.0,0.0,0.0,0.0,0.0,0.0,0.0,17.760221,-128.86015,23.294868,0.0,0.0,0.0,0.0,0.0,0.0,0.0,0.28252065,-0.023258187,-0.95908886,-0.96417236,-0.012878418,-0.35864258,-0.034179688,0.083984375,0.11230469,2.5652144,5.849053,-0.48151663,-19.856113,-1.0192871,-0.07556152,-0.066589355,0.0029296875,0.12011719,0.1328125,1.909776,5.2566595,-57.417076,-17.05473,-0.57629395,0.46032715,0.72265625,9.765625E-4,0.061523438,0.0029296875,14.472204,5.9665704,-129.41252,-15.487318,0.0,0.0,0.0,0.0,0.0,0.0,0.0,25.375399,-128.4027,-10.772783,0.0,0.0,0.0,0.0,0.0,0.0,0.0,1.6734543,44.969643,-0.5975745,
0.6835937398136595,35,-0.06591797,-0.8187256,0.5812988,-0.022460938,0.046875,0.029296875,0.0,0.0,0.0,0.0,0.0,0.0,0.0,0.0,0.0,0.0,0.0,-0.2820099,0.023433141,0.9591522,0.8796997,0.10809326,-0.48773193,0.09765625,-0.041992188,-0.02734375,3.231921,-5.8384786,0.48513865,19.857424,-0.9921875,-0.1149292,-0.19555664,-0.047851562,0.029296875,-0.017578125,2.5249147,-5.406923,-56.507637,18.679857,0.444458,0.6220703,0.64501953,0.001953125,-0.015625,-0.009765625,5.1034603,-1.1881204,-128.36584,16.59201,0.0,0.0,0.0,0.0,0.0,0.0,0.0,17.654488,-128.85565,23.288712,0.0,0.0,0.0,0.0,0.0,0.0,0.0,0.2820099,-0.023433141,-0.9591522,-0.8508301,0.046142578,-0.2989502,-0.017578125,0.0068359375,0.12988281,2.6573386,5.8384786,-0.48513865,-19.857424,-0.89923096,-0.030212402,-0.06890869,0.17382812,0.1796875,0.1328125,1.7991797,5.3168216,-57.413136,-16.994331,-0.5263672,0.49371338,0.6981201,9.765625E-4,0.005859375,0.021484375,13.785483,5.80201,-129.40848,-15.257736,0.0,0.0,0.0,0.0,0.0,0.0,0.0,25.159483,-128.40715,-10.333255,0.0,0.0,0.0,0.0,0.0,0.0,0.0,1.681452,44.96568,-0.60418046,
0.7031249895226211,36,-0.10321045,-0.83270264,0.57385254,0.052734375,0.028320312,0.0107421875,0.0,0.0,0.0,0.0,0.0,0.0,0.0,0.0,0.0,0.0,0.0,-0.281652,0.023231804,0.95930207,0.8690796,0.15655518,-0.46765137,0.061523438,0.034179688,-0.009765625,3.2813365,-5.83107,0.48097038,19.860527,-0.9837036,-0.008056641,-0.13665771,0.049804688,0.049804688,0.0029296875,2.5060844,-5.369284,-56.50979,18.63015,0.44152832,0.6329346,0.63720703,0.040039062,0.00390625,0.0087890625,5.2160525,-1.1911345,-128.36407,16.363699,0.0,0.0,0.0,0.0,0.0,0.0,0.0,17.648518,-128.85184,23.066954,0.0,0.0,0.0,0.0,0.0,0.0,0.0,0.281652,-0.023231804,-0.95930207,-0.9222412,0.07196045,-0.38464355,9.765625E-4,-0.0126953125,0.091796875,2.7517881,5.83107,-0.48097038,-19.860527,-1.0651245,0.04675293,-0.11804199,0.022460938,0.15820312,0.11328125,1.7015738,5.340765,-57.410652,-16.91424,-0.5723877,0.4967041,0.689209,0.01953125,0.024414062,0.001953125,13.00853,5.5054193,-129.40121,-14.956112,0.0,0.0,0.0,0.0,0.0,0.0,0.0,24.805632,-128.38948,-9.813017,0.0,0.0,0.0,0.0,0.0,0.0,0.0,1.6813464,44.96752,-0.5953516,
0.7226562392315828,37,-0.051208496,-0.84155273,0.5689697,-0.060546875,0.029296875,0.0107421875,0.0,0.0,0.0,0.0,0.0,0.0,0.0,0.0,0.0,0.0,0.0,-0.28267395,0.023308083,0.9590271,0.848938,0.1538086,-0.45147705,0.0048828125,0.034179688,0.0087890625,3.4309666,-5.852227,0.48254955,19.854834,-0.9818115,-0.030212402,-0.18530273,-0.10546875,0.02734375,-0.018554688,2.3275926,-5.26558,-56.506546,18.535105,0.47338867,0.58239746,0.6625366,0.038085938,0.041992188,0.009765625,5.2182684,-1.1124406,-128.3646,16.298035,0.0,0.0,0.0,0.0,0.0,0.0,0.0,17.72321,-128.84741,23.013382,0.0,0.0,0.0,0.0,0.0,0.0,0.0,0.28267395,-0.023308083,-0.9590271,-0.8880615,0.0053710938,-0.4664917,0.07714844,-0.032226562,0.03515625,2.602786,5.852227,-0.48254955,-19.854834,-0.9934082,-0.03741455,-0.14508057,-0.20410156,0.09863281,0.09375,1.4735262,5.1547627,-57.407158,-16.931915,-0.55908203,0.4533081,0.69940186,0.057617188,-0.068359375,-0.09277344,12.480941,4.9537206,-129.38406,-14.709742,0.0,0.0,0.0,0.0,0.0,0.0,0.0,24.20533,-128.38821,-9.38268,0.0,0.0,0.0,0.0,0.0,0.0,0.0,1.6736377,44.968937,-0.5996139,
0.7421874889405445,38,-0.09954834,-0.8604126,0.58239746,-0.022460938,-0.061523438,0.029296875,0.0,0.0,0.0,0.0,0.0,0.0,0.0,0.0,0.0,0.0,0.0,-0.28346598,0.023096152,0.95891833,0.848938,0.1538086,-0.45147705,0.0048828125,0.034179688,0.0087890625,3.4126573,-5.8686233,0.4781619,19.852581,-0.9807129,0.0138549805,-0.20300293,-0.18261719,0.025390625,-0.020507812,2.2480311,-5.281976,-56.510933,18.532852,0.4786377,0.59246826,0.72265625,0.11816406,-0.015625,0.026367188,5.1303406,-1.1596608,-128.37596,16.477518,0.0,0.0,0.0,0.0,0.0,0.0,0.0,17.673887,-128.86018,23.198128,0.0,0.0,0.0,0.0,0.0,0.0,0.0,0.28346598,-0.023096152,-0.95891833,-0.87561035,-0.014770508,-0.41931152,0.11230469,-0.12890625,-0.00390625,2.3362377,5.8686233,-0.4781619,-19.852581,-1.0241699,-0.028930664,-0.05621338,-0.09082031,-0.033203125,0.056640625,1.2401735,5.0628304,-57.412933,-17.175316,-0.5623169,0.44561768,0.75494385,0.3203125,-0.049804688,-0.059570312,12.202983,4.753108,-129.39156,-14.979522,0.0,0.0,0.0,0.0,0.0,0.0,0.0,23.964855,-128.40991,-9.511879,0.0,0.0,0.0,0.0,0.0,0.0,0.0,1.6615021,44.97467,-0.5920863,
0.7617187386495062,39,-0.06829834,-0.84729004,0.59191895,0.015625,0.064453125,0.0107421875,0.0,0.0,0.0,0.0,0.0,0.0,0.0,0.0,0.0,0.0,0.0,-0.2842375,0.02267772,0.95859796,0.8758545,0.16137695,-0.5135498,0.05859375,-0.060546875,-0.045898438,3.5327463,-5.8845983,0.4694991,19.84595,-1.0076904,0.013427734,-0.2310791,-0.1640625,0.0078125,-0.038085938,2.0895655,-5.3480043,-56.509426,18.233494,0.48223877,0.5358887,0.70458984,0.31152344,-0.053710938,-0.068359375,5.109561,-1.337348,-128.38516,16.347076,0.0,0.0,0.0,0.0,0.0,0.0,0.0,17.485249,-128.88414,23.096466,0.0,0.0,0.0,0.0,0.0,0.0,0.0,0.2842375,-0.02267772,-0.95859796,-0.95147705,0.018371582,-0.33483887,0.11328125,-0.07128906,0.053710938,2.2466376,5.8845983,-0.4694991,-19.84595,-0.94781494,0.026428223,-0.032226562,-0.08984375,0.0234375,0.017578125,0.93523616,5.1116753,-57.40907,-17.30538,-0.6444702,0.4555664,0.74786377,0.6933594,0.13574219,0.08496094,12.280052,4.903817,-129.3843,-14.907988,0.0,0.0,0.0,0.0,0.0,0.0,0.0,24.106274,-128.35486,-9.414,0.0,0.0,0.0,0.0,0.0,0.0,0.0,1.644632,44.97109,-0.5762328,
0.7812499883584679,40,-0.12585449,-0.87579346,0.61035156,0.052734375,0.064453125,0.029296875,0.0,0.0,0.0,0.0,0.0,0.0,0.0,0.0,0.0,0.0,0.0,-0.28399786,0.021288604,0.9587244,0.8870239,0.10455322,-0.5606079,0.1328125,-0.13769531,-0.044921875,3.459721,-5.879635,0.4407401,19.848568,-1.0045166,0.06732178,-0.21704102,-0.14355469,-0.06640625,-0.018554688,2.1282644,-5.491561,-56.536476,18.110027,0.47045898,0.58807373,0.6871948,0.48828125,-0.16796875,-0.20117188,5.121358,-1.575743,-128.42307,16.414104,0.0,0.0,0.0,0.0,0.0,0.0,0.0,17.251015,-128.96709,23.152393,0.0,0.0,0.0,0.0,0.0,0.0,0.0,0.28399786,-0.021288604,-0.9587244,-0.98132324,0.10821533,-0.22625732,-0.0625,-0.28027344,-0.024414062,2.5971398,5.879635,-0.4407401,-19.848568,-1.0081177,-0.0034179688,0.035583496,-0.052734375,0.10058594,0.037109375,0.88403815,5.576226,-57.38728,-17.342976,-0.58721924,0.4897461,0.6656494,0.46875,0.13574219,0.14453125,12.354334,5.543477,-129.35533,-14.767336,0.0,0.0,0.0,0.0,0.0,0.0,0.0,24.709824,-128.17426,-9.1778965,0.0,0.0,0.0,0.0,0.0,0.0,0.0,1.6541638,44.972572,-0.50861794,
0.8007812380674296,41,-0.09539795,-0.8538208,0.62390137,0.12890625,0.099609375,-0.0078125,0.0,0.0,0.0,0.0,0.0,0.0,0.0,0.0,0.0,0.0,0.0,-0.28201902,0.020676795,0.9594438,0.8129883,0.04309082,-0.4284668,0.057617188,-0.080078125,-0.026367188,3.310975,-5.838668,0.4280737,19.863462,-0.95666504,0.01739502,-0.18188477,-0.27929688,-0.068359375,-0.13476562,2.4271288,-5.6924286,-56.55073,18.163841,0.48638916,0.5755005,0.6566162,0.50683594,-0.18652344,-0.2763672,4.989826,-1.7054231,-128.43423,16.526089,0.0,0.0,0.0,0.0,0.0,0.0,0.0,17.133493,-129.0125,23.224518,0.0,0.0,0.0,0.0,0.0,0.0,0.0,0.28201902,-0.020676795,-0.9594438,-0.9741211,0.11248779,-0.33642578,-0.32910156,-0.29785156,0.049804688,3.2366424,5.838668,-0.4280737,-19.863462,-0.9968872,0.016784668,0.042663574,-0.09082031,0.119140625,0.055664062,1.2056094,6.032485,-57.36538,-17.189644,-0.4987793,0.57440186,0.66760254,0.31835938,0.13574219,0.11035156,12.210542,6.0524015,-129.32487,-14.427627,0.0,0.0,0.0,0.0,0.0,0.0,0.0,25.162357,-127.98369,-8.685381,0.0,0.0,0.0,0.0,0.0,0.0,0.0,1.7703061,44.974064,-0.44886374,
0.8203124877763913,42,-0.06384277,-0.8168335,0.5852051,0.2421875,0.11621094,-0.045898438,0.0,0.0,0.0,0.0,0.0,0.0,0.0,0.0,0.0,0.0,0.0,-0.278156,0.022408612,0.9602955,0.80737305,0.18066406,-0.4520874,0.017578125,-0.17578125,0.029296875,3.5996735,-5.758692,0.46392775,19.881094,-0.9710083,-0.086364746,-0.15454102,-0.37695312,0.021484375,-0.11816406,2.5012372,-5.67382,-56.512405,18.029673,0.44848633,0.61206055,0.66467285,0.6191406,-0.109375,-0.40625,4.5551357,-1.6702356,-128.39117,16.230957,0.0,0.0,0.0,0.0,0.0,0.0,0.0,17.189156,-128.97804,22.871742,0.0,0.0,0.0,0.0,0.0,0.0,0.0,0.278156,-0.022408612,-0.9602955,-0.927063,0.089416504,-0.26849365,-0.5214844,-0.39160156,0.048828125,4.055744,5.758692,-0.46392775,-19.881094,-0.95336914,-3.0517578E-4,0.053222656,-0.18554688,0.21386719,0.09375,1.7251035,6.5136147,-57.388775,-16.940624,-0.61987305,0.5274658,0.72229004,0.44921875,0.20996094,0.29492188,12.265303,6.5583706,-129.34138,-14.005337,0.0,0.0,0.0,0.0,0.0,0.0,0.0,25.624603,-127.93355,-8.134748,0.0,0.0,0.0,0.0,0.0,0.0,0.0,1.9961004,44.95415,-0.47082672,
0.839843737485353,43,-0.06384277,-0.8168335,0.5852051,0.2421875,0.11621094,-0.045898438,0.0,0.0,0.0,0.0,0.0,0.0,0.0,0.0,0.0,0.0,0.0,-0.278156,0.022408612,0.9602955,0.817688,0.20947266,-0.5119629,0.19433594,-0.0048828125,-0.0087890625,3.752281,-5.758692,0.46392775,19.881094,-0.99816895,-0.11895752,-0.13220215,-0.31835938,-0.0146484375,-0.07910156,2.6247282,-5.740055,-56.50157,17.749336,0.52349854,0.56829834,0.64868164,0.9091797,-0.12792969,-0.5029297,4.2034216,-1.6647325,-128.37726,15.762779,0.0,0.0,0.0,0.0,0.0,0.0,0.0,17.214956,-128.98865,22.34198,0.0,0.0,0.0,0.0,0.0,0.0,0.0,0.278156,-0.022408612,-0.9602955,-0.9415283,-0.028015137,-0.17956543,-0.6015625,-0.56347656,-0.029296875,4.826169,5.758692,-0.46392775,-19.881094,-0.95910645,-0.11401367,0.07318115,-0.16601562,0.42382812,0.0546875,2.7013187,7.3595276,-57.366585,-16.837307,-0.5916748,0.52734375,0.6968994,0.5419922,0.35839844,0.44433594,12.457928,7.213781,-129.3233,-14.008982,0.0,0.0,0.0,0.0,0.0,0.0,0.0,26.221266,-127.80569,-7.973372,0.0,0.0,0.0,0.0,0.0,0.0,0.0,1.9961004,44.95415,-0.47082672,
0.8593749871943147,44,-0.085510254,-0.7805786,0.52264404,-0.11621094,0.20996094,-0.15527344,0.0,0.0,0.0,0.0,0.0,0.0,0.0,0.0,0.0,0.0,0.0,-0.2718275,0.025641512,0.9619683,0.9250488,0.17211914,-0.5657959,0.6142578,-0.0078125,-0.08300781,3.990469,-5.6276712,0.5308588,19.915726,-0.9958496,-0.03112793,-0.12896729,-0.3779297,0.16992188,-0.12011719,2.5815675,-5.6099772,-56.431538,17.709972,0.44769287,0.6654053,0.6118164,1.0039062,-0.10839844,-0.6328125,3.8282247,-1.5970511,-128.30156,15.545317,0.0,0.0,0.0,0.0,0.0,0.0,0.0,17.292345,-128.89336,22.097862,0.0,0.0,0.0,0.0,0.0,0.0,0.0,0.2718275,-0.025641512,-0.9619683,-0.9847412,-0.051757812,-0.20837402,-0.56640625,-0.7363281,-0.16308594,5.7349734,5.6276712,-0.5308588,-19.915726,-1.0525513,-0.1852417,-0.02154541,0.19238281,0.3701172,0.15136719,4.0190744,8.348064,-57.398014,-17.054703,-0.48864746,0.5331421,0.70666504,0.52246094,0.47070312,0.4638672,12.270558,7.8561897,-129.35994,-14.461683,0.0,0.0,0.0,0.0,0.0,0.0,0.0,26.760212,-127.64441,-8.162684,0.0,0.0,0.0,0.0,0.0,0.0,0.0,2.045662,44.947647,-0.6200397,
0.8789062369032764,45,-0.14416504,-0.8930664,0.5897827,-0.021484375,0.28222656,-0.13671875,0.0,0.0,0.0,0.0,0.0,0.0,0.0,0.0,0.0,0.0,0.0,-0.26994383,0.021654788,0.9625638,0.84973145,0.04144287,-0.48760986,0.52734375,0.2783203,-0.068359375,3.4011638,-5.5886726,0.44832128,19.928057,-0.91711426,-0.13165283,-0.13916016,-0.45507812,0.18359375,0.01171875,2.6086454,-5.668128,-56.521893,18.010588,0.40966797,0.7122803,0.5687866,0.88671875,-0.05078125,-0.59472656,3.275484,-1.7856607,-128.39285,15.782717,0.0,0.0,0.0,0.0,0.0,0.0,0.0,17.106682,-128.91718,22.332779,0.0,0.0,0.0,0.0,0.0,0.0,0.0,0.26994383,-0.021654788,-0.9625638,-0.9113159,-0.00592041,-0.29742432,-0.50683594,-0.60253906,-0.0859375,6.252506,5.5886726,-0.44832128,-19.928057,-1.0057373,-0.0703125,-0.15130615,0.4013672,0.37304688,0.11328125,5.2585163,9.153261,-57.27814,-17.223629,-0.51763916,0.5360718,0.6904297,0.5419922,0.37695312,0.40625,11.676375,8.101936,-129.24297,-14.746775,0.0,0.0,0.0,0.0,0.0,0.0,0.0,26.90659,-127.35774,-8.202609,0.0,0.0,0.0,0.0,0.0,0.0,0.0,1.81392,44.957634,-0.5027113,
0.8984374866122381,46,-0.21685791,-0.9299927,0.5748291,0.22363281,0.22558594,-0.06347656,0.0,0.0,0.0,0.0,0.0,0.0,0.0,0.0,0.0,0.0,0.0,-0.2657547,0.020104114,0.96386456,0.8418579,0.0028076172,-0.3449707,0.35351562,0.203125,0.0068359375,3.1772442,-5.501946,0.41621748,19.954987,-0.9962158,-0.12786865,-0.2263794,-0.24121094,0.115234375,0.03515625,2.4395163,-5.4091125,-56.568684,18.549437,0.44555664,0.6679077,0.56066895,0.7324219,-0.051757812,-0.55566406,2.7038536,-1.8034375,-128.45547,16.10474,0.0,0.0,0.0,0.0,0.0,0.0,0.0,17.08388,-128.89493,22.675123,0.0,0.0,0.0,0.0,0.0,0.0,0.0,0.2657547,-0.020104114,-0.96386456,-0.8713989,-0.026428223,-0.3446045,-0.46777344,-0.5078125,0.009765625,6.8791704,5.501946,-0.41621748,-19.954987,-0.98669434,0.023254395,-0.22229004,0.25,0.35253906,0.09375,6.3121147,9.580072,-57.212185,-17.27444,-0.5757446,0.55578613,0.66412354,0.46679688,0.35839844,0.3701172,11.173923,7.795677,-129.15375,-14.613344,0.0,0.0,0.0,0.0,0.0,0.0,0.0,26.520203,-127.12032,-7.8876553,0.0,0.0,0.0,0.0,0.0,0.0,0.0,1.9033328,44.95929,-0.41296995,
0.9179687363211998,47,-0.16827393,-0.8892212,0.51312256,0.1484375,0.15332031,-0.10058594,0.0,0.0,0.0,0.0,0.0,0.0,0.0,0.0,0.0,0.0,0.0,-0.26706138,0.016224548,0.9634673,0.84381104,0.1350708,-0.4066162,0.4033203,-0.025390625,-0.08300781,2.9910736,-5.5289984,0.33589846,19.946758,-0.99505615,-0.0758667,-0.24603271,-0.18359375,0.15332031,0.09277344,2.3039277,-5.3838935,-56.655704,18.753923,0.36663818,0.73742676,0.55218506,0.6923828,0.005859375,-0.48046875,2.223784,-2.1393821,-128.55577,16.215477,0.0,0.0,0.0,0.0,0.0,0.0,0.0,16.737408,-128.91383,22.821157,0.0,0.0,0.0,0.0,0.0,0.0,0.0,0.26706138,-0.016224548,-0.9634673,-0.8842163,0.022766113,-0.3965454,-0.27539062,-0.39453125,0.10546875,7.27799,5.5289984,-0.33589846,-19.946758,-0.9805298,0.009765625,-0.2503662,-0.072265625,0.38671875,0.11230469,7.3042,9.901872,-57.106945,-17.226686,-0.5958252,0.5430908,0.69415283,0.37402344,0.265625,0.33398438,11.134289,7.2142463,-129.01793,-14.355844,0.0,0.0,0.0,0.0,0.0,0.0,0.0,25.868101,-126.85661,-7.4735627,0.0,0.0,0.0,0.0,0.0,0.0,0.0,1.9245688,44.954983,-0.22356355,
0.9374999860301615,48,-0.12646484,-0.8355713,0.46453857,0.16699219,0.080078125,-0.13867188,0.0,0.0,0.0,0.0,0.0,0.0,0.0,0.0,0.0,0.0,0.0,-0.2706671,0.013803124,0.9624114,0.850708,0.20220947,-0.39953613,0.3798828,-0.15917969,-0.11816406,2.9334486,-5.603648,0.28576747,19.9249,-0.9559326,-0.060302734,-0.22369385,-0.31835938,0.037109375,0.12988281,1.9650315,-5.3737445,-56.704643,18.670982,0.44677734,0.6980591,0.5775757,0.6201172,-0.12890625,-0.4814453,1.8543522,-2.3636167,-128.6222,16.328293,0.0,0.0,0.0,0.0,0.0,0.0,0.0,16.517025,-128.90388,22.927711,0.0,0.0,0.0,0.0,0.0,0.0,0.0,0.2706671,-0.013803124,-0.9624114,-0.8703003,0.03729248,-0.43084717,-0.13964844,-0.28125,0.12597656,7.3088455,5.603648,-0.28576747,-19.9249,-1.0032349,-0.06188965,-0.25683594,-0.072265625,0.29101562,0.11230469,8.073873,10.029142,-57.044483,-17.066591,-0.52526855,0.55841064,0.5836792,0.28222656,0.060546875,0.24121094,11.405601,6.4414253,-128.90793,-14.049259,0.0,0.0,0.0,0.0,0.0,0.0,0.0,25.028728,-126.60581,-7.0364375,0.0,0.0,0.0,0.0,0.0,0.0,0.0,1.8314486,44.955482,-0.12968796,
0.9570312357391232,49,-0.11785889,-0.7913208,0.43811035,0.091796875,0.15332031,-0.15625,0.0,0.0,0.0,0.0,0.0,0.0,0.0,0.0,0.0,0.0,0.0,-0.2739443,0.013396798,0.96151286,0.8744507,0.23400879,-0.42962646,0.19042969,-0.13867188,0.0107421875,2.9557858,-5.671497,0.27735525,19.906298,-0.9439087,-0.054992676,-0.19873047,-0.2607422,0.09375,0.20605469,1.6906126,-5.411639,-56.709618,18.487564,0.4658203,0.66693115,0.6305542,0.67871094,-0.16699219,-0.5566406,1.6121622,-2.4992995,-128.6303,16.38282,0.0,0.0,0.0,0.0,0.0,0.0,0.0,16.398413,-128.86992,22.93393,0.0,0.0,0.0,0.0,0.0,0.0,0.0,0.2739443,-0.013396798,-0.96151286,-0.84820557,0.060791016,-0.33032227,-0.07714844,-0.0703125,0.16601562,7.182503,5.671497,-0.27735525,-19.906298,-0.97369385,-0.042785645,-0.25482178,0.060546875,0.17871094,0.11328125,8.517328,10.008265,-57.040104,-16.922453,-0.61260986,0.5891113,0.57891846,0.28320312,-0.051757812,0.22167969,11.595423,5.7603717,-128.86783,-13.844842,0.0,0.0,0.0,0.0,0.0,0.0,0.0,24.305752,-126.48289,-6.7485156,0.0,0.0,0.0,0.0,0.0,0.0,0.0,1.7523453,44.959656,-0.12716445,
0.9765624854480849,50,-0.07897949,-0.81604004,0.49951172,-0.13476562,0.19238281,-0.13671875,0.0,0.0,0.0,0.0,0.0,0.0,0.0,0.0,0.0,0.0,0.0,-0.27586988,0.011771759,0.9609763,0.86639404,0.1965332,-0.42962646,-0.001953125,-0.21484375,0.123046875,2.8987427,-5.711362,0.2437119,19.895187,-0.99853516,0.038085938,-0.06939697,-0.37695312,0.12695312,0.22265625,1.5383697,-5.4110265,-56.733032,18.250975,0.36242676,0.72314453,0.52160645,0.71875,-0.22363281,-0.59472656,1.6148306,-2.4011817,-128.66397,16.627443,0.0,0.0,0.0,0.0,0.0,0.0,0.0,16.51792,-128.8582,23.12086,0.0,0.0,0.0,0.0,0.0,0.0,0.0,0.27586988,-0.011771759,-0.9609763,-0.91082764,0.07080078,-0.29412842,-0.20800781,-0.0107421875,0.12890625,6.9591694,5.711362,-0.2437119,-19.895187,-0.9744873,0.025024414,-0.22033691,-0.0146484375,0.15820312,0.09375,8.83629,9.940679,-56.997757,-16.700144,-0.53912354,0.58880615,0.5148926,0.13378906,-0.0703125,0.29882812,11.901285,5.1699085,-128.77927,-13.483062,0.0,0.0,0.0,0.0,0.0,0.0,0.0,23.666454,-126.26754,-6.300664,0.0,0.0,0.0,0.0,0.0,0.0,0.0,1.5559796,44.966625,-0.1041528,
0.9960937351570466,51,-0.07763672,-0.8706665,0.5800171,-0.09667969,0.22753906,-0.13671875,0.0,0.0,0.0,0.0,0.0,0.0,0.0,0.0,0.0,0.0,0.0,-0.2739727,0.009264149,0.9617083,0.91296387,0.15393066,-0.3961792,-0.24414062,-0.09863281,0.26953125,2.6522512,-5.672083,0.19179657,19.910343,-0.98083496,-0.051757812,0.0,-0.5517578,0.14160156,0.16308594,1.7420367,-5.3412547,-56.791218,18.269758,0.35876465,0.79803467,0.47283936,0.5839844,-0.22460938,-0.4814453,2.1154437,-2.0418015,-128.71959,17.203321,0.0,0.0,0.0,0.0,0.0,0.0,0.0,16.881891,-128.85005,23.680845,0.0,0.0,0.0,0.0,0.0,0.0,0.0,0.2739727,-0.009264149,-0.9617083,-0.951416,0.062316895,-0.24407959,-0.20507812,0.10449219,0.13085938,6.7765336,5.672083,-0.19179657,-19.910343,-1.0111694,0.035827637,-0.16925049,-0.35546875,0.15429688,0.11328125,9.080497,9.840521,-56.943752,-16.495644,-0.41241455,0.6762085,0.47338867,0.09472656,0.11621094,0.3935547,12.301902,4.683516,-128.69254,-13.008153,0.0,0.0,0.0,0.0,0.0,0.0,0.0,23.100134,-126.011406,-5.685802,0.0,0.0,0.0,0.0,0.0,0.0,0.0,1.3241286,44.981148,-0.056084573,
1.0156249848660084,52,-0.07092285,-0.89038086,0.5648804,-0.021484375,0.2265625,-0.17480469,0.0,0.0,0.0,0.0,0.0,0.0,0.0,0.0,0.0,0.0,0.0,-0.27036083,0.009883262,0.96274674,0.9765625,0.1671753,-0.3069458,-0.45117188,-0.001953125,0.3232422,2.735307,-5.5973067,0.20461419,19.931843,-0.9699707,-0.11682129,0.12579346,-0.5332031,0.23535156,0.16210938,1.8047187,-4.9365683,-56.78212,18.51488,0.33966064,0.81433105,0.43359375,0.44726562,-0.12890625,-0.2939453,3.2669258,-1.1565287,-128.68265,17.836773,0.0,0.0,0.0,0.0,0.0,0.0,0.0,17.771255,-128.76688,24.307327,0.0,0.0,0.0,0.0,0.0,0.0,0.0,0.27036083,-0.009883262,-0.96274674,-0.94299316,0.03173828,-0.22064209,-0.10839844,0.1796875,0.2265625,6.69779,5.5973067,-0.20461419,-19.931843,-0.97320557,-0.04748535,-0.12438965,-0.5439453,0.037109375,0.036132812,9.100426,9.711282,-56.94205,-16.32152,-0.45373535,0.58947754,0.45355225,-0.13378906,0.5078125,0.49316406,12.609472,4.482743,-128.67741,-12.777985,0.0,0.0,0.0,0.0,0.0,0.0,0.0,22.767872,-125.81932,-5.19426,0.0,0.0,0.0,0.0,0.0,0.0,0.0,1.2376217,44.984497,-0.114245236,
1.03515623457497,53,-0.0335083,-0.86535645,0.53686523,0.0546875,0.15234375,-0.26757812,0.0,0.0,0.0,0.0,0.0,0.0,0.0,0.0,0.0,0.0,0.0,-0.2675045,0.012564465,0.9634886,1.0554199,0.20733643,-0.28460693,-0.6972656,0.037109375,0.41503906,2.9283726,-5.538173,0.26012337,19.9472,-0.9850464,-0.13604736,0.22961426,-0.12695312,0.4501953,0.22363281,1.8507606,-4.560911,-56.7218,18.700397,0.2944336,0.8029785,0.44628906,0.23632812,-0.14941406,-0.18066406,4.397524,-0.32384872,-128.5935,18.266571,0.0,0.0,0.0,0.0,0.0,0.0,0.0,18.595276,-128.63571,24.758377,0.0,0.0,0.0,0.0,0.0,0.0,0.0,0.2675045,-0.012564465,-0.9634886,-0.9501343,-0.07165527,-0.23291016,-0.0703125,0.19921875,0.2265625,6.429651,5.538173,-0.26012337,-19.9472,-0.9805298,-0.107421875,-0.16174316,-0.7519531,0.1875,0.036132812,9.194174,9.534314,-57.00479,-16.30217,-0.46325684,0.5299072,0.63861084,-0.044921875,0.9921875,0.64453125,12.759665,4.0426807,-128.72162,-12.754686,0.0,0.0,0.0,0.0,0.0,0.0,0.0,22.184818,-125.803535,-4.860021,0.0,0.0,0.0,0.0,0.0,0.0,0.0,1.1594329,44.984886,-0.26472288,
1.0546874842839318,54,-0.0107421875,-0.81555176,0.526062,-0.040039062,0.13476562,-0.3046875,0.0,0.0,0.0,0.0,0.0,0.0,0.0,0.0,0.0,0.0,0.0,-0.26535064,0.017295454,0.9639713,1.079956,0.19451904,-0.31774902,-1.0332031,0.2109375,0.59765625,3.00661,-5.493582,0.35806954,19.957195,-0.96343994,0.0012817383,0.3322754,0.14355469,0.69921875,0.22558594,1.9663259,-4.367461,-56.624252,18.872345,0.3277588,0.83691406,0.43469238,0.00390625,-0.09277344,0.0087890625,5.249118,0.15943289,-128.47534,18.875202,0.0,0.0,0.0,0.0,0.0,0.0,0.0,19.068851,-128.50368,25.401981,0.0,0.0,0.0,0.0,0.0,0.0,0.0,0.26535064,-0.017295454,-0.9639713,-0.9588623,-0.21820068,-0.27893066,0.23339844,0.21582031,0.18945312,5.7786894,5.493582,-0.35806954,-19.957195,-1.0505981,-0.28845215,-0.14996338,-0.46875,0.22851562,0.09375,9.275381,9.313142,-57.139137,-16.689325,-0.57592773,0.3786621,0.7822876,0.2939453,0.84277344,0.60058594,12.833013,3.4892201,-128.85498,-13.5686655,0.0,0.0,0.0,0.0,0.0,0.0,0.0,21.469906,-125.9641,-5.3055296,0.0,0.0,0.0,0.0,0.0,0.0,0.0,1.0260261,44.984135,-0.52466744,
1.0742187339928935,55,-0.0056152344,-0.80371094,0.51226807,-0.040039062,0.09863281,-0.3046875,0.0,0.0,0.0,0.0,0.0,0.0,0.0,0.0,0.0,0.0,0.0,-0.26321432,0.022250213,0.96453744,1.133728,0.22772217,-0.2652588,-1.4228516,0.49902344,0.81640625,3.2546177,-5.4493537,0.46064842,19.968914,-0.9891968,0.06085205,0.5025635,0.23925781,1.0546875,0.22265625,1.4849036,-3.9084873,-56.515064,19.187014,0.3390503,0.8831177,0.40246582,-0.24609375,-0.0546875,0.2529297,5.584898,0.4011469,-128.39053,19.798422,0.0,0.0,0.0,0.0,0.0,0.0,0.0,19.287663,-128.43521,26.387106,0.0,0.0,0.0,0.0,0.0,0.0,0.0,0.26321432,-0.022250213,-0.96453744,-0.9364624,-0.3357544,-0.30200195,0.8017578,0.15234375,0.1328125,4.9412174,5.4493537,-0.46064842,-19.968914,-1.0021973,-0.36175537,-0.17077637,0.41992188,0.18261719,0.09472656,9.214926,8.999729,-57.297295,-17.593594,-0.71881104,0.52948,0.6817627,0.5761719,0.69433594,0.5576172,13.332266,2.8515525,-128.99103,-14.85384,0.0,0.0,0.0,0.0,0.0,0.0,0.0,20.74357,-125.977005,-6.4425354,0.0,0.0,0.0,0.0,0.0,0.0,0.0,0.91913664,44.98619,-0.78692895,
1.0937499837018552,56,-0.03857422,-0.7942505,0.51190186,-0.34179688,0.12011719,-0.22949219,0.0,0.0,0.0,0.0,0.0,0.0,0.0,0.0,0.0,0.0,0.0,-0.26117936,0.024023285,0.9650403,1.1398315,0.27087402,-0.15753174,-1.7685547,0.9580078,1.0693359,3.5445316,-5.4072223,0.49735644,19.979326,-0.9110718,0.07513428,0.54919434,0.31445312,1.5605469,0.08496094,0.6268256,-3.0111842,-56.457565,19.797346,0.27368164,0.86901855,0.42401123,-0.5761719,0.05859375,0.5722656,5.4445295,0.35730886,-128.35095,20.85029,0.0,0.0,0.0,0.0,0.0,0.0,0.0,19.212357,-128.44637,27.521706,0.0,0.0,0.0,0.0,0.0,0.0,0.0,0.26117936,-0.024023285,-0.9650403,-0.8885498,-0.08831787,-0.28497314,1.4277344,0.24121094,0.24707031,4.183011,5.4072223,-0.49735644,-19.979326,-1.0147095,-0.07763672,-0.2020874,1.4042969,0.061523438,0.038085938,8.997546,8.7054,-57.385067,-18.525206,-0.60876465,0.7527466,0.553772,0.72753906,0.6191406,0.62890625,13.929752,2.5021067,-129.10336,-16.385824,0.0,0.0,0.0,0.0,0.0,0.0,0.0,20.31453,-125.86253,-7.8878956,0.0,0.0,0.0,0.0,0.0,0.0,0.0,0.6733069,44.98732,-0.9376699,
1.1132812334108169,57,-0.09967041,-0.7872925,0.53564453,-0.2861328,0.12109375,-0.08105469,0.0,0.0,0.0,0.0,0.0,0.0,0.0,0.0,0.0,0.0,0.0,-0.25842798,0.022082647,0.965903,1.09906,0.19726562,-0.09942627,-2.2646484,1.4951172,1.3408203,4.2798834,-5.3502603,0.45717928,19.997185,-1.0280762,0.1138916,0.37042236,0.37109375,2.0146484,-0.35742188,3.3385334,-1.6205332,-56.421154,20.679333,0.24822998,0.9459839,0.47857666,-0.8964844,-0.05859375,1.0390625,4.5148373,-0.23764205,-128.40215,21.43751,0.0,0.0,0.0,0.0,0.0,0.0,0.0,18.549215,-128.57173,28.294146,0.0,0.0,0.0,0.0,0.0,0.0,0.0,0.25842798,-0.022082647,-0.965903,-0.87646484,0.12158203,-0.35668945,1.546875,0.45117188,0.36328125,3.2036908,5.3502603,-0.45717928,-19.997185,-0.9986572,0.23046875,-0.24230957,1.3476562,0.041992188,0.038085938,8.42259,8.038618,-57.387928,-18.787771,-0.5020752,0.7061157,0.5291748,0.6542969,0.3955078,0.49804688,14.424107,1.8138552,-129.08989,-16.360992,0.0,0.0,0.0,0.0,0.0,0.0,0.0,19.518002,-125.60606,-7.7363987,0.0,0.0,0.0,0.0,0.0,0.0,0.0,0.393111,44.994232,-0.92348915,
1.1328124831197786,58,-0.10601807,-0.73150635,0.45031738,-0.2109375,0.17675781,0.0859375,0.0,0.0,0.0,0.0,0.0,0.0,0.0,0.0,0.0,0.0,0.0,-0.25669506,0.01838327,0.96632546,1.2087402,0.21209717,-0.04547119,-2.5566406,1.9560547,1.2988281,6.059419,-5.3143835,0.38059068,20.005934,-1.1068726,-0.04711914,0.024169922,0.3310547,2.243164,-0.7607422,7.3429666,0.37841988,-56.317844,21.596254,0.30078125,1.0996094,0.58776855,-0.94921875,-0.1171875,1.5585938,4.3687463,-0.38088542,-128.3308,21.377142,0.0,0.0,0.0,0.0,0.0,0.0,0.0,18.344986,-128.77078,28.395407,0.0,0.0,0.0,0.0,0.0,0.0,0.0,0.25669506,-0.01838327,-0.96632546,-0.8769531,0.32904053,-0.39801025,1.3007812,0.5107422,0.47753906,2.3430974,5.3143835,-0.38059068,-20.005934,-0.9423828,0.32592773,-0.22290039,0.45703125,0.12597656,0.11425781,7.8510547,7.25518,-57.331844,-18.35025,-0.5307007,0.7821045,0.5206909,0.39257812,0.2841797,0.3154297,14.935119,0.84705067,-128.97882,-14.998926,0.0,0.0,0.0,0.0,0.0,0.0,0.0,18.46297,-125.28916,-6.2802753,0.0,0.0,0.0,0.0,0.0,0.0,0.0,0.23465928,44.992733,-0.7936018,
1.1523437328287403,59,-0.080200195,-0.7579346,0.50006104,-0.5703125,0.3642578,0.31152344,0.0,0.0,0.0,0.0,0.0,0.0,0.0,0.0,0.0,0.0,0.0,-0.25522396,0.008965062,0.9668669,1.2087402,0.21209717,-0.04547119,-2.5566406,1.9560547,1.2988281,5.7691503,-5.283928,0.18560459,20.017141,-1.3317871,-0.19989014,-0.3239746,0.21386719,2.4609375,-0.6503906,10.139814,0.40887547,-56.512833,21.607462,0.37939453,1.1699219,0.8735962,-1.0087891,-0.5605469,1.9814453,4.090171,-3.5810297,-128.39828,19.971933,0.0,0.0,0.0,0.0,0.0,0.0,0.0,15.073809,-129.35474,27.129076,0.0,0.0,0.0,0.0,0.0,0.0,0.0,0.25522396,-0.008965062,-0.9668669,-0.99749756,0.5394287,-0.4102173,-0.4736328,0.6269531,0.11816406,1.9407797,5.283928,-0.18560459,-20.017141,-1.0407715,0.17047119,-0.20275879,-0.053710938,0.21484375,0.13183594,7.537416,6.614391,-57.14152,-18.019867,-0.5444946,0.68182373,0.62506104,0.22460938,0.20996094,0.26171875,15.314413,-0.120325565,-128.71829,-13.886584,0.0,0.0,0.0,0.0,0.0,0.0,0.0,17.4079,-124.905716,-5.044923,0.0,0.0,0.0,0.0,0.0,0.0,0.0,-0.047100425,44.99908,-0.42967725,
1.171874982537702,60,-0.07006836,-0.8968506,0.4798584,-0.7216797,0.3671875,0.4609375,0.0,0.0,0.0,0.0,0.0,0.0,0.0,0.0,0.0,0.0,0.0,-0.2567174,-0.0062668994,0.9664451,1.4182739,-0.02331543,0.08300781,1.3779297,3.2421875,0.96875,11.740191,-5.314847,-0.12974426,20.008411,-1.4609985,-0.48394775,-0.44921875,0.4267578,2.5029297,-0.5908203,19.318048,4.8164835,-55.83108,26.656857,0.4048462,0.93341064,0.83288574,-0.041992188,-0.57910156,2.1015625,4.055213,-2.609447,-127.40404,23.788345,0.0,0.0,0.0,0.0,0.0,0.0,0.0,15.953091,-129.04004,31.061478,0.0,0.0,0.0,0.0,0.0,0.0,0.0,0.2567174,0.0062668994,-0.9664451,-0.78045654,0.42321777,-0.43170166,-1.3447266,0.5029297,-0.24316406,3.1931016,5.314847,0.12974426,-20.008411,-0.9984131,0.11657715,-0.21142578,-0.034179688,0.12011719,0.07519531,7.3347054,6.230027,-56.78825,-17.00443,-0.5079346,0.68048096,0.53100586,0.3935547,0.15429688,0.2578125,15.740188,-0.8570142,-128.30466,-12.410641,0.0,0.0,0.0,0.0,0.0,0.0,0.0,16.610983,-124.388405,-3.4926996,0.0,0.0,0.0,0.0,0.0,0.0,0.0,-0.6002871,44.994884,0.13231406,
1.1914062322466636,61,-0.019897461,-0.9696045,0.46746826,-0.4951172,0.27441406,0.4404297,0.0,0.0,0.0,0.0,0.0,0.0,0.0,0.0,0.0,0.0,0.0,-0.26151815,-0.02117611,0.96482724,1.5241699,-0.19281006,-0.55859375,-0.09472656,2.1113281,0.66796875,14.702517,-5.4142356,-0.4384111,19.974915,-1.2314453,-0.40197754,-0.33117676,1.1064453,2.1289062,-0.4033203,25.036263,6.8454604,-55.40902,28.753428,0.051452637,1.4575806,0.7669678,-1.3330078,-0.7324219,1.7236328,3.7997816,-3.69599,-126.52491,24.53512,0.0,0.0,0.0,0.0,0.0,0.0,0.0,14.721964,-128.77298,32.00948,0.0,0.0,0.0,0.0,0.0,0.0,0.0,0.26151815,0.02117611,-0.96482724,-0.8595581,0.14764404,-0.23553467,-0.7392578,0.45898438,-0.31835938,4.631977,5.4142356,0.4384111,-19.974915,-1.0198364,0.10986328,-0.18450928,0.0048828125,0.12011719,-0.001953125,6.9853897,5.788792,-56.452477,-16.352358,-0.5041504,0.70910645,0.53326416,0.15039062,0.13574219,0.1875,16.236664,-1.5616117,-127.918144,-11.439259,0.0,0.0,0.0,0.0,0.0,0.0,0.0,15.840775,-123.8724,-2.4514112,0.0,0.0,0.0,0.0,0.0,0.0,0.0,-1.1724309,44.9737,0.6692972,
1.2109374819556253,62,-0.02758789,-1.0883179,0.42303467,-0.53222656,0.16308594,0.19921875,0.0,0.0,0.0,0.0,0.0,0.0,0.0,0.0,0.0,0.0,0.0,-0.26352474,-0.031392872,0.9642484,1.130188,-0.18450928,-0.92926025,-0.2861328,2.977539,0.01171875,17.46673,-5.455779,-0.6499297,19.962933,-1.3318481,-0.21807861,-0.37353516,1.3417969,1.6132812,-0.203125,30.045118,9.364419,-54.773735,29.996456,-0.36279297,0.9938965,0.7110596,-1.2509766,-0.94140625,1.3867188,4.000859,-3.5597029,-125.43267,24.895859,0.0,0.0,0.0,0.0,0.0,0.0,0.0,14.8325815,-128.20412,32.256935,0.0,0.0,0.0,0.0,0.0,0.0,0.0,0.26352474,0.031392872,-0.9642484,-0.91430664,0.11798096,-0.25750732,-0.27246094,0.8964844,-0.23632812,5.4972568,5.455779,0.6499297,-19.962933,-1.0002441,0.2142334,-0.12890625,-0.013671875,0.024414062,-9.765625E-4,6.448136,5.289585,-56.233917,-16.258018,-0.4385376,0.65075684,0.517334,0.021484375,-0.19921875,-0.111328125,16.247385,-2.0641255,-127.66782,-10.859652,0.0,0.0,0.0,0.0,0.0,0.0,0.0,15.283848,-123.56925,-1.793273,0.0,0.0,0.0,0.0,0.0,0.0,0.0,-1.6116314,44.96412,1.0234376,
1.230468731664587,63,-0.08258057,-1.0753784,0.4102173,-0.2109375,0.08496094,0.01171875,0.0,0.0,0.0,0.0,0.0,0.0,0.0,0.0,0.0,0.0,0.0,-0.26243332,-0.03666432,0.96434325,0.8173828,0.08074951,-0.6149292,0.080078125,2.7695312,-0.70703125,20.10469,-5.433185,-0.7590651,19.964895,-1.1130981,-0.062438965,-0.3406372,1.2275391,1.015625,-0.23632812,34.5984,12.269247,-53.8617,30.700377,-0.6260376,1.1427002,0.7178345,-1.0761719,-1.0742188,0.9746094,3.9569578,-2.3249636,-124.13753,24.831707,0.0,0.0,0.0,0.0,0.0,0.0,0.0,16.050316,-127.42782,32.01787,0.0,0.0,0.0,0.0,0.0,0.0,0.0,0.26243332,0.03666432,-0.96434325,-0.9053955,0.15460205,-0.24938965,-0.57910156,0.8408203,-0.030273438,6.447862,5.433185,0.7590651,-19.964895,-0.9884033,0.22021484,-0.028320312,-0.12792969,0.04296875,0.017578125,5.464684,4.4682126,-56.099907,-16.046455,-0.5128784,0.6746216,0.53009033,-0.35253906,-0.38378906,-0.4423828,15.717776,-2.635737,-127.51084,-10.034491,0.0,0.0,0.0,0.0,0.0,0.0,0.0,14.70664,-123.43721,-0.9439125,0.0,0.0,0.0,0.0,0.0,0.0,0.0,-1.9554324,44.946,1.1767012,
1.2499999813735487,64,-0.059020996,-0.96051025,0.38623047,-0.059570312,-0.0078125,-0.06347656,0.0,0.0,0.0,0.0,0.0,0.0,0.0,0.0,0.0,0.0,0.0,-0.26993734,-0.036928937,0.9619499,0.67749023,0.11682129,-0.0052490234,0.07714844,2.1015625,-0.7919922,21.900003,-5.58854,-0.7645434,19.915346,-1.0757446,0.030639648,-0.36566162,0.9394531,0.3408203,-0.3095703,37.911766,14.500415,-52.997185,30.760002,-0.88342285,0.91259766,0.8621216,-0.7626953,-0.72753906,0.4736328,3.9107127,-1.0166073,-123.00834,24.125214,0.0,0.0,0.0,0.0,0.0,0.0,0.0,17.37546,-126.65438,31.092062,0.0,0.0,0.0,0.0,0.0,0.0,0.0,0.26993734,0.036928937,-0.9619499,-0.9104614,0.17242432,-0.10180664,-0.12890625,0.8154297,0.29101562,7.3149633,5.58854,0.7645434,-19.915346,-0.97216797,0.22381592,-0.007446289,-0.3173828,0.11621094,0.017578125,4.7550573,4.130219,-56.042946,-15.439215,-0.5564575,0.7437134,0.5307617,-0.4248047,-0.6816406,-0.6298828,14.825991,-2.71876,-127.422806,-8.8291855,0.0,0.0,0.0,0.0,0.0,0.0,0.0,14.6749325,-123.47421,0.21815395,0.0,0.0,0.0,0.0,0.0,0.0,0.0,-2.243715,44.921165,1.0948892,
1.2695312310825104,65,-0.03387451,-0.88739014,0.43389893,0.12890625,-0.10058594,-0.02734375,0.0,0.0,0.0,0.0,0.0,0.0,0.0,0.0,0.0,0.0,0.0,-0.2771407,-0.03540871,0.9601376,0.7988281,0.2397461,0.13061523,-0.09863281,1.1640625,-0.35546875,23.170986,-5.7376714,-0.73307,19.877827,-0.94085693,-0.0154418945,-0.3581543,0.3232422,-0.49414062,-0.27246094,39.38601,15.952265,-52.297585,30.85925,-0.833313,0.8530884,0.9749756,-0.21582031,0.099609375,-0.19140625,3.4120836,0.9001503,-122.3643,23.763567,0.0,0.0,0.0,0.0,0.0,0.0,0.0,19.313354,-126.10019,30.627455,0.0,0.0,0.0,0.0,0.0,0.0,0.0,0.2771407,0.03540871,-0.9601376,-0.9923096,0.08148193,-0.09069824,0.20996094,0.77246094,0.3466797,7.792032,5.7376714,0.73307,-19.877827,-0.9360962,0.026428223,0.09716797,-0.5058594,0.15234375,-0.021484375,4.260161,4.0053387,-56.02745,-15.011185,-0.48046875,0.74560547,0.55096436,-0.34960938,-0.6816406,-0.7060547,13.872651,-2.5874705,-127.40254,-8.0808935,0.0,0.0,0.0,0.0,0.0,0.0,0.0,14.876829,-123.620926,0.9008541,0.0,0.0,0.0,0.0,0.0,0.0,0.0,-2.4177144,44.92308,0.958843,
1.2890624807914721,66,-0.02960205,-0.8688965,0.44976807,0.22265625,-0.19238281,-0.028320312,0.0,0.0,0.0,0.0,0.0,0.0,0.0,0.0,0.0,0.0,0.0,-0.28398645,-0.030481359,0.95832646,0.8689575,0.20562744,-0.16430664,-0.20507812,1.2773438,0.049804688,24.193836,-5.8794003,-0.6310586,19.840328,-0.84698486,-0.07562256,-0.38879395,0.1328125,-1.4316406,-0.09277344,39.530716,16.929224,-51.694443,30.872719,-0.92388916,0.68029785,0.96014404,-0.12597656,0.7548828,-0.8359375,3.2133315,3.41609,-122.040665,23.442951,0.0,0.0,0.0,0.0,0.0,0.0,0.0,21.906591,-125.45481,30.267466,0.0,0.0,0.0,0.0,0.0,0.0,0.0,0.28398645,0.030481359,-0.95832646,-0.9505615,0.11315918,-0.10418701,0.3251953,0.77246094,0.27148438,7.878683,5.8794003,0.6310586,-19.840328,-0.9451904,-0.13684082,0.11767578,-0.14648438,0.328125,-0.021484375,3.7834103,3.8558452,-56.097004,-14.741981,-0.50549316,0.5820923,0.5974121,-0.31347656,-0.49609375,-0.5185547,13.073427,-2.524144,-127.506805,-8.066715,0.0,0.0,0.0,0.0,0.0,0.0,0.0,15.009227,-123.952644,0.87492085,0.0,0.0,0.0,0.0,0.0,0.0,0.0,-2.3467247,44.932034,0.7337284,
1.3085937305004338,67,-0.012329102,-0.8503418,0.42303467,0.18457031,-0.22851562,-0.046875,0.0,0.0,0.0,0.0,0.0,0.0,0.0,0.0,0.0,0.0,0.0,-0.2925937,-0.025341805,0.9559396,0.91503906,0.13708496,-0.21765137,-0.421875,1.6025391,0.19335938,25.182508,-6.057595,-0.524654,19.790913,-0.8618164,-0.016906738,-0.37695312,0.15722656,-2.4570312,0.22363281,38.56944,17.868557,-51.07063,30.829073,-0.6494751,0.70654297,0.93377686,0.20410156,1.2158203,-1.0576172,2.6137426,7.160844,-121.91524,23.567692,0.0,0.0,0.0,0.0,0.0,0.0,0.0,25.724457,-124.7879,30.440262,0.0,0.0,0.0,0.0,0.0,0.0,0.0,0.2925937,0.025341805,-0.9559396,-0.9732666,0.03656006,-0.14593506,0.3623047,0.6767578,0.043945312,7.7366724,6.057595,0.524654,-19.790913,-0.9537964,-0.0713501,0.07751465,0.2890625,0.46777344,-0.021484375,3.469159,3.7731345,-56.199886,-14.748949,-0.5036011,0.5998535,0.5935669,-0.61621094,-0.234375,-0.51171875,12.697371,-2.519616,-127.66492,-8.493327,0.0,0.0,0.0,0.0,0.0,0.0,0.0,15.020715,-124.266495,0.49444675,0.0,0.0,0.0,0.0,0.0,0.0,0.0,-2.3069873,44.93987,0.48522708,
1.3281249802093955,68,0.0018920898,-0.7536621,0.33868408,0.16601562,-0.22753906,0.02734375,0.0,0.0,0.0,0.0,0.0,0.0,0.0,0.0,0.0,0.0,0.0,-0.2972858,-0.021096405,0.9545978,0.7859497,0.107421875,-0.020141602,-1.1669922,1.5888672,0.26757812,26.893642,-6.1547375,-0.43676096,19.763134,-0.8587036,-0.010864258,-0.25201416,-0.07324219,-3.1347656,0.39941406,37.053402,19.290344,-50.18848,31.009666,-0.3779297,0.7633667,0.888855,-0.11328125,1.5214844,-0.88378906,1.3513259,12.71074,-121.58844,24.34172,0.0,0.0,0.0,0.0,0.0,0.0,0.0,31.315914,-123.79158,31.349064,0.0,0.0,0.0,0.0,0.0,0.0,0.0,0.2972858,0.021096405,-0.9545978,-0.95080566,0.15057373,-0.22009277,0.22558594,0.48632812,-0.034179688,7.529862,6.1547375,0.43676096,-19.763134,-0.94207764,0.16033936,-0.011169434,0.25,0.5625,0.0546875,3.4142058,3.642312,-56.29702,-14.838627,-0.526001,0.6727295,0.5541382,-0.76464844,-0.4951172,-0.7167969,12.179873,-2.8896604,-127.73788,-8.50951,0.0,0.0,0.0,0.0,0.0,0.0,0.0,14.672359,-124.564514,0.51870155,0.0,0.0,0.0,0.0,0.0,0.0,0.0,-2.16399,44.948624,0.3194338,
1.3476562299183572,69,-0.02911377,-0.7439575,0.2987671,-0.00390625,-0.09765625,0.15917969,0.0,0.0,0.0,0.0,0.0,0.0,0.0,0.0,0.0,0.0,0.0,-0.30067307,-0.020618498,0.9535557,0.68273926,-0.0021972656,0.033447266,-1.4121094,1.0556641,0.34765625,28.41201,-6.2248645,-0.4268669,19.741558,-0.91882324,-0.022460938,-0.28253174,-0.3623047,-3.4208984,0.3408203,34.895695,20.588583,-49.43437,31.071255,-0.10559082,0.74090576,0.9468384,-0.36035156,1.5380859,-0.23144531,0.88558626,18.665714,-121.18912,25.258514,0.0,0.0,0.0,0.0,0.0,0.0,0.0,37.252174,-122.785,32.47611,0.0,0.0,0.0,0.0,0.0,0.0,0.0,0.30067307,0.020618498,-0.9535557,-0.86431885,0.2878418,-0.3017578,0.034179688,0.43066406,-0.015625,7.8295746,6.2248645,0.4268669,-19.741558,-0.9289551,0.25317383,-0.11602783,-0.20410156,0.6904297,0.091796875,3.709243,3.4521577,-56.272373,-14.576788,-0.48266602,0.6763916,0.49871826,-1.2685547,-0.6796875,-0.95214844,11.628728,-3.7869022,-127.5916,-7.647623,0.0,0.0,0.0,0.0,0.0,0.0,0.0,13.79741,-124.699585,1.4284182,0.0,0.0,0.0,0.0,0.0,0.0,0.0,-2.1136436,44.9515,0.30550572,
1.367187479627319,70,-0.05053711,-0.769104,0.2880249,-0.11816406,-0.021484375,0.30859375,0.0,0.0,0.0,0.0,0.0,0.0,0.0,0.0,0.0,0.0,0.0,-0.30341336,-0.02460837,0.9525545,0.63061523,-0.11126709,0.04663086,-1.234375,0.6347656,0.29785156,29.409637,-6.281597,-0.50946957,19.72083,-0.9151001,-0.10418701,-0.2906494,-0.1875,-3.6201172,0.38378906,32.091217,21.433342,-49.037746,30.97845,0.38049316,0.78479004,1.1361084,-0.28515625,1.671875,0.140625,3.2289515,24.39287,-120.81279,25.90617,0.0,0.0,0.0,0.0,0.0,0.0,0.0,42.886917,-121.919174,33.446964,0.0,0.0,0.0,0.0,0.0,0.0,0.0,0.30341336,0.02460837,-0.9525545,-0.7608032,0.36547852,-0.35809326,-0.39746094,0.5888672,-0.0146484375,8.841913,6.281597,0.50946957,-19.72083,-0.9694214,0.24334717,-0.1776123,-0.6201172,0.5517578,0.111328125,3.8411946,2.957004,-56.10148,-13.939469,-0.7102051,0.56695557,0.70477295,-1.2099609,-0.94140625,-1.0859375,10.8710375,-5.1425424,-127.24994,-6.301966,0.0,0.0,0.0,0.0,0.0,0.0,0.0,12.5190525,-124.76288,2.7471213,0.0,0.0,0.0,0.0,0.0,0.0,0.0,-2.128126,44.94762,0.48331717,
1.3867187293362806,71,-0.087890625,-0.86279297,0.26898193,-0.25,0.016601562,0.41992188,0.0,0.0,0.0,0.0,0.0,0.0,0.0,0.0,0.0,0.0,0.0,-0.31009504,-0.032646354,0.94987047,0.72247314,-0.15307617,0.079711914,-0.7285156,0.4033203,0.078125,29.846561,-6.4199286,-0.67588073,19.665264,-0.9206543,0.014343262,-0.19628906,0.0068359375,-3.6904297,0.48339844,28.883286,21.859913,-48.91142,30.750095,0.6768799,0.7492676,1.1920166,-0.18945312,2.2285156,-0.18945312,5.4622455,29.63095,-120.38083,26.611162,0.0,0.0,0.0,0.0,0.0,0.0,0.0,47.981865,-120.8479,34.557293,0.0,0.0,0.0,0.0,0.0,0.0,0.0,0.31009504,0.032646354,-0.94987047,-0.80181885,0.32086182,-0.34368896,-0.7714844,0.74609375,-0.03125,10.425755,6.4199286,0.67588073,-19.665264,-0.890625,0.17236328,-0.1618042,-1.1494141,0.640625,0.09082031,3.9083085,2.3375163,-55.801373,-13.07464,-0.5211792,0.76312256,0.4498291,-1.2646484,-1.1269531,-1.1787109,10.77848,-6.792066,-126.740555,-4.7026615,0.0,0.0,0.0,0.0,0.0,0.0,0.0,11.000673,-124.575134,4.169937,0.0,0.0,0.0,0.0,0.0,0.0,0.0,-2.3400936,44.920593,0.77993995,
1.4062499790452423,72,-0.09661865,-0.9232178,0.36938477,-0.17480469,-0.055664062,0.49414062,0.0,0.0,0.0,0.0,0.0,0.0,0.0,0.0,0.0,0.0,0.0,-0.3252626,-0.043546148,0.9442289,0.83203125,-0.09527588,0.21453857,-0.25195312,0.39941406,0.0048828125,29.92453,-6.733945,-0.90154016,19.548466,-0.93536377,0.09460449,-0.17840576,-0.1484375,-3.6972656,0.6328125,25.476694,21.9903,-48.90364,30.527662,0.8758545,0.4454956,1.2119751,0.36914062,2.6923828,-0.8769531,7.202415,34.514507,-119.762634,27.699835,0.0,0.0,0.0,0.0,0.0,0.0,0.0,52.67961,-119.351295,36.06495,0.0,0.0,0.0,0.0,0.0,0.0,0.0,0.3252626,0.043546148,-0.9442289,-0.9255371,0.15466309,-0.28588867,-0.9042969,0.70996094,-0.1640625,11.891593,6.733945,0.90154016,-19.548466,-0.954834,-0.076416016,-0.19445801,-1.2050781,0.81152344,-0.024414062,4.194653,2.014305,-55.469837,-12.525071,-0.5963135,0.41815186,0.78808594,-1.3222656,-0.9042969,-0.95214844,10.808406,-8.21916,-126.26546,-4.151723,0.0,0.0,0.0,0.0,0.0,0.0,0.0,9.643219,-124.58297,4.68326,0.0,0.0,0.0,0.0,0.0,0.0,0.0,-2.791854,44.882954,1.1081994,
1.425781228754204,73,-0.0045166016,-0.93377686,0.35095215,-0.04296875,-0.1484375,0.49316406,0.0,0.0,0.0,0.0,0.0,0.0,0.0,0.0,0.0,0.0,0.0,-0.34154373,-0.050519925,0.93824613,0.883667,-0.13830566,0.2598877,-0.03515625,0.5888672,0.020507812,30.610605,-7.0710135,-1.0459191,19.424603,-0.9401245,0.1449585,-0.116882324,-0.3232422,-3.6298828,0.74316406,22.637892,22.331997,-48.536217,30.803295,0.6460571,0.55163574,1.0580444,0.34570312,2.694336,-1.4521484,8.160846,39.3514,-118.50025,29.662445,0.0,0.0,0.0,0.0,0.0,0.0,0.0,57.294888,-116.96327,38.370205,0.0,0.0,0.0,0.0,0.0,0.0,0.0,0.34154373,0.050519925,-0.93824613,-0.88183594,-0.040527344,-0.23944092,-0.79003906,0.7089844,-0.22070312,12.575105,7.0710135,1.0459191,-19.424603,-0.94940186,-0.31811523,-0.0970459,-0.48632812,0.8203125,-0.0234375,4.630624,1.8935614,-55.301796,-12.527985,-0.567749,0.52441406,0.71520996,-1.3417969,-0.8300781,-0.76464844,11.562892,-9.285805,-126.05141,-5.1222286,0.0,0.0,0.0,0.0,0.0,0.0,0.0,8.62418,-124.725655,3.680357,0.0,0.0,0.0,0.0,0.0,0.0,0.0,-3.1015792,44.86349,1.2866297,
1.4453124784631657,74,-0.0015258789,-1.0095825,0.3413086,0.0703125,-0.13183594,0.4189453,0.0,0.0,0.0,0.0,0.0,0.0,0.0,0.0,0.0,0.0,0.0,-0.35833192,-0.05429963,0.9316828,0.85736084,-0.18988037,0.2909546,0.23535156,0.7011719,-0.017578125,31.56392,-7.418581,-1.1241707,19.288723,-0.9484253,0.07373047,-0.115234375,-0.4794922,-3.2988281,0.6230469,20.435577,22.814247,-47.925266,31.341358,0.8000488,0.47955322,0.95233154,-0.234375,2.1191406,-1.6376953,8.586181,43.944912,-116.76688,31.77628,0.0,0.0,0.0,0.0,0.0,0.0,0.0,61.721073,-114.14841,40.56732,0.0,0.0,0.0,0.0,0.0,0.0,0.0,0.35833192,0.05429963,-0.9316828,-0.8446045,-0.1161499,-0.22491455,-0.27246094,0.9345703,-0.08496094,13.253547,7.418581,1.1241707,-19.288723,-0.9530029,0.10882568,-0.14404297,0.0048828125,0.8642578,0.052734375,4.5796666,1.4975553,-55.18429,-12.668477,-0.5631714,0.40820312,0.7763672,-1.0615234,-0.64453125,-0.5439453,11.765325,-10.490992,-125.857635,-5.7940145,0.0,0.0,0.0,0.0,0.0,0.0,0.0,7.4421825,-124.85107,3.0038686,0.0,0.0,0.0,0.0,0.0,0.0,0.0,-3.384941,44.839417,1.311424,
1.4648437281721274,75,-6.1035156E-5,-1.0510864,0.35772705,0.10839844,0.0126953125,0.38183594,0.0,0.0,0.0,0.0,0.0,0.0,0.0,0.0,0.0,0.0,0.0,-0.37017208,-0.057993695,0.9269305,0.8327637,-0.24902344,0.30200195,0.6503906,0.5839844,-0.14550781,32.681007,-7.6637096,-1.2006493,19.190336,-0.9598999,-0.07318115,-0.06518555,-0.19042969,-2.7509766,0.5644531,19.05891,23.293013,-47.28051,32.115627,0.9232178,0.46972656,0.81347656,-0.8183594,1.6582031,-1.7109375,8.421098,47.92717,-114.930405,33.429565,0.0,0.0,0.0,0.0,0.0,0.0,0.0,65.61019,-111.32325,42.058186,0.0,0.0,0.0,0.0,0.0,0.0,0.0,0.37017208,0.057993695,-0.9269305,-0.9694214,-0.14752197,-0.31207275,0.068359375,1.0068359,0.06640625,13.635894,7.6637096,1.2006493,-19.190336,-0.9874878,-0.080200195,-0.1505127,-0.86328125,1.1787109,-0.10253906,4.868161,1.070148,-55.101368,-13.236847,-0.58709717,0.4151001,0.74816895,-0.2783203,-0.29101562,-0.34960938,12.556095,-12.336374,-125.53497,-6.463582,0.0,0.0,0.0,0.0,0.0,0.0,0.0,5.659727,-124.83899,2.2335997,0.0,0.0,0.0,0.0,0.0,0.0,0.0,-3.57174,44.827606,1.3782699,
1.484374977881089,76,-0.015991211,-1.0441284,0.40350342,0.052734375,0.13964844,0.23339844,0.0,0.0,0.0,0.0,0.0,0.0,0.0,0.0,0.0,0.0,0.0,-0.37764886,-0.061684236,0.9238629,0.89904785,-0.21478271,0.2925415,0.96777344,0.37109375,-0.21679688,33.541832,-7.8185034,-1.2770549,19.126825,-0.91101074,-0.103393555,-0.12414551,0.5048828,-2.2871094,0.6464844,18.396374,23.61369,-46.812515,32.843506,1.074585,0.32861328,0.6699829,-1.3662109,1.3691406,-1.4296875,8.0317955,50.753586,-113.48439,34.477947,0.0,0.0,0.0,0.0,0.0,0.0,0.0,68.38428,-108.99854,42.794838,0.0,0.0,0.0,0.0,0.0,0.0,0.0,0.37764886,0.061684236,-0.9238629,-0.8898926,-0.20458984,-0.39666748,0.43847656,0.7714844,0.2529297,13.993491,7.8185034,1.2770549,-19.126825,-0.9537964,-0.21679688,-0.12896729,-0.05078125,1.1884766,-0.08203125,5.21609,0.5993004,-55.021305,-13.919779,-0.5643921,0.32434082,0.75665283,-0.20605469,-0.030273438,-0.27441406,13.885323,-13.986916,-125.31966,-8.298019,0.0,0.0,0.0,0.0,0.0,0.0,0.0,4.02816,-124.805824,0.37512016,0.0,0.0,0.0,0.0,0.0,0.0,0.0,-3.7306464,44.81986,1.4675384,
1.5039062275900508,77,-0.007080078,-0.9752197,0.36938477,0.24121094,0.19140625,0.17773438,0.0,0.0,0.0,0.0,0.0,0.0,0.0,0.0,0.0,0.0,0.0,-0.38488865,-0.06256884,0.9207629,0.99334717,-0.15637207,0.41351318,0.92871094,0.31445312,-0.16113281,34.252277,-7.968388,-1.2953689,19.062647,-0.82666016,-0.038269043,0.0049438477,1.2392578,-1.765625,0.7480469,17.545849,23.830692,-46.363598,33.455738,1.2225342,0.12335205,0.5005493,-0.7470703,1.3496094,-1.1943359,8.236402,53.37857,-111.9986,35.677296,0.0,0.0,0.0,0.0,0.0,0.0,0.0,70.921,-106.74956,43.728355,0.0,0.0,0.0,0.0,0.0,0.0,0.0,0.38488865,0.06256884,-0.9207629,-0.87561035,-0.01574707,-0.42034912,0.7363281,0.59472656,0.26953125,14.402044,7.968388,1.2953689,-19.062647,-0.991272,-0.044006348,-0.18103027,0.53515625,1.2910156,-0.043945312,5.5983567,0.06672716,-54.967976,-14.442978,-0.51971436,0.4625244,0.81469727,0.09082031,0.30566406,-0.25878906,14.51249,-15.849073,-125.02748,-9.544338,0.0,0.0,0.0,0.0,0.0,0.0,0.0,2.168188,-124.635605,-0.8708086,0.0,0.0,0.0,0.0,0.0,0.0,0.0,-3.81929,44.811028,1.4485519,
1.5234374772990125,78,-0.042907715,-0.954895,0.38006592,-0.060546875,0.23046875,0.10449219,0.0,0.0,0.0,0.0,0.0,0.0,0.0,0.0,0.0,0.0,0.0,-0.3906942,-0.064806916,0.9180631,0.99438477,-0.04876709,0.4376831,0.7753906,0.2578125,-0.0859375,34.861748,-8.088582,-1.3417041,19.006752,-0.8060303,0.12976074,0.07208252,1.3339844,-1.0751953,0.70410156,17.082987,24.047016,-45.968792,34.012707,1.3878784,0.14508057,0.29205322,-0.3701172,1.0810547,-1.0527344,8.716522,55.32679,-110.780655,36.778927,0.0,0.0,0.0,0.0,0.0,0.0,0.0,72.739044,-104.89263,44.67243,0.0,0.0,0.0,0.0,0.0,0.0,0.0,0.3906942,0.064806916,-0.9180631,-0.9985962,0.22613525,-0.5465088,0.84277344,0.28710938,0.13378906,14.845999,8.088582,1.3417041,-19.006752,-1.1148682,0.14630127,-0.2503662,0.47851562,1.3095703,-0.024414062,6.493892,-0.23094273,-54.882618,-14.67175,-0.51605225,0.5274658,0.77960205,0.3466797,0.8095703,-0.296875,14.866243,-17.778843,-124.572266,-10.113961,0.0,0.0,0.0,0.0,0.0,0.0,0.0,0.2198677,-124.28917,-1.3989124,0.0,0.0,0.0,0.0,0.0,0.0,0.0,-3.9702966,44.79313,1.4723742,
1.5429687270079742,79,-0.045166016,-1.0504761,0.4088745,-0.11621094,0.26660156,0.030273438,0.0,0.0,0.0,0.0,0.0,0.0,0.0,0.0,0.0,0.0,0.0,-0.39213592,-0.06782507,0.91725093,1.0184937,-0.04486084,0.41253662,0.39257812,0.22167969,0.025390625,35.374977,-8.118429,-1.4041891,18.989939,-0.8128662,0.18017578,-0.026000977,0.6328125,-0.3671875,0.4169922,17.175621,24.39329,-45.560852,34.57841,1.4187622,0.03857422,0.067993164,-0.53515625,0.3125,-0.7060547,8.851062,56.55163,-109.92087,37.77843,0.0,0.0,0.0,0.0,0.0,0.0,0.0,73.90554,-103.6124,45.471977,0.0,0.0,0.0,0.0,0.0,0.0,0.0,0.39213592,0.06782507,-0.91725093,-0.973999,0.39733887,-0.4973755,0.65625,0.36523438,0.11621094,15.422667,8.118429,1.4041891,-18.989939,-1.0564575,0.063964844,-0.24145508,0.23339844,1.4970703,-0.08300781,7.6333723,-0.56027126,-54.78649,-14.865743,-0.5602417,0.5541382,0.770874,0.41601562,1.2587891,-0.51953125,15.4827175,-19.93211,-124.02395,-10.708764,0.0,0.0,0.0,0.0,0.0,0.0,0.0,-1.9440956,-123.91574,-1.9659338,0.0,0.0,0.0,0.0,0.0,0.0,0.0,-4.2426953,44.768215,1.4965303,
1.5624999767169359,80,-0.016784668,-1.1757202,0.34301758,-0.13476562,0.22949219,-0.043945312,0.0,0.0,0.0,0.0,0.0,0.0,0.0,0.0,0.0,0.0,0.0,-0.38870135,-0.071175985,0.91863626,1.100769,-0.113098145,0.34985352,-0.028320312,0.16796875,0.099609375,35.6918,-8.047322,-1.4735634,19.01862,-0.7764282,0.03894043,-0.1081543,0.028320312,0.515625,-0.09863281,17.651066,24.65981,-45.38523,34.870056,1.6619263,0.072753906,-0.024291992,-0.5283203,-0.36035156,-0.13769531,8.3899555,56.592358,-109.84836,38.147835,0.0,0.0,0.0,0.0,0.0,0.0,0.0,74.01061,-103.46719,45.62962,0.0,0.0,0.0,0.0,0.0,0.0,0.0,0.38870135,0.071175985,-0.91863626,-1.1005859,0.4628296,-0.40008545,0.50390625,0.32910156,0.040039062,15.972783,8.047322,1.4735634,-19.01862,-1.1783447,0.055664062,-0.24182129,0.4033203,1.6523438,-0.0068359375,8.855966,-1.051115,-54.66026,-15.077735,-0.5665283,0.58374023,0.78125,0.5957031,1.8955078,-0.78027344,15.933918,-22.412441,-123.333954,-11.266812,0.0,0.0,0.0,0.0,0.0,0.0,0.0,-4.442833,-123.5312,-2.4905176,0.0,0.0,0.0,0.0,0.0,0.0,0.0,-4.387404,44.757683,1.6113911,
1.5820312264258976,81,-0.084350586,-1.2717285,0.3116455,-0.17285156,0.265625,-0.099609375,0.0,0.0,0.0,0.0,0.0,0.0,0.0,0.0,0.0,0.0,0.0,-0.38385794,-0.07416451,0.9205382,1.157898,-0.16223145,0.3493042,-0.053710938,-0.0029296875,-0.0087890625,35.626602,-7.947047,-1.5354353,19.057995,-0.70526123,-0.18652344,-0.23175049,-0.49902344,1.3457031,-0.70703125,18.7272,24.803413,-45.393967,34.969902,1.7930908,0.027954102,-0.093444824,-0.640625,-0.8251953,0.95410156,7.6717887,55.47843,-110.48797,37.78295,0.0,0.0,0.0,0.0,0.0,0.0,0.0,73.01297,-104.35527,45.20085,0.0,0.0,0.0,0.0,0.0,0.0,0.0,0.38385794,0.07416451,-0.9205382,-1.0401001,0.11853027,-0.38775635,0.1015625,0.083984375,-0.17089844,16.360834,7.947047,1.5354353,-19.057995,-1.206665,0.05230713,-0.27954102,0.6113281,1.7304688,-0.0068359375,10.4753275,-1.3511219,-54.58471,-15.298758,-0.57263184,0.5155029,0.70526123,0.4716797,2.8115234,-1.1650391,15.637109,-24.886673,-122.556755,-11.859548,0.0,0.0,0.0,0.0,0.0,0.0,0.0,-6.9957256,-123.301346,-2.9516325,0.0,0.0,0.0,0.0,0.0,0.0,0.0,-4.580715,44.739555,1.6943821,
1.6015624761348592,82,-0.099365234,-1.3536987,0.41088867,-0.15429688,0.13769531,-0.08105469,0.0,0.0,0.0,0.0,0.0,0.0,0.0,0.0,0.0,0.0,0.0,-0.37962982,-0.07578628,0.9221782,1.1080322,-0.16473389,0.29486084,0.13574219,0.03515625,-0.23144531,35.44849,-7.859514,-1.5690106,19.091948,-0.77685547,-0.3505249,-0.16271973,-0.3857422,2.1357422,-1.1328125,20.726751,24.92909,-45.437798,34.91633,1.7272339,0.14349365,-0.21679688,-0.4111328,-1.5976562,2.4667969,7.531425,53.15712,-111.66287,36.656643,0.0,0.0,0.0,0.0,0.0,0.0,0.0,70.819405,-106.257996,44.332287,0.0,0.0,0.0,0.0,0.0,0.0,0.0,0.37962982,0.07578628,-0.9221782,-1.0060425,0.16436768,-0.31463623,-0.06738281,0.125,-0.24609375,16.120693,7.859514,1.5690106,-19.091948,-1.1223145,0.008178711,-0.36010742,0.57421875,1.8261719,-0.14160156,12.748635,-1.0788231,-54.61795,-15.620611,-0.5566406,0.51257324,0.72076416,0.34765625,3.727539,-1.3808594,14.64649,-26.881483,-121.7801,-12.64037,0.0,0.0,0.0,0.0,0.0,0.0,0.0,-9.183899,-123.29695,-3.4472227,0.0,0.0,0.0,0.0,0.0,0.0,0.0,-4.7422676,44.722466,1.7231402,
1.621093725843821,83,-0.3430786,-1.2225952,0.69073486,-0.5498047,0.14160156,-0.09863281,0.0,0.0,0.0,0.0,0.0,0.0,0.0,0.0,0.0,0.0,0.0,-0.37834236,-0.07800491,0.9225671,1.1828003,-0.114746094,0.28234863,0.17773438,0.24609375,-0.40039062,35.131138,-7.8328595,-1.6149435,19.1,-2.0,0.25708008,-0.37182617,1.3417969,1.6357422,-0.45117188,22.996195,25.143307,-45.40471,34.73556,-2.0,1.8516235,1.9077148,0.73535156,-3.8076172,4.1220703,10.370067,51.220436,-112.536026,34.766613,0.0,0.0,0.0,0.0,0.0,0.0,0.0,69.15938,-108.757126,42.770927,0.0,0.0,0.0,0.0,0.0,0.0,0.0,0.37834236,0.07800491,-0.9225671,-1.1015015,0.1921997,-0.3423462,0.28320312,0.5048828,-0.07128906,16.69635,7.8328595,1.6149435,-19.1,-1.2879028,0.018554688,-0.32617188,0.8222656,1.6962891,-0.31347656,14.435892,-1.3256793,-54.54631,-15.741289,-0.7038574,0.5683594,0.82769775,0.07910156,4.176758,-1.6542969,13.009698,-29.318941,-120.85882,-13.425783,0.0,0.0,0.0,0.0,0.0,0.0,0.0,-11.8981495,-123.422226,-3.9403934,0.0,0.0,0.0,0.0,0.0,0.0,0.0,-5.090389,44.68729,1.6908448,
1.6406249755527826,84,-0.4560547,-1.1124878,0.58392334,0.11035156,-0.265625,-0.17675781,0.0,0.0,0.0,0.0,0.0,0.0,0.0,0.0,0.0,0.0,0.0,-0.37939236,-0.07517643,0.9223839,1.7217407,0.21478271,0.18157959,0.3857422,0.1484375,-0.39941406,35.13269,-7.8545976,-1.5563853,19.096205,-1.090271,0.124938965,0.024841309,-0.08984375,0.984375,-0.60058594,24.574093,25.375685,-45.22463,34.54437,1.999939,-0.18109131,0.5638428,-1.9257812,-2.0371094,1.8652344,13.01299,49.305557,-113.14542,34.225,0.0,0.0,0.0,0.0,0.0,0.0,0.0,67.493805,-110.93306,42.25347,0.0,0.0,0.0,0.0,0.0,0.0,0.0,0.37939236,0.07517643,-0.9223839,-1.3129883,0.14477539,-0.50756836,0.4736328,0.50390625,-0.18457031,17.257011,7.8545976,1.5563853,-19.096205,-1.2825928,-0.078125,-0.2623291,0.16308594,1.8212891,-0.5253906,15.610352,-2.0060153,-54.505222,-16.077253,-0.7241211,0.5109863,0.7620239,0.07519531,4.4023438,-1.9892578,10.98367,-32.122143,-119.90109,-14.664877,0.0,0.0,0.0,0.0,0.0,0.0,0.0,-15.128256,-123.67126,-4.8193474,0.0,0.0,0.0,0.0,0.0,0.0,0.0,-5.1323338,44.688793,1.5312235,
1.6601562252617443,85,-0.33410645,-1.211792,0.4960327,0.5048828,-0.7216797,0.005859375,0.0,0.0,0.0,0.0,0.0,0.0,0.0,0.0,0.0,0.0,0.0,-0.38785517,-0.066211954,0.9194839,1.3051147,0.704895,0.2697754,-0.5126953,0.7089844,-0.20214844,35.718124,-8.029805,-1.3707927,19.036167,-0.22015381,0.030700684,-0.39440918,-0.328125,2.1728516,-1.0751953,26.82142,25.628857,-44.743923,34.37831,-0.030639648,-0.08380127,0.99224854,0.4794922,-2.399414,1.8183594,13.648579,47.330154,-113.39775,33.09253,0.0,0.0,0.0,0.0,0.0,0.0,0.0,65.50024,-112.06373,41.335884,0.0,0.0,0.0,0.0,0.0,0.0,0.0,0.38785517,0.066211954,-0.9194839,-1.1862793,0.0061035156,-0.44976807,0.107421875,0.21972656,-0.35839844,16.87976,8.029805,1.3707927,-19.036167,-1.2608643,-0.19012451,-0.2574463,0.029296875,1.8007812,-0.4296875,17.306948,-2.1140108,-54.662075,-16.444508,-0.71710205,0.40637207,0.73101807,-0.38085938,4.8896484,-2.2773438,8.7567215,-34.447876,-119.00583,-15.936565,0.0,0.0,0.0,0.0,0.0,0.0,0.0,-18.04295,-124.07619,-5.681695,0.0,0.0,0.0,0.0,0.0,0.0,0.0,-4.78713,44.734524,1.2020297,
1.679687474970706,86,-0.13549805,-1.0735474,0.6166382,0.1640625,-0.75097656,0.39746094,0.0,0.0,0.0,0.0,0.0,0.0,0.0,0.0,0.0,0.0,0.0,-0.40201166,-0.060494605,0.9138604,0.4890747,0.28131104,-0.27368164,-1.0205078,-0.98828125,0.0390625,35.747276,-8.322887,-1.2524258,18.919743,-1.0007935,-0.27062988,-0.27435303,-0.3076172,1.9287109,-0.86328125,29.162207,25.445507,-44.734245,33.697697,1.1247559,1.5769653,1.2785645,-0.064453125,0.016601562,1.6992188,13.513367,44.126656,-114.22081,30.938658,0.0,0.0,0.0,0.0,0.0,0.0,0.0,62.275284,-113.76145,39.33815,0.0,0.0,0.0,0.0,0.0,0.0,0.0,0.40201166,0.060494605,-0.9138604,-1.2348633,-0.059814453,-0.32434082,-0.35058594,0.08984375,-0.39746094,16.468128,8.322887,1.2524258,-18.919743,-1.2423706,-0.37335205,-0.052978516,0.37109375,1.7294922,-0.6015625,19.11324,-1.9704151,-54.76547,-16.664513,-0.84277344,0.428833,0.6010132,-0.76464844,5.6015625,-2.7148438,6.094935,-36.435272,-117.996796,-17.107143,0.0,0.0,0.0,0.0,0.0,0.0,0.0,-20.957485,-124.48473,-6.2300014,0.0,0.0,0.0,0.0,0.0,0.0,0.0,-4.4473677,44.77771,1.0077207,
1.6992187246796677,87,-0.048034668,-0.845459,0.72003174,0.29492188,-0.6777344,0.54589844,0.0,0.0,0.0,0.0,0.0,0.0,0.0,0.0,0.0,0.0,0.0,-0.41727304,-0.060180865,0.9070032,0.49212646,-0.2390747,-0.07312012,-0.23730469,-1.0917969,0.22558594,34.790756,-8.638845,-1.2459306,18.777779,-1.4309692,-0.9741821,-0.873291,1.4931641,2.5126953,-0.47753906,30.19799,24.278502,-45.533382,33.085045,1.0276489,0.03302002,0.75390625,-1.1210938,0.19238281,0.5234375,12.444876,40.0803,-115.70322,29.48568,0.0,0.0,0.0,0.0,0.0,0.0,0.0,58.14411,-115.269066,38.066803,0.0,0.0,0.0,0.0,0.0,0.0,0.0,0.41727304,0.060180865,-0.9070032,-1.3341064,0.015380859,-0.04888916,-0.296875,-0.064453125,-0.47558594,16.07009,8.638845,1.2459306,-18.777779,-1.2797852,-0.07128906,0.3383789,0.6171875,1.7509766,-0.58203125,21.005293,-1.6315384,-54.791267,-16.812141,-0.78063965,0.47680664,0.52282715,-0.8515625,6.4433594,-3.1933594,5.745081,-38.065254,-116.89602,-18.288353,0.0,0.0,0.0,0.0,0.0,0.0,0.0,-23.918644,-124.80459,-6.5724487,0.0,0.0,0.0,0.0,0.0,0.0,0.0,-4.1899304,44.80122,1.0450139,
1.7187499743886294,88,0.051940918,-0.78881836,0.6329956,0.18261719,-0.625,0.3046875,0.0,0.0,0.0,0.0,0.0,0.0,0.0,0.0,0.0,0.0,0.0,-0.42684263,-0.050099343,0.90293187,0.9324341,-0.050231934,-0.4326172,0.13671875,-1.1875,-0.14355469,33.473442,-8.836967,-1.0372118,18.69349,-0.77038574,-0.18029785,-0.5506592,2.1572266,1.3525391,0.11816406,31.044323,22.602299,-46.500443,32.56216,0.29229736,0.30828857,0.90008545,-0.52441406,0.21289062,0.29492188,13.646306,34.974545,-117.268875,28.031515,0.0,0.0,0.0,0.0,0.0,0.0,0.0,52.99208,-116.740234,36.705048,0.0,0.0,0.0,0.0,0.0,0.0,0.0,0.42684263,0.050099343,-0.90293187,-1.3283691,0.12896729,0.14056396,-0.44726562,-0.6972656,-0.5205078,14.634018,8.836967,1.0372118,-18.69349,-1.2562256,0.007751465,0.39367676,-0.045898438,1.9716797,-0.46875,23.588203,-0.93739796,-55.09591,-17.069345,-1.0284424,0.62231445,0.57922363,-0.9765625,7.3427734,-3.8769531,8.688036,-39.543095,-115.83862,-19.528053,0.0,0.0,0.0,0.0,0.0,0.0,0.0,-27.100307,-125.38083,-7.1118402,0.0,0.0,0.0,0.0,0.0,0.0,0.0,-3.5393639,44.852966,0.81551325,
1.7382812240975911,89,0.05432129,-0.6949463,0.7375488,-0.022460938,-0.6816406,-0.12207031,0.0,0.0,0.0,0.0,0.0,0.0,0.0,0.0,0.0,0.0,0.0,-0.43177834,-0.034432307,0.9008906,1.0889282,-0.024169922,-0.124694824,-0.056640625,-1.0478516,-0.69921875,31.695988,-8.93915,-0.71285546,18.65123,-0.918396,0.12322998,-0.51898193,0.4716797,0.99316406,-0.13476562,30.77853,21.284405,-47.315758,31.463337,0.8602295,0.70007324,0.7390747,-0.4658203,0.13769531,0.052734375,15.084809,30.996899,-118.52613,27.020023,0.0,0.0,0.0,0.0,0.0,0.0,0.0,48.9943,-117.96835,35.731503,0.0,0.0,0.0,0.0,0.0,0.0,0.0,0.43177834,0.034432307,-0.9008906,-1.1744385,0.12158203,0.20007324,-0.7138672,-1.3681641,-0.5292969,12.671709,8.93915,0.71285546,-18.65123,-1.1945801,0.120910645,0.36346436,-0.06542969,2.3720703,-0.3935547,27.273327,0.40576077,-55.62856,-17.207624,-2.0,0.50457764,0.58380127,-1.7939453,6.801758,-3.8105469,13.937638,-40.701385,-114.6668,-20.397192,0.0,0.0,0.0,0.0,0.0,0.0,0.0,-30.443087,-125.66476,-7.213356,0.0,0.0,0.0,0.0,0.0,0.0,0.0,-3.090004,44.875626,0.2341842,
1.7578124738065528,90,-0.040527344,-0.6565552,0.7236328,-0.4736328,-0.44433594,-0.43554688,0.0,0.0,0.0,0.0,0.0,0.0,0.0,0.0,0.0,0.0,0.0,-0.42760012,-0.017622076,0.9027585,1.0123291,0.28051758,-0.35888672,0.6660156,-1.546875,-1.2294922,29.57978,-8.852647,-0.3648316,18.6899,-1.0212402,-0.07873535,-0.6080322,-0.47851562,1.1191406,-0.47558594,29.856243,20.21136,-48.07205,30.055882,0.3998413,0.16430664,0.892395,-0.21289062,0.060546875,0.030273438,14.374325,28.17324,-119.50696,25.588406,0.0,0.0,0.0,0.0,0.0,0.0,0.0,46.20509,-118.92857,34.22873,0.0,0.0,0.0,0.0,0.0,0.0,0.0,0.42760012,0.017622076,-0.9027585,-1.2504883,0.18933105,0.15881348,-1.0507812,-1.9033203,-0.5175781,10.2928505,8.852647,0.3648316,-18.6899,-1.3688354,0.11529541,-0.26507568,-0.21679688,2.7519531,-0.4140625,32.275997,2.294376,-56.243385,-17.195978,-2.0,0.6651001,0.83148193,-0.9824219,4.745117,-3.1835938,18.185596,-41.793976,-113.05077,-21.160484,0.0,0.0,0.0,0.0,0.0,0.0,0.0,-33.49243,-124.96239,-7.4071474,0.0,0.0,0.0,0.0,0.0,0.0,0.0,-2.8600078,44.86418,-0.4789093,
1.7773437235155145,91,-0.09863281,-0.6472168,0.661438,-0.68066406,-0.28027344,-0.6386719,0.0,0.0,0.0,0.0,0.0,0.0,0.0,0.0,0.0,0.0,0.0,-0.41770557,-0.0062260367,0.907447,0.9058838,0.29101562,-0.3499756,0.58691406,-1.7773438,-0.8935547,26.22558,-8.6478,-0.12889823,18.786966,-0.9729614,-0.2952881,-0.5187988,0.12402344,0.7216797,-0.041992188,27.790722,18.62198,-49.324024,28.009348,0.48742676,0.35943604,0.83148193,-0.036132812,-0.053710938,-0.083984375,14.103858,25.20789,-120.89267,23.384304,0.0,0.0,0.0,0.0,0.0,0.0,0.0,43.23328,-120.34572,32.040215,0.0,0.0,0.0,0.0,0.0,0.0,0.0,0.41770557,0.0062260367,-0.907447,-1.3256226,0.040222168,-0.14117432,-1.2148438,-2.3632812,-0.65527344,8.005134,8.6478,0.12889823,-18.786966,-1.4190674,-0.16900635,-0.55218506,0.5751953,2.6464844,-0.125,37.764423,4.5414014,-56.69802,-17.097532,-1.2368774,1.2720947,0.7749634,-1.8535156,3.8867188,-3.3984375,21.902575,-42.424107,-111.09369,-21.62626,0.0,0.0,0.0,0.0,0.0,0.0,0.0,-35.988148,-123.82424,-7.6083946,0.0,0.0,0.0,0.0,0.0,0.0,0.0,-3.0323792,44.838863,-1.0881883,
1.7968749732244762,92,-0.29516602,-0.78497314,0.6218872,-1.2080078,-0.16894531,-0.8964844,0.0,0.0,0.0,0.0,0.0,0.0,0.0,0.0,0.0,0.0,0.0,-0.4058029,-3.5743043E-4,0.9131592,0.89575195,0.10089111,-0.35620117,0.48339844,-1.6669922,-0.28515625,22.505116,-8.401379,-0.0073999576,18.905226,-0.8996582,0.036743164,-0.43078613,0.55078125,0.7910156,-0.13085938,26.127068,16.624918,-50.62483,26.687548,0.43518066,0.37017822,0.80303955,0.23535156,-0.091796875,-0.12402344,15.275782,21.283894,-122.33795,22.018568,0.0,0.0,0.0,0.0,0.0,0.0,0.0,39.30686,-121.82125,30.680407,0.0,0.0,0.0,0.0,0.0,0.0,0.0,0.4058029,3.5743043E-4,-0.9131592,-1.2766724,-0.12200928,-0.3739624,-0.82421875,-2.6738281,-0.77246094,5.704889,8.401379,0.0073999576,-18.905226,-1.354126,0.034362793,-0.2489624,0.79785156,1.7324219,0.16601562,42.92876,7.1960526,-56.95985,-17.112526,-0.7411499,0.57873535,0.6638794,0.2607422,4.2578125,-2.9648438,25.958578,-41.897762,-109.43857,-21.726513,0.0,0.0,0.0,0.0,0.0,0.0,0.0,-37.127216,-122.76566,-7.5996523,0.0,0.0,0.0,0.0,0.0,0.0,0.0,-3.520813,44.802296,-1.547093,
1.816406222933438,93,-0.19824219,-0.90197754,0.7792969,-0.5107422,-0.3359375,-0.546875,0.0,0.0,0.0,0.0,0.0,0.0,0.0,0.0,0.0,0.0,0.0,-0.4053659,9.529032E-4,0.9141383,0.7996216,-0.0848999,-0.1842041,0.56933594,-1.4394531,-0.103515625,18.90014,-8.392331,0.019728128,18.925497,-1.0001831,0.17559814,-0.36035156,-0.05078125,0.8886719,-0.3515625,25.289091,14.881431,-51.500786,26.210255,0.45300293,0.3227539,0.826355,0.41015625,-0.14941406,-0.14453125,15.741308,17.777628,-123.32114,21.791935,0.0,0.0,0.0,0.0,0.0,0.0,0.0,35.789856,-122.84096,30.478264,0.0,0.0,0.0,0.0,0.0,0.0,0.0,0.4053659,-9.529032E-4,-0.9141383,-1.2607422,-0.1809082,-0.56799316,-0.45117188,-2.8515625,-0.64160156,4.047769,8.392331,-0.019728128,-18.925497,-1.1409302,0.18261719,-0.5576782,-0.50683594,1.4306641,0.10839844,47.749496,10.339551,-56.960636,-17.108204,-1.9123535,1.2402954,1.3018799,4.064453,2.796875,-2.178711,26.659222,-40.306087,-107.96802,-21.62399,0.0,0.0,0.0,0.0,0.0,0.0,0.0,-36.356674,-121.98706,-7.9183083,0.0,0.0,0.0,0.0,0.0,0.0,0.0,-4.6354084,44.71058,-2.1021347,
1.8359374726423996,94,-0.14312744,-0.8087158,0.46899414,-0.13574219,-0.44433594,-0.10253906,0.0,0.0,0.0,0.0,0.0,0.0,0.0,0.0,0.0,0.0,0.0,-0.4099295,0.0061464794,0.91204536,0.770874,-0.13201904,-0.21795654,0.7871094,-1.7265625,-0.32128906,17.085255,-8.486814,0.1272511,18.882166,-0.9030762,-0.08331299,-0.35388184,-0.67089844,0.7050781,-0.4169922,24.594385,13.1807165,-52.154182,25.718952,0.4784546,0.3842163,0.8149414,0.60253906,-0.11035156,-0.072265625,15.7162895,14.48147,-124.02464,21.375542,0.0,0.0,0.0,0.0,0.0,0.0,0.0,32.4552,-123.590034,30.142647,0.0,0.0,0.0,0.0,0.0,0.0,0.0,0.4099295,-0.0061464794,-0.91204536,-1.1283569,0.043701172,-0.65600586,-0.49121094,-2.852539,-0.49121094,1.1673459,8.486814,-0.1272511,-18.882166,-1.1609497,0.07922363,-0.765625,-0.017578125,1.0927734,0.3779297,52.344643,13.627841,-56.863636,-16.884907,-1.2789917,-2.0,1.1325684,0.14648438,0.17675781,-0.7089844,25.193317,-38.284317,-106.60986,-21.020664,0.0,0.0,0.0,0.0,0.0,0.0,0.0,-34.34365,-121.142044,-7.8570213,0.0,0.0,0.0,0.0,0.0,0.0,0.0,-4.549757,44.705772,-2.3462245,
1.8554687223513613,95,-0.13311768,-0.80981445,0.4609375,0.18359375,-0.44335938,0.28710938,0.0,0.0,0.0,0.0,0.0,0.0,0.0,0.0,0.0,0.0,0.0,-0.4223447,0.0037656464,0.9064003,0.89624023,-0.11212158,-0.23394775,1.4501953,-1.7871094,-0.59765625,15.021048,-8.743845,0.07796058,18.765297,-1.0166016,-0.21765137,-0.26849365,-0.94140625,0.58496094,-0.36328125,23.479454,10.999727,-53.024166,25.074991,0.43695068,0.5115967,0.7418213,0.67578125,0.0234375,0.040039062,15.478238,11.048701,-124.885925,20.395046,0.0,0.0,0.0,0.0,0.0,0.0,0.0,28.94239,-124.47508,29.325703,0.0,0.0,0.0,0.0,0.0,0.0,0.0,0.4223447,-0.0037656464,-0.9064003,-1.1887817,0.16949463,-0.48345947,-0.76660156,-3.1582031,-0.4013672,2.86006,8.743845,-0.07796058,-18.765297,-1.0401611,0.0769043,-0.7663574,0.24902344,0.21875,0.11328125,56.362343,17.218418,-56.392723,-16.309181,-1.0151367,1.4554443,1.1808472,-2.0126953,-2.1455078,1.0507812,25.325035,-35.26012,-105.56506,-20.158012,0.0,0.0,0.0,0.0,0.0,0.0,0.0,-31.354902,-119.95869,-6.833312,0.0,0.0,0.0,0.0,0.0,0.0,0.0,-4.484663,44.717007,-2.2754426,
1.874999972060323,96,-0.1239624,-0.72106934,0.40625,0.1640625,-0.49609375,0.45410156,0.0,0.0,0.0,0.0,0.0,0.0,0.0,0.0,0.0,0.0,0.0,-0.43344712,0.0031144805,0.90132564,0.9671631,-0.008483887,-0.15454102,2.3623047,-1.8496094,-0.8925781,13.040549,-8.9737,0.064479426,18.660234,-0.9998169,-0.28497314,-0.25750732,-1.4833984,0.36621094,-0.44628906,21.956306,8.59366,-53.834557,24.656507,0.40423584,0.60046387,0.6980591,0.4814453,0.099609375,0.19140625,14.949052,7.923561,-125.657364,19.466335,0.0,0.0,0.0,0.0,0.0,0.0,0.0,25.667736,-125.25246,28.69152,0.0,0.0,0.0,0.0,0.0,0.0,0.0,0.43344712,-0.0031144805,-0.90132564,-1.1494141,0.25646973,-0.33239746,-1.0019531,-3.3486328,-0.23339844,6.7944546,8.9737,-0.064479426,-18.660234,-0.81817627,0.1282959,-0.8399048,0.001953125,-0.56640625,0.19238281,59.683147,20.97357,-55.697403,-15.408901,-0.61553955,0.84661865,0.942749,-1.9355469,-3.4980469,2.703125,24.601753,-31.231478,-105.17633,-19.03843,0.0,0.0,0.0,0.0,0.0,0.0,0.0,-26.737133,-119.03987,-5.342577,0.0,0.0,0.0,0.0,0.0,0.0,0.0,-4.2192974,44.754704,-2.1837058,
1.8945312217692847,97,-0.16278076,-0.70092773,0.4534912,0.032226562,-0.4951172,0.4169922,0.0,0.0,0.0,0.0,0.0,0.0,0.0,0.0,0.0,0.0,0.0,-0.4443115,9.472482E-4,0.8961055,0.8613281,0.2672119,-0.29779053,2.3701172,-2.116211,-1.1113281,10.57799,-9.198626,0.019610982,18.552162,-0.89941406,-0.46966553,-0.25378418,-1.3476562,0.46191406,-0.3876953,20.343426,6.1303253,-54.65295,23.638893,0.4967041,0.58929443,0.7235718,0.22949219,0.13671875,0.23144531,14.293075,4.6758766,-126.38722,17.513084,0.0,0.0,0.0,0.0,0.0,0.0,0.0,22.296083,-126.00378,26.97536,0.0,0.0,0.0,0.0,0.0,0.0,0.0,0.4443115,-9.472482E-4,-0.8961055,-1.1238403,0.29174805,-0.3656006,-1.1875,-3.2314453,-0.23242188,10.493045,9.198626,-0.019610982,-18.552162,-0.7440796,0.14575195,-0.8112793,-0.017578125,-1.1396484,0.29101562,62.267113,24.612183,-54.737633,-14.29325,-0.1531372,0.34295654,0.6062622,-0.3720703,-4.060547,3.1220703,22.597887,-26.720657,-105.14305,-17.527477,0.0,0.0,0.0,0.0,0.0,0.0,0.0,-20.962414,-118.21703,-3.5318537,0.0,0.0,0.0,0.0,0.0,0.0,0.0,-4.1836677,44.764305,-2.121686,
1.9140624714782464,98,-0.18475342,-0.6936035,0.45196533,-0.0625,-0.4404297,0.3623047,0.0,0.0,0.0,0.0,0.0,0.0,0.0,0.0,0.0,0.0,0.0,-0.4547487,-0.0010392889,0.8908708,0.7880249,0.54992676,-0.43634033,1.8945312,-2.0351562,-1.1308594,8.140539,-9.414709,-0.021516465,18.44379,-0.93518066,-0.3973999,-0.27087402,-0.64941406,0.32910156,-0.08886719,18.290462,3.7888632,-55.38201,21.621208,0.48016357,0.5270996,0.7074585,0.11230469,0.19433594,0.23242188,14.038416,1.6626041,-127.00816,14.509896,0.0,0.0,0.0,0.0,0.0,0.0,0.0,19.182676,-126.63475,24.153439,0.0,0.0,0.0,0.0,0.0,0.0,0.0,0.4547487,0.0010392889,-0.8908708,-1.0812378,0.25689697,-0.3951416,-1.4277344,-3.0175781,-0.28710938,14.071041,9.414709,0.021516465,-18.44379,-0.7581787,0.16827393,-0.8170166,-0.4345703,-2.290039,0.31347656,63.59504,28.002422,-53.601788,-13.10289,-0.23657227,0.6168823,0.8201904,0.29785156,-3.8896484,2.5322266,19.915125,-21.480724,-105.8501,-15.711293,0.0,0.0,0.0,0.0,0.0,0.0,0.0,-14.298292,-118.160774,-1.6934214,0.0,0.0,0.0,0.0,0.0,0.0,0.0,-4.1403217,44.77183,-2.0612137,
1.933593721187208,99,-0.13140869,-0.673645,0.3949585,0.051757812,-0.40527344,0.28710938,0.0,0.0,0.0,0.0,0.0,0.0,0.0,0.0,0.0,0.0,0.0,-0.4637426,-0.0025170147,0.8862032,0.744812,0.63201904,-0.3260498,1.6552734,-1.8828125,-0.7998047,6.7790227,-9.600909,-0.052110016,18.347155,-0.9524536,-0.20440674,-0.22698975,-0.39746094,0.29785156,-0.026367188,16.375086,2.1207886,-55.821377,19.533627,0.43902588,0.53533936,0.7173462,0.034179688,0.23339844,0.234375,14.088603,-0.43685722,-127.404526,12.1079445,0.0,0.0,0.0,0.0,0.0,0.0,0.0,16.995293,-127.009056,21.911325,0.0,0.0,0.0,0.0,0.0,0.0,0.0,0.4637426,0.0025170147,-0.8862032,-0.8440552,0.24139404,-0.3815918,-1.7568359,-2.6855469,-0.43359375,16.797802,9.600909,0.052110016,-18.347155,-0.47662354,0.1472168,-0.90844727,-0.6435547,-2.921875,0.35351562,63.446133,30.473495,-52.583412,-11.969513,-0.71539307,0.85150146,0.88049316,-0.25097656,-5.029297,2.665039,17.43904,-16.57394,-107.08206,-13.573843,0.0,0.0,0.0,0.0,0.0,0.0,0.0,-8.078987,-118.67842,0.3329153,0.0,0.0,0.0,0.0,0.0,0.0,0.0,-4.0971384,44.77718,-2.0168207,
1.9531249708961698,100,-0.03491211,-0.66156006,0.3687744,-0.0048828125,-0.35058594,0.28808594,0.0,0.0,0.0,0.0,0.0,0.0,0.0,0.0,0.0,0.0,0.0,-0.47163066,-0.00346205,0.8820275,0.7241821,0.5748291,-0.3180542,1.2548828,-2.0742188,-0.24316406,6.0221643,-9.764216,-0.07167521,18.260704,-0.97058105,-0.22680664,-0.21240234,-0.47460938,0.29492188,-0.0087890625,14.565464,0.544014,-56.124763,17.836739,0.39916992,0.59472656,0.6911621,-0.12402344,0.36621094,0.3486328,14.305202,-2.289217,-127.692406,10.337658,0.0,0.0,0.0,0.0,0.0,0.0,0.0,14.997616,-127.24366,20.388542,0.0,0.0,0.0,0.0,0.0,0.0,0.0,0.47163066,0.00346205,-0.8820275,-0.72003174,0.14587402,-0.37768555,-1.8369141,-2.1845703,-0.4658203,19.349302,9.764216,0.07167521,-18.260704,-0.4932251,0.1776123,-0.7706299,-1.1552734,-3.5966797,0.4326172,62.797504,32.746796,-51.579422,-10.934824,-0.44769287,0.61065674,0.60443115,-0.3564453,-5.442383,3.1689453,15.164115,-11.510345,-108.381065,-10.9014,0.0,0.0,0.0,0.0,0.0,0.0,0.0,-1.6265984,-118.646614,3.1177092,0.0,0.0,0.0,0.0,0.0,0.0,0.0,-4.057529,44.781822,-1.9938356,
1.9726562206051315,101,0.02154541,-0.64001465,0.36706543,-0.041992188,-0.3515625,0.15820312,0.0,0.0,0.0,0.0,0.0,0.0,0.0,0.0,0.0,0.0,0.0,-0.4783815,-0.0037312433,0.8783752,0.7496338,0.38616943,-0.29663086,0.9482422,-2.265625,0.14648438,5.4827642,-9.90398,-0.07724827,18.18509,-0.9555664,-0.23687744,-0.13696289,-0.31933594,0.28125,-0.043945312,12.403606,-1.4936695,-56.430046,16.405994,0.45721436,0.553833,0.70269775,-0.33984375,0.4814453,0.4814453,14.404036,-4.442111,-127.958786,8.645354,0.0,0.0,0.0,0.0,0.0,0.0,0.0,12.697373,-127.45428,18.94455,0.0,0.0,0.0,0.0,0.0,0.0,0.0,0.4783815,0.0037312433,-0.8783752,-0.65771484,0.07397461,-0.4142456,-1.5800781,-1.8027344,-0.42285156,21.611853,9.90398,0.07724827,-18.18509,-0.5670166,0.054138184,-0.7772827,-1.5517578,-4.25,0.30078125,61.081657,34.701057,-50.595463,-9.990058,-0.56781006,0.6431885,0.5527344,-0.33984375,-5.182617,3.5996094,13.908543,-5.826874,-110.10144,-8.348686,0.0,0.0,0.0,0.0,0.0,0.0,0.0,5.251377,-118.537865,5.9963284,0.0,0.0,0.0,0.0,0.0,0.0,0.0,-4.0210094,44.784534,-1.999686,
1.9921874703140932,102,0.04309082,-0.6693115,0.25482178,-0.13574219,-0.3154297,0.028320312,0.0,0.0,0.0,0.0,0.0,0.0,0.0,0.0,0.0,0.0,0.0,-0.48422334,-0.0026898645,0.8751693,0.83447266,0.4119873,-0.3531494,0.49414062,-2.225586,0.38671875,5.9802556,-10.024924,-0.055688646,18.118717,-0.9675293,-0.23736572,-0.09350586,-0.12597656,0.3232422,0.034179688,10.030406,-3.5866885,-56.613476,14.992279,0.43579102,0.4960327,0.73583984,-0.39746094,0.5,0.53808594,14.320411,-6.400501,-128.10823,6.9167175,0.0,0.0,0.0,0.0,0.0,0.0,0.0,10.607174,-127.526855,17.428432,0.0,0.0,0.0,0.0,0.0,0.0,0.0,0.48422334,0.0026898645,-0.8751693,-0.618103,-0.04333496,-0.4136963,-1.2939453,-1.671875,-0.23242188,23.442766,10.024924,0.055688646,-18.118717,-0.57458496,-0.050598145,-0.802063,-1.4179688,-4.7822266,0.12988281,58.545444,36.345352,-49.698147,-9.095185,-0.84228516,0.6697998,0.71759033,-0.66015625,-4.866211,3.8125,13.021223,0.33376694,-111.981705,-6.0134034,0.0,0.0,0.0,0.0,0.0,0.0,0.0,12.314795,-118.76181,8.49287,0.0,0.0,0.0,0.0,0.0,0.0,0.0,-4.0724945,44.774437,-2.115659,
2.011718720023055,103,0.018249512,-0.73028564,0.3248291,-0.34277344,-0.20605469,-0.10058594,0.0,0.0,0.0,0.0,0.0,0.0,0.0,0.0,0.0,0.0,0.0,-0.48757043,-0.0027308166,0.8732429,0.9346924,0.38409424,-0.33013916,0.001953125,-2.0878906,0.47753906,7.220452,-10.09422,-0.056536287,18.078836,-0.9640503,-0.10858154,-0.072265625,0.047851562,0.38378906,0.037109375,7.9917574,-5.3470707,-56.704468,13.805439,0.45074463,0.4633789,0.7573242,-0.37890625,0.53808594,0.6308594,14.403336,-8.087212,-128.20163,5.6283264,0.0,0.0,0.0,0.0,0.0,0.0,0.0,8.790127,-127.55336,16.3451,0.0,0.0,0.0,0.0,0.0,0.0,0.0,0.48757043,0.0027308166,-0.8732429,-0.58392334,-0.06903076,-0.4008789,-0.8544922,-1.484375,-0.059570312,24.82237,10.09422,0.056536287,-18.078836,-0.6034546,-0.10498047,-0.75653076,-1.0556641,-5.3115234,-0.13574219,55.38471,37.709404,-48.82925,-8.213889,-1.0595703,0.54937744,0.8925781,-0.5488281,-4.7177734,4.0546875,13.410636,6.916773,-113.77425,-3.9429278,0.0,0.0,0.0,0.0,0.0,0.0,0.0,19.549356,-118.81035,10.7216015,0.0,0.0,0.0,0.0,0.0,0.0,0.0,-4.3094864,44.742268,-2.2662597,
2.0312499697320168,104,-0.026062012,-0.82318115,0.36621094,-0.34277344,-0.0068359375,-0.17382812,0.0,0.0,0.0,0.0,0.0,0.0,0.0,0.0,0.0,0.0,0.0,-0.4898716,-0.0026824325,0.8717444,0.97546387,0.17810059,-0.34979248,-0.23925781,-1.8759766,0.49316406,8.774314,-10.141861,-0.055534676,18.047812,-1.0037231,-0.018981934,-0.045776367,-0.049804688,0.60546875,-0.0625,6.173459,-6.966519,-56.73257,12.8779545,0.40582275,0.34509277,0.80584717,-0.4140625,0.42285156,0.57421875,14.559202,-9.73987,-128.2523,4.9270153,0.0,0.0,0.0,0.0,0.0,0.0,0.0,6.99407,-127.51583,15.859824,0.0,0.0,0.0,0.0,0.0,0.0,0.0,0.4898716,0.0026824325,-0.8717444,-0.569397,-0.09307861,-0.35766602,-0.48828125,-1.2197266,0.076171875,25.80191,10.141861,0.055534676,-18.047812,-0.6538086,-0.051635742,-0.7996216,-0.7519531,-5.631836,-0.25,51.59012,38.815662,-48.060596,-7.4642954,-1.4089355,0.5494995,1.0656738,-0.5107422,-4.8291016,3.9042969,14.353813,13.898544,-115.39525,-1.993865,0.0,0.0,0.0,0.0,0.0,0.0,0.0,27.00574,-118.587616,12.77151,0.0,0.0,0.0,0.0,0.0,0.0,0.0,-4.633352,44.69102,-2.4661665,
2.0507812194409785,105,-0.037719727,-0.9453125,0.41363525,-0.078125,0.026367188,-0.26757812,0.0,0.0,0.0,0.0,0.0,0.0,0.0,0.0,0.0,0.0,0.0,-0.4970683,-0.0014950335,0.8674802,0.9863281,0.048217773,-0.32318115,-0.22070312,-1.7988281,0.2890625,10.235237,-10.290854,-0.030951768,17.95953,-1.0629883,-0.05255127,-0.16455078,-0.20605469,0.7871094,-0.10546875,5.0909295,-8.552591,-56.71857,12.247345,0.4081421,0.3690796,0.84729004,-0.0048828125,0.2890625,0.4951172,14.839706,-11.940865,-128.22455,4.414524,0.0,0.0,0.0,0.0,0.0,0.0,0.0,4.6814804,-127.42336,15.511448,0.0,0.0,0.0,0.0,0.0,0.0,0.0,0.4970683,0.0014950335,-0.8674802,-0.54992676,-0.08477783,-0.3388672,-0.16308594,-1.0322266,0.26757812,26.589485,10.290854,0.030951768,-17.95953,-0.7340088,-0.023803711,-0.75805664,-0.80859375,-5.861328,-0.30664062,47.280067,39.75879,-47.438217,-6.6514034,-1.6122437,0.4821167,1.1655273,-0.39746094,-5.033203,3.4902344,15.184181,21.227936,-116.70714,-0.117639065,0.0,0.0,0.0,0.0,0.0,0.0,0.0,34.64785,-118.09165,14.64822,0.0,0.0,0.0,0.0,0.0,0.0,0.0,-4.8711424,44.644115,-2.7142358,
2.07031246914994,106,-0.06726074,-0.9833374,0.44543457,0.28125,0.00390625,-0.38085938,0.0,0.0,0.0,0.0,0.0,0.0,0.0,0.0,0.0,0.0,0.0,-0.502487,0.0030420162,0.86441946,0.88165283,-0.08874512,-0.24176025,0.02734375,-1.7802734,0.17773438,11.525998,-10.40304,0.06297913,17.896162,-1.0629272,-0.058654785,-0.095214844,-0.4580078,0.81640625,-0.052734375,3.9931178,-10.200186,-56.61575,11.845222,0.4274292,0.39404297,0.868103,0.13671875,0.09765625,0.49121094,14.809942,-14.252393,-128.11896,4.302476,0.0,0.0,0.0,0.0,0.0,0.0,0.0,2.255065,-127.34523,15.574073,0.0,0.0,0.0,0.0,0.0,0.0,0.0,0.502487,-0.0030420162,-0.86441946,-0.53723145,-0.055358887,-0.32196045,0.087890625,-0.76660156,0.47851562,27.490763,10.40304,-0.06297913,-17.896162,-0.88165283,-0.051696777,-0.69470215,-0.7314453,-5.9365234,-0.42089844,42.01209,40.443893,-46.98833,-5.8611517,-1.7504883,0.53533936,1.0966187,-0.30566406,-5.0498047,3.0214844,14.715228,29.476158,-117.80736,1.2764196,0.0,0.0,0.0,0.0,0.0,0.0,0.0,43.109226,-117.491165,15.908019,0.0,0.0,0.0,0.0,0.0,0.0,0.0,-4.8249288,44.63617,-2.9618125,
2.089843718858902,107,-0.068725586,-0.94085693,0.42803955,0.6767578,-0.20117188,-0.5126953,0.0,0.0,0.0,0.0,0.0,0.0,0.0,0.0,0.0,0.0,0.0,-0.5065507,0.01374593,0.8619627,0.8578491,-0.01940918,-0.5286865,0.44628906,-1.7832031,0.06738281,13.006193,-10.487171,0.28458336,17.8453,-1.012207,-0.14904785,-0.029418945,-0.47753906,1.0214844,-0.16992188,2.6817555,-12.004278,-56.316875,11.261068,0.4416504,0.44543457,0.79852295,0.2578125,-0.055664062,0.58203125,14.5007515,-16.626858,-127.76651,3.6150374,0.0,0.0,0.0,0.0,0.0,0.0,0.0,-0.2595806,-127.07076,15.092611,0.0,0.0,0.0,0.0,0.0,0.0,0.0,0.5065507,-0.01374593,-0.8619627,-0.5678711,-0.034851074,-0.28460693,0.17089844,-0.49804688,0.5761719,28.462778,10.487171,-0.28458336,-17.8453,-0.89385986,-0.06604004,-0.71069336,-0.55859375,-5.8007812,-0.63183594,36.127403,40.824715,-46.83527,-5.1103163,-2.0,0.5383911,0.9918823,0.03125,-5.0683594,2.977539,13.411387,38.04562,-118.40759,2.3896108,0.0,0.0,0.0,0.0,0.0,0.0,0.0,51.767456,-116.41206,16.806005,0.0,0.0,0.0,0.0,0.0,0.0,0.0,-4.4177723,44.65486,-3.3083203,
2.1093749685678636,108,-0.08618164,-0.8161011,0.3682251,0.6777344,-0.2939453,-0.625,0.0,0.0,0.0,0.0,0.0,0.0,0.0,0.0,0.0,0.0,0.0,-0.515527,0.027463289,0.8561167,0.9762573,0.072021484,-0.4008789,0.5917969,-1.3837891,0.025390625,14.30925,-10.673008,0.56857526,17.724272,-1.0214844,-0.22424316,0.03564453,-0.5371094,1.2431641,-0.17382812,1.7252169,-13.5987625,-55.926235,10.6805,0.4416504,0.44543457,0.79852295,0.2578125,-0.055664062,0.58203125,13.634793,-18.800377,-127.30235,2.7534986,0.0,0.0,0.0,0.0,0.0,0.0,0.0,-2.4330997,-126.606606,14.231071,0.0,0.0,0.0,0.0,0.0,0.0,0.0,0.515527,-0.027463289,-0.8561167,-0.6409302,-0.05407715,0.052490234,0.390625,-0.76953125,0.53515625,29.52894,10.673008,-0.56857526,-17.724272,-1.0075684,-0.031921387,-0.6758423,0.23730469,-5.5234375,-0.7861328,30.56462,41.32777,-46.73341,-4.3475323,-2.0,0.3258667,0.5154419,-0.21484375,-4.861328,2.7216797,12.709468,46.6095,-118.170166,3.130375,0.0,0.0,0.0,0.0,0.0,0.0,0.0,60.253105,-114.52191,17.29444,0.0,0.0,0.0,0.0,0.0,0.0,0.0,-3.8912516,44.659874,-3.775831,
2.1289062182768252,109,-0.07574463,-0.78479004,0.35845947,0.31933594,-0.30859375,-0.6796875,0.0,0.0,0.0,0.0,0.0,0.0,0.0,0.0,0.0,0.0,0.0,-0.5147573,0.044106387,0.85640746,1.104065,0.17279053,-0.25909424,0.5966797,-1.1533203,-0.125,15.821573,-10.657072,0.913139,17.73029,-1.0072632,-0.17608643,0.080566406,-0.5566406,1.3730469,-0.19433594,1.1518205,-14.756088,-55.42943,10.084816,0.4420166,0.45910645,0.8911133,0.50390625,-0.4404297,0.8535156,13.23111,-20.594618,-126.7186,1.8198051,0.0,0.0,0.0,0.0,0.0,0.0,0.0,-4.5690823,-126.45621,13.785839,0.0,0.0,0.0,0.0,0.0,0.0,0.0,0.5147573,-0.044106387,-0.85640746,-0.8644409,-0.09716797,0.43225098,0.7548828,-0.73339844,0.32910156,30.719189,10.657072,-0.913139,-17.73029,-1.0516968,-0.14465332,-0.4505005,-0.0859375,-4.7070312,-0.6171875,26.07886,41.899117,-46.498142,-3.8107252,-2.0,-0.11999512,-0.17266846,-0.2607422,-4.4648438,1.7910156,11.93568,54.395805,-117.04169,3.5666556,0.0,0.0,0.0,0.0,0.0,0.0,0.0,67.87393,-112.05072,17.476507,0.0,0.0,0.0,0.0,0.0,0.0,0.0,-3.4647036,44.659893,-4.382573,
