TOTAL_TIME,0m9s
TOTAL_FRAMES,462
SELECTED_FRAMES,462
NO_OF_JOINTS,12
FREQUENCY,51.2
DESCRIPTION,Capture 20
TIME_STAMP,Jul 8, 2010

Time,Frame,Pelvis_accelX_Pelvis,Pelvis_accelY_Pelvis,Pelvis_accelZ_Pelvis,Pelvis_gyroX_Pelvis,Pelvis_gyroY_Pelvis,Pelvis_gyroZ_Pelvis,Pelvis_Joint angle_Pelvis,Pelvis_Relative pos X_Pelvis,Pelvis_Relative pos Y_Pelvis,Pelvis_Relative pos Z_Pelvis,RightPelvis_accelX_RightPelvis,RightPelvis_accelY_RightPelvis,RightPelvis_accelZ_RightPelvis,RightPelvis_gyroX_RightPelvis,RightPelvis_gyroY_RightPelvis,RightPelvis_gyroZ_RightPelvis,RightPelvis_Joint angle_RightPelvis,RightPelvis_Relative pos X_RightPelvis,RightPelvis_Relative pos Y_RightPelvis,RightPelvis_Relative pos Z_RightPelvis,RightUpLeg_accelX_RightUpLeg,RightUpLeg_accelY_RightUpLeg,RightUpLeg_accelZ_RightUpLeg,RightUpLeg_gyroX_RightUpLeg,RightUpLeg_gyroY_RightUpLeg,RightUpLeg_gyroZ_RightUpLeg,RightUpLeg_Joint angle_RightUpLeg,RightUpLeg_Relative pos X_RightUpLeg,RightUpLeg_Relative pos Y_RightUpLeg,RightUpLeg_Relative pos Z_RightUpLeg,RightLeg_accelX_RightLeg,RightLeg_accelY_RightLeg,RightLeg_accelZ_RightLeg,RightLeg_gyroX_RightLeg,RightLeg_gyroY_RightLeg,RightLeg_gyroZ_RightLeg,RightLeg_Joint angle_RightLeg,RightLeg_Relative pos X_RightLeg,RightLeg_Relative pos Y_RightLeg,RightLeg_Relative pos Z_RightLeg,RightFoot_accelX_RightFoot,RightFoot_accelY_RightFoot,RightFoot_accelZ_RightFoot,RightFoot_gyroX_RightFoot,RightFoot_gyroY_RightFoot,RightFoot_gyroZ_RightFoot,RightFoot_Joint angle_RightFoot,RightFoot_Relative pos X_RightFoot,RightFoot_Relative pos Y_RightFoot,RightFoot_Relative pos Z_RightFoot,RightFootEnd_accelX_RightFootEnd,RightFootEnd_accelY_RightFootEnd,RightFootEnd_accelZ_RightFootEnd,RightFootEnd_gyroX_RightFootEnd,RightFootEnd_gyroY_RightFootEnd,RightFootEnd_gyroZ_RightFootEnd,RightFootEnd_Joint angle_RightFootEnd,RightFootEnd_Relative pos X_RightFootEnd,RightFootEnd_Relative pos Y_RightFootEnd,RightFootEnd_Relative pos Z_RightFootEnd,LeftPelvis_accelX_LeftPelvis,LeftPelvis_accelY_LeftPelvis,LeftPelvis_accelZ_LeftPelvis,LeftPelvis_gyroX_LeftPelvis,LeftPelvis_gyroY_LeftPelvis,LeftPelvis_gyroZ_LeftPelvis,LeftPelvis_Joint angle_LeftPelvis,LeftPelvis_Relative pos X_LeftPelvis,LeftPelvis_Relative pos Y_LeftPelvis,LeftPelvis_Relative pos Z_LeftPelvis,LeftUpLeg_accelX_LeftUpLeg,LeftUpLeg_accelY_LeftUpLeg,LeftUpLeg_accelZ_LeftUpLeg,LeftUpLeg_gyroX_LeftUpLeg,LeftUpLeg_gyroY_LeftUpLeg,LeftUpLeg_gyroZ_LeftUpLeg,LeftUpLeg_Joint angle_LeftUpLeg,LeftUpLeg_Relative pos X_LeftUpLeg,LeftUpLeg_Relative pos Y_LeftUpLeg,LeftUpLeg_Relative pos Z_LeftUpLeg,LeftLeg_accelX_LeftLeg,LeftLeg_accelY_LeftLeg,LeftLeg_accelZ_LeftLeg,LeftLeg_gyroX_LeftLeg,LeftLeg_gyroY_LeftLeg,LeftLeg_gyroZ_LeftLeg,LeftLeg_Joint angle_LeftLeg,LeftLeg_Relative pos X_LeftLeg,LeftLeg_Relative pos Y_LeftLeg,LeftLeg_Relative pos Z_LeftLeg,LeftFoot_accelX_LeftFoot,LeftFoot_accelY_LeftFoot,LeftFoot_accelZ_LeftFoot,LeftFoot_gyroX_LeftFoot,LeftFoot_gyroY_LeftFoot,LeftFoot_gyroZ_LeftFoot,LeftFoot_Joint angle_LeftFoot,LeftFoot_Relative pos X_LeftFoot,LeftFoot_Relative pos Y_LeftFoot,LeftFoot_Relative pos Z_LeftFoot,LeftFootEnd_accelX_LeftFootEnd,LeftFootEnd_accelY_LeftFootEnd,LeftFootEnd_accelZ_LeftFootEnd,LeftFootEnd_gyroX_LeftFootEnd,LeftFootEnd_gyroY_LeftFootEnd,LeftFootEnd_gyroZ_LeftFootEnd,LeftFootEnd_Joint angle_LeftFootEnd,LeftFootEnd_Relative pos X_LeftFootEnd,LeftFootEnd_Relative pos Y_LeftFootEnd,LeftFootEnd_Relative pos Z_LeftFootEnd,Spine_accelX_Spine,Spine_accelY_Spine,Spine_accelZ_Spine,Spine_gyroX_Spine,Spine_gyroY_Spine,Spine_gyroZ_Spine,Spine_Joint angle_Spine,Spine_Relative pos X_Spine,Spine_Relative pos Y_Spine,Spine_Relative pos Z_Spine,
0.0,0,0.0,0.0,0.0,0.0,0.0,0.0,0.0,0.0,0.0,0.0,0.0,0.0,0.0,0.0,0.0,0.0,0.0,0.0,0.0,0.0,0.0,0.0,0.0,0.0,0.0,0.0,NaN,0.0,0.0,0.0,0.0,0.0,0.0,0.0,0.0,0.0,NaN,0.0,0.0,0.0,0.0,0.0,0.0,0.0,0.0,0.0,NaN,0.0,0.0,0.0,0.0,0.0,0.0,0.0,0.0,0.0,0.0,0.0,0.0,0.0,0.0,0.0,0.0,0.0,0.0,0.0,0.0,0.0,0.0,0.0,0.0,0.0,0.0,0.0,0.0,0.0,NaN,0.0,0.0,0.0,0.0,0.0,0.0,0.0,0.0,0.0,NaN,0.0,0.0,0.0,0.0,0.0,0.0,0.0,0.0,0.0,NaN,0.0,0.0,0.0,0.0,0.0,0.0,0.0,0.0,0.0,0.0,0.0,0.0,0.0,0.0,0.0,0.0,0.0,0.0,0.0,0.0,0.0,0.0,0.0,
0.0195312497089617,1,0.0,0.0,0.0,0.0,0.0,0.0,0.0,0.0,0.0,0.0,0.0,0.0,0.0,0.0,0.0,0.0,0.0,0.0,0.0,0.0,0.0,0.0,0.0,0.0,0.0,0.0,NaN,0.0,0.0,0.0,0.0,0.0,0.0,0.0,0.0,0.0,NaN,0.0,0.0,0.0,0.0,0.0,0.0,0.0,0.0,0.0,NaN,0.0,0.0,0.0,0.0,0.0,0.0,0.0,0.0,0.0,0.0,0.0,0.0,0.0,0.0,0.0,0.0,0.0,0.0,0.0,0.0,0.0,0.0,0.0,0.0,0.0,0.0,0.0,0.0,0.0,NaN,0.0,0.0,0.0,0.0,0.0,0.0,0.0,0.0,0.0,NaN,0.0,0.0,0.0,0.0,0.0,0.0,0.0,0.0,0.0,NaN,0.0,0.0,0.0,0.0,0.0,0.0,0.0,0.0,0.0,0.0,0.0,0.0,0.0,0.0,0.0,0.0,0.0,0.0,0.0,0.0,0.0,0.0,0.0,
0.0390624994179234,2,0.0,0.0,0.0,0.0,0.0,0.0,0.0,0.0,0.0,0.0,0.0,0.0,0.0,0.0,0.0,0.0,0.0,0.0,0.0,0.0,0.0,0.0,0.0,0.0,0.0,0.0,NaN,0.0,0.0,0.0,0.0,0.0,0.0,0.0,0.0,0.0,NaN,0.0,0.0,0.0,0.0,0.0,0.0,0.0,0.0,0.0,NaN,0.0,0.0,0.0,0.0,0.0,0.0,0.0,0.0,0.0,0.0,0.0,0.0,0.0,0.0,0.0,0.0,0.0,0.0,0.0,0.0,0.0,0.0,0.0,0.0,0.0,0.0,0.0,0.0,0.0,NaN,0.0,0.0,0.0,0.0,0.0,0.0,0.0,0.0,0.0,NaN,0.0,0.0,0.0,0.0,0.0,0.0,0.0,0.0,0.0,NaN,0.0,0.0,0.0,0.0,0.0,0.0,0.0,0.0,0.0,0.0,0.0,0.0,0.0,0.0,0.0,0.0,0.0,0.0,0.0,0.0,0.0,0.0,0.0,
0.0585937491268851,3,-0.08013916,-0.8312988,0.5873413,-0.060546875,0.046875,0.0107421875,0.0,0.0,0.0,0.0,0.0,0.0,0.0,0.0,0.0,0.0,0.0,-0.065142006,0.027166687,0.99757516,0.873291,0.11407471,-0.4338379,-0.072265625,-0.00390625,0.064453125,6.2761045,-1.3486418,0.5624346,20.652899,-0.99401855,-0.076660156,-0.15783691,0.12695312,0.033203125,0.041992188,3.995324,1.6187247,-56.337975,19.01828,0.42767334,0.4805298,0.7347412,-0.11621094,0.060546875,0.047851562,14.243358,5.5266676,-127.95851,12.591916,0.0,0.0,0.0,0.0,0.0,0.0,0.0,24.322048,-127.637695,19.430729,0.0,0.0,0.0,0.0,0.0,0.0,0.0,0.065142006,-0.027166687,-0.99757516,-0.897522,0.07672119,-0.39141846,-0.10644531,0.61816406,1.0800781,2.4845922,1.3486418,-0.5624346,-20.652899,-1.0048218,-0.023254395,-0.06524658,0.001953125,0.578125,0.32226562,1.5637296,-0.005546093,-57.440483,-17.071901,-0.5181885,0.42492676,0.77459717,-0.07519531,0.0625,-0.0703125,7.019901,0.7095705,-129.37485,-13.655286,0.0,0.0,0.0,0.0,0.0,0.0,0.0,17.934341,-128.83493,-3.5083666,0.0,0.0,0.0,0.0,0.0,0.0,0.0,1.9679734,44.9467,-1.0955117,
0.0781249988358468,4,-0.05114746,-0.84265137,0.58673096,-0.00390625,0.064453125,0.0107421875,0.0,0.0,0.0,0.0,0.0,0.0,0.0,0.0,0.0,0.0,0.0,-0.0666247,0.027669247,0.9974456,0.87976074,0.13293457,-0.4407959,-0.09082031,0.015625,0.08300781,6.2880893,-1.3793373,0.5728392,20.650215,-0.9729004,-0.05407715,-0.14556885,0.06933594,0.049804688,0.060546875,3.9245584,1.6158416,-56.327007,19.010918,0.45587158,0.49389648,0.73187256,-0.11621094,0.080078125,0.0859375,14.278058,5.519047,-127.95952,12.671501,0.0,0.0,0.0,0.0,0.0,0.0,0.0,24.322046,-127.644264,19.485548,0.0,0.0,0.0,0.0,0.0,0.0,0.0,0.0666247,-0.027669247,-0.9974456,-0.9050293,0.06756592,-0.37774658,-0.068359375,0.5410156,0.890625,3.3205402,1.3793373,-0.5728392,-20.650215,-1.0058594,-0.046447754,-0.0793457,0.061523438,0.044921875,0.037109375,2.394001,-0.3548994,-57.36615,-16.01588,-0.51013184,0.41900635,0.7763672,-0.07519531,0.08105469,-0.08886719,6.9430566,0.028752685,-129.2905,-12.493793,0.0,0.0,0.0,0.0,0.0,0.0,0.0,17.272272,-128.78627,-2.3725586,0.0,0.0,0.0,0.0,0.0,0.0,0.0,1.9427265,44.946465,-1.1170549,
0.09765624854480849,5,-0.025878906,-0.82336426,0.5667114,0.015625,0.08300781,0.0107421875,0.0,0.0,0.0,0.0,0.0,0.0,0.0,0.0,0.0,0.0,0.0,-0.06677875,0.027129231,0.9977305,0.8648071,0.13500977,-0.42974854,-0.053710938,-0.00390625,0.045898438,6.283598,-1.382527,0.56165916,20.656115,-0.9819336,-0.060913086,-0.15167236,0.030273438,0.030273438,0.041015625,3.9031944,1.644312,-56.33687,19.007107,0.43579102,0.49401855,0.74176025,-0.057617188,0.041992188,0.047851562,14.211343,5.5443144,-127.968346,12.688053,0.0,0.0,0.0,0.0,0.0,0.0,0.0,24.357307,-127.66652,19.475151,0.0,0.0,0.0,0.0,0.0,0.0,0.0,0.06677875,-0.027129231,-0.9977305,-0.93200684,0.048950195,-0.37591553,0.005859375,0.3310547,0.5107422,3.949825,1.382527,-0.56165916,-20.656115,-0.99676514,-0.04663086,-0.06945801,0.17480469,0.0078125,0.037109375,3.133691,-0.60697377,-57.285416,-15.373175,-0.5279541,0.4031372,0.75476074,0.01953125,-0.0126953125,-0.07324219,6.981963,-0.22907162,-129.21458,-11.923035,0.0,0.0,0.0,0.0,0.0,0.0,0.0,17.029018,-128.73041,-1.8276529,0.0,0.0,0.0,0.0,0.0,0.0,0.0,1.9231211,44.960484,-1.093802,
0.11718749825377019,6,-0.051086426,-0.83166504,0.56018066,-0.0029296875,0.119140625,-0.0078125,0.0,0.0,0.0,0.0,0.0,0.0,0.0,0.0,0.0,0.0,0.0,-0.06634867,0.026508573,0.99782914,0.87194824,0.14099121,-0.43774414,-0.072265625,0.015625,0.02734375,6.2701664,-1.3736235,0.54880965,20.658157,-0.97106934,-0.09881592,-0.16748047,0.030273438,0.030273438,0.041015625,3.8704472,1.6524144,-56.350655,18.992779,0.43969727,0.4763794,0.73968506,-0.076171875,0.022460938,0.029296875,14.242164,5.503467,-127.98428,12.701681,0.0,0.0,0.0,0.0,0.0,0.0,0.0,24.318634,-127.69115,19.48251,0.0,0.0,0.0,0.0,0.0,0.0,0.0,0.06634867,-0.026508573,-0.99782914,-0.92718506,0.0791626,-0.39154053,0.059570312,0.06347656,0.13085938,4.185258,1.3736235,-0.54880965,-20.658157,-1.0118408,-0.013427734,-0.06512451,0.17480469,0.045898438,0.037109375,3.381883,-0.7189816,-57.247875,-15.16475,-0.5552368,0.4416504,0.75177,0.07519531,0.1171875,0.057617188,7.1769013,-0.33737993,-129.18268,-11.730326,0.0,0.0,0.0,0.0,0.0,0.0,0.0,16.927225,-128.72696,-1.6433735,0.0,0.0,0.0,0.0,0.0,0.0,0.0,1.9196843,44.96367,-1.0668702,
0.1367187479627319,7,-0.0758667,-0.81359863,0.5824585,-0.022460938,0.15625,-0.0078125,0.0,0.0,0.0,0.0,0.0,0.0,0.0,0.0,0.0,0.0,0.0,-0.06478876,0.025880154,0.9978742,0.88201904,0.105163574,-0.44586182,-0.0703125,0.053710938,0.064453125,6.2535405,-1.3413267,0.5357995,20.65909,-0.9879761,-0.06530762,-0.1696167,0.030273438,0.030273438,0.041015625,3.8551376,1.6484838,-56.365685,18.982115,0.4619751,0.49560547,0.7496338,-0.11621094,0.060546875,0.029296875,14.232541,5.5036917,-127.99877,12.687553,0.0,0.0,0.0,0.0,0.0,0.0,0.0,24.328434,-127.70386,19.444633,0.0,0.0,0.0,0.0,0.0,0.0,0.0,0.06478876,-0.025880154,-0.9978742,-0.8595581,0.093566895,-0.36364746,0.11621094,0.024414062,0.09277344,4.227209,1.3413267,-0.5357995,-20.65909,-1.0055542,0.01184082,-0.07684326,0.13671875,-0.01171875,0.037109375,3.3297255,-0.69525385,-57.241817,-15.165083,-0.54400635,0.399292,0.7659302,0.09375,0.13671875,0.057617188,7.3435802,-0.3038875,-129.16824,-11.691846,0.0,0.0,0.0,0.0,0.0,0.0,0.0,16.962263,-128.72607,-1.6070452,0.0,0.0,0.0,0.0,0.0,0.0,0.0,1.9430838,44.959976,-1.0398917,
0.1562499976716936,8,-0.10144043,-0.85046387,0.56970215,0.015625,0.13671875,-0.044921875,0.0,0.0,0.0,0.0,0.0,0.0,0.0,0.0,0.0,0.0,0.0,-0.063457906,0.024636626,0.9980127,0.88983154,0.10131836,-0.4598999,-0.109375,0.015625,0.064453125,6.225355,-1.3137755,0.51005465,20.661957,-0.9779053,-0.05529785,-0.17041016,0.087890625,0.03125,0.060546875,3.833949,1.6319089,-56.39353,18.966854,0.4527588,0.4683838,0.74157715,-0.07714844,0.041992188,0.029296875,14.263331,5.4355025,-128.03366,12.673641,0.0,0.0,0.0,0.0,0.0,0.0,0.0,24.270832,-127.741394,19.401321,0.0,0.0,0.0,0.0,0.0,0.0,0.0,0.063457906,-0.024636626,-0.9980127,-0.87927246,0.12689209,-0.36950684,0.13476562,0.024414062,0.111328125,4.375332,1.3137755,-0.51005465,-20.661957,-0.99658203,-0.009643555,-0.07409668,0.09863281,-0.01171875,0.037109375,3.3267844,-0.63700247,-57.20762,-15.105079,-0.5371094,0.4111328,0.7689209,0.056640625,0.1171875,0.05859375,7.4750657,-0.23071682,-129.14125,-11.598326,0.0,0.0,0.0,0.0,0.0,0.0,0.0,17.032104,-128.72649,-1.5086784,0.0,0.0,0.0,0.0,0.0,0.0,0.0,1.975286,44.960793,-0.9842907,
0.1757812473806553,9,-0.07293701,-0.81951904,0.576416,-0.041015625,0.1015625,-0.0078125,0.0,0.0,0.0,0.0,0.0,0.0,0.0,0.0,0.0,0.0,0.0,-0.062018543,0.022917785,0.99820966,0.89959717,0.0869751,-0.45007324,-0.12890625,0.015625,0.08300781,6.2127447,-1.2839757,0.47446916,20.666035,-0.97888184,-0.046020508,-0.18328857,0.049804688,0.0126953125,0.041015625,3.7689948,1.6582807,-56.42576,18.98067,0.45385742,0.47802734,0.75445557,-0.0390625,0.041992188,0.028320312,14.271231,5.4563622,-128.07632,12.778787,0.0,0.0,0.0,0.0,0.0,0.0,0.0,24.297674,-127.78949,19.488136,0.0,0.0,0.0,0.0,0.0,0.0,0.0,0.062018543,-0.022917785,-0.99820966,-0.8925171,0.13391113,-0.3616333,0.09765625,0.043945312,0.09277344,4.520214,1.2839757,-0.47446916,-20.666035,-1.0178223,0.007080078,-0.07385254,0.13671875,-0.030273438,0.018554688,3.2893217,-0.5776901,-57.17313,-15.07997,-0.5491333,0.42492676,0.7564087,0.056640625,0.1171875,0.0390625,7.56989,-0.15541834,-129.10547,-11.532177,0.0,0.0,0.0,0.0,0.0,0.0,0.0,17.115349,-128.71565,-1.4525337,0.0,0.0,0.0,0.0,0.0,0.0,0.0,2.011461,44.963753,-0.9073461,
0.19531249708961698,10,-0.086242676,-0.8399658,0.5774536,0.015625,0.064453125,-0.044921875,0.0,0.0,0.0,0.0,0.0,0.0,0.0,0.0,0.0,0.0,0.0,-0.06108129,0.022076726,0.99822056,0.87390137,0.06573486,-0.44787598,-0.1484375,-0.0029296875,0.08300781,6.1380763,-1.2645706,0.45705664,20.66626,-0.97094727,-0.059509277,-0.19213867,0.0107421875,0.029296875,0.059570312,3.7833066,1.6308845,-56.447655,19.04866,0.43963623,0.46466064,0.7425537,-0.038085938,0.022460938,-0.0087890625,14.303459,5.395387,-128.09985,12.907946,0.0,0.0,0.0,0.0,0.0,0.0,0.0,24.243212,-127.82215,19.60241,0.0,0.0,0.0,0.0,0.0,0.0,0.0,0.06108129,-0.022076726,-0.99822056,-0.9034424,0.1652832,-0.3300171,0.059570312,0.06347656,0.09277344,4.650253,1.2645706,-0.45705664,-20.66626,-1.0087891,0.00970459,-0.041992188,0.13671875,-0.030273438,0.037109375,3.2974064,-0.52614856,-57.152454,-15.011143,-0.53100586,0.42773438,0.7352295,0.01953125,0.080078125,0.05859375,7.6354027,-0.05965537,-129.07552,-11.408678,0.0,0.0,0.0,0.0,0.0,0.0,0.0,17.215405,-128.70587,-1.3378334,0.0,0.0,0.0,0.0,0.0,0.0,0.0,2.0285609,44.960754,-0.8702276,
0.21484374679857868,11,-0.074035645,-0.8294678,0.5941162,0.09082031,0.045898438,-0.02734375,0.0,0.0,0.0,0.0,0.0,0.0,0.0,0.0,0.0,0.0,0.0,-0.0616118,0.022116568,0.9981373,0.885437,0.09173584,-0.47088623,-0.091796875,-0.022460938,0.046875,6.0915565,-1.2755562,0.45788154,20.664536,-0.993042,-0.081604004,-0.18756104,0.049804688,-0.005859375,0.022460938,3.7777128,1.5729953,-56.45265,19.0787,0.4336548,0.47253418,0.74261475,-0.038085938,0.022460938,0.009765625,14.304136,5.2816763,-128.11032,12.983128,0.0,0.0,0.0,0.0,0.0,0.0,0.0,24.135738,-127.840515,19.658522,0.0,0.0,0.0,0.0,0.0,0.0,0.0,0.0616118,-0.022116568,-0.9981373,-0.8781128,0.14337158,-0.34674072,0.0625,0.12207031,0.055664062,4.6751237,1.2755562,-0.45788154,-20.664536,-1.0169067,0.0107421875,-0.041931152,0.061523438,-0.0126953125,0.037109375,3.2459438,-0.45907736,-57.15099,-14.996183,-0.5474243,0.44958496,0.77349854,9.765625E-4,0.061523438,0.040039062,7.610611,0.08267462,-129.06648,-11.3010025,0.0,0.0,0.0,0.0,0.0,0.0,0.0,17.365692,-128.71057,-1.2428427,0.0,0.0,0.0,0.0,0.0,0.0,0.0,2.0372486,44.95812,-0.870422,
0.23437499650754037,12,-0.06604004,-0.8294678,0.57128906,-0.059570312,0.046875,-0.0078125,0.0,0.0,0.0,0.0,0.0,0.0,0.0,0.0,0.0,0.0,0.0,-0.06197077,0.022172797,0.9981565,0.87493896,0.076171875,-0.47180176,-0.072265625,-0.0029296875,0.045898438,5.9995313,-1.2829866,0.45904574,20.664932,-0.9779053,-0.044799805,-0.15948486,0.0107421875,0.01171875,0.021484375,3.7592669,1.4850221,-56.45644,19.101036,0.4368286,0.49102783,0.7476196,-0.038085938,0.022460938,0.028320312,14.276839,5.1490636,-128.1214,13.0469265,0.0,0.0,0.0,0.0,0.0,0.0,0.0,24.008417,-127.86193,19.705719,0.0,0.0,0.0,0.0,0.0,0.0,0.0,0.06197077,-0.022172797,-0.9981565,-0.8982544,0.11444092,-0.33618164,0.00390625,0.064453125,0.036132812,4.6618643,1.2829866,-0.45904574,-20.664932,-1.0007324,0.004638672,-0.027160645,-0.0146484375,0.005859375,0.037109375,3.1838918,-0.37331283,-57.158657,-15.019365,-0.54418945,0.44354248,0.7337036,0.01953125,0.061523438,0.040039062,7.4954095,0.25378686,-129.06482,-11.272026,0.0,0.0,0.0,0.0,0.0,0.0,0.0,17.547014,-128.71916,-1.2309237,0.0,0.0,0.0,0.0,0.0,0.0,0.0,2.0277686,44.96042,-0.872845,
0.2539062462165021,13,-0.07904053,-0.8242798,0.5626831,-0.022460938,0.046875,0.029296875,0.0,0.0,0.0,0.0,0.0,0.0,0.0,0.0,0.0,0.0,0.0,-0.06300616,0.022388041,0.9981062,0.8788452,0.0657959,-0.45587158,-0.034179688,-0.0029296875,0.0087890625,5.935344,-1.3044221,0.4635019,20.663893,-0.98687744,-0.041625977,-0.16851807,-0.0087890625,-0.0078125,0.059570312,3.7595274,1.4357543,-56.45497,19.149704,0.4508667,0.48492432,0.75250244,-0.038085938,0.041992188,0.046875,14.290279,5.0478106,-128.13391,13.158893,0.0,0.0,0.0,0.0,0.0,0.0,0.0,23.912563,-127.88493,19.805119,0.0,0.0,0.0,0.0,0.0,0.0,0.0,0.06300616,-0.022388041,-0.9981062,-0.92492676,0.09667969,-0.3727417,-0.033203125,0.083984375,0.017578125,4.612611,1.3044221,-0.4635019,-20.663893,-1.0057983,-0.0049438477,-0.038146973,0.0234375,-0.032226562,0.018554688,3.139745,-0.2907896,-57.173035,-15.064161,-0.5463867,0.4446411,0.77142334,9.765625E-4,0.061523438,0.05859375,7.401227,0.4374987,-129.08812,-11.298475,0.0,0.0,0.0,0.0,0.0,0.0,0.0,17.73492,-128.75218,-1.2636232,0.0,0.0,0.0,0.0,0.0,0.0,0.0,2.0086887,44.961967,-0.8817208,
0.2734374959254638,14,-0.09887695,-0.80615234,0.5631714,-0.022460938,-0.0078125,0.029296875,0.0,0.0,0.0,0.0,0.0,0.0,0.0,0.0,0.0,0.0,0.0,-0.06288028,0.02246511,0.99807596,0.8708496,0.10247803,-0.44677734,-0.0146484375,0.015625,0.02734375,5.9037538,-1.3018177,0.4650975,20.663265,-0.9989624,-0.061706543,-0.16375732,-0.0087890625,-0.026367188,0.021484375,3.7749648,1.412358,-56.454266,19.182177,0.4508667,0.4989624,0.7211304,-0.078125,0.060546875,0.047851562,14.282419,5.0165663,-128.12675,13.210092,0.0,0.0,0.0,0.0,0.0,0.0,0.0,23.883072,-127.88854,19.85235,0.0,0.0,0.0,0.0,0.0,0.0,0.0,0.06288028,-0.02246511,-0.99807596,-0.9025879,0.10266113,-0.34210205,-0.07324219,0.02734375,0.03515625,4.5859494,1.3018177,-0.4650975,-20.663265,-0.9926758,-0.0138549805,-0.032348633,-0.033203125,0.005859375,0.037109375,3.0778437,-0.19016254,-57.18003,-15.11046,-0.55511475,0.43371582,0.7407837,-0.018554688,0.061523438,0.040039062,7.271409,0.62843263,-129.08679,-11.3350725,0.0,0.0,0.0,0.0,0.0,0.0,0.0,17.9333,-128.76355,-1.3140898,0.0,0.0,0.0,0.0,0.0,0.0,0.0,2.0126362,44.96009,-0.8851814,
0.2929687456344255,15,-0.080322266,-0.84399414,0.569397,-0.00390625,0.0107421875,0.06640625,0.0,0.0,0.0,0.0,0.0,0.0,0.0,0.0,0.0,0.0,0.0,-0.063200295,0.022831928,0.99796957,0.8880005,0.10076904,-0.43395996,0.022460938,0.015625,-0.028320312,5.912181,-1.3084404,0.4726916,20.661062,-0.99798584,-0.064941406,-0.15386963,-0.046875,-0.045898438,0.021484375,3.7991114,1.4202065,-56.448193,19.204754,0.43676758,0.49316406,0.7289429,-0.05859375,0.060546875,0.06640625,14.237832,5.035207,-128.12598,13.233734,0.0,0.0,0.0,0.0,0.0,0.0,0.0,23.905891,-127.892365,19.865904,0.0,0.0,0.0,0.0,0.0,0.0,0.0,0.063200295,-0.022831928,-0.99796957,-0.9147339,0.10223389,-0.35888672,-0.053710938,0.045898438,0.016601562,4.5670743,1.3084404,-0.4726916,-20.661062,-1.0067749,0.0028686523,-0.044067383,-0.07128906,0.0048828125,0.017578125,3.0346718,-0.11930752,-57.19201,-15.122002,-0.576355,0.442688,0.75720215,9.765625E-4,0.061523438,0.0029296875,7.155,0.78793114,-129.10184,-11.296946,0.0,0.0,0.0,0.0,0.0,0.0,0.0,18.101973,-128.79033,-1.2888508,0.0,0.0,0.0,0.0,0.0,0.0,0.0,2.0102081,44.956383,-0.9012249,
0.3124999953433872,16,-0.08886719,-0.81134033,0.5767822,-0.022460938,-0.0078125,0.029296875,0.0,0.0,0.0,0.0,0.0,0.0,0.0,0.0,0.0,0.0,0.0,-0.06305936,0.022712864,0.99801594,0.8948364,0.10015869,-0.45996094,0.0234375,0.034179688,-0.028320312,5.867786,-1.3055243,0.47022662,20.662025,-0.97888184,-0.043884277,-0.15655518,-0.06640625,-0.0087890625,9.765625E-4,3.7760017,1.3960795,-56.45178,19.214201,0.45281982,0.48406982,0.73773193,-0.0390625,0.060546875,0.08496094,14.218337,5.0151668,-128.13135,13.277688,0.0,0.0,0.0,0.0,0.0,0.0,0.0,23.88879,-127.9026,19.901976,0.0,0.0,0.0,0.0,0.0,0.0,0.0,0.06305936,-0.022712864,-0.99801594,-0.9102783,0.10284424,-0.39233398,-0.07421875,0.0078125,0.0546875,4.5430365,1.3055243,-0.47022662,-20.662025,-0.9946289,-0.005065918,-0.036254883,-0.051757812,0.0048828125,-9.765625E-4,2.9755223,-0.06394625,-57.191933,-15.164419,-0.54815674,0.43963623,0.7387085,9.765625E-4,0.024414062,0.040039062,7.033747,0.9311886,-129.09659,-11.298882,0.0,0.0,0.0,0.0,0.0,0.0,0.0,18.25413,-128.79431,-1.3064022,0.0,0.0,0.0,0.0,0.0,0.0,0.0,1.9982367,44.95856,-0.89690953,
0.3320312450523489,17,-0.0602417,-0.8444214,0.58288574,-0.022460938,0.0107421875,0.047851562,0.0,0.0,0.0,0.0,0.0,0.0,0.0,0.0,0.0,0.0,0.0,-0.063577175,0.022820234,0.99799055,0.90283203,0.12719727,-0.43304443,0.04296875,0.053710938,-0.009765625,5.886996,-1.3162456,0.47244966,20.661497,-0.97491455,-0.059814453,-0.18328857,-0.06640625,-0.045898438,0.020507812,3.7090847,1.4044402,-56.447994,19.19046,0.4487915,0.4772339,0.74261475,-0.040039062,0.099609375,0.08496094,14.219714,5.017273,-128.12654,13.313684,0.0,0.0,0.0,0.0,0.0,0.0,0.0,23.890755,-127.90849,19.939268,0.0,0.0,0.0,0.0,0.0,0.0,0.0,0.063577175,-0.022820234,-0.99799055,-0.91259766,0.09661865,-0.3776245,-0.07324219,0.0078125,0.016601562,4.5061526,1.3162456,-0.47244966,-20.661497,-0.989563,-0.0032348633,-0.034240723,-0.033203125,-0.013671875,0.037109375,2.934316,-0.011749387,-57.198647,-15.204108,-0.5446167,0.47521973,0.7687378,-0.017578125,0.024414062,0.040039062,6.948846,1.0681094,-129.09578,-11.312583,0.0,0.0,0.0,0.0,0.0,0.0,0.0,18.396626,-128.78465,-1.3321466,0.0,0.0,0.0,0.0,0.0,0.0,0.0,1.9887056,44.95934,-0.9013577,
0.3515624947613106,18,-0.06713867,-0.83740234,0.5761719,-0.022460938,0.0107421875,0.029296875,0.0,0.0,0.0,0.0,0.0,0.0,0.0,0.0,0.0,0.0,0.0,-0.06459448,0.023321956,0.997868,0.8718262,0.09503174,-0.42388916,0.0048828125,0.053710938,-0.009765625,5.9191394,-1.3373063,0.48283684,20.658962,-0.99108887,-0.09246826,-0.15679932,-0.06640625,-0.045898438,0.020507812,3.6995173,1.4187186,-56.435463,19.17285,0.43475342,0.48028564,0.7495117,-0.07714844,0.060546875,0.08496094,14.17068,5.051714,-128.1135,13.292567,0.0,0.0,0.0,0.0,0.0,0.0,0.0,23.926403,-127.90134,19.915665,0.0,0.0,0.0,0.0,0.0,0.0,0.0,0.06459448,-0.023321956,-0.997868,-0.9025879,0.094055176,-0.35986328,-0.07324219,0.0078125,0.03515625,4.454126,1.3373063,-0.48283684,-20.658962,-0.989563,-0.0032348633,-0.034240723,-0.033203125,-0.013671875,0.037109375,2.8820825,0.05816424,-57.21466,-15.235357,-0.54711914,0.42785645,0.7524414,-0.037109375,0.04296875,0.041015625,6.8934693,1.138023,-129.11179,-11.343832,0.0,0.0,0.0,0.0,0.0,0.0,0.0,18.476479,-128.7934,-1.3796301,0.0,0.0,0.0,0.0,0.0,0.0,0.0,1.9720302,44.957584,-0.9230846,
0.37109374447027227,19,-0.047729492,-0.81121826,0.5830078,-0.022460938,0.064453125,-0.0078125,0.0,0.0,0.0,0.0,0.0,0.0,0.0,0.0,0.0,0.0,0.0,-0.06545779,0.024299506,0.99775267,0.89105225,0.14904785,-0.46679688,-0.0146484375,0.015625,0.0087890625,5.980944,-1.3551812,0.5030751,20.656574,-0.967041,-0.087646484,-0.14361572,-0.0087890625,-0.0078125,0.021484375,3.6628687,1.4327865,-56.410385,19.102573,0.46594238,0.4868164,0.74072266,-0.07910156,0.099609375,0.08496094,14.153246,5.0746746,-128.09183,13.18717,0.0,0.0,0.0,0.0,0.0,0.0,0.0,23.952745,-127.88994,19.798922,0.0,0.0,0.0,0.0,0.0,0.0,0.0,0.06545779,-0.024299506,-0.99775267,-0.91052246,0.09185791,-0.39141846,-0.07421875,-0.01171875,0.03515625,4.3843203,1.3551812,-0.5030751,-20.656574,-1.0098877,-0.00970459,-0.04815674,-0.08984375,0.0048828125,-9.765625E-4,2.8649838,0.08057487,-57.236607,-15.243183,-0.5493164,0.42303467,0.7871704,-0.017578125,0.024414062,0.0029296875,6.755838,1.2039963,-129.1395,-11.3173485,0.0,0.0,0.0,0.0,0.0,0.0,0.0,18.5516,-128.82141,-1.3720322,0.0,0.0,0.0,0.0,0.0,0.0,0.0,1.9508402,44.955982,-0.9668832,
0.39062499417923396,20,-0.04083252,-0.821228,0.5956421,-0.059570312,0.028320312,-0.026367188,0.0,0.0,0.0,0.0,0.0,0.0,0.0,0.0,0.0,0.0,0.0,-0.06550032,0.025483012,0.9976048,0.9136963,0.15881348,-0.44006348,-0.052734375,0.03515625,0.02734375,6.086631,-1.3560591,0.52757734,20.653513,-0.9890747,-0.09667969,-0.14691162,-0.0078125,-0.043945312,0.0029296875,3.6013594,1.4730265,-56.385788,19.01058,0.44177246,0.48913574,0.7328491,-0.15625,0.11816406,0.123046875,14.183745,5.1317344,-128.06223,13.0668335,0.0,0.0,0.0,0.0,0.0,0.0,0.0,24.008707,-127.85675,19.681293,0.0,0.0,0.0,0.0,0.0,0.0,0.0,0.06550032,-0.025483012,-0.9976048,-0.9030762,0.07019043,-0.36193848,-0.13085938,-0.0107421875,0.016601562,4.2767253,1.3560591,-0.52757734,-20.653513,-1.0160522,-0.040649414,-0.061340332,-0.14648438,0.0234375,0.017578125,2.7850208,0.123569965,-57.262608,-15.294359,-0.5232544,0.43670654,0.76690674,-0.036132812,0.024414062,0.040039062,6.5616326,1.2496104,-129.16267,-11.347588,0.0,0.0,0.0,0.0,0.0,0.0,0.0,18.606426,-128.84093,-1.4178333,0.0,0.0,0.0,0.0,0.0,0.0,0.0,1.9455651,44.949833,-1.0204663,
0.41015624388819566,21,-0.064697266,-0.802063,0.590271,-0.11621094,0.06542969,-0.0078125,0.0,0.0,0.0,0.0,0.0,0.0,0.0,0.0,0.0,0.0,0.0,-0.06497276,0.025045604,0.99767715,0.8925781,0.122680664,-0.44195557,-0.07128906,0.015625,0.08300781,6.0501595,-1.3451365,0.51852167,20.65501,-0.98602295,-0.09020996,-0.13098145,0.030273438,-0.0068359375,0.022460938,3.5744007,1.5301026,-56.384495,18.952026,0.44171143,0.48345947,0.7180786,-0.15625,0.11816406,0.14160156,14.154991,5.248496,-128.05125,12.966475,0.0,0.0,0.0,0.0,0.0,0.0,0.0,24.121895,-127.84888,19.587807,0.0,0.0,0.0,0.0,0.0,0.0,0.0,0.06497276,-0.025045604,-0.99767715,-0.9393921,0.07757568,-0.40533447,-0.11328125,-0.068359375,0.034179688,4.22095,1.3451365,-0.51852167,-20.65501,-1.0201416,-0.035705566,-0.0602417,-0.07128906,0.0048828125,0.037109375,2.7609491,0.12842917,-57.260464,-15.341443,-0.55822754,0.42791748,0.76361084,-0.018554688,0.061523438,0.040039062,6.430779,1.234303,-129.16559,-11.438109,0.0,0.0,0.0,0.0,0.0,0.0,0.0,18.601189,-128.84357,-1.5245314,0.0,0.0,0.0,0.0,0.0,0.0,0.0,1.8565664,44.955086,-1.0076417,
0.42968749359715736,22,-0.074279785,-0.8441162,0.5762329,-0.022460938,0.119140625,-0.0078125,0.0,0.0,0.0,0.0,0.0,0.0,0.0,0.0,0.0,0.0,0.0,-0.062993854,0.024325304,0.9978428,0.8765869,0.13122559,-0.45178223,-0.12597656,0.111328125,0.08203125,6.1383,-1.3041676,0.5036092,20.65844,-0.9769287,-0.061157227,-0.14068604,0.030273438,0.048828125,0.040039062,3.5237007,1.6786932,-56.395744,18.898914,0.43450928,0.45916748,0.71398926,-0.17773438,0.17578125,0.14257812,14.166425,5.458047,-128.06178,12.917418,0.0,0.0,0.0,0.0,0.0,0.0,0.0,24.327312,-127.8482,19.556114,0.0,0.0,0.0,0.0,0.0,0.0,0.0,0.062993854,-0.024325304,-0.9978428,-0.88671875,0.071777344,-0.35302734,-0.07519531,-0.049804688,0.053710938,4.188766,1.3041676,-0.5036092,-20.65844,-0.9926758,-0.034057617,-0.0713501,0.041992188,-0.0126953125,0.037109375,2.7097833,0.122217655,-57.249638,-15.418127,-0.5391846,0.4317627,0.7572632,-0.018554688,0.061523438,0.040039062,6.418388,1.2147644,-129.14612,-11.56473,0.0,0.0,0.0,0.0,0.0,0.0,0.0,18.587746,-128.83589,-1.6620703,0.0,0.0,0.0,0.0,0.0,0.0,0.0,1.8417892,44.957256,-0.97969085,
0.44921874330611905,23,-0.072509766,-0.8630371,0.6046753,-0.041015625,0.12011719,0.029296875,0.0,0.0,0.0,0.0,0.0,0.0,0.0,0.0,0.0,0.0,0.0,-0.060980797,0.023564417,0.99812114,0.86865234,0.104003906,-0.46868896,-0.12695312,0.09277344,0.06347656,6.207757,-1.2624912,0.48785648,20.664202,-0.99298096,-0.074035645,-0.17858887,0.049804688,0.01171875,0.060546875,3.5584798,1.7927916,-56.405174,18.911911,0.46191406,0.49084473,0.7338257,-0.21582031,0.19433594,0.18066406,14.270164,5.5408363,-128.07309,12.916348,0.0,0.0,0.0,0.0,0.0,0.0,0.0,24.401567,-127.84836,19.57402,0.0,0.0,0.0,0.0,0.0,0.0,0.0,0.060980797,-0.023564417,-0.99812114,-0.8954468,0.07299805,-0.40325928,0.0,-0.05078125,0.091796875,4.1718535,1.2624912,-0.48785648,-20.664202,-1.0015259,0.0059814453,-0.08190918,0.061523438,-0.03125,0.037109375,2.6283798,0.08045149,-57.247276,-15.491268,-0.52941895,0.46038818,0.7642822,9.765625E-4,0.061523438,0.040039062,6.4530296,1.1279507,-129.15999,-11.632903,0.0,0.0,0.0,0.0,0.0,0.0,0.0,18.500591,-128.85535,-1.7289896,0.0,0.0,0.0,0.0,0.0,0.0,0.0,1.868134,44.962936,-0.94738495,
0.46874999301508075,24,-0.07550049,-0.86083984,0.5740967,-0.059570312,0.12011719,0.0107421875,0.0,0.0,0.0,0.0,0.0,0.0,0.0,0.0,0.0,0.0,0.0,-0.06067589,0.022646833,0.9983172,0.8632202,0.07659912,-0.43377686,-0.10839844,0.07324219,0.044921875,6.1554585,-1.2561781,0.46885967,20.668262,-0.9639282,-0.053466797,-0.16033936,0.06933594,-0.061523438,0.0234375,3.5675468,1.7868297,-56.428806,18.955637,0.44976807,0.47125244,0.7504883,-0.23339844,0.13671875,0.16113281,14.363246,5.5351095,-128.0985,12.993431,0.0,0.0,0.0,0.0,0.0,0.0,0.0,24.391464,-127.858185,19.662985,0.0,0.0,0.0,0.0,0.0,0.0,0.0,0.06067589,-0.022646833,-0.9983172,-0.8930054,0.088134766,-0.4130249,0.076171875,-0.032226562,0.053710938,4.171384,1.2561781,-0.46885967,-20.668262,-1.0036011,-0.011413574,-0.09399414,0.061523438,-0.03125,0.037109375,2.5823257,0.05573988,-57.226986,-15.5434885,-0.5449829,0.4159546,0.741333,0.01953125,0.061523438,0.040039062,6.512647,1.0884535,-129.13048,-11.677248,0.0,0.0,0.0,0.0,0.0,0.0,0.0,18.467875,-128.82668,-1.7836447,0.0,0.0,0.0,0.0,0.0,0.0,0.0,1.8705331,44.9707,-0.9064731,
0.48828124272404244,25,-0.087646484,-0.8664551,0.5634155,0.072265625,0.064453125,-0.0078125,0.0,0.0,0.0,0.0,0.0,0.0,0.0,0.0,0.0,0.0,0.0,-0.061018884,0.021778613,0.9982371,0.8710327,0.071777344,-0.44885254,-0.0703125,0.053710938,0.045898438,6.031012,-1.2632799,0.45088485,20.666603,-0.99890137,-0.0435791,-0.20532227,0.08886719,-0.041992188,0.0234375,3.5806944,1.7239726,-56.44909,19.006979,0.4557495,0.46636963,0.74749756,-0.21582031,0.17578125,0.16210938,14.552353,5.441263,-128.11942,13.085338,0.0,0.0,0.0,0.0,0.0,0.0,0.0,24.292063,-127.86768,19.772547,0.0,0.0,0.0,0.0,0.0,0.0,0.0,0.061018884,-0.021778613,-0.9982371,-0.89819336,0.10418701,-0.3696289,0.09472656,-0.033203125,0.091796875,4.303295,1.2632799,-0.45088485,-20.666603,-1.0128784,-0.018310547,-0.06414795,0.099609375,-0.06933594,-9.765625E-4,2.6484108,0.09780276,-57.200645,-15.455175,-0.55126953,0.44067383,0.7536621,0.018554688,0.09863281,0.05859375,6.723187,1.1054109,-129.10184,-11.612444,0.0,0.0,0.0,0.0,0.0,0.0,0.0,18.48306,-128.81462,-1.7155037,0.0,0.0,0.0,0.0,0.0,0.0,0.0,1.8459804,44.968933,-0.8682521,
0.5078124924330042,26,-0.09710693,-0.8237915,0.54418945,0.09082031,0.06347656,-0.0078125,0.0,0.0,0.0,0.0,0.0,0.0,0.0,0.0,0.0,0.0,0.0,-0.062017947,0.021399077,0.9980058,0.8859253,0.107421875,-0.4638672,-0.0703125,0.09277344,0.0078125,5.997897,-1.2839637,0.44302726,20.661812,-0.99591064,-0.0446167,-0.17260742,0.049804688,-0.043945312,0.060546875,3.5418794,1.6774406,-56.46165,19.014189,0.45178223,0.47418213,0.7524414,-0.23144531,0.07910156,0.19824219,14.748989,5.338022,-128.14005,13.161338,0.0,0.0,0.0,0.0,0.0,0.0,0.0,24.179743,-127.87614,19.873722,0.0,0.0,0.0,0.0,0.0,0.0,0.0,0.062017947,-0.021399077,-0.9980058,-0.9053345,0.10430908,-0.36968994,0.115234375,0.005859375,0.07324219,4.353072,1.2839637,-0.44302726,-20.661812,-0.99560547,-0.016540527,-0.06921387,0.15527344,-0.068359375,0.037109375,2.6854026,0.13847494,-57.196995,-15.430595,-0.55596924,0.41992188,0.7337036,0.018554688,0.09863281,0.05859375,6.9417005,1.2008252,-129.10986,-11.604261,0.0,0.0,0.0,0.0,0.0,0.0,0.0,18.575085,-128.83574,-1.7022619,0.0,0.0,0.0,0.0,0.0,0.0,0.0,1.8517773,44.961067,-0.848975,
0.5273437421419659,27,-0.078063965,-0.8240967,0.53204346,0.109375,0.06347656,-0.0078125,0.0,0.0,0.0,0.0,0.0,0.0,0.0,0.0,0.0,0.0,0.0,-0.06299254,0.021551307,0.9979048,0.9042969,0.103149414,-0.4241333,-0.051757812,0.053710938,0.0087890625,6.032735,-1.3041406,0.44617888,20.659721,-0.98986816,-0.04046631,-0.14379883,-0.0078125,-0.08203125,0.022460938,3.514799,1.6602046,-56.45984,19.06803,0.44769287,0.4725952,0.72094727,-0.1953125,0.15625,0.1796875,14.803072,5.3737288,-128.15,13.309624,0.0,0.0,0.0,0.0,0.0,0.0,0.0,24.209023,-127.87683,20.038076,0.0,0.0,0.0,0.0,0.0,0.0,0.0,0.06299254,-0.021551307,-0.9979048,-0.92456055,0.12701416,-0.34698486,0.09667969,0.005859375,0.091796875,4.391284,1.3041406,-0.44617888,-20.659721,-1.013977,-0.008728027,-0.040161133,0.21289062,-0.06738281,-9.765625E-4,2.659474,0.25541902,-57.202873,-15.435162,-0.5374756,0.4751587,0.751709,0.056640625,0.09863281,0.07714844,7.198519,1.4118028,-129.10214,-11.597355,0.0,0.0,0.0,0.0,0.0,0.0,0.0,18.775843,-128.82556,-1.6778526,0.0,0.0,0.0,0.0,0.0,0.0,0.0,1.9013443,44.957314,-0.8509012,
0.5468749918509276,28,-0.06970215,-0.7998047,0.5578003,0.034179688,0.045898438,0.0107421875,0.0,0.0,0.0,0.0,0.0,0.0,0.0,0.0,0.0,0.0,0.0,-0.06393832,0.022014923,0.9978013,0.8918457,0.12188721,-0.4050293,-0.013671875,0.053710938,0.02734375,6.059063,-1.3237202,0.45577714,20.65758,-0.980896,-0.04675293,-0.16149902,-0.0087890625,-0.0078125,0.059570312,3.502299,1.6661174,-56.44666,19.07357,0.45458984,0.45080566,0.7385254,-0.15722656,0.17578125,0.19824219,14.880134,5.4208193,-128.12985,13.338947,0.0,0.0,0.0,0.0,0.0,0.0,0.0,24.249157,-127.852585,20.088318,0.0,0.0,0.0,0.0,0.0,0.0,0.0,0.06393832,-0.022014923,-0.9978013,-0.93395996,0.12194824,-0.3381958,0.001953125,0.0068359375,0.0546875,4.436634,1.3237202,-0.45577714,-20.65758,-1.0158691,0.016540527,-0.031921387,0.11816406,-0.06933594,0.018554688,2.6474497,0.41807973,-57.20795,-15.408662,-0.5180664,0.43762207,0.73309326,0.056640625,0.09863281,0.07714844,7.391704,1.7182525,-129.10529,-11.539961,0.0,0.0,0.0,0.0,0.0,0.0,0.0,19.075037,-128.83083,-1.6059856,0.0,0.0,0.0,0.0,0.0,0.0,0.0,1.897456,44.955612,-0.87028784,
0.5664062415598893,29,-0.07373047,-0.8006592,0.55096436,-0.00390625,0.046875,0.0107421875,0.0,0.0,0.0,0.0,0.0,0.0,0.0,0.0,0.0,0.0,0.0,-0.06545603,0.022161748,0.9977484,0.88848877,0.14141846,-0.38604736,-0.0546875,-0.022460938,0.009765625,6.0928116,-1.3551432,0.45881695,20.656487,-0.973938,-0.070373535,-0.16052246,0.01171875,-0.10058594,0.041992188,3.5234785,1.7169255,-56.4438,19.068422,0.46484375,0.48614502,0.71313477,-0.15820312,0.17578125,0.16113281,15.014247,5.6114078,-128.12497,13.294603,0.0,0.0,0.0,0.0,0.0,0.0,0.0,24.428215,-127.83568,20.07347,0.0,0.0,0.0,0.0,0.0,0.0,0.0,0.06545603,-0.022161748,-0.9977484,-0.91326904,0.091308594,-0.31860352,-0.016601562,0.0068359375,0.016601562,4.4356184,1.3551432,-0.45881695,-20.656487,-1.0097656,0.022216797,-0.025939941,0.0048828125,-0.08984375,0.018554688,2.5777736,0.58161473,-57.218163,-15.430573,-0.54833984,0.45251465,0.74975586,0.09375,0.09863281,0.076171875,7.430887,2.0293112,-129.10934,-11.501726,0.0,0.0,0.0,0.0,0.0,0.0,0.0,19.381298,-128.844,-1.5614948,0.0,0.0,0.0,0.0,0.0,0.0,0.0,1.8576046,44.959347,-0.8767606,
0.585937491268851,30,-0.0637207,-0.803833,0.55371094,-0.060546875,0.10253906,0.047851562,0.0,0.0,0.0,0.0,0.0,0.0,0.0,0.0,0.0,0.0,0.0,-0.06573084,0.021718662,0.9979427,0.89489746,0.15734863,-0.3970337,-0.09277344,-0.022460938,0.028320312,6.1298304,-1.360832,0.44964367,20.660505,-0.9769287,-0.05810547,-0.14367676,0.01171875,-0.10058594,0.060546875,3.5114553,1.7905881,-56.443348,19.023266,0.4477539,0.48535156,0.7180786,-0.19628906,0.17578125,0.1796875,15.086974,5.8764753,-128.1059,13.18704,0.0,0.0,0.0,0.0,0.0,0.0,0.0,24.684914,-127.80846,19.991566,0.0,0.0,0.0,0.0,0.0,0.0,0.0,0.06573084,-0.021718662,-0.9979427,-0.92858887,0.095458984,-0.3137207,-0.07421875,-0.01171875,0.03515625,4.4727764,1.360832,-0.44964367,-20.660505,-1.0008545,-0.009033203,-0.011352539,-0.051757812,-0.051757812,0.018554688,2.5266194,0.73618364,-57.212444,-15.455883,-0.54400635,0.42773438,0.72161865,0.01953125,0.09863281,0.07714844,7.4348736,2.323255,-129.10281,-11.503966,0.0,0.0,0.0,0.0,0.0,0.0,0.0,19.6719,-128.85051,-1.5585737,0.0,0.0,0.0,0.0,0.0,0.0,0.0,1.8170367,44.970444,-0.85903007,
0.6054687409778127,31,-0.06829834,-0.84417725,0.5593262,-0.060546875,0.06542969,0.0107421875,0.0,0.0,0.0,0.0,0.0,0.0,0.0,0.0,0.0,0.0,0.0,-0.065625906,0.021772485,0.9979662,0.916626,0.11706543,-0.44018555,-0.07324219,-0.022460938,0.046875,6.179585,-1.3586595,0.45075792,20.660994,-0.9869385,-0.06585693,-0.12005615,0.08886719,-0.060546875,0.0234375,3.5291975,1.8486726,-56.440445,19.026314,0.45690918,0.494812,0.7368164,-0.2548828,0.21386719,0.21777344,15.09967,6.140607,-128.08601,13.151314,0.0,0.0,0.0,0.0,0.0,0.0,0.0,24.941658,-127.77061,19.97499,0.0,0.0,0.0,0.0,0.0,0.0,0.0,0.065625906,-0.021772485,-0.9979662,-0.9361572,0.07366943,-0.31781006,-0.072265625,0.02734375,-0.020507812,4.4864616,1.3586595,-0.45075792,-20.660994,-0.9979248,-0.024658203,-0.007507324,-0.051757812,-0.033203125,0.017578125,2.48955,0.8831011,-57.21619,-15.50151,-0.5593872,0.45739746,0.7470703,0.056640625,0.1171875,0.07714844,7.3492427,2.5987144,-129.10248,-11.580315,0.0,0.0,0.0,0.0,0.0,0.0,0.0,19.952414,-128.86029,-1.6389179,0.0,0.0,0.0,0.0,0.0,0.0,0.0,1.8163087,44.971222,-0.861691,
0.6249999906867744,32,-0.08026123,-0.84210205,0.5822754,-0.041015625,0.08300781,0.0107421875,0.0,0.0,0.0,0.0,0.0,0.0,0.0,0.0,0.0,0.0,0.0,-0.06453058,0.021146936,0.99800414,0.9241333,0.08746338,-0.41033936,-0.09082031,0.015625,0.045898438,6.2425265,-1.3359835,0.43780714,20.66178,-1.0007935,-0.033325195,-0.061645508,0.030273438,-0.043945312,0.022460938,3.5261447,1.956001,-56.447403,19.063559,0.46295166,0.4907837,0.7397461,-0.21679688,0.21386719,0.21777344,15.045182,6.5272703,-128.0744,13.2199745,0.0,0.0,0.0,0.0,0.0,0.0,0.0,25.315083,-127.74277,20.074963,0.0,0.0,0.0,0.0,0.0,0.0,0.0,0.06453058,-0.021146936,-0.99800414,-0.91882324,0.06378174,-0.3334961,-0.0546875,0.0078125,0.03515625,4.500977,1.3359835,-0.43780714,-20.66178,-0.98968506,-0.006286621,-0.0064086914,0.041992188,-0.03125,0.018554688,2.4197793,0.97940826,-57.21242,-15.584909,-0.53912354,0.44451904,0.72265625,0.038085938,0.061523438,0.07714844,7.28303,2.8380272,-129.09715,-11.672764,0.0,0.0,0.0,0.0,0.0,0.0,0.0,20.19117,-128.85434,-1.732357,0.0,0.0,0.0,0.0,0.0,0.0,0.0,1.8311269,44.96903,-0.8344588,
0.6445312403957361,33,-0.10192871,-0.80700684,0.5463867,-0.059570312,0.06542969,-0.026367188,0.0,0.0,0.0,0.0,0.0,0.0,0.0,0.0,0.0,0.0,0.0,-0.06358451,0.020683909,0.9981078,0.90319824,0.09057617,-0.39318848,-0.05078125,0.091796875,0.026367188,6.27498,-1.316395,0.42822108,20.663927,-0.973938,-0.062561035,-0.09509277,0.030273438,-0.04296875,0.0029296875,3.5974426,2.0577526,-56.453327,19.153505,0.45367432,0.4716797,0.7081299,-0.19726562,0.21386719,0.23632812,15.060198,6.829844,-128.07211,13.323414,0.0,0.0,0.0,0.0,0.0,0.0,0.0,25.60238,-127.731285,20.22419,0.0,0.0,0.0,0.0,0.0,0.0,0.0,0.06358451,-0.020683909,-0.9981078,-0.93048096,0.07965088,-0.36694336,9.765625E-4,-0.0126953125,0.053710938,4.4763656,1.316395,-0.42822108,-20.663927,-0.9916992,0.018798828,0.021728516,0.041992188,-0.032226562,0.037109375,2.327172,1.0460308,-57.212093,-15.684597,-0.56463623,0.4869995,0.7484741,0.01953125,0.080078125,0.040039062,7.2503877,3.0546243,-129.08893,-11.743427,0.0,0.0,0.0,0.0,0.0,0.0,0.0,20.406948,-128.85114,-1.8010693,0.0,0.0,0.0,0.0,0.0,0.0,0.0,1.8350266,44.97072,-0.81503326,
0.6640624901046978,34,-0.07287598,-0.81451416,0.56066895,-0.13574219,0.06542969,-0.026367188,0.0,0.0,0.0,0.0,0.0,0.0,0.0,0.0,0.0,0.0,0.0,-0.06259754,0.02013591,0.9980741,0.8967285,0.111572266,-0.39312744,-0.08886719,0.111328125,0.0078125,6.2845025,-1.2959626,0.41687575,20.663227,-0.9828491,-0.04071045,-0.10308838,0.030273438,0.0859375,0.020507812,3.6999407,2.2370396,-56.46012,19.270905,0.46270752,0.45251465,0.7503662,-0.21679688,0.23242188,0.23632812,15.140062,7.107993,-128.07263,13.468302,0.0,0.0,0.0,0.0,0.0,0.0,0.0,25.864552,-127.71605,20.408945,0.0,0.0,0.0,0.0,0.0,0.0,0.0,0.06259754,-0.02013591,-0.9980741,-0.9251709,0.044311523,-0.35229492,0.038085938,-0.0126953125,0.12988281,4.4419727,1.2959626,-0.41687575,-20.663227,-1.0008545,0.0025024414,0.0056762695,0.0048828125,0.005859375,0.017578125,2.2454176,1.1096953,-57.212734,-15.743487,-0.52001953,0.41693115,0.7507324,-0.018554688,0.061523438,0.040039062,7.2159405,3.251091,-129.08049,-11.74578,0.0,0.0,0.0,0.0,0.0,0.0,0.0,20.600103,-128.82559,-1.7975054,0.0,0.0,0.0,0.0,0.0,0.0,0.0,1.7657441,44.969,-0.7964945,
0.6835937398136595,35,-0.09259033,-0.86138916,0.56152344,-0.15429688,0.06640625,0.01171875,0.0,0.0,0.0,0.0,0.0,0.0,0.0,0.0,0.0,0.0,0.0,-0.06272012,0.018407274,0.99807817,0.89630127,0.10211182,-0.4140625,-0.048828125,0.14941406,0.026367188,6.1971364,-1.2985027,0.38108766,20.663311,-0.9937744,-0.010498047,-0.15563965,0.030273438,0.049804688,-0.016601562,3.7807696,2.4013348,-56.4855,19.395155,0.48480225,0.45922852,0.7425537,-0.17871094,0.23242188,0.2548828,15.213634,7.3396263,-128.10428,13.66053,0.0,0.0,0.0,0.0,0.0,0.0,0.0,26.087029,-127.743866,20.625753,0.0,0.0,0.0,0.0,0.0,0.0,0.0,0.06272012,-0.018407274,-0.99807817,-0.92071533,0.06976318,-0.33251953,0.07519531,-0.07128906,0.072265625,4.4082003,1.2985027,-0.38108766,-20.663311,-1.006958,-0.023498535,-0.025390625,0.080078125,0.0068359375,0.017578125,2.1760983,1.203266,-57.17948,-15.825682,-0.548584,0.4644165,0.7786255,0.018554688,0.09863281,0.040039062,7.268144,3.4360895,-129.04755,-11.843887,0.0,0.0,0.0,0.0,0.0,0.0,0.0,20.777985,-128.80154,-1.8825483,0.0,0.0,0.0,0.0,0.0,0.0,0.0,1.6264387,44.97446,-0.72724426,
0.7031249895226211,36,-0.056762695,-0.8857422,0.567688,-0.0029296875,0.045898438,-0.026367188,0.0,0.0,0.0,0.0,0.0,0.0,0.0,0.0,0.0,0.0,0.0,-0.06492898,0.017601103,0.99788064,0.8859253,0.08831787,-0.40405273,-0.029296875,0.16894531,-0.0107421875,6.1297345,-1.3442316,0.36439738,20.659224,-1.0,-0.07885742,-0.1529541,-0.0087890625,0.10449219,-0.017578125,3.9141662,2.5151556,-56.50071,19.54553,0.46081543,0.47521973,0.7376709,-0.17871094,0.23242188,0.2548828,15.364206,7.4708643,-128.1195,13.860877,0.0,0.0,0.0,0.0,0.0,0.0,0.0,26.202301,-127.746506,20.866268,0.0,0.0,0.0,0.0,0.0,0.0,0.0,0.06492898,-0.017601103,-0.99788064,-0.8862915,0.09649658,-0.3430786,0.1328125,-0.052734375,0.091796875,4.3996162,1.3442316,-0.36439738,-20.659224,-1.0007935,-0.010803223,-0.040222168,0.17480469,0.0078125,-9.765625E-4,2.1347837,1.3579029,-57.16322,-15.846041,-0.5430908,0.4366455,0.7345581,0.018554688,0.09863281,0.040039062,7.487473,3.6402788,-129.03018,-11.887619,0.0,0.0,0.0,0.0,0.0,0.0,0.0,20.977352,-128.78168,-1.918663,0.0,0.0,0.0,0.0,0.0,0.0,0.0,1.5000039,44.976173,-0.6957109,
0.7226562392315828,37,-0.07116699,-0.83410645,0.5298462,0.015625,0.064453125,0.0107421875,0.0,0.0,0.0,0.0,0.0,0.0,0.0,0.0,0.0,0.0,0.0,-0.06667873,0.017143738,0.99770725,0.8763428,0.10321045,-0.39398193,-0.01171875,0.12988281,-0.0107421875,6.15479,-1.3804576,0.35492846,20.655634,-0.96295166,-0.060058594,-0.17126465,-0.0087890625,0.030273438,-0.017578125,3.997235,2.6362317,-56.49888,19.628172,0.4638672,0.48095703,0.7416382,-0.17871094,0.25195312,0.2734375,15.53753,7.5454426,-128.12112,13.988432,0.0,0.0,0.0,0.0,0.0,0.0,0.0,26.260965,-127.72462,21.037298,0.0,0.0,0.0,0.0,0.0,0.0,0.0,0.06667873,-0.017143738,-0.99770725,-0.87683105,0.1149292,-0.3262329,0.15234375,-0.033203125,0.091796875,4.4192944,1.3804576,-0.35492846,-20.655634,-1.0128784,0.010681152,-0.036010742,0.13671875,0.0078125,0.018554688,2.1515865,1.4250959,-57.154263,-15.813284,-0.5554199,0.46331787,0.7460327,0.01953125,0.080078125,0.040039062,7.720649,3.762494,-129.0202,-11.837836,0.0,0.0,0.0,0.0,0.0,0.0,0.0,21.102741,-128.7758,-1.8739634,0.0,0.0,0.0,0.0,0.0,0.0,0.0,1.4249804,44.975925,-0.677593,
0.7421874889405445,38,-0.076293945,-0.83984375,0.5209961,-0.0029296875,0.064453125,-0.0078125,0.0,0.0,0.0,0.0,0.0,0.0,0.0,0.0,0.0,0.0,0.0,-0.0684984,0.016500492,0.99758434,0.8812256,0.13061523,-0.38098145,-0.03125,0.091796875,0.0078125,6.181552,-1.4181297,0.34161133,20.653091,-0.99194336,-0.061584473,-0.16467285,-0.0078125,-0.043945312,-0.016601562,4.0374994,2.748243,-56.504353,19.664537,0.47772217,0.45550537,0.72772217,-0.17871094,0.25195312,0.23632812,15.74438,7.6271706,-128.13295,14.06959,0.0,0.0,0.0,0.0,0.0,0.0,0.0,26.327435,-127.720406,21.16013,0.0,0.0,0.0,0.0,0.0,0.0,0.0,0.0684984,-0.016500492,-0.99758434,-0.91467285,0.11553955,-0.33032227,0.13378906,-0.013671875,0.07324219,4.484497,1.4181297,-0.34161133,-20.653091,-1.0006714,0.014404297,-0.03302002,0.09863281,0.026367188,0.017578125,2.130103,1.540183,-57.13602,-15.762958,-0.5470581,0.44348145,0.7178955,0.018554688,0.09863281,0.040039062,7.886801,3.902041,-128.99771,-11.738699,0.0,0.0,0.0,0.0,0.0,0.0,0.0,21.244211,-128.76357,-1.7812614,0.0,0.0,0.0,0.0,0.0,0.0,0.0,1.3467238,44.97825,-0.6514885,
0.7617187386495062,39,-0.076293945,-0.8417969,0.51898193,-0.041015625,0.06542969,-0.0078125,0.0,0.0,0.0,0.0,0.0,0.0,0.0,0.0,0.0,0.0,0.0,-0.07104838,0.016111447,0.9973711,0.8930664,0.14050293,-0.44189453,-0.0703125,0.07324219,0.02734375,6.120933,-1.4709212,0.3335569,20.648674,-1.001831,-0.030700684,-0.17663574,-0.0087890625,0.030273438,0.001953125,4.000516,2.7473469,-56.504757,19.651773,0.46881104,0.4732666,0.7258911,-0.12109375,0.25195312,0.23535156,15.979806,7.5617285,-128.14192,14.126736,0.0,0.0,0.0,0.0,0.0,0.0,0.0,26.245132,-127.71693,21.257391,0.0,0.0,0.0,0.0,0.0,0.0,0.0,0.07104838,-0.016111447,-0.9973711,-0.9093628,0.122558594,-0.33514404,0.040039062,0.0068359375,0.0546875,4.4896917,1.4709212,-0.3335569,-20.648674,-1.0028687,-0.017700195,-0.02532959,0.080078125,0.0068359375,0.017578125,2.095178,1.6952616,-57.13018,-15.766701,-0.54833984,0.4593506,0.74090576,0.01953125,0.080078125,0.040039062,7.9753823,4.103013,-128.98799,-11.744985,0.0,0.0,0.0,0.0,0.0,0.0,0.0,21.454815,-128.74907,-1.8029766,0.0,0.0,0.0,0.0,0.0,0.0,0.0,1.2580031,44.979176,-0.63697517,
0.7812499883584679,40,-0.08526611,-0.83477783,0.53204346,-0.041015625,0.06542969,-0.0078125,0.0,0.0,0.0,0.0,0.0,0.0,0.0,0.0,0.0,0.0,0.0,-0.07197109,0.015795438,0.9973946,0.9047241,0.109436035,-0.39416504,-0.051757812,0.053710938,0.02734375,6.1010756,-1.4900266,0.32701454,20.649162,-0.9769287,-0.0625,-0.16149902,-0.046875,-0.0078125,-0.017578125,3.9715796,2.7759385,-56.5085,19.641413,0.44561768,0.46472168,0.7277832,-0.12109375,0.25195312,0.23535156,16.193235,7.546379,-128.1582,14.169642,0.0,0.0,0.0,0.0,0.0,0.0,0.0,26.20835,-127.707985,21.356081,0.0,0.0,0.0,0.0,0.0,0.0,0.0,0.07197109,-0.015795438,-0.9973946,-0.92645264,0.13409424,-0.34991455,0.0029296875,0.026367188,0.036132812,4.5103664,1.4900266,-0.32701454,-20.649162,-1.0038452,0.0045776367,-0.009216309,0.061523438,0.0068359375,-9.765625E-4,2.070654,1.7956363,-57.119495,-15.766008,-0.5270996,0.43170166,0.7451172,-0.018554688,0.09863281,0.041015625,8.035753,4.2828903,-128.9782,-11.719587,0.0,0.0,0.0,0.0,0.0,0.0,0.0,21.634523,-128.737,-1.7756157,0.0,0.0,0.0,0.0,0.0,0.0,0.0,1.2050108,44.98459,-0.6254548,
0.8007812380674296,41,-0.074279785,-0.8418579,0.5258789,-0.059570312,0.046875,-0.0078125,0.0,0.0,0.0,0.0,0.0,0.0,0.0,0.0,0.0,0.0,0.0,-0.07313183,0.015015848,0.99737865,0.8814697,0.13311768,-0.3600464,-0.07128906,0.015625,0.064453125,6.0767026,-1.5140555,0.3108746,20.64883,-0.97198486,-0.08074951,-0.14367676,-0.0087890625,0.029296875,0.020507812,3.9694588,2.7855213,-56.519417,19.643234,0.45184326,0.49206543,0.7220459,-0.08300781,0.27148438,0.25390625,16.3558,7.5662622,-128.16966,14.186312,0.0,0.0,0.0,0.0,0.0,0.0,0.0,26.207779,-127.69311,21.424875,0.0,0.0,0.0,0.0,0.0,0.0,0.0,0.07313183,-0.015015848,-0.99737865,-0.9189453,0.10961914,-0.33032227,-0.03515625,0.026367188,0.036132812,4.5779123,1.5140555,-0.3108746,-20.64883,-0.9987793,-3.6621094E-4,-0.008300781,-0.0146484375,-0.013671875,0.037109375,2.0188727,1.9257953,-57.103336,-15.762393,-0.548645,0.50860596,0.73150635,0.01953125,0.061523438,0.040039062,8.080653,4.4921246,-128.95172,-11.664665,0.0,0.0,0.0,0.0,0.0,0.0,0.0,21.84271,-128.70195,-1.7199068,0.0,0.0,0.0,0.0,0.0,0.0,0.0,1.1691988,44.98852,-0.5915859,
0.8203124877763913,42,-0.0770874,-0.82922363,0.5606079,-0.059570312,0.029296875,-0.0078125,0.0,0.0,0.0,0.0,0.0,0.0,0.0,0.0,0.0,0.0,0.0,-0.0735957,0.014545791,0.9972445,0.9022217,0.08319092,-0.3703003,-0.015625,-0.022460938,0.028320312,6.0685353,-1.5236585,0.30114293,20.646051,-0.99279785,-0.02557373,-0.14874268,-0.0087890625,-0.025390625,0.0029296875,3.9892907,2.8437603,-56.52839,19.700615,0.44891357,0.5028076,0.72998047,-0.1015625,0.25195312,0.27246094,16.549932,7.664212,-128.17871,14.307775,0.0,0.0,0.0,0.0,0.0,0.0,0.0,26.27792,-127.68335,21.613688,0.0,0.0,0.0,0.0,0.0,0.0,0.0,0.0735957,-0.014545791,-0.9972445,-0.9259033,0.082092285,-0.29803467,-0.07421875,-0.01171875,0.016601562,4.595721,1.5236585,-0.30114293,-20.646051,-1.0090942,-0.016906738,0.0115356445,-0.051757812,0.0048828125,-9.765625E-4,1.9662265,2.0586133,-57.09304,-15.797518,-0.54711914,0.4277954,0.7454834,-0.037109375,0.080078125,0.041015625,8.03441,4.7495246,-128.94434,-11.688129,0.0,0.0,0.0,0.0,0.0,0.0,0.0,22.102478,-128.68327,-1.7472553,0.0,0.0,0.0,0.0,0.0,0.0,0.0,1.1285546,44.984997,-0.5728641,
0.839843737485353,43,-0.06628418,-0.84716797,0.56915283,-0.00390625,0.028320312,-0.0078125,0.0,0.0,0.0,0.0,0.0,0.0,0.0,0.0,0.0,0.0,0.0,-0.07361162,0.0142578995,0.9973155,0.9038696,0.07977295,-0.39923096,-0.013671875,0.034179688,0.02734375,6.0768967,-1.52399,0.29518276,20.647524,-0.9828491,-0.046691895,-0.1328125,-0.14453125,0.0625,0.018554688,4.015321,2.884501,-56.531895,19.791573,0.45880127,0.4841919,0.7190552,-0.099609375,0.19433594,0.23535156,16.594666,7.768583,-128.18634,14.473324,0.0,0.0,0.0,0.0,0.0,0.0,0.0,26.367556,-127.69722,21.81954,0.0,0.0,0.0,0.0,0.0,0.0,0.0,0.07361162,-0.0142578995,-0.9973155,-0.9331665,0.07720947,-0.29907227,-0.07324219,0.02734375,0.016601562,4.6241045,1.52399,-0.29518276,-20.647524,-1.0183105,-0.024597168,0.020507812,-0.051757812,0.024414062,0.017578125,1.9190787,2.1920252,-57.090855,-15.84762,-0.5713501,0.46038818,0.7404175,-0.055664062,0.061523438,0.00390625,7.9280577,5.011904,-128.93558,-11.751181,0.0,0.0,0.0,0.0,0.0,0.0,0.0,22.37255,-128.66765,-1.822649,0.0,0.0,0.0,0.0,0.0,0.0,0.0,1.1260878,44.988277,-0.5600487,
0.8593749871943147,44,-0.06585693,-0.8125,0.52697754,-0.041015625,0.028320312,-0.0078125,0.0,0.0,0.0,0.0,0.0,0.0,0.0,0.0,0.0,0.0,0.0,-0.073803574,0.014169573,0.99727976,0.90441895,0.09326172,-0.38024902,0.08105469,0.0146484375,0.045898438,6.023727,-1.5279633,0.29335406,20.646782,-0.97888184,-0.049682617,-0.12878418,-0.16308594,-0.048828125,0.0,3.9788704,2.8759704,-56.5367,19.861383,0.44781494,0.49414062,0.7200928,-0.060546875,0.17578125,0.234375,16.52134,7.83875,-128.18904,14.654497,0.0,0.0,0.0,0.0,0.0,0.0,0.0,26.419964,-127.704956,22.043081,0.0,0.0,0.0,0.0,0.0,0.0,0.0,0.073803574,-0.014169573,-0.99727976,-0.96868896,0.091796875,-0.30499268,-0.018554688,-0.03125,0.053710938,4.578469,1.5279633,-0.29335406,-20.646782,-1.0019531,-0.011108398,0.0095825195,0.0234375,0.06347656,-9.765625E-4,1.8373885,2.3072147,-57.096363,-15.943553,-0.5562134,0.4494629,0.7330322,-0.036132812,0.024414062,0.0029296875,7.8680124,5.2444606,-128.93237,-11.865723,0.0,0.0,0.0,0.0,0.0,0.0,0.0,22.60693,-128.65942,-1.9435673,0.0,0.0,0.0,0.0,0.0,0.0,0.0,1.1019313,44.987877,-0.5576495,
0.8789062369032764,45,-0.097351074,-0.8425293,0.5489502,-0.060546875,0.0107421875,-0.0078125,0.0,0.0,0.0,0.0,0.0,0.0,0.0,0.0,0.0,0.0,0.0,-0.07376942,0.014040675,0.9973546,0.90283203,0.12188721,-0.41711426,0.13769531,0.033203125,-0.028320312,5.9881825,-1.5272568,0.29068556,20.648333,-1.0008545,-0.039733887,-0.10827637,-0.22167969,0.0234375,-0.001953125,3.9915972,2.8708372,-56.537334,19.959436,0.48095703,0.49072266,0.72595215,-0.0625,0.23242188,0.25390625,16.393682,7.916228,-128.1919,14.833055,0.0,0.0,0.0,0.0,0.0,0.0,0.0,26.481709,-127.71165,22.26319,0.0,0.0,0.0,0.0,0.0,0.0,0.0,0.07376942,-0.014040675,-0.9973546,-0.9380493,0.06732178,-0.34735107,-0.016601562,0.0068359375,0.0546875,4.5193906,1.5272568,-0.29068556,-20.648333,-1.0039062,0.012145996,0.018737793,-0.0146484375,0.043945312,0.037109375,1.7649163,2.3579202,-57.10176,-16.044744,-0.55737305,0.46923828,0.7352295,-0.037109375,0.04296875,0.0029296875,7.7846227,5.4177723,-128.93156,-11.963169,0.0,0.0,0.0,0.0,0.0,0.0,0.0,22.7868,-128.646,-2.052476,0.0,0.0,0.0,0.0,0.0,0.0,0.0,1.0979867,44.991215,-0.55216986,
0.8984374866122381,46,-0.06921387,-0.84020996,0.5593872,-0.059570312,0.0107421875,-0.026367188,0.0,0.0,0.0,0.0,0.0,0.0,0.0,0.0,0.0,0.0,0.0,-0.07333106,0.014283163,0.99739754,0.92089844,0.10784912,-0.38635254,0.15820312,0.052734375,-0.009765625,5.9704137,-1.5181792,0.29570577,20.649223,-1.0,-0.079956055,-0.11627197,-0.22167969,0.041992188,-0.001953125,4.027301,2.8784087,-56.53636,20.054882,0.4718628,0.4909668,0.7102051,-0.04296875,0.21386719,0.21582031,16.190088,8.040035,-128.18723,14.972716,0.0,0.0,0.0,0.0,0.0,0.0,0.0,26.591818,-127.72131,22.437582,0.0,0.0,0.0,0.0,0.0,0.0,0.0,0.07333106,-0.014283163,-0.99739754,-0.9293213,0.10559082,-0.32250977,0.020507812,0.0068359375,0.0546875,4.5454497,1.5181792,-0.29570577,-20.649223,-0.98968506,-4.8828125E-4,-0.002380371,-0.0146484375,0.08203125,0.037109375,1.6397245,2.4636955,-57.10994,-16.069813,-0.53912354,0.4229126,0.75616455,-0.0546875,0.005859375,0.0029296875,7.6982207,5.5173364,-128.9372,-11.917857,0.0,0.0,0.0,0.0,0.0,0.0,0.0,22.891186,-128.63924,-2.0158882,0.0,0.0,0.0,0.0,0.0,0.0,0.0,1.0998644,44.991657,-0.5634353,
0.9179687363211998,47,-0.08117676,-0.83203125,0.5557251,-0.11621094,0.046875,-0.044921875,0.0,0.0,0.0,0.0,0.0,0.0,0.0,0.0,0.0,0.0,0.0,-0.073310405,0.013302783,0.99745107,0.9190674,0.12121582,-0.40625,0.17675781,0.052734375,-0.046875,5.7868915,-1.5177522,0.27540883,20.650331,-1.0029297,-0.06286621,-0.12817383,-0.18359375,0.08105469,-0.020507812,4.068375,2.86059,-56.555103,20.125202,0.50219727,0.51605225,0.70739746,-0.0234375,0.21386719,0.234375,16.11458,8.055063,-128.20575,15.06569,0.0,0.0,0.0,0.0,0.0,0.0,0.0,26.588385,-127.75361,22.57775,0.0,0.0,0.0,0.0,0.0,0.0,0.0,0.073310405,-0.013302783,-0.99745107,-0.947937,0.10168457,-0.31378174,-0.016601562,0.0068359375,0.0546875,4.572775,1.5177522,-0.27540883,-20.650331,-0.9928589,-0.017944336,0.0014648438,-0.07128906,0.08105469,0.037109375,1.5800388,2.5631008,-57.08388,-16.059101,-0.5673828,0.45159912,0.7620239,-0.037109375,0.061523438,0.0029296875,7.644907,5.594942,-128.91394,-11.874098,0.0,0.0,0.0,0.0,0.0,0.0,0.0,22.974627,-128.61024,-1.9823933,0.0,0.0,0.0,0.0,0.0,0.0,0.0,0.986392,44.99645,-0.52760994,
0.9374999860301615,48,-0.061157227,-0.83843994,0.5701294,-0.13574219,0.047851562,-0.044921875,0.0,0.0,0.0,0.0,0.0,0.0,0.0,0.0,0.0,0.0,0.0,-0.07299703,0.012729512,0.99755025,0.8939209,0.1217041,-0.39709473,0.13867188,0.052734375,-0.009765625,5.656864,-1.5112648,0.2635404,20.652384,-0.98883057,-0.037902832,-0.13085938,-0.18261719,0.0068359375,-0.01953125,4.074484,2.864863,-56.571304,20.163902,0.4560547,0.53149414,0.6907959,-0.043945312,0.25195312,0.23535156,16.033234,8.087636,-128.22159,15.13734,0.0,0.0,0.0,0.0,0.0,0.0,0.0,26.60432,-127.77086,22.689342,0.0,0.0,0.0,0.0,0.0,0.0,0.0,0.07299703,-0.012729512,-0.99755025,-0.9102783,0.08734131,-0.31958008,-0.018554688,-0.05078125,0.053710938,4.527791,1.5112648,-0.2635404,-20.652384,-1.0070801,-0.034240723,-0.01550293,-0.07128906,0.119140625,0.037109375,1.4812089,2.6205459,-57.077236,-16.105797,-0.5452881,0.45147705,0.74468994,-0.07421875,0.005859375,0.00390625,7.5822196,5.549708,-128.90718,-11.910943,0.0,0.0,0.0,0.0,0.0,0.0,0.0,22.931437,-128.58975,-2.0243855,0.0,0.0,0.0,0.0,0.0,0.0,0.0,0.8941226,45.001675,-0.50882757,
0.9570312357391232,49,-0.08239746,-0.85180664,0.569397,-0.041015625,0.028320312,-0.0078125,0.0,0.0,0.0,0.0,0.0,0.0,0.0,0.0,0.0,0.0,0.0,-0.07277101,0.012860026,0.99761343,0.880188,0.1348877,-0.3939209,0.12011719,0.052734375,0.0087890625,5.6088142,-1.5065842,0.2662424,20.653692,-0.9879761,-0.07946777,-0.12902832,-0.18359375,0.11816406,-0.001953125,4.0797677,2.8542185,-56.569416,20.171429,0.46411133,0.54022217,0.68688965,-0.08203125,0.25195312,0.27246094,15.932127,8.076138,-128.21828,15.142988,0.0,0.0,0.0,0.0,0.0,0.0,0.0,26.574686,-127.77495,22.738958,0.0,0.0,0.0,0.0,0.0,0.0,0.0,0.07277101,-0.012860026,-0.99761343,-0.9147949,0.101989746,-0.35003662,-0.09375,-0.030273438,0.03515625,4.5295644,1.5065842,-0.2662424,-20.653692,-1.007019,-0.036010742,-0.03741455,-0.052734375,0.08203125,0.037109375,1.4495592,2.6653829,-57.076675,-16.103928,-0.5232544,0.44750977,0.75512695,-0.07519531,0.099609375,0.00390625,7.5885577,5.4708657,-128.91196,-11.911867,0.0,0.0,0.0,0.0,0.0,0.0,0.0,22.856298,-128.59135,-2.030445,0.0,0.0,0.0,0.0,0.0,0.0,0.0,0.867125,45.004284,-0.51688826,
0.9765624854480849,50,-0.07312012,-0.82928467,0.56451416,-0.041015625,0.046875,-0.0078125,0.0,0.0,0.0,0.0,0.0,0.0,0.0,0.0,0.0,0.0,0.0,-0.07249749,0.013416795,0.9975954,0.9118042,0.14581299,-0.3881836,0.08300781,0.09082031,0.026367188,5.657834,-1.5009233,0.27776927,20.653316,-0.9659424,-0.07220459,-0.13165283,-0.1640625,0.0068359375,-0.01953125,4.09175,2.9007478,-56.551178,20.16008,0.4420166,0.54351807,0.677063,-0.1796875,0.2705078,0.2919922,15.8575325,8.140448,-128.19324,15.111279,0.0,0.0,0.0,0.0,0.0,0.0,0.0,26.6175,-127.732216,22.756283,0.0,0.0,0.0,0.0,0.0,0.0,0.0,0.07249749,-0.013416795,-0.9975954,-0.9257202,0.08154297,-0.3187256,-0.056640625,-0.049804688,0.03515625,4.4848027,1.5009233,-0.27776927,-20.653316,-1.0078735,-0.016540527,-0.042236328,-0.033203125,0.08203125,0.037109375,1.3904386,2.6819882,-57.090458,-16.135763,-0.5239868,0.41888428,0.7429199,-0.12988281,-0.0126953125,-0.0146484375,7.5813656,5.353154,-128.92949,-11.935355,0.0,0.0,0.0,0.0,0.0,0.0,0.0,22.741806,-128.62187,-2.0581236,0.0,0.0,0.0,0.0,0.0,0.0,0.0,0.8666934,45.002617,-0.5422617,
0.9960937351570466,51,-0.068237305,-0.8401489,0.5504761,-0.059570312,0.029296875,-0.0078125,0.0,0.0,0.0,0.0,0.0,0.0,0.0,0.0,0.0,0.0,0.0,-0.07218546,0.0138001945,0.99760264,0.87335205,0.15045166,-0.41778564,0.04296875,0.034179688,-0.009765625,5.7159743,-1.494463,0.28570688,20.653467,-0.9760742,-0.097473145,-0.11602783,-0.0859375,0.064453125,0.01953125,4.130526,2.9634066,-56.54227,20.102476,0.4743042,0.55773926,0.684021,-0.27734375,0.328125,0.3125,15.873035,8.19343,-128.17839,14.949493,0.0,0.0,0.0,0.0,0.0,0.0,0.0,26.653172,-127.70862,22.640661,0.0,0.0,0.0,0.0,0.0,0.0,0.0,0.07218546,-0.0138001945,-0.99760264,-0.9100952,0.08477783,-0.33929443,-0.0546875,0.0078125,0.0546875,4.42337,1.494463,-0.28570688,-20.653467,-1.0048218,-0.016540527,-0.04626465,-0.08984375,0.10058594,0.017578125,1.3013091,2.693037,-57.101955,-16.185299,-0.5493164,0.45837402,0.73394775,-0.09277344,-0.0126953125,-0.033203125,7.5762386,5.253524,-128.94603,-11.946706,0.0,0.0,0.0,0.0,0.0,0.0,0.0,22.64452,-128.63408,-2.073287,0.0,0.0,0.0,0.0,0.0,0.0,0.0,0.8549778,45.002163,-0.5606657,
1.0156249848660084,52,-0.08605957,-0.8220825,0.5519409,-0.07910156,0.029296875,0.0107421875,0.0,0.0,0.0,0.0,0.0,0.0,0.0,0.0,0.0,0.0,0.0,-0.07136011,0.013440082,0.997692,0.9081421,0.1305542,-0.41314697,-0.013671875,0.034179688,0.02734375,5.6938496,-1.4773765,0.27825138,20.655317,-0.97991943,-0.06506348,-0.14276123,0.0107421875,0.10546875,-0.017578125,4.133844,3.006496,-56.54642,20.041119,0.46624756,0.5657959,0.6702881,-0.33691406,0.3857422,0.35058594,16.037365,8.16413,-128.18599,14.829733,0.0,0.0,0.0,0.0,0.0,0.0,0.0,26.598202,-127.68965,22.577805,0.0,0.0,0.0,0.0,0.0,0.0,0.0,0.07136011,-0.013440082,-0.997692,-0.8948364,0.079589844,-0.34124756,0.001953125,-0.03125,-0.0029296875,4.3691945,1.4773765,-0.27825138,-20.655317,-1.0129395,-0.024169922,-0.05822754,-0.051757812,0.08203125,0.017578125,1.2583439,2.6863444,-57.09619,-16.235748,-0.55737305,0.44659424,0.7617798,-0.111328125,-0.0126953125,0.00390625,7.5371814,5.1024923,-128.94502,-12.005384,0.0,0.0,0.0,0.0,0.0,0.0,0.0,22.500916,-128.65578,-2.1453495,0.0,0.0,0.0,0.0,0.0,0.0,0.0,0.8076942,45.00431,-0.54849035,
1.03515623457497,53,-0.08929443,-0.8407593,0.5498047,-0.11621094,0.047851562,0.0107421875,0.0,0.0,0.0,0.0,0.0,0.0,0.0,0.0,0.0,0.0,0.0,-0.06996739,0.012499939,0.9977973,0.916626,0.10650635,-0.41027832,-0.0126953125,0.091796875,0.0078125,5.628,-1.4485408,0.25878748,20.6575,-0.98687744,-0.046081543,-0.15270996,0.0107421875,0.049804688,-0.036132812,4.145529,3.0448923,-56.566914,20.0313,0.4880371,0.51953125,0.67401123,-0.35546875,0.36621094,0.35058594,16.15156,8.151298,-128.2131,14.806068,0.0,0.0,0.0,0.0,0.0,0.0,0.0,26.573666,-127.701385,22.583376,0.0,0.0,0.0,0.0,0.0,0.0,0.0,0.06996739,-0.012499939,-0.9977973,-0.8969116,0.0690918,-0.36193848,-0.03515625,0.0078125,0.016601562,4.317336,1.4485408,-0.25878748,-20.6575,-0.9946289,-0.023376465,-0.06329346,-0.033203125,0.0625,0.037109375,1.2306696,2.6401157,-57.08603,-16.294382,-0.5151367,0.4366455,0.74090576,0.01953125,0.024414062,0.001953125,7.60362,5.006792,-128.94278,-12.100592,0.0,0.0,0.0,0.0,0.0,0.0,0.0,22.402708,-128.66434,-2.2355108,0.0,0.0,0.0,0.0,0.0,0.0,0.0,0.75370395,45.005436,-0.51095605,
1.0546874842839318,54,-0.11340332,-0.8432617,0.55908203,-0.022460938,0.046875,0.047851562,0.0,0.0,0.0,0.0,0.0,0.0,0.0,0.0,0.0,0.0,0.0,-0.06812188,0.011920295,0.99791723,0.89038086,0.10827637,-0.4169922,-0.06933594,0.091796875,0.044921875,5.635308,-1.4103346,0.24678704,20.65998,-0.99890137,-0.054016113,-0.15679932,0.030273438,0.03125,0.0029296875,4.1407547,3.09872,-56.574657,20.026041,0.4500122,0.52960205,0.68878174,-0.31640625,0.34765625,0.33203125,16.262966,8.180779,-128.21686,14.809181,0.0,0.0,0.0,0.0,0.0,0.0,0.0,26.592316,-127.685776,22.610916,0.0,0.0,0.0,0.0,0.0,0.0,0.0,0.06812188,-0.011920295,-0.99791723,-0.9179077,0.09240723,-0.36486816,-0.036132812,0.0078125,0.03515625,4.302248,1.4103346,-0.24678704,-20.65998,-0.9916382,-0.013793945,-0.043273926,-0.0146484375,0.043945312,0.037109375,1.1955038,2.5948298,-57.07537,-16.33959,-0.5560913,0.43078613,0.73876953,9.765625E-4,0.005859375,0.001953125,7.643597,4.9372177,-128.92712,-12.15634,0.0,0.0,0.0,0.0,0.0,0.0,0.0,22.332195,-128.66426,-2.2913237,0.0,0.0,0.0,0.0,0.0,0.0,0.0,0.75130874,45.005085,-0.4863062,
1.0742187339928935,55,-0.085632324,-0.8643799,0.54364014,-0.00390625,-0.0078125,0.029296875,0.0,0.0,0.0,0.0,0.0,0.0,0.0,0.0,0.0,0.0,0.0,-0.06797922,0.011602924,0.9977541,0.8789673,0.097839355,-0.42492676,-0.05078125,0.091796875,0.044921875,5.652705,-1.4073805,0.2402165,20.656605,-0.99487305,-0.045166016,-0.18548584,-0.028320312,0.047851562,-0.017578125,4.152326,3.1460342,-56.576405,20.037619,0.4710083,0.52056885,0.69073486,-0.55371094,0.53808594,0.5214844,16.513111,8.150967,-128.23041,14.8630905,0.0,0.0,0.0,0.0,0.0,0.0,0.0,26.53172,-127.651344,22.731043,0.0,0.0,0.0,0.0,0.0,0.0,0.0,0.06797922,-0.011602924,-0.9977541,-0.942688,0.08660889,-0.3571167,-0.036132812,-0.01171875,0.03515625,4.283269,1.4073805,-0.2402165,-20.656605,-1.020935,0.0040893555,-0.051940918,-0.033203125,0.0625,0.055664062,1.1426096,2.627099,-57.072178,-16.383419,-0.5633545,0.45251465,0.75006104,-0.017578125,0.005859375,-0.03515625,7.625604,4.9689646,-128.9297,-12.189116,0.0,0.0,0.0,0.0,0.0,0.0,0.0,22.374367,-128.66129,-2.3400345,0.0,0.0,0.0,0.0,0.0,0.0,0.0,0.735618,44.99755,-0.47315913,
1.0937499837018552,56,-0.07342529,-0.8518677,0.5504761,-0.13574219,0.030273438,0.047851562,0.0,0.0,0.0,0.0,0.0,0.0,0.0,0.0,0.0,0.0,0.0,-0.06860402,0.011178467,0.99772215,0.8859863,0.101989746,-0.44195557,-0.0126953125,0.07324219,0.0087890625,5.4785805,-1.4203162,0.23142894,20.655941,-0.9970093,-0.073791504,-0.18756104,0.0107421875,0.030273438,0.021484375,4.1283445,3.0821133,-56.59163,20.012222,0.5140381,0.48760986,0.7062988,-0.35839844,0.44335938,0.38867188,16.78468,7.9945383,-128.25543,14.846132,0.0,0.0,0.0,0.0,0.0,0.0,0.0,26.349953,-127.63816,22.771671,0.0,0.0,0.0,0.0,0.0,0.0,0.0,0.06860402,-0.011178467,-0.99772215,-0.9030762,0.077697754,-0.340271,-0.036132812,0.0068359375,0.0546875,4.2134733,1.4203162,-0.23142894,-20.655941,-1.0200806,-0.0010375977,-0.016113281,-0.07128906,0.04296875,0.017578125,1.0849833,2.6586108,-57.065502,-16.415981,-0.5844116,0.4545288,0.753479,-0.017578125,0.024414062,-0.015625,7.525535,5.0315323,-128.91623,-12.192715,0.0,0.0,0.0,0.0,0.0,0.0,0.0,22.444395,-128.64865,-2.3581858,0.0,0.0,0.0,0.0,0.0,0.0,0.0,0.63433564,44.999496,-0.46055645,
1.1132812334108169,57,-0.068481445,-0.855896,0.5473633,0.015625,0.064453125,0.0107421875,0.0,0.0,0.0,0.0,0.0,0.0,0.0,0.0,0.0,0.0,0.0,-0.0692769,0.011654621,0.9977759,0.8967285,0.114746094,-0.4020996,0.00390625,0.015625,0.0087890625,5.375417,-1.4342462,0.24128678,20.657055,-0.98583984,-0.030517578,-0.1774292,0.0107421875,0.01171875,0.001953125,4.0939994,3.0297222,-56.58371,20.004208,0.51116943,0.4991455,0.72406006,-0.24316406,0.46289062,0.33203125,16.954182,7.8582897,-128.24953,14.882648,0.0,0.0,0.0,0.0,0.0,0.0,0.0,26.198656,-127.61309,22.840034,0.0,0.0,0.0,0.0,0.0,0.0,0.0,0.0692769,-0.011654621,-0.9977759,-0.9369507,0.121276855,-0.35003662,0.038085938,-0.05078125,0.03515625,4.1724167,1.4342462,-0.24128678,-20.657055,-1.0100098,-0.0040893555,-0.010253906,-0.109375,0.0234375,0.037109375,1.1030489,2.671651,-57.071136,-16.389431,-0.54803467,0.4395752,0.7188721,0.01953125,0.024414062,0.001953125,7.361887,5.088016,-128.92172,-12.159845,0.0,0.0,0.0,0.0,0.0,0.0,0.0,22.509384,-128.65369,-2.3424358,0.0,0.0,0.0,0.0,0.0,0.0,0.0,0.5737853,45.00479,-0.48584425,
1.1328124831197786,58,-0.07727051,-0.8378906,0.5308838,0.034179688,0.064453125,-0.026367188,0.0,0.0,0.0,0.0,0.0,0.0,0.0,0.0,0.0,0.0,0.0,-0.06966406,0.012162791,0.9977719,0.88861084,0.110839844,-0.39404297,0.0048828125,0.0146484375,0.045898438,5.354781,-1.4422607,0.25180748,20.656971,-0.97869873,0.006164551,-0.14648438,0.049804688,-0.005859375,0.041015625,4.0080476,3.0273762,-56.57137,20.00982,0.48132324,0.5315552,0.7468872,-0.16503906,0.40527344,0.25585938,17.107824,7.8291826,-128.24892,15.020418,0.0,0.0,0.0,0.0,0.0,0.0,0.0,26.152016,-127.57176,23.013525,0.0,0.0,0.0,0.0,0.0,0.0,0.0,0.06966406,-0.012162791,-0.9977719,-0.95025635,0.12615967,-0.33825684,0.076171875,-0.032226562,0.091796875,4.2380366,1.4422607,-0.25180748,-20.656971,-1.0476074,-0.019226074,-0.013122559,-0.12890625,0.041992188,0.07519531,1.2098222,2.6951537,-57.073063,-16.275427,-0.5551758,0.42785645,0.76153564,0.01953125,0.024414062,0.020507812,7.195875,5.1726723,-128.9246,-12.040857,0.0,0.0,0.0,0.0,0.0,0.0,0.0,22.594732,-128.64972,-2.2246428,0.0,0.0,0.0,0.0,0.0,0.0,0.0,0.54763156,45.00614,-0.5103873,
1.1523437328287403,59,-0.088378906,-0.8456421,0.539917,-0.059570312,0.08300781,-0.026367188,0.0,0.0,0.0,0.0,0.0,0.0,0.0,0.0,0.0,0.0,0.0,-0.06946507,0.011940819,0.9978426,0.9361572,0.12084961,-0.40942383,-0.013671875,0.034179688,0.02734375,5.3491426,-1.4381422,0.24721196,20.658438,-0.9949341,-0.052368164,-0.1765747,0.030273438,-0.005859375,0.0029296875,3.9142163,3.0369406,-56.57657,19.987568,0.5001831,0.51312256,0.71429443,-0.0107421875,0.40625,0.16210938,17.159792,7.822965,-128.26535,15.10055,0.0,0.0,0.0,0.0,0.0,0.0,0.0,26.141836,-127.564026,23.100822,0.0,0.0,0.0,0.0,0.0,0.0,0.0,0.06946507,-0.011940819,-0.9978426,-0.9404297,0.04852295,-0.35235596,0.10253906,0.21679688,0.11328125,4.318651,1.4381422,-0.24721196,-20.658438,-1.0404053,-0.029724121,-0.05114746,-0.11035156,0.0234375,0.11328125,1.2972425,2.5887308,-57.058933,-16.141682,-0.5640869,0.43273926,0.7300415,0.056640625,0.09863281,0.0390625,7.083521,5.030066,-128.90884,-11.851185,0.0,0.0,0.0,0.0,0.0,0.0,0.0,22.457836,-128.64406,-2.043231,0.0,0.0,0.0,0.0,0.0,0.0,0.0,0.5364169,45.008812,-0.5012613,
1.171874982537702,60,-0.11364746,-0.85687256,0.52441406,-0.041015625,0.046875,-0.0078125,0.0,0.0,0.0,0.0,0.0,0.0,0.0,0.0,0.0,0.0,0.0,-0.06864643,0.011300992,0.99786115,0.92004395,0.08569336,-0.4163208,-0.030273438,0.11035156,0.08203125,5.361656,-1.4211941,0.23396559,20.65882,-0.97784424,-0.03173828,-0.13372803,0.107421875,0.0703125,0.022460938,3.9780827,3.0764308,-56.586517,20.049337,0.42089844,0.54571533,0.67803955,0.06640625,0.40625,0.16113281,17.416552,7.8389487,-128.281,15.172883,0.0,0.0,0.0,0.0,0.0,0.0,0.0,26.138826,-127.52051,23.210314,0.0,0.0,0.0,0.0,0.0,0.0,0.0,0.06864643,-0.011300992,-0.99786115,-0.9193115,0.18377686,-0.34375,0.041992188,0.12109375,0.15039062,4.5298667,1.4211941,-0.23396559,-20.65882,-1.0062256,-0.051818848,-0.0037231445,0.021484375,0.13964844,0.19042969,1.3890305,2.6065912,-57.033047,-15.970461,-0.53723145,0.4210205,0.7779541,0.09375,0.13574219,0.076171875,7.032548,4.929633,-128.87613,-11.572086,0.0,0.0,0.0,0.0,0.0,0.0,0.0,22.358814,-128.61674,-1.7655296,0.0,0.0,0.0,0.0,0.0,0.0,0.0,0.5473449,45.006947,-0.4720596,
1.1914062322466636,61,-0.105529785,-0.8543091,0.5687256,0.015625,0.009765625,0.0107421875,0.0,0.0,0.0,0.0,0.0,0.0,0.0,0.0,0.0,0.0,0.0,-0.06727344,0.009793459,0.9979647,0.8762207,0.08227539,-0.3441162,-0.08886719,0.053710938,0.08300781,5.352841,-1.3927681,0.20275497,20.660963,-0.9766846,0.005004883,-0.14050293,0.049804688,0.049804688,0.0029296875,4.068375,3.1412933,-56.619995,20.192398,0.49908447,0.5085449,0.68573,0.06738281,0.36816406,0.10546875,17.551186,7.927849,-128.3136,15.379483,0.0,0.0,0.0,0.0,0.0,0.0,0.0,26.220995,-127.513664,23.430035,0.0,0.0,0.0,0.0,0.0,0.0,0.0,0.06727344,-0.009793459,-0.9979647,-0.9399414,0.21606445,-0.25610352,0.052734375,-0.18652344,0.12695312,4.978585,1.3927681,-0.20275497,-20.660963,-0.9543457,0.013183594,0.07727051,0.07910156,0.15917969,0.11328125,1.6207579,2.814017,-56.96925,-15.678105,-0.58673096,0.39526367,0.71624756,0.16796875,0.17285156,0.15039062,6.991116,5.1356735,-128.80743,-11.150742,0.0,0.0,0.0,0.0,0.0,0.0,0.0,22.56883,-128.54404,-1.35396,0.0,0.0,0.0,0.0,0.0,0.0,0.0,0.5491978,45.00732,-0.40465453,
1.2109374819556253,62,-0.10223389,-0.8347168,0.57476807,0.034179688,0.045898438,0.0107421875,0.0,0.0,0.0,0.0,0.0,0.0,0.0,0.0,0.0,0.0,0.0,-0.06520414,0.00880154,0.998089,0.89086914,0.11981201,-0.4000244,-0.0146484375,-0.00390625,0.064453125,5.4392,-1.3499274,0.18221918,20.663536,-0.9789429,-0.0703125,-0.10211182,0.030273438,0.0859375,0.020507812,4.128629,3.248344,-56.6348,20.231775,0.4533081,0.5845947,0.6665039,0.08496094,0.38671875,0.068359375,17.447094,8.115574,-128.31853,15.38507,0.0,0.0,0.0,0.0,0.0,0.0,0.0,26.40842,-127.48732,23.436062,0.0,0.0,0.0,0.0,0.0,0.0,0.0,0.06520414,-0.00880154,-0.998089,-0.9503784,0.16778564,-0.23181152,-0.0087890625,-0.3779297,-0.0068359375,5.535341,1.3499274,-0.18221918,-20.663536,-0.95788574,0.09698486,0.0491333,0.07910156,0.23535156,0.11328125,1.7661356,3.411147,-56.907948,-15.475071,-0.5363159,0.44458008,0.7593384,0.26171875,0.22851562,0.18652344,6.898674,5.77839,-128.71094,-10.55455,0.0,0.0,0.0,0.0,0.0,0.0,0.0,23.20755,-128.40323,-0.7494087,0.0,0.0,0.0,0.0,0.0,0.0,0.0,0.5804136,45.006317,-0.35896552,
1.230468731664587,63,-0.10821533,-0.8275757,0.55322266,-0.00390625,-0.043945312,0.029296875,0.0,0.0,0.0,0.0,0.0,0.0,0.0,0.0,0.0,0.0,0.0,-0.06404582,0.007866306,0.99820215,0.9453125,0.16436768,-0.41436768,-0.08984375,0.034179688,0.12011719,5.5013905,-1.3259486,0.16285694,20.665878,-1.0,-0.078552246,-0.13012695,-0.0087890625,0.08496094,0.020507812,4.0992103,3.304481,-56.647568,20.193182,0.44836426,0.5994873,0.6498413,0.0078125,0.40625,0.10644531,17.400082,8.240671,-128.33072,15.323649,0.0,0.0,0.0,0.0,0.0,0.0,0.0,26.523874,-127.429504,23.386425,0.0,0.0,0.0,0.0,0.0,0.0,0.0,0.06404582,-0.007866306,-0.99820215,-0.92718506,-0.014465332,-0.2611084,-0.31640625,-0.6230469,-0.21777344,5.6657267,1.3259486,-0.16285694,-20.665878,-1.0048218,0.014221191,-0.0021362305,-0.22265625,0.2890625,0.07421875,2.0069137,4.079525,-56.89767,-15.874815,-0.53234863,0.4593506,0.74749756,0.18652344,0.19140625,0.14941406,6.708381,6.2466664,-128.69287,-10.6544075,0.0,0.0,0.0,0.0,0.0,0.0,0.0,23.65553,-128.29599,-0.81720257,0.0,0.0,0.0,0.0,0.0,0.0,0.0,0.6059651,45.007664,-0.31580234,
1.2499999813735487,64,-0.115478516,-0.8470459,0.5413208,0.0146484375,-0.025390625,0.047851562,0.0,0.0,0.0,0.0,0.0,0.0,0.0,0.0,0.0,0.0,0.0,-0.064207464,0.007099731,0.9982591,0.92858887,0.1159668,-0.44921875,-0.18164062,0.14941406,0.11816406,5.488373,-1.3292936,0.14698644,20.667059,-0.95306396,-0.10461426,-0.1315918,0.068359375,0.125,0.001953125,4.121318,3.2834897,-56.668797,20.135815,0.44036865,0.60443115,0.65185547,0.02734375,0.40625,0.12402344,17.468575,8.116465,-128.35376,15.188725,0.0,0.0,0.0,0.0,0.0,0.0,0.0,26.390062,-127.378426,23.263458,0.0,0.0,0.0,0.0,0.0,0.0,0.0,0.064207464,-0.007099731,-0.9982591,-0.8748169,-0.026306152,-0.300354,-0.57910156,-0.46777344,-0.083984375,5.7899733,1.3292936,-0.14698644,-20.667059,-0.9908447,-0.056640625,-0.037719727,-0.0146484375,0.27246094,0.07421875,2.68686,4.682866,-56.886204,-16.300583,-0.5612793,0.4642334,0.72039795,0.20605469,0.19140625,0.14941406,6.5179744,6.5574517,-128.68954,-11.061871,0.0,0.0,0.0,0.0,0.0,0.0,0.0,23.963026,-128.22932,-1.2237873,0.0,0.0,0.0,0.0,0.0,0.0,0.0,0.608057,45.010635,-0.28101075,
1.2695312310825104,65,-0.10321045,-0.83062744,0.55114746,0.18457031,-0.08203125,0.083984375,0.0,0.0,0.0,0.0,0.0,0.0,0.0,0.0,0.0,0.0,0.0,-0.064199805,0.007896408,0.9982234,0.8988037,0.06512451,-0.3583374,-0.103515625,0.22558594,0.0625,5.7594256,-1.3291353,0.16348012,20.66632,-0.994751,-0.016418457,-0.124938965,0.048828125,0.14257812,0.020507812,4.2791514,3.4436264,-56.640182,20.285995,0.43426514,0.60266113,0.6419678,-0.028320312,0.32910156,0.08691406,17.480707,8.173389,-128.3324,15.435836,0.0,0.0,0.0,0.0,0.0,0.0,0.0,26.440239,-127.30322,23.51986,0.0,0.0,0.0,0.0,0.0,0.0,0.0,0.064199805,-0.007896408,-0.9982234,-0.89923096,0.0020141602,-0.25604248,-0.45703125,-0.14257812,0.033203125,6.032117,1.3291353,-0.16348012,-20.66632,-1.0180664,-0.08105469,-0.12243652,0.061523438,0.17871094,0.036132812,3.3683085,5.035523,-56.89149,-16.439114,-0.571167,0.4210205,0.76379395,0.22460938,0.19140625,0.16796875,6.6010833,6.491052,-128.71202,-11.375488,0.0,0.0,0.0,0.0,0.0,0.0,0.0,23.896856,-128.1946,-1.5393429,0.0,0.0,0.0,0.0,0.0,0.0,0.0,0.71013355,45.00759,-0.3103592,
1.2890624807914721,66,-0.08227539,-0.7628784,0.51782227,0.09082031,-0.08105469,0.046875,0.0,0.0,0.0,0.0,0.0,0.0,0.0,0.0,0.0,0.0,0.0,-0.065052986,0.009597415,0.998178,0.9116211,0.041137695,-0.31854248,0.0859375,0.18652344,0.025390625,6.189159,-1.3467989,0.19869623,20.66538,-1.0039062,-0.05340576,-0.17871094,-0.125,0.13769531,-9.765625E-4,4.6595106,3.6948857,-56.580563,20.6052,0.43023682,0.5988159,0.6409912,-0.047851562,0.3486328,0.10644531,17.455315,8.272,-128.29366,15.861141,0.0,0.0,0.0,0.0,0.0,0.0,0.0,26.535606,-127.22034,23.94797,0.0,0.0,0.0,0.0,0.0,0.0,0.0,0.065052986,-0.009597415,-0.998178,-0.9293823,0.074645996,-0.2744751,-0.33984375,-0.02734375,-0.021484375,6.2714796,1.3467989,-0.19869623,-20.66538,-0.97924805,-0.053100586,-0.15429688,0.09863281,0.16015625,0.055664062,3.9096608,5.2346954,-56.912235,-16.43602,-0.5150757,0.4473877,0.72021484,0.33789062,0.13574219,0.16601562,6.8846145,6.258297,-128.75528,-11.552763,0.0,0.0,0.0,0.0,0.0,0.0,0.0,23.674091,-128.16588,-1.7367029,0.0,0.0,0.0,0.0,0.0,0.0,0.0,0.8573724,45.00563,-0.37684965,
1.3085937305004338,67,-0.10913086,-0.81726074,0.47131348,-0.07910156,-0.13378906,0.06640625,0.0,0.0,0.0,0.0,0.0,0.0,0.0,0.0,0.0,0.0,0.0,-0.06816217,0.009360768,0.9978163,0.895813,0.06939697,-0.3682251,0.19726562,0.08984375,-0.0107421875,6.178665,-1.4111683,0.1937969,20.657892,-0.9659424,-0.066345215,-0.19213867,-0.14453125,0.13769531,-0.020507812,5.0290537,3.7355897,-56.580418,20.882675,0.4272461,0.6078491,0.62231445,-0.047851562,0.32910156,0.12402344,17.481243,8.033849,-128.3175,16.191027,0.0,0.0,0.0,0.0,0.0,0.0,0.0,26.28862,-127.215645,24.292038,0.0,0.0,0.0,0.0,0.0,0.0,0.0,0.06816217,-0.009360768,-0.9978163,-0.9016113,0.053588867,-0.33447266,-0.09375,-0.049804688,-0.041015625,6.207125,1.4111683,-0.1937969,-20.657892,-1.0166626,-0.008117676,-0.12774658,0.0234375,0.08203125,0.037109375,4.2280893,5.298894,-56.9064,-16.41729,-0.54003906,0.4336548,0.72753906,0.31835938,0.17285156,0.18457031,7.1329217,5.9254866,-128.75333,-11.574215,0.0,0.0,0.0,0.0,0.0,0.0,0.0,23.338066,-128.0656,-1.7605352,0.0,0.0,0.0,0.0,0.0,0.0,0.0,0.7808336,45.000065,-0.3688172,
1.3281249802093955,68,-0.14147949,-0.83532715,0.47265625,-0.23046875,-0.15039062,0.047851562,0.0,0.0,0.0,0.0,0.0,0.0,0.0,0.0,0.0,0.0,0.0,-0.075177014,0.006788765,0.9972145,0.87976074,0.101989746,-0.34210205,0.21484375,0.033203125,-0.028320312,5.7742105,-1.5563953,0.1405485,20.645432,-0.98498535,-0.061157227,-0.20819092,-0.1640625,0.08105469,0.037109375,5.2213464,3.5248015,-56.633354,21.04462,0.45129395,0.5947876,0.63012695,-0.0087890625,0.32910156,0.12402344,17.442297,7.559037,-128.3855,16.399813,0.0,0.0,0.0,0.0,0.0,0.0,0.0,25.819088,-127.29419,24.489532,0.0,0.0,0.0,0.0,0.0,0.0,0.0,0.075177014,-0.006788765,-0.9972145,-0.8986206,0.055236816,-0.3206787,-0.05078125,0.123046875,-0.01953125,5.8790326,1.5563953,-0.1405485,-20.645432,-1.0073242,0.04888916,-0.09942627,-0.20410156,0.09863281,0.055664062,4.2502193,5.3451185,-56.86824,-16.518862,-0.6154785,0.4555664,0.7512207,0.5439453,0.17285156,0.27441406,7.0883656,5.78374,-128.70418,-11.528232,0.0,0.0,0.0,0.0,0.0,0.0,0.0,23.209644,-127.91749,-1.7471457,0.0,0.0,0.0,0.0,0.0,0.0,0.0,0.51818335,44.999245,-0.26727837,
1.3476562299183572,69,-0.1375122,-0.91741943,0.5252075,-0.28710938,-0.13183594,0.103515625,0.0,0.0,0.0,0.0,0.0,0.0,0.0,0.0,0.0,0.0,0.0,-0.08198777,0.0034529371,0.9966788,0.89331055,0.124938965,-0.36315918,0.25195312,-0.005859375,-0.02734375,5.2814946,-1.6974014,0.0714865,20.634342,-0.9838867,-0.03778076,-0.19622803,-0.2998047,0.07714844,-0.00390625,5.169111,3.3193974,-56.706356,21.08695,0.44335938,0.602478,0.6498413,-0.0078125,0.29101562,0.10546875,17.291134,7.269535,-128.47374,16.58867,0.0,0.0,0.0,0.0,0.0,0.0,0.0,25.524496,-127.354965,24.685833,0.0,0.0,0.0,0.0,0.0,0.0,0.0,0.08198777,-0.0034529371,-0.9966788,-0.9204712,0.10083008,-0.2930298,-0.10546875,0.18164062,-0.038085938,5.52368,1.6974014,-0.0714865,-20.634342,-1.0028076,-0.03100586,-0.072265625,-0.27929688,0.17382812,0.036132812,4.25731,5.2855277,-56.815723,-16.50795,-0.58361816,0.4987793,0.72320557,0.73046875,0.22753906,0.40234375,6.784084,5.4542413,-128.64885,-11.437782,0.0,0.0,0.0,0.0,0.0,0.0,0.0,22.908136,-127.69518,-1.720314,0.0,0.0,0.0,0.0,0.0,0.0,0.0,0.17672333,45.00174,-0.14136854,
1.367187479627319,70,-0.14202881,-0.95892334,0.5673828,0.10839844,-0.15332031,0.15820312,0.0,0.0,0.0,0.0,0.0,0.0,0.0,0.0,0.0,0.0,0.0,-0.08607155,0.0019137416,0.9963052,0.90545654,0.14141846,-0.40509033,0.17480469,-0.024414062,-0.02734375,5.2099257,-1.7819486,0.039620385,20.626608,-0.9970703,-0.09362793,-0.18365479,-0.28027344,0.021484375,0.03515625,5.131448,3.202395,-56.743732,21.061174,0.45861816,0.6397095,0.6234741,-0.0078125,0.29101562,0.12402344,16.961838,7.0954866,-128.5167,16.60551,0.0,0.0,0.0,0.0,0.0,0.0,0.0,25.359795,-127.401054,24.681438,0.0,0.0,0.0,0.0,0.0,0.0,0.0,0.08607155,-0.0019137416,-0.9963052,-0.9524536,0.12634277,-0.20544434,-0.14453125,0.12402344,-0.057617188,5.604375,1.7819486,-0.039620385,-20.626608,-1.0152588,-0.049682617,-0.016601562,-0.033203125,0.13867188,0.017578125,4.3260374,5.3318486,-56.775173,-16.401062,-0.54974365,0.5253906,0.72473145,0.6933594,0.28320312,0.4404297,6.751511,5.3862276,-128.61377,-11.426785,0.0,0.0,0.0,0.0,0.0,0.0,0.0,22.844334,-127.42717,-1.7412653,0.0,0.0,0.0,0.0,0.0,0.0,0.0,0.14312917,45.000523,-0.07407371,
1.3867187293362806,71,-0.10461426,-0.928772,0.50579834,0.12792969,-0.15234375,0.21386719,0.0,0.0,0.0,0.0,0.0,0.0,0.0,0.0,0.0,0.0,0.0,-0.09286782,0.0010207655,0.9955831,0.93756104,0.124938965,-0.3704834,0.21386719,-0.0048828125,-0.0087890625,5.294834,-1.9226532,0.021133017,20.611656,-0.98101807,-0.09411621,-0.13195801,-0.24121094,0.078125,0.03515625,5.124685,3.0155663,-56.76726,21.059149,0.4404297,0.6511841,0.57733154,-0.12597656,0.3671875,0.16308594,16.735342,6.9376884,-128.53398,16.582096,0.0,0.0,0.0,0.0,0.0,0.0,0.0,25.193426,-127.383575,24.673748,0.0,0.0,0.0,0.0,0.0,0.0,0.0,0.09286782,-0.0010207655,-0.9955831,-0.9319458,0.10803223,-0.24975586,-0.20214844,0.14453125,-0.01953125,5.8202596,1.9226532,-0.021133017,-20.611656,-0.9976196,0.023071289,-0.025024414,0.080078125,0.10253906,-0.001953125,4.363632,5.483215,-56.749928,-16.284054,-0.5437012,0.5734253,0.64178467,0.54296875,0.265625,0.36816406,7.0771484,5.520365,-128.59007,-11.318225,0.0,0.0,0.0,0.0,0.0,0.0,0.0,22.957031,-127.18385,-1.6244211,0.0,0.0,0.0,0.0,0.0,0.0,0.0,0.24220711,44.995094,-0.023540173,
1.4062499790452423,72,-0.10095215,-0.88275146,0.5308838,0.16503906,-0.20800781,0.1953125,0.0,0.0,0.0,0.0,0.0,0.0,0.0,0.0,0.0,0.0,0.0,-0.100068,1.8266158E-4,0.9950156,0.88061523,0.10998535,-0.39001465,0.21289062,-0.024414062,-0.0087890625,5.4053726,-2.0717173,0.0037816572,20.599909,-0.99420166,-0.13189697,-0.15997314,-0.24121094,0.07910156,-0.0029296875,5.262353,2.855133,-56.786007,21.115675,0.40753174,0.6937866,0.5647583,-0.20507812,0.4814453,0.35058594,16.704954,6.715669,-128.5564,16.555042,0.0,0.0,0.0,0.0,0.0,0.0,0.0,24.939835,-127.37768,24.714428,0.0,0.0,0.0,0.0,0.0,0.0,0.0,0.100068,-1.8266158E-4,-0.9950156,-0.9182739,0.06640625,-0.26953125,-0.296875,0.14453125,-0.01953125,6.0049853,2.0717173,-0.0037816572,-20.599909,-0.9840698,0.064819336,-0.047607422,-0.0146484375,0.13964844,0.055664062,4.371391,5.6423655,-56.724934,-16.195051,-0.57855225,0.5360718,0.664978,0.56152344,0.30273438,0.4248047,7.233265,5.6731086,-128.56133,-11.068736,0.0,0.0,0.0,0.0,0.0,0.0,0.0,23.1061,-126.9767,-1.3948345,0.0,0.0,0.0,0.0,0.0,0.0,0.0,0.32914475,45.00036,0.024840824,
1.425781228754204,73,-0.094177246,-0.8276367,0.51049805,0.203125,-0.24511719,0.15722656,0.0,0.0,0.0,0.0,0.0,0.0,0.0,0.0,0.0,0.0,0.0,-0.10719088,0.0011400301,0.99426264,0.88586426,0.16174316,-0.4058838,0.2109375,-0.0625,-0.06347656,5.576294,-2.2191827,0.023602152,20.58432,-0.9801636,-0.11645508,-0.14385986,-0.20214844,0.0048828125,0.055664062,5.353207,2.6897247,-56.767384,21.068348,0.42663574,0.6906128,0.56378174,-0.30371094,0.5390625,0.40722656,16.743134,6.5247726,-128.52832,16.341509,0.0,0.0,0.0,0.0,0.0,0.0,0.0,24.716099,-127.335464,24.570839,0.0,0.0,0.0,0.0,0.0,0.0,0.0,0.10719088,-0.0011400301,-0.99426264,-0.9817505,0.080566406,-0.24017334,-0.35546875,0.068359375,-0.040039062,6.2571454,2.2191827,-0.023602152,-20.58432,-1.0199585,0.018493652,-0.026916504,-0.22265625,0.23242188,0.055664062,4.6061087,5.898182,-56.7323,-16.088049,-0.4873047,0.52404785,0.651001,0.43066406,0.30273438,0.40820312,7.491822,5.7671213,-128.55215,-10.845784,0.0,0.0,0.0,0.0,0.0,0.0,0.0,23.165424,-126.76706,-1.1451569,0.0,0.0,0.0,0.0,0.0,0.0,0.0,0.48285758,44.99852,4.6087801E-4,
1.4453124784631657,74,-0.086120605,-0.8237915,0.503479,0.10839844,-0.20703125,0.15820312,0.0,0.0,0.0,0.0,0.0,0.0,0.0,0.0,0.0,0.0,0.0,-0.11452901,0.0014695108,0.99350536,0.8920288,0.124694824,-0.3970337,0.23046875,-0.04296875,-0.064453125,5.649549,-2.3711066,0.030423429,20.568642,-0.98187256,-0.032470703,-0.20709229,-0.24121094,0.0048828125,0.017578125,5.3531337,2.539062,-56.76282,21.046808,0.40515137,0.6300049,0.5899658,-0.3798828,0.5390625,0.4453125,16.813736,6.2919455,-128.5236,16.360126,0.0,0.0,0.0,0.0,0.0,0.0,0.0,24.453709,-127.305,24.653559,0.0,0.0,0.0,0.0,0.0,0.0,0.0,0.11452901,-0.0014695108,-0.99350536,-0.93218994,0.09991455,-0.24090576,-0.41210938,0.08886719,-0.0390625,6.449352,2.3711066,-0.030423429,-20.568642,-0.9956665,-0.008972168,-0.038269043,-0.27929688,0.21191406,0.036132812,4.856275,6.1120567,-56.724545,-15.931927,-0.5979004,0.56866455,0.6676636,0.43066406,0.30273438,0.40820312,7.6326776,5.7612767,-128.5491,-10.662704,0.0,0.0,0.0,0.0,0.0,0.0,0.0,23.131254,-126.611145,-0.9404278,0.0,0.0,0.0,0.0,0.0,0.0,0.0,0.5406017,45.00062,-0.004241854,
1.4648437281721274,75,-0.06976318,-0.87835693,0.5175781,0.0146484375,-0.11621094,0.10253906,0.0,0.0,0.0,0.0,0.0,0.0,0.0,0.0,0.0,0.0,0.0,-0.12084189,0.0017135697,0.99267256,0.88549805,0.062927246,-0.37713623,0.3046875,-0.13964844,-0.06347656,5.438984,-2.5018015,0.0354762,20.5514,-0.98986816,-0.02947998,-0.2111206,-0.35742188,0.0,0.072265625,5.2592616,2.2528667,-56.766277,21.11711,0.40112305,0.60821533,0.61938477,-0.38085938,0.5576172,0.4638672,16.768246,5.939027,-128.54057,16.607502,0.0,0.0,0.0,0.0,0.0,0.0,0.0,24.06985,-127.281395,24.958473,0.0,0.0,0.0,0.0,0.0,0.0,0.0,0.12084189,-0.0017135697,-0.99267256,-0.9286499,0.060546875,-0.2695923,-0.39257812,0.087890625,-0.020507812,6.4915366,2.5018015,-0.0354762,-20.5514,-0.9814453,-0.002319336,-0.036315918,-0.35546875,0.2109375,0.07421875,5.0665092,6.2466974,-56.720024,-15.786882,-0.48236084,0.5574951,0.6135254,0.31835938,0.2841797,0.3720703,7.8370924,5.660148,-128.54283,-10.533611,0.0,0.0,0.0,0.0,0.0,0.0,0.0,22.993542,-126.4411,-0.78040886,0.0,0.0,0.0,0.0,0.0,0.0,0.0,0.492246,44.997406,-0.01775232,
1.484374977881089,76,-0.06896973,-0.8911133,0.50756836,0.09082031,-0.13574219,0.046875,0.0,0.0,0.0,0.0,0.0,0.0,0.0,0.0,0.0,0.0,0.0,-0.1275574,0.0026250794,0.99179965,0.89697266,0.107666016,-0.35021973,0.39648438,-0.23535156,-0.080078125,5.0674763,-2.6408343,0.054347288,20.533327,-0.95880127,-0.020507812,-0.17010498,-0.4345703,-0.001953125,0.07128906,4.979726,1.85148,-56.769924,21.187668,0.45343018,0.6293335,0.59490967,-0.359375,0.5,0.48242188,16.613178,5.550329,-128.56763,17.010994,0.0,0.0,0.0,0.0,0.0,0.0,0.0,23.64623,-127.267685,25.43459,0.0,0.0,0.0,0.0,0.0,0.0,0.0,0.1275574,-0.0026250794,-0.99179965,-0.932251,0.06744385,-0.3079834,-0.48535156,0.14746094,-0.0390625,6.386015,2.6408343,-0.054347288,-20.533327,-1.0005493,-0.012451172,-0.09301758,-0.41210938,0.2109375,0.09375,5.2129335,6.30319,-56.735565,-15.673806,-0.4640503,0.5562744,0.56152344,0.24316406,0.2841797,0.29882812,8.110991,5.423976,-128.54169,-10.297586,0.0,0.0,0.0,0.0,0.0,0.0,0.0,22.708515,-126.29494,-0.491642,0.0,0.0,0.0,0.0,0.0,0.0,0.0,0.40445608,44.996883,-0.06707907,
1.5039062275900508,77,-0.049743652,-0.8775635,0.48760986,0.20410156,-0.13769531,-0.009765625,0.0,0.0,0.0,0.0,0.0,0.0,0.0,0.0,0.0,0.0,0.0,-0.13369742,0.00560348,0.9910658,0.89660645,0.17242432,-0.36212158,0.35742188,-0.2734375,-0.061523438,4.8806605,-2.767952,0.116009414,20.518135,-0.9850464,-0.09436035,-0.15673828,-0.39648438,-9.765625E-4,0.09082031,4.703113,1.4975629,-56.726074,21.146418,0.41638184,0.65234375,0.58618164,-0.37597656,0.42382812,0.4814453,16.399101,5.227036,-128.54343,17.174944,0.0,0.0,0.0,0.0,0.0,0.0,0.0,23.292496,-127.23941,25.661144,0.0,0.0,0.0,0.0,0.0,0.0,0.0,0.13369742,-0.00560348,-0.9910658,-0.9250488,-0.017211914,-0.27490234,-0.48535156,0.16601562,-0.01953125,6.183962,2.767952,-0.116009414,-20.518135,-0.99261475,-0.07342529,-0.13946533,-0.35546875,0.24902344,0.11230469,5.376329,6.2813606,-56.805054,-15.6865835,-0.5845337,0.5753174,0.6010132,0.052734375,0.5644531,0.37890625,8.512094,4.9943604,-128.6029,-10.28149,0.0,0.0,0.0,0.0,0.0,0.0,0.0,22.206686,-126.27457,-0.36732578,0.0,0.0,0.0,0.0,0.0,0.0,0.0,0.45092633,44.99998,-0.19359845,
1.5234374772990125,78,-0.061462402,-0.85272217,0.48999023,0.052734375,-0.1171875,-0.0087890625,0.0,0.0,0.0,0.0,0.0,0.0,0.0,0.0,0.0,0.0,0.0,-0.14002845,0.0068729483,0.99011195,0.9213257,0.17877197,-0.31640625,0.24316406,-0.2919922,0.03125,4.680107,-2.8990226,0.14229135,20.498388,-0.973999,-0.098083496,-0.03277588,-0.28027344,0.056640625,0.14941406,4.379717,1.2460241,-56.7042,21.051037,0.41644287,0.6642456,0.5734253,-0.35742188,0.4423828,0.4814453,15.99528,5.303477,-128.4986,17.22844,0.0,0.0,0.0,0.0,0.0,0.0,0.0,23.338734,-127.1958,25.781187,0.0,0.0,0.0,0.0,0.0,0.0,0.0,0.14002845,-0.0068729483,-0.99011195,-0.913147,-6.1035156E-4,-0.31115723,-0.40820312,0.22265625,0.0,5.8912897,2.8990226,-0.14229135,-20.498388,-1.0037842,-0.05987549,-0.11437988,-0.16601562,0.19433594,0.036132812,5.488087,6.207722,-56.850044,-15.732989,-0.57385254,0.5440674,0.70458984,0.25976562,0.43359375,0.39257812,8.962848,4.52786,-128.65657,-10.474001,0.0,0.0,0.0,0.0,0.0,0.0,0.0,21.678988,-126.290215,-0.46428394,0.0,0.0,0.0,0.0,0.0,0.0,0.0,0.39599326,44.99701,-0.25634655,
1.5429687270079742,79,-0.093322754,-0.84051514,0.52124023,0.034179688,-0.0625,0.009765625,0.0,0.0,0.0,0.0,0.0,0.0,0.0,0.0,0.0,0.0,0.0,-0.14161804,0.006283208,0.9899229,0.9536743,0.17022705,-0.28179932,0.15039062,-0.234375,0.06738281,4.59312,-2.9319327,0.13008188,20.494474,-0.9767456,-0.024475098,0.013000488,-0.2607422,0.11328125,0.12988281,4.0127354,1.1927617,-56.720417,20.975168,0.38031006,0.6765137,0.5626831,-0.35351562,0.328125,0.48046875,15.57802,5.6455297,-128.50745,17.406286,0.0,0.0,0.0,0.0,0.0,0.0,0.0,23.645237,-127.20479,26.031433,0.0,0.0,0.0,0.0,0.0,0.0,0.0,0.14161804,-0.006283208,-0.9899229,-0.9537964,0.027282715,-0.28363037,-0.25683594,0.24023438,0.076171875,5.6950884,2.9319327,-0.13008188,-20.494474,-1.0057373,-0.027893066,-0.09613037,-0.12792969,0.21386719,0.07421875,5.497506,6.0011606,-56.85756,-15.756003,-0.48065186,0.6027832,0.6080322,0.3173828,0.37695312,0.39160156,9.421601,4.0124664,-128.65732,-10.577201,0.0,0.0,0.0,0.0,0.0,0.0,0.0,21.116737,-126.20546,-0.50747585,0.0,0.0,0.0,0.0,0.0,0.0,0.0,0.34549838,44.999012,-0.23618941,
1.5624999767169359,80,-0.07312012,-0.82818604,0.5407715,0.16601562,-0.02734375,0.009765625,0.0,0.0,0.0,0.0,0.0,0.0,0.0,0.0,0.0,0.0,0.0,-0.14193359,0.0078863455,0.9898652,0.9784546,0.1817627,-0.24908447,9.765625E-4,-0.13769531,0.12207031,4.856598,-2.9384644,0.1632718,20.493279,-0.9835205,0.024841309,0.1081543,-0.31933594,0.2421875,0.10839844,3.6875362,1.3362687,-56.6775,21.036343,0.46447754,0.63012695,0.60180664,-0.38964844,0.25097656,0.4609375,14.818596,6.250271,-128.45595,17.89375,0.0,0.0,0.0,0.0,0.0,0.0,0.0,24.233604,-127.194916,26.562065,0.0,0.0,0.0,0.0,0.0,0.0,0.0,0.14193359,-0.0078863455,-0.9898652,-0.9293213,0.02758789,-0.26782227,-0.048828125,0.25683594,0.11425781,5.528078,2.9384644,-0.1632718,-20.493279,-0.98547363,-0.01953125,-0.07324219,-0.09082031,0.17675781,0.09375,5.468126,5.798091,-56.907444,-15.812624,-0.534729,0.576355,0.63964844,0.16699219,0.41503906,0.35742188,9.890698,3.5654402,-128.7003,-10.610174,0.0,0.0,0.0,0.0,0.0,0.0,0.0,20.608395,-126.15742,-0.4557495,0.0,0.0,0.0,0.0,0.0,0.0,0.0,0.4342567,44.997837,-0.2962352,
1.5820312264258976,81,-0.02532959,-0.7838135,0.54138184,0.052734375,0.028320312,0.0107421875,0.0,0.0,0.0,0.0,0.0,0.0,0.0,0.0,0.0,0.0,0.0,-0.14317665,0.009935133,0.989689,0.99542236,0.1408081,-0.25628662,-0.091796875,-0.061523438,0.19433594,5.158942,-2.9641995,0.20568803,20.48963,-0.9642334,0.08660889,0.12939453,-0.3779297,0.3515625,0.14453125,3.4099023,1.5297537,-56.6152,21.253717,0.3982544,0.65582275,0.5566406,-0.3701172,0.25097656,0.4794922,13.903911,6.779887,-128.38834,18.738527,0.0,0.0,0.0,0.0,0.0,0.0,0.0,24.76019,-127.21178,27.426159,0.0,0.0,0.0,0.0,0.0,0.0,0.0,0.14317665,-0.009935133,-0.989689,-0.9366455,0.02166748,-0.26489258,0.17871094,0.2548828,0.17089844,5.326455,2.9641995,-0.20568803,-20.48963,-0.9871216,0.030212402,-0.10168457,-0.22363281,0.19335938,0.11328125,5.3676834,5.6088657,-56.962452,-15.847739,-0.57592773,0.6226196,0.5973511,0.20410156,0.39648438,0.375,10.198829,3.191492,-128.72832,-10.3847275,0.0,0.0,0.0,0.0,0.0,0.0,0.0,20.181753,-126.0853,-0.17096138,0.0,0.0,0.0,0.0,0.0,0.0,0.0,0.49428686,44.997536,-0.38020647,
1.6015624761348592,82,-0.06549072,-0.7850952,0.54992676,0.015625,0.064453125,-0.026367188,0.0,0.0,0.0,0.0,0.0,0.0,0.0,0.0,0.0,0.0,0.0,-0.14399654,0.011213485,0.98965144,1.0470581,0.1430664,-0.2387085,-0.31347656,0.15039062,0.24804688,5.610247,-2.9811728,0.23215389,20.488852,-0.9393921,0.02319336,0.24053955,-0.37890625,0.59277344,0.14160156,3.2434099,1.9351752,-56.54853,21.571396,0.40844727,0.67907715,0.5656738,-0.43847656,-0.017578125,0.47753906,12.865384,7.486148,-128.31155,19.75668,0.0,0.0,0.0,0.0,0.0,0.0,0.0,25.455482,-127.21856,28.473087,0.0,0.0,0.0,0.0,0.0,0.0,0.0,0.14399654,-0.011213485,-0.98965144,-0.95147705,-0.0029907227,-0.26898193,0.30859375,0.21484375,0.24609375,5.159588,2.9811728,-0.23215389,-20.488852,-0.9685669,-0.08483887,-0.06896973,-0.2421875,0.25097656,0.11230469,5.3788066,5.459792,-56.994537,-15.862033,-0.5130615,0.5985718,0.48962402,0.034179688,0.52734375,0.36035156,10.496082,2.8074021,-128.7464,-10.296307,0.0,0.0,0.0,0.0,0.0,0.0,0.0,19.727253,-126.01776,0.013948441,0.0,0.0,0.0,0.0,0.0,0.0,0.0,0.5003067,45.001186,-0.43710107,
1.621093725843821,83,-0.022216797,-0.77386475,0.5128174,-0.07910156,0.08300781,-0.06347656,0.0,0.0,0.0,0.0,0.0,0.0,0.0,0.0,0.0,0.0,0.0,-0.1444923,0.012325008,0.9894602,1.0686646,0.20117188,-0.24377441,-0.7607422,0.43945312,0.41015625,6.206304,-2.9914382,0.25516587,20.484894,-0.9545288,-0.024108887,0.3571167,-0.12890625,0.87890625,0.10449219,3.3106203,2.5495722,-56.463593,21.873943,0.43347168,0.6691284,0.55474854,-0.5576172,0.09667969,0.5546875,11.505539,8.285236,-128.21725,20.633726,0.0,0.0,0.0,0.0,0.0,0.0,0.0,26.285637,-127.30243,29.305834,0.0,0.0,0.0,0.0,0.0,0.0,0.0,0.1444923,-0.012325008,-0.9894602,-0.93304443,-0.10870361,-0.28320312,0.42089844,0.15527344,0.2265625,4.820117,2.9914382,-0.25516587,-20.484894,-0.9607544,-0.1394043,-0.061523438,0.0029296875,0.31054688,0.15136719,5.519386,5.3880444,-57.040024,-16.104795,-0.41088867,0.47076416,0.673584,-0.171875,0.453125,0.21386719,10.967473,2.4430013,-128.79047,-10.668717,0.0,0.0,0.0,0.0,0.0,0.0,0.0,19.250984,-126.0534,-0.18131351,0.0,0.0,0.0,0.0,0.0,0.0,0.0,0.45554817,44.99637,-0.49396366,
1.6406249755527826,84,-0.021911621,-0.75231934,0.5288086,-0.3046875,0.103515625,-0.08105469,0.0,0.0,0.0,0.0,0.0,0.0,0.0,0.0,0.0,0.0,0.0,-0.14329079,0.013043026,0.98960197,1.2097168,0.29559326,-0.19195557,-1.3222656,0.6894531,0.75878906,6.62966,-2.9665635,0.27003106,20.487827,-0.9678345,-0.11212158,0.48254395,0.21875,1.3535156,0.047851562,3.7912173,3.2068717,-56.37036,22.239174,0.4631958,0.76586914,0.52386475,-0.6953125,0.19238281,0.68652344,10.521491,8.796686,-128.13115,21.369589,0.0,0.0,0.0,0.0,0.0,0.0,0.0,26.793188,-127.35136,30.059393,0.0,0.0,0.0,0.0,0.0,0.0,0.0,0.14329079,-0.013043026,-0.98960197,-0.86486816,-0.12689209,-0.26831055,0.74316406,0.15234375,0.24609375,4.096199,2.9665635,-0.27003106,-20.487827,-0.9655762,-0.10424805,-0.07611084,0.53222656,0.24121094,0.20898438,5.610526,5.236491,-57.096424,-16.647371,-0.47088623,0.5022583,0.6176758,-0.41210938,0.043945312,-0.23339844,11.350188,2.0096173,-128.84541,-11.416028,0.0,0.0,0.0,0.0,0.0,0.0,0.0,18.748306,-126.24882,-0.78273106,0.0,0.0,0.0,0.0,0.0,0.0,0.0,0.25667524,44.99616,-0.5558871,
1.6601562252617443,85,-0.08099365,-0.7454834,0.5683594,-0.4375,0.08691406,-0.005859375,0.0,0.0,0.0,0.0,0.0,0.0,0.0,0.0,0.0,0.0,0.0,-0.13972995,0.010453575,0.99015075,1.170105,0.23638916,-0.15881348,-1.8330078,1.3984375,0.95410156,7.6037493,-2.8928418,0.21642141,20.49919,-0.95526123,0.034729004,0.4345703,0.390625,1.8076172,-0.14550781,5.3211184,4.4085155,-56.272762,22.82361,0.37652588,0.8894043,0.5018921,-1.0429688,0.28710938,1.0068359,10.156194,9.226389,-128.1035,22.19426,0.0,0.0,0.0,0.0,0.0,0.0,0.0,27.168541,-127.416084,31.00645,0.0,0.0,0.0,0.0,0.0,0.0,0.0,0.13972995,-0.010453575,-0.99015075,-0.8701782,0.10131836,-0.3007202,1.1445312,0.3017578,0.3232422,3.7916305,2.8928418,-0.21642141,-20.49919,-1.0013428,0.19482422,-0.1350708,0.60839844,0.18457031,0.19042969,5.374287,4.837653,-57.06128,-16.69983,-0.8410034,0.72161865,0.5901489,-0.375,0.13671875,-0.10253906,11.500795,1.5243335,-128.78008,-11.073894,0.0,0.0,0.0,0.0,0.0,0.0,0.0,18.257023,-126.33177,-0.39741802,0.0,0.0,0.0,0.0,0.0,0.0,0.0,0.03178554,44.998253,-0.47058615,
1.679687474970706,86,-0.087524414,-0.704834,0.53723145,-0.23046875,0.068359375,0.16015625,0.0,0.0,0.0,0.0,0.0,0.0,0.0,0.0,0.0,0.0,0.0,-0.13714612,0.0067990543,0.99054676,1.0343018,0.31640625,-0.025878906,-2.4628906,2.053711,0.94628906,9.957102,-2.8393488,0.14076151,20.50739,-1.0542603,0.09680176,0.14904785,0.080078125,2.006836,-0.4189453,8.774627,6.83801,-55.94651,23.53872,0.34899902,0.9606323,0.54663086,-1.2529297,0.3046875,1.4726562,10.206099,10.091037,-127.87547,23.023449,0.0,0.0,0.0,0.0,0.0,0.0,0.0,27.936802,-127.2948,32.03981,0.0,0.0,0.0,0.0,0.0,0.0,0.0,0.13714612,-0.0067990543,-0.99054676,-0.9708252,0.30493164,-0.37780762,0.8046875,0.3623047,0.39941406,4.062402,2.8393488,-0.14076151,-20.50739,-0.9727783,0.20910645,-0.13604736,-0.11035156,0.17578125,0.18945312,5.2211213,4.3581843,-56.965775,-16.282837,-0.6085205,0.7103882,0.578125,-0.091796875,-0.0126953125,0.078125,11.660013,0.7544508,-128.58878,-9.726477,0.0,0.0,0.0,0.0,0.0,0.0,0.0,17.476192,-126.144485,0.9699154,0.0,0.0,0.0,0.0,0.0,0.0,0.0,-0.14202747,44.99944,-0.32853785,
1.6992187246796677,87,-0.044677734,-0.64624023,0.47479248,-0.28808594,0.12597656,0.3466797,0.0,0.0,0.0,0.0,0.0,0.0,0.0,0.0,0.0,0.0,0.0,-0.13870645,3.6375853E-4,0.9904215,1.2501221,-1.1226807,0.19317627,-1.8564453,2.506836,0.9404297,12.92818,-2.8716528,0.0075309305,20.504795,-1.2401123,-0.04345703,-0.23815918,-0.42382812,2.0332031,-0.5996094,13.906028,9.679636,-55.482655,24.098972,0.39764404,1.1098633,0.7098999,-1.4101562,-0.10058594,1.953125,10.752701,10.170748,-127.4875,23.054993,0.0,0.0,0.0,0.0,0.0,0.0,0.0,27.87779,-127.152,32.352238,0.0,0.0,0.0,0.0,0.0,0.0,0.0,0.13870645,-3.6375853E-4,-0.9904215,-0.9147339,0.59210205,-0.49725342,0.044921875,0.23632812,0.18945312,4.5395427,2.8716528,-0.0075309305,-20.504795,-0.99835205,0.06878662,-0.0345459,-0.28125,0.32617188,0.18945312,5.2768545,4.1929646,-56.82216,-16.046047,-0.5739746,0.6010742,0.64471436,-0.07324219,-0.0126953125,0.041015625,11.342481,0.32755423,-128.379,-8.884726,0.0,0.0,0.0,0.0,0.0,0.0,0.0,17.047024,-125.95717,1.8188076,0.0,0.0,0.0,0.0,0.0,0.0,0.0,-0.24024156,45.00325,-0.050173976,
1.7187499743886294,88,-0.0028686523,-0.74645996,0.46923828,-0.81640625,0.24121094,0.4970703,0.0,0.0,0.0,0.0,0.0,0.0,0.0,0.0,0.0,0.0,0.0,-0.14066803,-0.013010826,0.99023706,1.2198486,-0.18450928,-0.34753418,0.3642578,2.0097656,0.9277344,15.199079,-2.9122639,-0.26936445,20.500978,-1.4431152,-0.26733398,-0.35723877,-0.40527344,2.1835938,-0.69628906,18.77261,11.361837,-55.163773,26.198383,0.4680786,0.7369385,0.9370117,-1.4140625,-0.50390625,2.2089844,11.284476,8.86318,-127.11917,24.532734,0.0,0.0,0.0,0.0,0.0,0.0,0.0,26.415356,-127.22111,34.12642,0.0,0.0,0.0,0.0,0.0,0.0,0.0,0.14066803,0.013010826,-0.99023706,-0.8725586,0.5838623,-0.4194336,-1.5205078,-0.265625,-0.13964844,5.6932645,2.9122639,0.26936445,-20.500978,-0.98187256,0.20544434,-0.15600586,-0.22460938,0.30859375,0.18945312,5.586056,4.2809525,-56.503475,-15.517992,-0.5380249,0.6589966,0.57110596,-0.12988281,-0.03125,-0.051757812,11.233104,0.06354189,-127.97528,-7.727619,0.0,0.0,0.0,0.0,0.0,0.0,0.0,16.770395,-125.539246,2.993023,0.0,0.0,0.0,0.0,0.0,0.0,0.0,-0.5969954,45.005028,0.50651956,
1.7382812240975911,89,-0.050354004,-0.9967041,0.48449707,-0.9863281,0.35253906,0.5361328,0.0,0.0,0.0,0.0,0.0,0.0,0.0,0.0,0.0,0.0,0.0,-0.14588773,-0.03041721,0.98883575,1.4014893,-0.15948486,0.06793213,1.3291016,2.0273438,0.115234375,17.478218,-3.020328,-0.6297305,20.471968,-1.1253662,-0.38391113,-0.39611816,-0.016601562,2.0419922,-0.421875,23.835907,13.144606,-54.76455,28.042263,0.17486572,0.9920654,0.7288208,-0.8125,0.032226562,2.524414,12.804044,7.593652,-126.5247,25.687714,0.0,0.0,0.0,0.0,0.0,0.0,0.0,24.870754,-127.04141,35.755135,0.0,0.0,0.0,0.0,0.0,0.0,0.0,0.14588773,0.03041721,-0.98883575,-0.8319092,0.3279419,-0.284729,-1.6269531,-0.109375,-0.3642578,7.573156,3.020328,0.6297305,-20.471968,-0.97528076,0.24090576,-0.23937988,-0.6015625,0.2841797,0.13183594,6.127879,4.5155163,-56.040817,-14.454155,-0.520813,0.6333618,0.58044434,-0.4296875,-0.08691406,-0.140625,11.068771,-0.30428696,-127.37579,-5.798423,0.0,0.0,0.0,0.0,0.0,0.0,0.0,16.387356,-124.97858,4.9523764,0.0,0.0,0.0,0.0,0.0,0.0,0.0,-1.3288037,44.964813,1.1871011,
1.7578124738065528,90,-0.052978516,-1.1135864,0.447937,-0.60839844,0.2734375,0.33007812,0.0,0.0,0.0,0.0,0.0,0.0,0.0,0.0,0.0,0.0,0.0,-0.14581075,-0.045943443,0.9883221,1.3380737,-0.08074951,-0.7453613,-0.29785156,2.0234375,-0.08886719,19.392075,-3.0187337,-0.95117164,20.46133,-1.3320923,-0.2770996,-0.3826294,0.5292969,1.2207031,-0.3642578,27.580807,14.816967,-54.43053,28.895721,-0.08886719,1.4248657,0.6072998,-1.7119141,-0.2548828,2.140625,14.652728,7.1326857,-125.970184,25.955162,0.0,0.0,0.0,0.0,0.0,0.0,0.0,24.143093,-126.83947,36.442524,0.0,0.0,0.0,0.0,0.0,0.0,0.0,0.14581075,0.045943443,-0.9883221,-0.84521484,-0.0020751953,-0.2401123,-0.7011719,0.43945312,-0.31835938,8.448385,3.0187337,0.95117164,-20.46133,-1.0389404,0.09881592,-0.24920654,-0.734375,0.20703125,0.11230469,6.582847,4.369272,-55.717796,-14.427289,-0.5922241,0.6081543,0.6798706,-0.57910156,-0.123046875,-0.2685547,10.670976,-1.1499577,-126.92877,-5.2435436,0.0,0.0,0.0,0.0,0.0,0.0,0.0,15.52754,-124.64775,5.557317,0.0,0.0,0.0,0.0,0.0,0.0,0.0,-1.8114913,44.93005,1.8213761,
1.7773437235155145,91,-0.13323975,-1.1929321,0.4810791,-0.5126953,0.08886719,0.10546875,0.0,0.0,0.0,0.0,0.0,0.0,0.0,0.0,0.0,0.0,0.0,-0.14550087,-0.054860055,0.9878807,0.9511719,0.02166748,-0.9343872,0.20898438,2.459961,-0.37109375,21.68526,-3.0123184,-1.1357732,20.452194,-1.1155396,-0.1765747,-0.3875122,0.7246094,0.875,-0.4140625,31.435823,17.124474,-53.68217,29.57395,-0.54022217,1.0075073,0.8272705,-1.7861328,-0.44433594,1.65625,15.859095,7.988617,-125.01994,25.954117,0.0,0.0,0.0,0.0,0.0,0.0,0.0,24.866447,-126.27471,36.61512,0.0,0.0,0.0,0.0,0.0,0.0,0.0,0.14550087,0.054860055,-0.9878807,-0.8994751,-0.116882324,-0.38842773,-0.29882812,0.7607422,0.044921875,8.7744255,3.0123184,1.1357732,-20.452194,-1.0134888,-0.00982666,-0.1706543,-0.5449219,0.18945312,0.07421875,6.239322,3.5847955,-55.580765,-14.767696,-0.5477295,0.5420532,0.69311523,-0.052734375,-0.2734375,-0.1484375,10.038677,-2.363525,-126.73939,-5.4506063,0.0,0.0,0.0,0.0,0.0,0.0,0.0,14.364807,-124.59073,5.2974176,0.0,0.0,0.0,0.0,0.0,0.0,0.0,-2.212847,44.89527,2.1672516,
1.7968749732244762,92,-0.089538574,-1.0755005,0.4498291,0.18457031,-0.119140625,-0.0087890625,0.0,0.0,0.0,0.0,0.0,0.0,0.0,0.0,0.0,0.0,0.0,-0.14653757,-0.055706285,0.98782176,0.7595825,-0.00970459,-0.034057617,-0.47265625,2.084961,-0.47753906,23.725204,-3.0337808,-1.1532928,20.450974,-1.0390625,-0.06317139,-0.35357666,0.8046875,0.15234375,-0.40429688,34.40685,19.192629,-52.772785,29.967651,-0.38739014,1.1567383,0.8753662,-0.83496094,0.2890625,0.41015625,16.891272,9.455742,-123.99159,25.584034,0.0,0.0,0.0,0.0,0.0,0.0,0.0,26.272282,-125.39072,36.32466,0.0,0.0,0.0,0.0,0.0,0.0,0.0,0.14653757,0.055706285,-0.98782176,-0.91412354,0.014709473,-0.2816162,0.09082031,0.60058594,0.43945312,9.070776,3.0337808,1.1532928,-20.450974,-0.99957275,0.0029907227,-0.070007324,0.060546875,0.08300781,0.055664062,5.5859156,2.9370017,-55.56415,-14.740015,-0.53564453,0.553772,0.66223145,-0.08984375,-0.32910156,-0.22265625,9.670709,-3.083716,-126.75514,-5.686306,0.0,0.0,0.0,0.0,0.0,0.0,0.0,13.708708,-124.64065,4.9693527,0.0,0.0,0.0,0.0,0.0,0.0,0.0,-2.343176,44.894154,2.184122,
1.816406222933438,93,-0.036254883,-0.9055176,0.3399048,0.29785156,-0.17480469,-0.046875,0.0,0.0,0.0,0.0,0.0,0.0,0.0,0.0,0.0,0.0,0.0,-0.15759563,-0.05114385,0.9859108,0.78686523,0.22698975,0.18554688,-0.63183594,1.2070312,-0.28222656,25.258183,-3.2627182,-1.0588362,20.41141,-1.027771,0.01739502,-0.36706543,0.6328125,-0.46777344,-0.24804688,36.114143,20.679733,-51.914608,29.918194,-0.78045654,0.6855469,0.8519287,-0.6582031,0.65625,-0.18164062,17.230825,11.278304,-123.132706,24.907745,0.0,0.0,0.0,0.0,0.0,0.0,0.0,28.16285,-124.32142,35.568558,0.0,0.0,0.0,0.0,0.0,0.0,0.0,0.15759563,0.05114385,-0.9859108,-0.9083252,0.12878418,-0.20922852,0.6982422,0.6894531,0.55371094,9.252682,3.2627182,1.0588362,-20.41141,-0.95495605,0.1918335,-0.049682617,0.00390625,0.15820312,0.07519531,5.0737357,2.7337463,-55.619186,-14.376265,-0.48754883,0.5742798,0.626709,-0.24023438,-0.34765625,-0.33203125,9.273897,-3.2118962,-126.78403,-5.100338,0.0,0.0,0.0,0.0,0.0,0.0,0.0,13.64116,-124.71947,5.4679375,0.0,0.0,0.0,0.0,0.0,0.0,0.0,-2.3140938,44.88586,1.9585388,
1.8359374726423996,94,-0.012878418,-0.890625,0.4107666,0.22265625,-0.19238281,-0.083984375,0.0,0.0,0.0,0.0,0.0,0.0,0.0,0.0,0.0,0.0,0.0,-0.16821551,-0.04541683,0.9845496,0.8378296,0.29040527,-0.057128906,-0.52441406,0.86035156,-0.01953125,26.000475,-3.4825828,-0.9402691,20.383228,-0.8586426,0.019836426,-0.34906006,0.11328125,-1.3203125,-0.09472656,36.21057,21.469995,-51.30458,29.874535,-0.47680664,0.69104004,0.9100952,-0.01953125,1.0986328,-0.48046875,17.14548,13.397385,-122.67901,24.771534,0.0,0.0,0.0,0.0,0.0,0.0,0.0,30.347185,-123.507416,35.360065,0.0,0.0,0.0,0.0,0.0,0.0,0.0,0.16821551,0.04541683,-0.9845496,-0.875,0.29455566,-0.2368164,0.47265625,0.6542969,0.34570312,9.603163,3.4825828,0.9402691,-20.383228,-0.9465332,0.07879639,-0.01586914,-0.29882812,0.26953125,0.07421875,4.6225796,2.5044773,-55.675293,-13.832731,-0.49621582,0.5397339,0.60668945,-0.5205078,-0.4404297,-0.4404297,8.517905,-3.5081017,-126.80951,-4.32024,0.0,0.0,0.0,0.0,0.0,0.0,0.0,13.39285,-124.86071,6.1938534,0.0,0.0,0.0,0.0,0.0,0.0,0.0,-2.3896768,44.898895,1.6628768,
1.8554687223513613,95,0.0064697266,-0.8703613,0.41558838,0.16601562,-0.19238281,-0.13964844,0.0,0.0,0.0,0.0,0.0,0.0,0.0,0.0,0.0,0.0,0.0,-0.17671868,-0.037638113,0.9835516,0.8569336,0.23602295,-0.13323975,-0.40625,0.9345703,0.072265625,26.447914,-3.6586246,-0.77922577,20.36257,-0.93322754,-0.122802734,-0.3642578,-0.19433594,-1.9814453,0.060546875,35.31677,22.11477,-50.778664,29.601334,-0.2659912,0.67303467,0.89227295,-0.07128906,1.4824219,-0.56933594,16.68014,16.310913,-122.36948,24.407206,0.0,0.0,0.0,0.0,0.0,0.0,0.0,33.323135,-122.65655,34.926105,0.0,0.0,0.0,0.0,0.0,0.0,0.0,0.17671868,0.037638113,-0.9835516,-0.8466797,0.3560791,-0.28564453,0.076171875,0.640625,0.119140625,10.048175,3.6586246,0.77922577,-20.36257,-0.94958496,0.05670166,-0.055847168,-0.015625,0.27246094,0.11328125,4.0689044,2.137899,-55.743023,-13.136135,-0.47955322,0.60961914,0.57733154,-1.0644531,-0.43945312,-0.61816406,7.838394,-3.9413996,-126.866974,-3.6099377,0.0,0.0,0.0,0.0,0.0,0.0,0.0,12.998681,-125.075714,6.8680887,0.0,0.0,0.0,0.0,0.0,0.0,0.0,-2.4374583,44.91613,1.2808824,
1.874999972060323,96,-0.033203125,-0.8352051,0.42645264,0.015625,-0.20996094,-0.15722656,0.0,0.0,0.0,0.0,0.0,0.0,0.0,0.0,0.0,0.0,0.0,-0.18405822,-0.031871982,0.98230404,0.9282837,0.1607666,-0.04321289,-0.8613281,0.97558594,0.23828125,26.922665,-3.8105774,-0.6598489,20.336739,-0.9641113,-0.09411621,-0.2833252,-0.13378906,-2.5029297,0.2578125,33.870865,22.860409,-50.238674,29.313808,-0.107666016,0.6548462,0.76623535,-0.59277344,1.5576172,-0.24707031,16.447226,20.159025,-122.01854,24.12437,0.0,0.0,0.0,0.0,0.0,0.0,0.0,37.171925,-121.42198,34.620953,0.0,0.0,0.0,0.0,0.0,0.0,0.0,0.18405822,0.031871982,-0.98230404,-0.8131714,0.28326416,-0.30749512,-0.26367188,0.6064453,-0.033203125,10.480623,3.8105774,0.6598489,-20.336739,-0.9540405,0.1550293,-0.07092285,0.07910156,0.2734375,0.11328125,3.6345344,1.7401419,-55.790512,-12.649688,-0.65338135,0.44866943,0.736084,-0.9892578,-0.4765625,-0.6376953,6.9385633,-4.485465,-126.868416,-2.855548,0.0,0.0,0.0,0.0,0.0,0.0,0.0,12.496991,-125.397736,7.6062517,0.0,0.0,0.0,0.0,0.0,0.0,0.0,-2.5963745,44.910366,0.97067547,
1.8945312217692847,97,-0.09716797,-0.8120117,0.3723755,0.20410156,-0.15625,-0.046875,0.0,0.0,0.0,0.0,0.0,0.0,0.0,0.0,0.0,0.0,0.0,-0.1902096,-0.027442472,0.98136175,0.90216064,0.03753662,-0.0022583008,-1.3066406,0.76953125,0.29589844,27.767141,-3.937927,-0.56814426,20.31723,-0.9641113,-0.09411621,-0.2833252,-0.13378906,-2.5029297,0.2578125,34.78484,23.678177,-49.663647,29.087917,0.2623291,0.5749512,1.0512085,-0.828125,1.2480469,0.5126953,17.458765,20.976793,-121.44351,23.89848,0.0,0.0,0.0,0.0,0.0,0.0,0.0,37.919624,-120.1555,34.453396,0.0,0.0,0.0,0.0,0.0,0.0,0.0,0.1902096,0.027442472,-0.98136175,-0.923584,0.21191406,-0.26000977,-0.4716797,0.6279297,-0.08984375,10.80551,3.937927,0.56814426,-20.31723,-0.993042,0.08068848,-0.07434082,-0.39257812,0.3828125,0.03515625,3.4727128,1.4090269,-55.80759,-12.255469,-0.56884766,0.5695801,0.6651001,-0.7265625,-0.4580078,-0.49316406,6.045427,-5.181306,-126.80989,-2.1741,0.0,0.0,0.0,0.0,0.0,0.0,0.0,11.875529,-125.58377,8.195771,0.0,0.0,0.0,0.0,0.0,0.0,0.0,-2.5798402,44.919704,0.7560898,
1.9140624714782464,98,-0.071777344,-0.8626709,0.36260986,-0.00390625,-0.115234375,0.13964844,0.0,0.0,0.0,0.0,0.0,0.0,0.0,0.0,0.0,0.0,0.0,-0.19766656,-0.026666917,0.979879,0.8569946,-0.0423584,0.028869629,-1.4072266,0.63671875,0.22363281,28.454336,-4.092311,-0.55208784,20.286533,-0.9641113,-0.09411621,-0.2833252,-0.13378906,-2.5029297,0.2578125,35.574337,24.333462,-49.217632,28.854836,0.9779663,0.897583,1.0630493,-0.22167969,2.6123047,-0.22265625,18.79751,21.632078,-120.9975,23.665398,0.0,0.0,0.0,0.0,0.0,0.0,0.0,38.447693,-119.00142,34.31246,0.0,0.0,0.0,0.0,0.0,0.0,0.0,0.19766656,0.026666917,-0.979879,-0.9238281,0.05987549,-0.24206543,-0.50878906,0.62890625,-0.08984375,11.058308,4.092311,0.55208784,-20.286533,-0.95007324,-0.022094727,-0.03363037,-0.39257812,0.45898438,0.0546875,3.3686574,1.1519439,-55.794056,-12.176064,-0.55529785,0.43969727,0.758667,-0.6699219,-0.4404297,-0.4375,5.254341,-5.8049946,-126.7843,-2.2365952,0.0,0.0,0.0,0.0,0.0,0.0,0.0,11.290106,-125.777374,8.09691,0.0,0.0,0.0,0.0,0.0,0.0,0.0,-2.6529188,44.915257,0.687185,
1.933593721187208,99,-0.035461426,-0.85369873,0.39764404,0.08984375,-0.115234375,0.28808594,0.0,0.0,0.0,0.0,0.0,0.0,0.0,0.0,0.0,0.0,0.0,-0.20934957,-0.028893143,0.9774319,0.8964844,-0.05126953,0.07342529,-1.2177734,0.65527344,0.07519531,29.093891,-4.334186,-0.59817755,20.235872,-1.0385742,0.04711914,-0.15112305,0.390625,-2.6386719,0.4013672,27.995392,24.900246,-48.83793,28.49184,0.26849365,0.5171509,0.87371826,-0.4609375,2.7675781,-0.58984375,15.7078285,33.245274,-120.23013,24.069397,0.0,0.0,0.0,0.0,0.0,0.0,0.0,49.976585,-117.1157,34.580173,0.0,0.0,0.0,0.0,0.0,0.0,0.0,0.20934957,0.028893143,-0.9774319,-0.95336914,0.035339355,-0.19604492,-0.28222656,0.62597656,-0.013671875,11.2453165,4.334186,0.59817755,-20.235872,-0.9621582,0.018676758,-0.008300781,-0.35546875,0.59277344,0.07324219,3.4099598,1.0942647,-55.758022,-12.289685,-0.45513916,0.4788208,0.70336914,-0.6513672,-0.38476562,-0.3623047,4.6888466,-6.3022356,-126.71924,-2.5126572,0.0,0.0,0.0,0.0,0.0,0.0,0.0,10.823646,-125.89338,7.783777,0.0,0.0,0.0,0.0,0.0,0.0,0.0,-2.7829616,44.908703,0.7314487,
1.9531249708961698,100,-0.045654297,-0.8652954,0.39770508,0.14550781,-0.041992188,0.34472656,0.0,0.0,0.0,0.0,0.0,0.0,0.0,0.0,0.0,0.0,0.0,-0.22134563,-0.032318063,0.9746499,0.92419434,-0.07897949,0.2197876,-0.64453125,0.6699219,-0.017578125,30.125092,-4.5825405,-0.669084,20.178274,-0.951416,0.06616211,-0.09643555,0.3125,-2.6054688,0.5136719,26.117651,25.563738,-48.348034,28.401794,0.43475342,0.6157837,0.7877197,-0.2685547,2.1728516,-0.7089844,15.100903,37.51264,-119.26755,24.668959,0.0,0.0,0.0,0.0,0.0,0.0,0.0,54.218475,-115.3028,34.931683,0.0,0.0,0.0,0.0,0.0,0.0,0.0,0.22134563,0.032318063,-0.9746499,-0.91485596,0.041015625,-0.25195312,-0.09375,0.6425781,0.08105469,11.416648,4.5825405,0.669084,-20.178274,-0.9767456,0.05065918,-0.11853027,-0.14648438,0.63378906,0.053710938,3.6043484,1.0478225,-55.698315,-12.426434,-0.5223999,0.4967041,0.70996094,-0.87597656,-0.45898438,-0.41503906,4.5150976,-6.9830327,-126.6073,-2.778902,0.0,0.0,0.0,0.0,0.0,0.0,0.0,10.146597,-125.939095,7.5209236,0.0,0.0,0.0,0.0,0.0,0.0,0.0,-2.8132288,44.9035,0.850047,
1.9726562206051315,101,-0.019897461,-0.8843994,0.3734131,0.08984375,-0.09765625,0.25097656,0.0,0.0,0.0,0.0,0.0,0.0,0.0,0.0,0.0,0.0,0.0,-0.23341683,-0.03481802,0.97165745,0.8751221,-0.18560791,0.34765625,-0.22460938,0.6669922,-0.016601562,31.340092,-4.8324523,-0.7208409,20.116322,-0.8823242,0.07940674,-0.11437988,0.001953125,-2.4277344,0.44921875,24.70375,26.261728,-47.700573,28.793991,0.4519043,0.50286865,0.72210693,-0.6386719,1.6748047,-0.7470703,13.875158,41.59958,-117.99596,25.720852,0.0,0.0,0.0,0.0,0.0,0.0,0.0,58.359253,-113.46787,35.656403,0.0,0.0,0.0,0.0,0.0,0.0,0.0,0.23341683,0.03481802,-0.97165745,-0.802124,0.15045166,-0.35339355,0.11816406,0.7939453,0.13964844,11.991925,4.8324523,0.7208409,-20.116322,-0.9831543,0.15692139,-0.16137695,-0.14746094,0.65234375,0.091796875,3.6093426,0.63913774,-55.59322,-12.330646,-0.5593872,0.46038818,0.74212646,-0.89453125,-0.421875,-0.3779297,4.491,-8.236132,-126.388336,-2.561243,0.0,0.0,0.0,0.0,0.0,0.0,0.0,8.905081,-125.89609,7.7322025,0.0,0.0,0.0,0.0,0.0,0.0,0.0,-2.877398,44.89434,0.91750324,
1.9921874703140932,102,-0.03656006,-0.85339355,0.3423462,-0.00390625,-0.07910156,0.12207031,0.0,0.0,0.0,0.0,0.0,0.0,0.0,0.0,0.0,0.0,0.0,-0.24411872,-0.036642727,0.96897936,0.8098755,-0.27209473,0.2962036,0.17285156,0.5488281,-0.07128906,32.33515,-5.054015,-0.758618,20.060877,-0.94763184,0.005432129,-0.08068848,9.765625E-4,-2.3515625,0.35351562,23.713013,26.810371,-47.05905,29.53595,0.45751953,0.45025635,0.6942749,-0.8496094,1.1738281,-0.17480469,12.636461,45.074726,-116.672356,26.951258,0.0,0.0,0.0,0.0,0.0,0.0,0.0,61.9255,-111.83838,36.57888,0.0,0.0,0.0,0.0,0.0,0.0,0.0,0.24411872,0.036642727,-0.96897936,-0.8496094,0.15826416,-0.40856934,0.19824219,0.9277344,0.16015625,12.92082,5.054015,0.758618,-20.060877,-0.97558594,0.015319824,-0.21844482,-0.4296875,0.72558594,-0.0234375,3.461871,-0.08496761,-55.462673,-12.137063,-0.52667236,0.35784912,0.77508545,-0.5019531,-0.32910156,-0.21582031,4.4481416,-9.944755,-126.12044,-2.3528252,0.0,0.0,0.0,0.0,0.0,0.0,0.0,7.236169,-125.83975,7.8794765,0.0,0.0,0.0,0.0,0.0,0.0,0.0,-3.0669055,44.882633,0.9246152,
2.011718720023055,103,-0.0345459,-0.9303589,0.37225342,-0.041992188,-0.061523438,0.06640625,0.0,0.0,0.0,0.0,0.0,0.0,0.0,0.0,0.0,0.0,0.0,-0.25572807,-0.036583185,0.9658675,0.78448486,-0.21826172,0.22167969,0.6425781,0.35546875,-0.19824219,32.50407,-5.294363,-0.7573853,19.996452,-0.8825073,0.014221191,-0.020385742,0.040039062,-2.2773438,0.3720703,21.980362,26.915865,-46.752857,29.82071,1.1121216,0.40496826,0.98638916,-0.6035156,1.3642578,0.047851562,12.221629,48.261574,-115.495316,27.590414,0.0,0.0,0.0,0.0,0.0,0.0,0.0,65.06906,-110.33032,37.12727,0.0,0.0,0.0,0.0,0.0,0.0,0.0,0.25572807,0.036583185,-0.9658675,-0.93548584,0.06286621,-0.4171753,0.06738281,0.94921875,0.028320312,13.76747,5.294363,0.7573853,-19.996452,-1.0060425,-0.1574707,-0.19689941,-0.35351562,0.74609375,-0.04296875,3.3459728,-0.8352895,-55.374737,-12.149765,-0.5229492,0.35803223,0.8275757,-0.22265625,-0.16210938,-0.107421875,4.884954,-11.733891,-125.94234,-2.8104267,0.0,0.0,0.0,0.0,0.0,0.0,0.0,5.4759464,-125.80335,7.3786564,0.0,0.0,0.0,0.0,0.0,0.0,0.0,-3.3419058,44.860115,0.81430084,
2.0312499697320168,104,0.015563965,-1.012207,0.39831543,-0.00390625,0.12011719,0.12207031,0.0,0.0,0.0,0.0,0.0,0.0,0.0,0.0,0.0,0.0,0.0,-0.2660325,-0.037111677,0.9630518,0.848999,-0.061950684,0.21142578,0.7939453,0.31640625,-0.27148438,32.39979,-5.507698,-0.7683268,19.938156,-0.8583374,0.070739746,-0.049682617,-0.078125,-1.9443359,0.29003906,20.26206,26.86948,-46.594494,29.97527,0.71502686,0.48919678,0.6935425,-0.28222656,2.5566406,-0.7792969,11.593656,50.983814,-114.42375,28.046566,0.0,0.0,0.0,0.0,0.0,0.0,0.0,67.62005,-108.40684,37.38203,0.0,0.0,0.0,0.0,0.0,0.0,0.0,0.2660325,0.037111677,-0.9630518,-0.8204346,-0.015808105,-0.40441895,0.23535156,0.8515625,0.045898438,14.456468,5.507698,0.7683268,-19.938156,-0.9598999,-0.05419922,-0.1673584,0.13671875,0.79003906,0.034179688,3.200634,-1.5137739,-55.306755,-12.491384,-0.5429077,0.37664795,0.7845459,-0.111328125,-0.068359375,-0.10839844,5.504275,-13.336957,-125.802246,-3.7082605,0.0,0.0,0.0,0.0,0.0,0.0,0.0,3.887927,-125.74909,6.457053,0.0,0.0,0.0,0.0,0.0,0.0,0.0,-3.638504,44.83824,0.7227669,
2.0507812194409785,105,0.022155762,-1.0449219,0.41278076,0.22265625,0.28320312,0.19628906,0.0,0.0,0.0,0.0,0.0,0.0,0.0,0.0,0.0,0.0,0.0,-0.26507217,-0.040103186,0.9634354,0.934021,0.11621094,0.17510986,0.47265625,0.4140625,-0.19921875,33.050186,-5.4878154,-0.8302603,19.946098,-0.9544678,0.046813965,-0.015258789,-0.15625,-1.6484375,0.20898438,19.176208,27.237522,-46.38794,30.08222,0.666687,0.22528076,0.5571289,-0.33496094,1.9033203,-0.3955078,10.832691,53.315037,-113.49548,28.530537,0.0,0.0,0.0,0.0,0.0,0.0,0.0,69.821655,-106.74709,37.59369,0.0,0.0,0.0,0.0,0.0,0.0,0.0,0.26507217,0.040103186,-0.9634354,-0.8552246,-0.0028686523,-0.38085938,0.3486328,0.8496094,0.083984375,14.918467,5.4878154,0.8302603,-19.946098,-0.96520996,0.078063965,-0.17810059,0.23144531,0.8105469,0.034179688,3.0063496,-2.3930159,-55.193226,-12.977252,-0.56726074,0.41906738,0.7815552,0.018554688,0.043945312,-0.109375,6.1286473,-15.128289,-125.55112,-4.391776,0.0,0.0,0.0,0.0,0.0,0.0,0.0,2.1299715,-125.540405,5.7154074,0.0,0.0,0.0,0.0,0.0,0.0,0.0,-3.5368843,44.853672,0.89393175,
2.07031246914994,106,-0.016723633,-0.9505615,0.39746094,0.27929688,0.39160156,0.21484375,0.0,0.0,0.0,0.0,0.0,0.0,0.0,0.0,0.0,0.0,0.0,-0.26814815,-0.043681175,0.96229714,0.9772949,0.15185547,0.17480469,-0.017578125,0.55078125,-0.015625,33.7152,-5.551498,-0.90433574,19.922535,-0.8184204,0.020507812,0.023071289,-0.23535156,-1.4658203,0.22460938,18.07353,27.633137,-46.158283,29.958328,0.8133545,0.38415527,0.5324707,-0.5449219,1.8828125,-0.115234375,9.530153,55.683807,-112.477356,28.729689,0.0,0.0,0.0,0.0,0.0,0.0,0.0,72.30188,-105.649414,37.49661,0.0,0.0,0.0,0.0,0.0,0.0,0.0,0.26814815,0.043681175,-0.96229714,-0.85705566,0.13293457,-0.432312,0.328125,0.8300781,0.140625,15.587567,5.551498,0.90433574,-19.922535,-0.97698975,0.117370605,-0.2244873,0.099609375,0.9042969,0.052734375,3.063691,-3.121776,-55.013947,-13.049038,-0.5360718,0.38360596,0.8023071,0.09277344,0.17480469,-0.11035156,6.71808,-16.941164,-125.166695,-4.4391327,0.0,0.0,0.0,0.0,0.0,0.0,0.0,0.3418522,-125.21864,5.6267357,0.0,0.0,0.0,0.0,0.0,0.0,0.0,-3.4592469,44.850132,1.0719309,
2.089843718858902,107,-0.051452637,-0.9213257,0.39831543,0.29785156,0.3544922,0.140625,0.0,0.0,0.0,0.0,0.0,0.0,0.0,0.0,0.0,0.0,0.0,-0.271237,-0.046451084,0.9610915,0.9135742,0.08892822,0.2241211,-0.3408203,0.57128906,0.076171875,34.626163,-5.6154466,-0.96168137,19.897573,-0.8197632,-0.07165527,9.765625E-4,-0.16015625,-0.8857422,0.0859375,17.517258,28.211329,-45.764496,29.809393,0.75598145,0.2538452,0.43725586,-0.70410156,1.4794922,0.049804688,8.464107,57.747967,-111.43517,28.776691,0.0,0.0,0.0,0.0,0.0,0.0,0.0,74.52823,-104.65612,37.26348,0.0,0.0,0.0,0.0,0.0,0.0,0.0,0.271237,0.046451084,-0.9610915,-0.84490967,0.16052246,-0.46954346,0.2861328,0.6767578,0.119140625,16.256733,5.6154466,0.96168137,-19.897573,-0.9873047,0.07299805,-0.25372314,0.099609375,0.9609375,-0.0048828125,3.3281965,-3.7908359,-54.83108,-12.930489,-0.6100464,0.36602783,0.8116455,0.22265625,0.3046875,-0.111328125,7.417434,-18.835463,-124.739075,-4.3866014,0.0,0.0,0.0,0.0,0.0,0.0,0.0,-1.5100002,-124.871086,5.603402,0.0,0.0,0.0,0.0,0.0,0.0,0.0,-3.3475094,44.845654,1.2227356,
2.1093749685678636,108,-0.059692383,-0.9359131,0.39038086,0.22363281,0.3359375,0.029296875,0.0,0.0,0.0,0.0,0.0,0.0,0.0,0.0,0.0,0.0,0.0,-0.2744416,-0.048509136,0.96015334,0.83599854,0.050109863,0.23071289,-0.23242188,0.39941406,0.041992188,35.26913,-5.6817927,-1.0042895,19.87815,-0.8209839,-0.12390137,-0.03387451,0.16796875,-0.5234375,0.068359375,17.448744,28.669827,-45.415348,29.750538,0.9151001,0.32977295,0.38061523,-0.8955078,0.8847656,0.12011719,8.151385,59.069683,-110.69313,28.670141,0.0,0.0,0.0,0.0,0.0,0.0,0.0,76.11273,-104.25717,36.889164,0.0,0.0,0.0,0.0,0.0,0.0,0.0,0.2744416,0.048509136,-0.96015334,-0.8579712,0.15844727,-0.5050049,0.5517578,0.6748047,0.08203125,16.892128,5.6817927,1.0042895,-19.87815,-1.0385742,4.8828125E-4,-0.21917725,0.23339844,0.88671875,-0.099609375,3.55936,-4.4120564,-54.669502,-12.972254,-0.5272827,0.413208,0.81036377,0.3125,0.6220703,-0.12988281,8.222588,-20.572466,-124.35991,-4.7204733,0.0,0.0,0.0,0.0,0.0,0.0,0.0,-3.232298,-124.530365,5.2445984,0.0,0.0,0.0,0.0,0.0,0.0,0.0,-3.3550866,44.84592,1.3067303,
2.1289062182768252,109,-0.031555176,-1.0093384,0.40014648,0.18554688,0.28027344,-0.044921875,0.0,0.0,0.0,0.0,0.0,0.0,0.0,0.0,0.0,0.0,0.0,-0.27920732,-0.049297348,0.95868176,0.8565674,0.0012207031,0.31121826,-0.04296875,0.32128906,0.060546875,35.635654,-5.7804575,-1.0206082,19.847683,-0.7600708,-0.13562012,-0.14208984,0.5917969,0.064453125,0.087890625,17.69077,28.924934,-45.143898,29.777893,1.0217285,0.22064209,0.31799316,-1.078125,0.57714844,0.17480469,8.644224,59.604156,-110.288704,28.623724,0.0,0.0,0.0,0.0,0.0,0.0,0.0,76.91618,-104.26607,36.58938,0.0,0.0,0.0,0.0,0.0,0.0,0.0,0.27920732,0.049297348,-0.95868176,-0.9191284,0.12902832,-0.48864746,0.8359375,0.6533203,0.043945312,17.45337,5.7804575,1.0206082,-19.847683,-1.0823364,0.008544922,-0.19299316,0.47851562,0.9658203,-0.08105469,3.6881733,-5.006912,-54.562828,-13.213259,-0.505188,0.40625,0.80584717,0.47753906,0.8847656,-0.22460938,8.902275,-22.178276,-124.05833,-5.3831344,0.0,0.0,0.0,0.0,0.0,0.0,0.0,-4.827532,-124.3053,4.55996,0.0,0.0,0.0,0.0,0.0,0.0,0.0,-3.4286633,44.837902,1.3070884,
