TOTAL_TIME,0m8s
TOTAL_FRAMES,414
SELECTED_FRAMES,414
NO_OF_JOINTS,12
FREQUENCY,51.2
DESCRIPTION,Capture 14
TIME_STAMP,Jul 8, 2010

Time,Frame,Pelvis_accelX_Pelvis,Pelvis_accelY_Pelvis,Pelvis_accelZ_Pelvis,Pelvis_gyroX_Pelvis,Pelvis_gyroY_Pelvis,Pelvis_gyroZ_Pelvis,Pelvis_Joint angle_Pelvis,Pelvis_Relative pos X_Pelvis,Pelvis_Relative pos Y_Pelvis,Pelvis_Relative pos Z_Pelvis,RightPelvis_accelX_RightPelvis,RightPelvis_accelY_RightPelvis,RightPelvis_accelZ_RightPelvis,RightPelvis_gyroX_RightPelvis,RightPelvis_gyroY_RightPelvis,RightPelvis_gyroZ_RightPelvis,RightPelvis_Joint angle_RightPelvis,RightPelvis_Relative pos X_RightPelvis,RightPelvis_Relative pos Y_RightPelvis,RightPelvis_Relative pos Z_RightPelvis,RightUpLeg_accelX_RightUpLeg,RightUpLeg_accelY_RightUpLeg,RightUpLeg_accelZ_RightUpLeg,RightUpLeg_gyroX_RightUpLeg,RightUpLeg_gyroY_RightUpLeg,RightUpLeg_gyroZ_RightUpLeg,RightUpLeg_Joint angle_RightUpLeg,RightUpLeg_Relative pos X_RightUpLeg,RightUpLeg_Relative pos Y_RightUpLeg,RightUpLeg_Relative pos Z_RightUpLeg,RightLeg_accelX_RightLeg,RightLeg_accelY_RightLeg,RightLeg_accelZ_RightLeg,RightLeg_gyroX_RightLeg,RightLeg_gyroY_RightLeg,RightLeg_gyroZ_RightLeg,RightLeg_Joint angle_RightLeg,RightLeg_Relative pos X_RightLeg,RightLeg_Relative pos Y_RightLeg,RightLeg_Relative pos Z_RightLeg,RightFoot_accelX_RightFoot,RightFoot_accelY_RightFoot,RightFoot_accelZ_RightFoot,RightFoot_gyroX_RightFoot,RightFoot_gyroY_RightFoot,RightFoot_gyroZ_RightFoot,RightFoot_Joint angle_RightFoot,RightFoot_Relative pos X_RightFoot,RightFoot_Relative pos Y_RightFoot,RightFoot_Relative pos Z_RightFoot,RightFootEnd_accelX_RightFootEnd,RightFootEnd_accelY_RightFootEnd,RightFootEnd_accelZ_RightFootEnd,RightFootEnd_gyroX_RightFootEnd,RightFootEnd_gyroY_RightFootEnd,RightFootEnd_gyroZ_RightFootEnd,RightFootEnd_Joint angle_RightFootEnd,RightFootEnd_Relative pos X_RightFootEnd,RightFootEnd_Relative pos Y_RightFootEnd,RightFootEnd_Relative pos Z_RightFootEnd,LeftPelvis_accelX_LeftPelvis,LeftPelvis_accelY_LeftPelvis,LeftPelvis_accelZ_LeftPelvis,LeftPelvis_gyroX_LeftPelvis,LeftPelvis_gyroY_LeftPelvis,LeftPelvis_gyroZ_LeftPelvis,LeftPelvis_Joint angle_LeftPelvis,LeftPelvis_Relative pos X_LeftPelvis,LeftPelvis_Relative pos Y_LeftPelvis,LeftPelvis_Relative pos Z_LeftPelvis,LeftUpLeg_accelX_LeftUpLeg,LeftUpLeg_accelY_LeftUpLeg,LeftUpLeg_accelZ_LeftUpLeg,LeftUpLeg_gyroX_LeftUpLeg,LeftUpLeg_gyroY_LeftUpLeg,LeftUpLeg_gyroZ_LeftUpLeg,LeftUpLeg_Joint angle_LeftUpLeg,LeftUpLeg_Relative pos X_LeftUpLeg,LeftUpLeg_Relative pos Y_LeftUpLeg,LeftUpLeg_Relative pos Z_LeftUpLeg,LeftLeg_accelX_LeftLeg,LeftLeg_accelY_LeftLeg,LeftLeg_accelZ_LeftLeg,LeftLeg_gyroX_LeftLeg,LeftLeg_gyroY_LeftLeg,LeftLeg_gyroZ_LeftLeg,LeftLeg_Joint angle_LeftLeg,LeftLeg_Relative pos X_LeftLeg,LeftLeg_Relative pos Y_LeftLeg,LeftLeg_Relative pos Z_LeftLeg,LeftFoot_accelX_LeftFoot,LeftFoot_accelY_LeftFoot,LeftFoot_accelZ_LeftFoot,LeftFoot_gyroX_LeftFoot,LeftFoot_gyroY_LeftFoot,LeftFoot_gyroZ_LeftFoot,LeftFoot_Joint angle_LeftFoot,LeftFoot_Relative pos X_LeftFoot,LeftFoot_Relative pos Y_LeftFoot,LeftFoot_Relative pos Z_LeftFoot,LeftFootEnd_accelX_LeftFootEnd,LeftFootEnd_accelY_LeftFootEnd,LeftFootEnd_accelZ_LeftFootEnd,LeftFootEnd_gyroX_LeftFootEnd,LeftFootEnd_gyroY_LeftFootEnd,LeftFootEnd_gyroZ_LeftFootEnd,LeftFootEnd_Joint angle_LeftFootEnd,LeftFootEnd_Relative pos X_LeftFootEnd,LeftFootEnd_Relative pos Y_LeftFootEnd,LeftFootEnd_Relative pos Z_LeftFootEnd,Spine_accelX_Spine,Spine_accelY_Spine,Spine_accelZ_Spine,Spine_gyroX_Spine,Spine_gyroY_Spine,Spine_gyroZ_Spine,Spine_Joint angle_Spine,Spine_Relative pos X_Spine,Spine_Relative pos Y_Spine,Spine_Relative pos Z_Spine,
0.0,0,0.0,0.0,0.0,0.0,0.0,0.0,0.0,0.0,0.0,0.0,0.0,0.0,0.0,0.0,0.0,0.0,0.0,0.0,0.0,0.0,0.0,0.0,0.0,0.0,0.0,0.0,NaN,0.0,0.0,0.0,0.0,0.0,0.0,0.0,0.0,0.0,NaN,0.0,0.0,0.0,0.0,0.0,0.0,0.0,0.0,0.0,NaN,0.0,0.0,0.0,0.0,0.0,0.0,0.0,0.0,0.0,0.0,0.0,0.0,0.0,0.0,0.0,0.0,0.0,0.0,0.0,0.0,0.0,0.0,0.0,0.0,0.0,0.0,0.0,0.0,0.0,NaN,0.0,0.0,0.0,0.0,0.0,0.0,0.0,0.0,0.0,NaN,0.0,0.0,0.0,0.0,0.0,0.0,0.0,0.0,0.0,NaN,0.0,0.0,0.0,0.0,0.0,0.0,0.0,0.0,0.0,0.0,0.0,0.0,0.0,0.0,0.0,0.0,0.0,0.0,0.0,0.0,0.0,0.0,0.0,
0.0195312497089617,1,0.0,0.0,0.0,0.0,0.0,0.0,0.0,0.0,0.0,0.0,0.0,0.0,0.0,0.0,0.0,0.0,0.0,0.0,0.0,0.0,0.0,0.0,0.0,0.0,0.0,0.0,NaN,0.0,0.0,0.0,0.0,0.0,0.0,0.0,0.0,0.0,NaN,0.0,0.0,0.0,0.0,0.0,0.0,0.0,0.0,0.0,NaN,0.0,0.0,0.0,0.0,0.0,0.0,0.0,0.0,0.0,0.0,0.0,0.0,0.0,0.0,0.0,0.0,0.0,0.0,0.0,0.0,0.0,0.0,0.0,0.0,0.0,0.0,0.0,0.0,0.0,NaN,0.0,0.0,0.0,0.0,0.0,0.0,0.0,0.0,0.0,NaN,0.0,0.0,0.0,0.0,0.0,0.0,0.0,0.0,0.0,NaN,0.0,0.0,0.0,0.0,0.0,0.0,0.0,0.0,0.0,0.0,0.0,0.0,0.0,0.0,0.0,0.0,0.0,0.0,0.0,0.0,0.0,0.0,0.0,
0.0390624994179234,2,0.0,0.0,0.0,0.0,0.0,0.0,0.0,0.0,0.0,0.0,0.0,0.0,0.0,0.0,0.0,0.0,0.0,0.0,0.0,0.0,0.0,0.0,0.0,0.0,0.0,0.0,NaN,0.0,0.0,0.0,0.0,0.0,0.0,0.0,0.0,0.0,NaN,0.0,0.0,0.0,0.0,0.0,0.0,0.0,0.0,0.0,NaN,0.0,0.0,0.0,0.0,0.0,0.0,0.0,0.0,0.0,0.0,0.0,0.0,0.0,0.0,0.0,0.0,0.0,0.0,0.0,0.0,0.0,0.0,0.0,0.0,0.0,0.0,0.0,0.0,0.0,NaN,0.0,0.0,0.0,0.0,0.0,0.0,0.0,0.0,0.0,NaN,0.0,0.0,0.0,0.0,0.0,0.0,0.0,0.0,0.0,NaN,0.0,0.0,0.0,0.0,0.0,0.0,0.0,0.0,0.0,0.0,0.0,0.0,0.0,0.0,0.0,0.0,0.0,0.0,0.0,0.0,0.0,0.0,0.0,
0.0585937491268851,3,-0.045898438,-0.82299805,0.5749512,-0.00390625,-0.043945312,0.0107421875,0.0,0.0,0.0,0.0,0.0,0.0,0.0,0.0,0.0,0.0,0.0,0.06234491,0.054853708,-0.99669105,0.8237915,0.10144043,-0.5241699,0.0625,0.034179688,0.0087890625,3.3733618,1.2907337,1.1356418,-20.634596,-0.98101807,-0.07897949,-0.23596191,0.030273438,0.06738281,0.040039062,5.3394628,5.683509,-55.6835,-21.95985,0.45977783,0.4753418,0.7229614,-0.056640625,0.022460938,0.046875,18.597456,7.8322277,-127.48036,-16.889507,0.0,0.0,0.0,0.0,0.0,0.0,0.0,-11.074533,-127.8661,-10.369844,0.0,0.0,0.0,0.0,0.0,0.0,0.0,-0.06234491,-0.054853708,0.99669105,-0.9552002,0.07824707,-0.24206543,-0.10546875,0.61816406,1.0615234,9.767244,-1.2907337,-1.1356418,20.634596,-0.98480225,-0.0021362305,-0.21057129,-0.016601562,0.50097656,0.2841797,14.853486,-9.168345,-57.58561,20.026691,-0.53601074,0.40716553,0.76190186,-0.09375,0.0625,-0.107421875,9.754171,-3.6940455,-128.74055,10.4000225,0.0,0.0,0.0,0.0,0.0,0.0,0.0,-23.048546,-128.69516,15.430499,0.0,0.0,0.0,0.0,0.0,0.0,0.0,-1.1905034,44.926792,2.3981147,
0.0781249988358468,4,-0.062194824,-0.83929443,0.55041504,-0.00390625,-0.0078125,0.029296875,0.0,0.0,0.0,0.0,0.0,0.0,0.0,0.0,0.0,0.0,0.0,0.058660775,0.05430404,-0.99696946,0.8417969,0.08959961,-0.50341797,0.041015625,-0.041992188,0.009765625,3.377538,1.2144597,1.124262,-20.640356,-0.9840088,-0.06756592,-0.25476074,0.049804688,0.048828125,0.059570312,5.2677865,5.56042,-55.69714,-21.977755,0.43988037,0.50390625,0.72802734,-0.0390625,0.041992188,0.028320312,18.564756,7.7172694,-127.507385,-16.991165,0.0,0.0,0.0,0.0,0.0,0.0,0.0,-11.191708,-127.88794,-10.477804,0.0,0.0,0.0,0.0,0.0,0.0,0.0,-0.058660775,-0.05430404,0.99696946,-0.9614868,0.07421875,-0.23425293,-0.10644531,0.50390625,0.8154297,9.265692,-1.2144597,-1.124262,20.640356,-0.96868896,-0.014038086,-0.20080566,-0.07128906,0.119140625,0.07519531,14.392183,-8.884846,-57.582157,18.91531,-0.5742798,0.42694092,0.76885986,-0.09375,0.0625,-0.08886719,9.897834,-3.2027702,-128.68936,9.061684,0.0,0.0,0.0,0.0,0.0,0.0,0.0,-22.551094,-128.67888,14.115971,0.0,0.0,0.0,0.0,0.0,0.0,0.0,-1.1339184,44.930298,2.3805947,
0.09765624854480849,5,-0.025878906,-0.8243408,0.5687256,-0.041015625,0.0107421875,0.029296875,0.0,0.0,0.0,0.0,0.0,0.0,0.0,0.0,0.0,0.0,0.0,0.05435446,0.053930447,-0.9972152,0.8580322,0.09625244,-0.5085449,0.0390625,-0.099609375,0.0107421875,3.412772,1.1253059,1.1165274,-20.645447,-0.97784424,-0.025634766,-0.23474121,0.0107421875,0.048828125,0.040039062,5.1638393,5.4419622,-55.70956,-21.977234,0.4317627,0.4993286,0.7102661,-0.057617188,0.041992188,0.047851562,18.514608,7.580064,-127.52417,-17.11657,0.0,0.0,0.0,0.0,0.0,0.0,0.0,-11.331834,-127.88887,-10.607991,0.0,0.0,0.0,0.0,0.0,0.0,0.0,-0.05435446,-0.053930447,0.9972152,-0.9324951,0.06213379,-0.29418945,-0.14453125,0.3330078,0.45410156,8.880621,-1.1253059,-1.1165274,20.645447,-0.9747925,-0.035217285,-0.2218628,-0.07128906,0.119140625,0.037109375,14.022597,-8.561902,-57.57776,18.165768,-0.546875,0.40515137,0.7402954,-0.037109375,0.061523438,0.0029296875,10.026641,-2.7002969,-128.66388,8.240867,0.0,0.0,0.0,0.0,0.0,0.0,0.0,-22.043863,-128.69061,13.309488,0.0,0.0,0.0,0.0,0.0,0.0,0.0,-1.0760888,44.931377,2.3712826,
0.11718749825377019,6,-0.049560547,-0.8691406,0.5667114,-0.00390625,0.0107421875,0.0107421875,0.0,0.0,0.0,0.0,0.0,0.0,0.0,0.0,0.0,0.0,0.0,0.05017355,0.053528406,-0.9975345,0.8500366,0.057495117,-0.4975586,0.022460938,-0.00390625,0.02734375,3.4159257,1.0387475,1.108204,-20.652056,-0.96899414,-0.06347656,-0.22283936,0.0107421875,0.047851562,0.078125,5.095584,5.293435,-55.72139,-21.97513,0.4486084,0.4607544,0.7307129,-0.056640625,0.00390625,0.028320312,18.412155,7.3998013,-127.54771,-17.176073,0.0,0.0,0.0,0.0,0.0,0.0,0.0,-11.512552,-127.900925,-10.670223,0.0,0.0,0.0,0.0,0.0,0.0,0.0,-0.05017355,-0.053528406,0.9975345,-0.93200684,0.053344727,-0.25585938,-0.16699219,0.06640625,0.036132812,8.676159,-1.0387475,-1.108204,20.652056,-0.982666,0.004760742,-0.22747803,-0.033203125,0.12011719,0.037109375,13.970706,-8.352362,-57.577705,17.952826,-0.53533936,0.4475708,0.7662964,9.765625E-4,0.061523438,0.021484375,10.213554,-2.320341,-128.63812,7.956506,0.0,0.0,0.0,0.0,0.0,0.0,0.0,-21.662273,-128.67604,13.0322075,0.0,0.0,0.0,0.0,0.0,0.0,0.0,-1.0217702,44.936775,2.3599463,
0.1367187479627319,7,-0.07458496,-0.86260986,0.5325928,0.034179688,-0.026367188,0.029296875,0.0,0.0,0.0,0.0,0.0,0.0,0.0,0.0,0.0,0.0,0.0,0.046282858,0.052943155,-0.9976754,0.82244873,0.079956055,-0.49328613,0.022460938,-0.0234375,0.046875,3.4477599,0.9581996,1.0960873,-20.654972,-0.96899414,-0.07165527,-0.21398926,-0.0087890625,0.047851562,0.05859375,5.035478,5.176593,-55.73948,-21.945496,0.4517212,0.4763794,0.72784424,-0.037109375,0.0029296875,0.046875,18.345825,7.282364,-127.56732,-17.16719,0.0,0.0,0.0,0.0,0.0,0.0,0.0,-11.632414,-127.91296,-10.669361,0.0,0.0,0.0,0.0,0.0,0.0,0.0,-0.046282858,-0.052943155,0.9976754,-0.9429321,0.062805176,-0.27160645,-0.1484375,0.02734375,0.03515625,8.576545,-0.9581996,-1.0960873,20.654972,-0.98168945,-0.010681152,-0.24450684,-0.034179688,0.12011719,0.07519531,14.099682,-8.241677,-57.56472,17.959679,-0.5472412,0.43670654,0.75354004,0.01953125,0.061523438,0.001953125,10.350736,-2.0248423,-128.60114,7.8958416,0.0,0.0,0.0,0.0,0.0,0.0,0.0,-21.368523,-128.64807,12.96755,0.0,0.0,0.0,0.0,0.0,0.0,0.0,-0.9673913,44.93551,2.3396928,
0.1562499976716936,8,-0.05267334,-0.8737793,0.5272217,0.034179688,-0.026367188,0.029296875,0.0,0.0,0.0,0.0,0.0,0.0,0.0,0.0,0.0,0.0,0.0,0.040533602,0.051590547,-0.9979986,0.8510132,0.09838867,-0.5084839,0.061523438,-0.00390625,0.02734375,3.4519026,0.83917195,1.0680844,-20.661665,-0.96899414,-0.07165527,-0.21398926,-0.0087890625,0.047851562,0.05859375,5.0008864,4.9983997,-55.772476,-21.939585,0.43377686,0.49212646,0.7416992,-0.038085938,0.022460938,0.028320312,18.346443,7.104171,-127.60032,-17.161278,0.0,0.0,0.0,0.0,0.0,0.0,0.0,-11.811074,-127.92834,-10.664627,0.0,0.0,0.0,0.0,0.0,0.0,0.0,-0.040533602,-0.051590547,0.9979986,-0.9489136,0.08227539,-0.24694824,-0.14941406,0.0087890625,0.016601562,8.498794,-0.83917195,-1.0680844,20.661665,-0.98376465,-0.012634277,-0.24255371,-0.07128906,0.119140625,0.037109375,14.291289,-8.140558,-57.538597,17.982075,-0.56121826,0.42199707,0.7685547,-0.037109375,0.061523438,0.0029296875,10.58989,-1.7365189,-128.54082,7.8152027,0.0,0.0,0.0,0.0,0.0,0.0,0.0,-21.075516,-128.59029,12.907715,0.0,0.0,0.0,0.0,0.0,0.0,0.0,-0.89350015,44.93986,2.286832,
0.1757812473806553,9,-0.059265137,-0.8452759,0.5592041,0.052734375,-0.026367188,0.046875,0.0,0.0,0.0,0.0,0.0,0.0,0.0,0.0,0.0,0.0,0.0,0.03685686,0.050354064,-0.99817604,0.86291504,0.09539795,-0.5215454,0.022460938,-0.0234375,0.028320312,3.4383771,0.7630513,1.0424852,-20.665339,-0.9690552,-0.07891846,-0.23382568,0.0107421875,0.0859375,0.020507812,4.924776,4.8652697,-55.800064,-21.925684,0.4539795,0.5024414,0.7575073,-0.0390625,0.041992188,0.028320312,18.094149,6.924343,-127.633965,-17.217215,0.0,0.0,0.0,0.0,0.0,0.0,0.0,-11.988216,-127.94505,-10.710771,0.0,0.0,0.0,0.0,0.0,0.0,0.0,-0.03685686,-0.050354064,0.99817604,-0.9277954,0.049743652,-0.27752686,-0.111328125,0.0078125,0.03515625,8.396951,-0.7630513,-1.0424852,20.665339,-0.98986816,-0.018371582,-0.246521,-0.034179688,0.08203125,0.07519531,14.456755,-8.030144,-57.513874,17.991646,-0.5326538,0.38043213,0.7347412,9.765625E-4,0.061523438,0.0029296875,10.881842,-1.3821454,-128.49011,7.7721424,0.0,0.0,0.0,0.0,0.0,0.0,0.0,-20.720516,-128.54811,12.861357,0.0,0.0,0.0,0.0,0.0,0.0,0.0,-0.84129727,44.942154,2.236091,
0.19531249708961698,10,-0.07385254,-0.8125,0.5567627,0.09082031,-0.0078125,0.083984375,0.0,0.0,0.0,0.0,0.0,0.0,0.0,0.0,0.0,0.0,0.0,0.0354082,0.050347604,-0.99831796,0.84332275,0.10095215,-0.4794922,0.041015625,-0.0234375,0.009765625,3.3054714,0.7330591,1.0423515,-20.668276,-0.9848633,-0.029418945,-0.21209717,-0.0087890625,0.029296875,0.040039062,4.8391814,4.7672787,-55.809113,-21.90405,0.44073486,0.48132324,0.7357788,-9.765625E-4,0.060546875,0.028320312,17.932703,6.7854304,-127.64553,-17.260944,0.0,0.0,0.0,0.0,0.0,0.0,0.0,-12.128681,-127.945656,-10.755384,0.0,0.0,0.0,0.0,0.0,0.0,0.0,-0.0354082,-0.050347604,0.99831796,-0.9490967,0.07043457,-0.25195312,-0.07128906,0.08496094,0.055664062,8.435311,-0.7330591,-1.0423515,20.668276,-0.9837036,-0.0028686523,-0.24743652,-0.0146484375,0.024414062,0.07519531,14.522,-7.945644,-57.525887,18.014975,-0.55718994,0.42785645,0.7546387,0.01953125,0.080078125,0.021484375,10.965749,-1.1570773,-128.48578,7.780102,0.0,0.0,0.0,0.0,0.0,0.0,0.0,-20.498936,-128.57074,12.856717,0.0,0.0,0.0,0.0,0.0,0.0,0.0,-0.9150143,44.944817,2.234223,
0.21484374679857868,11,-0.037475586,-0.7895508,0.5455322,0.034179688,-0.0078125,0.047851562,0.0,0.0,0.0,0.0,0.0,0.0,0.0,0.0,0.0,0.0,0.0,0.035665005,0.050637767,-0.99821323,0.87854004,0.07714844,-0.52368164,0.022460938,-0.0234375,0.028320312,3.2284663,0.7383771,1.0483588,-20.66611,-0.97003174,-0.07879639,-0.20605469,-0.046875,0.028320312,0.05859375,4.7901106,4.7206583,-55.802094,-21.89987,0.42462158,0.4675293,0.7612915,0.001953125,0.0029296875,0.06542969,17.603205,6.6536093,-127.64638,-17.327309,0.0,0.0,0.0,0.0,0.0,0.0,0.0,-12.26093,-127.93555,-10.823611,0.0,0.0,0.0,0.0,0.0,0.0,0.0,-0.035665005,-0.050637767,0.99821323,-0.98101807,0.06665039,-0.2421875,-0.051757812,0.103515625,0.017578125,8.372899,-0.7383771,-1.0483588,20.66611,-1.024353,-0.005432129,-0.23626709,-0.109375,0.08105469,0.017578125,14.514138,-7.841833,-57.5473,18.07968,-0.5090332,0.42871094,0.7397461,0.0,0.11816406,0.0029296875,11.146097,-0.9745283,-128.49438,7.8110847,0.0,0.0,0.0,0.0,0.0,0.0,0.0,-20.309696,-128.5794,12.913277,0.0,0.0,0.0,0.0,0.0,0.0,0.0,-0.95106024,44.939854,2.2457469,
0.23437499650754037,12,-0.051086426,-0.8356323,0.5610962,-0.13574219,0.01171875,0.047851562,0.0,0.0,0.0,0.0,0.0,0.0,0.0,0.0,0.0,0.0,0.0,0.032740533,0.049712814,-0.9984189,0.87890625,0.093322754,-0.53564453,-0.013671875,0.034179688,0.045898438,3.2705793,0.6778297,1.0292093,-20.670366,-0.9768677,-0.036865234,-0.22387695,-0.0087890625,0.12207031,0.01953125,4.7092314,4.6285534,-55.824753,-21.908312,0.45788574,0.48388672,0.75250244,-0.016601562,-0.015625,0.083984375,17.442287,6.593731,-127.67172,-17.421255,0.0,0.0,0.0,0.0,0.0,0.0,0.0,-12.312222,-127.94423,-10.893942,0.0,0.0,0.0,0.0,0.0,0.0,0.0,-0.032740533,-0.049712814,0.9984189,-0.9979248,0.08618164,-0.256958,-0.034179688,0.06542969,0.036132812,8.176012,-0.6778297,-1.0292093,20.670366,-0.98895264,-0.03491211,-0.24468994,-0.08984375,0.08105469,0.037109375,14.617302,-7.692896,-57.541595,18.156164,-0.5401001,0.41015625,0.77093506,0.018554688,0.099609375,0.0029296875,11.423875,-0.6328697,-128.46558,7.838007,0.0,0.0,0.0,0.0,0.0,0.0,0.0,-19.964298,-128.56346,12.950781,0.0,0.0,0.0,0.0,0.0,0.0,0.0,-0.8659747,44.946022,2.2095342,
0.2539062462165021,13,-0.019104004,-0.84729004,0.5999756,0.034179688,0.028320312,0.06640625,0.0,0.0,0.0,0.0,0.0,0.0,0.0,0.0,0.0,0.0,0.0,0.03151372,0.050029434,-0.9983735,0.85498047,0.08892822,-0.48754883,-0.0126953125,0.053710938,0.064453125,3.2520902,0.652431,1.0357645,-20.669426,-0.95196533,-0.068603516,-0.20977783,-0.0087890625,0.12207031,0.0390625,4.6012154,4.508152,-55.82424,-21.88714,0.4329834,0.52557373,0.7192993,-0.017578125,0.0029296875,0.10253906,17.226097,6.5470204,-127.66921,-17.44404,0.0,0.0,0.0,0.0,0.0,0.0,0.0,-12.360098,-127.93764,-10.921551,0.0,0.0,0.0,0.0,0.0,0.0,0.0,-0.03151372,-0.050029434,0.9983735,-0.93536377,0.035583496,-0.26287842,-0.0146484375,0.083984375,0.055664062,8.100552,-0.652431,-1.0357645,20.669426,-0.9847412,-0.031799316,-0.27856445,-0.0146484375,0.08203125,0.037109375,14.7635765,-7.6402106,-57.5547,18.223373,-0.53826904,0.43865967,0.7573242,0.055664062,0.11816406,0.020507812,11.585037,-0.3926425,-128.45654,7.8841715,0.0,0.0,0.0,0.0,0.0,0.0,0.0,-19.728329,-128.5781,12.981118,0.0,0.0,0.0,0.0,0.0,0.0,0.0,-0.8256382,44.942863,2.2260678,
0.2734374959254638,14,-0.06237793,-0.85302734,0.5463257,0.052734375,0.064453125,0.029296875,0.0,0.0,0.0,0.0,0.0,0.0,0.0,0.0,0.0,0.0,0.0,0.029667258,0.05034943,-0.9984482,0.8626709,0.08343506,-0.5175781,-0.0126953125,0.091796875,0.026367188,3.1948178,0.6142038,1.0423893,-20.67097,-0.9909668,-0.059753418,-0.22314453,0.029296875,0.14160156,0.020507812,4.4010854,4.3641148,-55.829285,-21.824184,0.44329834,0.5704956,0.71362305,-0.076171875,0.041015625,0.140625,16.769348,6.5241623,-127.68269,-17.475239,0.0,0.0,0.0,0.0,0.0,0.0,0.0,-12.412231,-127.96686,-11.039522,0.0,0.0,0.0,0.0,0.0,0.0,0.0,-0.029667258,-0.05034943,0.9984482,-0.92907715,0.0368042,-0.27856445,0.061523438,0.12109375,0.09375,7.9483595,-0.6142038,-1.0423893,20.67097,-0.9591675,0.004760742,-0.27044678,0.0234375,0.06347656,0.037109375,14.784643,-7.437676,-57.58774,18.282284,-0.5350952,0.43762207,0.7354126,0.056640625,0.099609375,0.001953125,11.869564,0.015758991,-128.46404,7.943022,0.0,0.0,0.0,0.0,0.0,0.0,0.0,-19.320148,-128.59692,13.041051,0.0,0.0,0.0,0.0,0.0,0.0,0.0,-0.83394074,44.943474,2.241616,
0.2929687456344255,15,-0.05517578,-0.84246826,0.5700073,-0.060546875,-0.0068359375,0.029296875,0.0,0.0,0.0,0.0,0.0,0.0,0.0,0.0,0.0,0.0,0.0,0.02692929,0.04998485,-0.9985842,0.8453369,0.082214355,-0.53338623,-0.032226562,0.07324219,0.0087890625,3.1640925,0.5575193,1.0348414,-20.673788,-0.9711304,-0.107543945,-0.23492432,0.029296875,0.12402344,9.765625E-4,4.379851,4.2579985,-55.837395,-21.852476,0.46209717,0.5131836,0.7477417,-0.171875,0.021484375,0.21582031,16.574709,6.5739865,-127.68184,-17.495296,0.0,0.0,0.0,0.0,0.0,0.0,0.0,-12.383179,-127.98605,-11.120808,0.0,0.0,0.0,0.0,0.0,0.0,0.0,-0.02692929,-0.04998485,0.9985842,-0.90948486,0.028320312,-0.31298828,0.19433594,0.13964844,0.13183594,7.63697,-0.5575193,-1.0348414,20.673788,-0.9562988,-0.01574707,-0.25769043,0.060546875,0.025390625,0.056640625,14.631369,-7.112333,-57.605606,18.28915,-0.5550537,0.4169922,0.753479,0.056640625,0.061523438,0.001953125,12.018245,0.4593749,-128.46584,7.9272976,0.0,0.0,0.0,0.0,0.0,0.0,0.0,-18.882854,-128.60913,13.010277,0.0,0.0,0.0,0.0,0.0,0.0,0.0,-0.80255944,44.946514,2.228187,
0.3124999953433872,16,-0.043029785,-0.8359375,0.5895996,0.07128906,-0.026367188,0.046875,0.0,0.0,0.0,0.0,0.0,0.0,0.0,0.0,0.0,0.0,0.0,0.025250077,0.049761258,-0.9986615,0.8144531,0.087524414,-0.51116943,0.005859375,0.072265625,0.0087890625,3.1179712,0.5227543,1.0302124,-20.675388,-0.95288086,-0.041259766,-0.26324463,0.068359375,0.16210938,0.020507812,4.3450108,4.2162323,-55.839798,-21.91772,0.46881104,0.4642334,0.7494507,-0.11328125,0.021484375,0.23339844,16.648771,6.790606,-127.67908,-17.615772,0.0,0.0,0.0,0.0,0.0,0.0,0.0,-12.169195,-128.01118,-11.24803,0.0,0.0,0.0,0.0,0.0,0.0,0.0,-0.025250077,-0.049761258,0.9986615,-0.94104004,0.0423584,-0.2982788,0.23242188,0.15820312,0.13183594,7.3592215,-0.5227543,-1.0302124,20.675388,-0.96746826,-0.013671875,-0.2565918,0.09863281,0.0068359375,0.037109375,14.425148,-6.802921,-57.633118,18.266838,-0.53900146,0.4296875,0.7244873,0.056640625,0.061523438,0.0390625,12.1115055,0.85327864,-128.48625,7.9197426,0.0,0.0,0.0,0.0,0.0,0.0,0.0,-18.48806,-128.63496,13.006832,0.0,0.0,0.0,0.0,0.0,0.0,0.0,-0.80392796,44.94793,2.2193367,
0.3320312450523489,17,-0.06121826,-0.8383179,0.5444336,0.07128906,-0.026367188,0.06542969,0.0,0.0,0.0,0.0,0.0,0.0,0.0,0.0,0.0,0.0,0.0,0.023438305,0.04990602,-0.9986611,0.848938,0.066345215,-0.53741455,0.043945312,0.072265625,-0.009765625,3.0122693,0.48524556,1.0332093,-20.675379,-1.0198364,-0.023254395,-0.2322998,-0.125,0.044921875,0.018554688,4.2828574,4.134172,-55.839634,-21.971119,0.45788574,0.48779297,0.7515259,-0.07519531,0.041015625,0.2705078,16.382437,6.7210255,-127.682495,-17.800499,0.0,0.0,0.0,0.0,0.0,0.0,0.0,-12.257633,-128.05576,-11.492308,0.0,0.0,0.0,0.0,0.0,0.0,0.0,-0.023438305,-0.04990602,0.9986611,-0.96203613,0.028259277,-0.27679443,0.29003906,0.15722656,0.11328125,7.16281,-0.48524556,-1.0332093,20.675379,-0.9867554,-0.012512207,-0.25549316,0.09863281,0.0068359375,0.056640625,14.228082,-6.5211134,-57.66701,18.247795,-0.5550537,0.4169922,0.753479,0.056640625,0.099609375,0.001953125,12.171291,1.199429,-128.5169,7.936721,0.0,0.0,0.0,0.0,0.0,0.0,0.0,-18.13724,-128.66824,13.040855,0.0,0.0,0.0,0.0,0.0,0.0,0.0,-0.844223,44.945168,2.2262278,
0.3515624947613106,18,-0.029968262,-0.8342285,0.5864868,0.052734375,0.028320312,0.029296875,0.0,0.0,0.0,0.0,0.0,0.0,0.0,0.0,0.0,0.0,0.0,0.022141933,0.05049099,-0.99865204,0.8746338,0.099243164,-0.57647705,0.083984375,0.11035156,0.0078125,2.9624672,0.45840693,1.04532,-20.675192,-0.99920654,-0.122924805,-0.22833252,-0.22167969,0.099609375,-0.07910156,4.361522,4.0418124,-55.831886,-22.041498,0.4975586,0.5687866,0.72247314,-0.24804688,0.021484375,0.3642578,16.037117,6.600792,-127.68243,-17.847069,0.0,0.0,0.0,0.0,0.0,0.0,0.0,-12.420311,-128.10771,-11.670987,0.0,0.0,0.0,0.0,0.0,0.0,0.0,-0.022141933,-0.05049099,0.99865204,-0.9451904,0.055664062,-0.26281738,0.3076172,0.119140625,0.11230469,7.006279,-0.45840693,-1.04532,20.675192,-0.96466064,-0.060424805,-0.25201416,0.15527344,0.045898438,0.09472656,14.154209,-6.3649316,-57.690968,18.260303,-0.5637207,0.3735962,0.7423096,0.09375,0.061523438,9.765625E-4,12.246481,1.4448171,-128.54488,8.032997,0.0,0.0,0.0,0.0,0.0,0.0,0.0,-17.893639,-128.68713,13.14456,0.0,0.0,0.0,0.0,0.0,0.0,0.0,-0.82136714,44.943787,2.2541082,
0.37109374447027227,19,-0.057617188,-0.8741455,0.60827637,0.12792969,-0.099609375,0.046875,0.0,0.0,0.0,0.0,0.0,0.0,0.0,0.0,0.0,0.0,0.0,0.022495687,0.05143681,-0.99862576,0.89038086,0.077697754,-0.56073,0.06640625,0.18652344,-0.030273438,2.8425534,0.46572918,1.0649015,-20.674648,-0.96307373,-0.09460449,-0.26745605,-0.1640625,0.1015625,-0.11621094,4.4113092,3.940772,-55.814877,-22.011395,0.47454834,0.44207764,0.7089844,-0.22851562,0.040039062,0.41992188,16.003544,6.734832,-127.644226,-17.653534,0.0,0.0,0.0,0.0,0.0,0.0,0.0,-12.327195,-128.14745,-11.6103,0.0,0.0,0.0,0.0,0.0,0.0,0.0,-0.022495687,-0.05143681,0.99862576,-0.95129395,0.070129395,-0.23620605,0.34765625,0.1953125,0.15136719,6.944723,-0.46572918,-1.0649015,20.674648,-1.0,-0.0037841797,-0.22845459,0.28808594,-0.028320312,0.056640625,14.012247,-6.222135,-57.728443,18.302078,-0.5201416,0.4229126,0.7666626,0.13183594,0.061523438,9.765625E-4,12.1216755,1.5984535,-128.59807,8.170845,0.0,0.0,0.0,0.0,0.0,0.0,0.0,-17.733658,-128.71722,13.293316,0.0,0.0,0.0,0.0,0.0,0.0,0.0,-0.88697326,44.941822,2.2948647,
0.39062499417923396,20,-0.037231445,-0.84783936,0.58251953,0.24121094,-0.10058594,0.045898438,0.0,0.0,0.0,0.0,0.0,0.0,0.0,0.0,0.0,0.0,0.0,0.023307681,0.054096147,-0.99847096,0.8585205,0.0657959,-0.47766113,0.0087890625,0.1875,-0.06640625,2.685767,0.48254192,1.1199579,-20.671444,-0.95196533,-0.052856445,-0.2711792,-0.28027344,0.04296875,-0.1171875,4.2487907,3.7257457,-55.777607,-21.859888,0.5244751,0.53326416,0.72229004,-0.2685547,0.11621094,0.5703125,15.445817,6.659834,-127.59422,-17.476376,0.0,0.0,0.0,0.0,0.0,0.0,0.0,-12.488918,-128.19046,-11.726834,0.0,0.0,0.0,0.0,0.0,0.0,0.0,-0.023307681,-0.054096147,0.99847096,-0.9764404,0.08099365,-0.26281738,0.2529297,0.19628906,0.15136719,7.0479283,-0.48254192,-1.1199579,20.671444,-0.99664307,0.041992188,-0.24694824,0.19335938,0.0078125,0.056640625,13.875686,-6.1236725,-57.794746,18.308094,-0.5562744,0.4298706,0.7714844,0.11230469,0.13574219,0.057617188,11.947136,1.6149726,-128.66336,8.109239,0.0,0.0,0.0,0.0,0.0,0.0,0.0,-17.7041,-128.76561,13.277561,0.0,0.0,0.0,0.0,0.0,0.0,0.0,-1.0491168,44.932503,2.4099078,
0.41015624388819566,21,-0.03894043,-0.7501831,0.55578613,0.16601562,-0.08105469,0.083984375,0.0,0.0,0.0,0.0,0.0,0.0,0.0,0.0,0.0,0.0,0.0,0.02413258,0.056354266,-0.9982863,0.8095093,0.033813477,-0.45336914,0.024414062,0.09277344,-0.083984375,2.5446057,0.49961933,1.166708,-20.667622,-1.017273,-0.12957764,-0.30688477,-0.35742188,0.09667969,-0.17578125,4.3329134,3.493755,-55.75096,-21.766075,0.49291992,0.47296143,0.72491455,-0.19335938,0.17382812,0.6074219,15.37436,6.6891794,-127.54421,-17.15629,0.0,0.0,0.0,0.0,0.0,0.0,0.0,-12.528998,-128.1974,-11.645306,0.0,0.0,0.0,0.0,0.0,0.0,0.0,-0.02413258,-0.056354266,0.9982863,-0.9703369,0.13641357,-0.24578857,0.119140625,0.13964844,0.11230469,7.242346,-0.49961933,-1.166708,20.667622,-0.99890137,0.027160645,-0.2062378,0.061523438,0.025390625,0.037109375,13.735549,-6.118436,-57.837738,18.179955,-0.5592041,0.43865967,0.7388916,0.13085938,0.17382812,0.076171875,11.701206,1.4934525,-128.70647,7.9184303,0.0,0.0,0.0,0.0,0.0,0.0,0.0,-17.823439,-128.80646,13.080673,0.0,0.0,0.0,0.0,0.0,0.0,0.0,-1.2202511,44.921097,2.506343,
0.42968749359715736,22,-0.034423828,-0.70874023,0.52545166,-0.041992188,-0.15234375,0.10253906,0.0,0.0,0.0,0.0,0.0,0.0,0.0,0.0,0.0,0.0,0.0,0.026525438,0.056652274,-0.9981845,0.8800049,0.044128418,-0.6045532,0.15527344,0.015625,-0.13867188,2.502802,0.549159,1.1728778,-20.665512,-0.9888916,-0.02758789,-0.2715454,-0.3955078,-0.10839844,-0.15527344,4.4503865,3.5787477,-55.739162,-21.819664,0.5178833,0.43518066,0.7581177,0.0,0.17382812,0.7167969,14.936868,6.7731423,-127.52997,-17.133127,0.0,0.0,0.0,0.0,0.0,0.0,0.0,-12.524511,-128.26778,-11.918972,0.0,0.0,0.0,0.0,0.0,0.0,0.0,-0.026525438,-0.056652274,0.9981845,-0.9100342,0.12402344,-0.2633667,0.11816406,0.08300781,0.055664062,7.2555537,-0.549159,-1.1728778,20.665512,-0.9421387,-0.11779785,-0.12615967,0.00390625,0.1015625,0.037109375,13.629606,-6.1436834,-57.844643,18.07233,-0.5640869,0.42193604,0.7457886,0.13085938,0.15527344,0.076171875,11.6828375,1.4657974,-128.7374,7.931452,0.0,0.0,0.0,0.0,0.0,0.0,0.0,-17.850378,-128.8316,13.108941,0.0,0.0,0.0,0.0,0.0,0.0,0.0,-1.2565607,44.918465,2.5159705,
0.44921874330611905,23,-0.032104492,-0.7683716,0.61083984,-0.15527344,-0.15039062,0.140625,0.0,0.0,0.0,0.0,0.0,0.0,0.0,0.0,0.0,0.0,0.0,0.03296566,0.056240313,-0.9980869,0.9006958,0.014160156,-0.5718994,0.2919922,0.12890625,-0.1953125,2.406884,0.6824913,1.1643488,-20.663496,-0.99853516,0.059936523,-0.2635498,-0.609375,0.017578125,-0.27441406,4.384008,3.6792588,-55.749714,-21.875908,0.48046875,0.3942871,0.78448486,0.23144531,0.21191406,0.7890625,14.626109,6.866686,-127.54678,-17.353092,0.0,0.0,0.0,0.0,0.0,0.0,0.0,-12.491758,-128.34903,-12.384937,0.0,0.0,0.0,0.0,0.0,0.0,0.0,-0.03296566,-0.056240313,0.9980869,-0.89068604,0.039794922,-0.21057129,0.26953125,0.08105469,0.017578125,7.196474,-0.6824913,-1.1643488,20.663496,-0.93774414,-0.028747559,-0.08654785,0.21289062,0.103515625,-9.765625E-4,13.409884,-6.2061114,-57.850307,18.20868,-0.5509033,0.3815918,0.7728882,0.16796875,0.20996094,0.16894531,11.072257,1.2537179,-128.79713,8.385748,0.0,0.0,0.0,0.0,0.0,0.0,0.0,-18.087133,-128.88849,13.462616,0.0,0.0,0.0,0.0,0.0,0.0,0.0,-1.2590027,44.92306,2.489746,
0.46874999301508075,24,-0.05114746,-0.769104,0.631897,-0.1171875,-0.27929688,0.06542969,0.0,0.0,0.0,0.0,0.0,0.0,0.0,0.0,0.0,0.0,0.0,0.043245614,0.0575298,-0.99755085,0.8511963,-0.049560547,-0.50372314,0.31347656,0.20507812,-0.15917969,2.2097456,0.8953174,1.1910452,-20.652395,-0.9465332,0.0491333,-0.27575684,-0.7841797,-0.024414062,-0.29589844,4.2859197,3.5609105,-55.736404,-21.923622,0.42370605,0.31256104,0.80859375,0.31152344,0.11621094,0.75,14.878059,6.7472906,-127.54879,-17.634165,0.0,0.0,0.0,0.0,0.0,0.0,0.0,-12.639985,-128.4031,-12.8030615,0.0,0.0,0.0,0.0,0.0,0.0,0.0,-0.043245614,-0.0575298,0.99755085,-1.0179443,0.10131836,-0.1595459,0.13378906,-0.032226562,-0.0029296875,7.430861,-0.8953174,-1.1910452,20.652395,-1.0060425,0.105163574,-0.08502197,0.21289062,0.19921875,-0.001953125,13.412771,-6.577642,-57.86535,18.468702,-0.548645,0.479187,0.76586914,0.16796875,0.24804688,0.15039062,10.354118,0.50834465,-128.83382,8.607042,0.0,0.0,0.0,0.0,0.0,0.0,0.0,-18.834574,-128.87067,13.677889,0.0,0.0,0.0,0.0,0.0,0.0,0.0,-1.287273,44.916603,2.5345817,
0.48828124272404244,25,-0.027404785,-0.79003906,0.5967407,-0.07910156,-0.28027344,-0.0087890625,0.0,0.0,0.0,0.0,0.0,0.0,0.0,0.0,0.0,0.0,0.0,0.050744236,0.060900167,-0.9970251,0.7897949,-0.06500244,-0.44836426,0.36914062,0.16699219,-0.19628906,2.190084,1.0505631,1.2608223,-20.64151,-0.9046631,0.004699707,-0.2625122,-0.7832031,-0.08105469,-0.23828125,4.2662253,3.3608303,-55.679386,-21.944923,0.45721436,0.36712646,0.7921753,0.33007812,0.1171875,0.6015625,15.549878,6.55921,-127.50537,-17.799583,0.0,0.0,0.0,0.0,0.0,0.0,0.0,-12.84487,-128.39789,-13.032226,0.0,0.0,0.0,0.0,0.0,0.0,0.0,-0.050744236,-0.060900167,0.9970251,-1.0169678,0.21234131,-0.1295166,-0.19726562,-0.37597656,-0.026367188,8.144518,-1.0505631,-1.2608223,20.64151,-0.99658203,0.12097168,-0.14569092,-0.051757812,0.31054688,0.036132812,14.024683,-7.337322,-57.8728,18.65698,-0.5723877,0.49475098,0.69317627,0.12890625,0.3232422,0.07714844,9.921429,-0.5184932,-128.80742,8.323908,0.0,0.0,0.0,0.0,0.0,0.0,0.0,-19.843876,-128.79668,13.460028,0.0,0.0,0.0,0.0,0.0,0.0,0.0,-1.3277538,44.908493,2.6755183,
0.5078124924330042,26,0.022827148,-0.7850342,0.585083,-0.19238281,-0.24316406,-0.045898438,0.0,0.0,0.0,0.0,0.0,0.0,0.0,0.0,0.0,0.0,0.0,0.05464518,0.063400164,-0.99664634,0.7780762,-0.013183594,-0.4472046,0.51953125,0.10839844,-0.23242188,2.368686,1.1313244,1.3125799,-20.63367,-0.85668945,-0.0028686523,-0.25494385,-0.66796875,-0.022460938,-0.19921875,4.1739182,3.2689877,-55.634857,-21.91034,0.45202637,0.35284424,0.7606201,0.26953125,0.13671875,0.37890625,16.11288,6.430797,-127.46821,-17.901085,0.0,0.0,0.0,0.0,0.0,0.0,0.0,-12.986187,-128.3733,-13.184653,0.0,0.0,0.0,0.0,0.0,0.0,0.0,-0.05464518,-0.063400164,0.99664634,-0.9753418,0.20281982,-0.2218628,-0.31445312,-0.50878906,-0.06542969,8.797724,-1.1313244,-1.3125799,20.63367,-0.9633179,0.020080566,-0.2234497,-0.14648438,0.34765625,0.036132812,15.041919,-8.239005,-57.837692,18.728231,-0.5845947,0.4850464,0.7369385,0.091796875,0.26660156,0.040039062,9.998257,-1.2998018,-128.70581,7.969698,0.0,0.0,0.0,0.0,0.0,0.0,0.0,-20.613865,-128.69884,13.144274,0.0,0.0,0.0,0.0,0.0,0.0,0.0,-1.1651969,44.90513,2.7926855,
0.5273437421419659,27,0.0068969727,-0.77679443,0.5765381,-0.09863281,-0.24316406,0.009765625,0.0,0.0,0.0,0.0,0.0,0.0,0.0,0.0,0.0,0.0,0.0,0.058076233,0.06652642,-0.9962613,0.78466797,0.034118652,-0.5309448,0.5410156,0.16503906,-0.23339844,2.4668827,1.2023576,1.3773031,-20.625698,-0.8466797,-0.0067749023,-0.25286865,-0.41601562,0.020507812,-0.15722656,4.3074803,3.1883502,-55.575424,-21.992617,0.44976807,0.3106079,0.7819824,0.15234375,0.13769531,0.17578125,17.054459,6.3963647,-127.40841,-17.999378,0.0,0.0,0.0,0.0,0.0,0.0,0.0,-12.994335,-128.26735,-13.177309,0.0,0.0,0.0,0.0,0.0,0.0,0.0,-0.058076233,-0.06652642,0.9962613,-0.9075928,0.16241455,-0.33203125,-0.27539062,-0.45117188,-0.083984375,9.092563,-1.2023576,-1.3773031,20.625698,-0.94903564,-0.015563965,-0.2975464,0.0234375,0.3310547,0.016601562,15.908345,-8.753417,-57.843292,18.683075,-0.5718994,0.43359375,0.6925049,0.07324219,0.24804688,0.0029296875,10.35332,-1.2855463,-128.60886,7.6431656,0.0,0.0,0.0,0.0,0.0,0.0,0.0,-20.61089,-128.6399,12.779379,0.0,0.0,0.0,0.0,0.0,0.0,0.0,-1.0260843,44.899796,2.9384172,
0.5468749918509276,28,0.003479004,-0.8000488,0.5239868,-0.19238281,-0.20507812,0.08496094,0.0,0.0,0.0,0.0,0.0,0.0,0.0,0.0,0.0,0.0,0.0,0.059618592,0.068913236,-0.99597377,0.7607422,0.107299805,-0.49169922,0.5019531,0.14648438,-0.21386719,2.657707,1.2342907,1.4267176,-20.619743,-0.8965454,0.03967285,-0.30291748,-0.2607422,0.041992188,-0.041015625,4.1122317,3.1252122,-55.53223,-21.963596,0.4142456,0.26220703,0.7758179,0.20898438,0.119140625,-0.06542969,18.426336,6.3683376,-127.375595,-18.261625,0.0,0.0,0.0,0.0,0.0,0.0,0.0,-12.949095,-128.13376,-13.147765,0.0,0.0,0.0,0.0,0.0,0.0,0.0,-0.059618592,-0.068913236,0.99597377,-0.890625,0.07702637,-0.36187744,-0.23339844,-0.3173828,-0.10058594,9.030025,-1.2342907,-1.4267176,20.619743,-0.9356079,0.005859375,-0.3293457,0.15625,0.25585938,-0.021484375,16.46997,-8.8842535,-57.881096,18.66143,-0.5993042,0.45941162,0.7241211,0.017578125,0.2109375,0.0029296875,10.740265,-0.8639555,-128.55135,7.381179,0.0,0.0,0.0,0.0,0.0,0.0,0.0,-20.195602,-128.62735,12.496157,0.0,0.0,0.0,0.0,0.0,0.0,0.0,-0.87620765,44.893734,3.0538297,
0.5664062415598893,29,-0.019958496,-0.8300781,0.5201416,-0.3251953,-0.09375,0.16015625,0.0,0.0,0.0,0.0,0.0,0.0,0.0,0.0,0.0,0.0,0.0,0.057157367,0.06570384,-0.9963223,0.7480469,0.12561035,-0.49658203,0.38671875,0.08984375,-0.17675781,2.7167811,1.1833352,1.3602731,-20.62696,-0.90966797,0.0234375,-0.35760498,-0.35742188,0.057617188,-0.041992188,3.8296564,3.149382,-55.596287,-21.921865,0.47094727,0.32818604,0.75946045,0.36132812,0.13867188,-0.2529297,19.591257,6.6353254,-127.44589,-18.607811,0.0,0.0,0.0,0.0,0.0,0.0,0.0,-12.680846,-128.12874,-13.460297,0.0,0.0,0.0,0.0,0.0,0.0,0.0,-0.057157367,-0.06570384,0.9963223,-0.90423584,0.0446167,-0.28631592,-0.28710938,-0.21972656,-0.13769531,8.674958,-1.1833352,-1.3602731,20.62696,-0.9349365,0.09649658,-0.3713379,0.099609375,0.19824219,-0.040039062,16.99463,-8.839872,-57.817566,18.786098,-0.58306885,0.45233154,0.6870117,0.0,0.13671875,0.021484375,11.138586,-0.35915375,-128.37143,7.112076,0.0,0.0,0.0,0.0,0.0,0.0,0.0,-19.696728,-128.45958,12.209936,0.0,0.0,0.0,0.0,0.0,0.0,0.0,-0.5928594,44.906223,2.927391,
0.585937491268851,30,-0.030761719,-0.81536865,0.5649414,-0.1171875,-0.095703125,0.17773438,0.0,0.0,0.0,0.0,0.0,0.0,0.0,0.0,0.0,0.0,0.0,0.058428675,0.06168659,-0.99655014,0.7346802,0.105529785,-0.4685669,0.32617188,-0.043945312,-0.08300781,2.5515194,1.2096547,1.2771038,-20.631678,-0.9138794,-0.038146973,-0.348938,-0.35742188,0.057617188,-0.0234375,3.9131153,3.1802497,-55.678185,-22.008192,0.4677124,0.28778076,0.7887573,0.6308594,0.13964844,-0.3857422,21.536064,7.0072613,-127.515205,-18.845058,0.0,0.0,0.0,0.0,0.0,0.0,0.0,-12.250963,-128.07356,-13.477814,0.0,0.0,0.0,0.0,0.0,0.0,0.0,-0.058428675,-0.06168659,0.99655014,-0.89056396,0.1303711,-0.24749756,-0.3798828,-0.18066406,-0.13671875,8.639929,-1.2096547,-1.2771038,20.631678,-0.94885254,0.14245605,-0.3897705,-0.10839844,0.17675781,-0.040039062,17.639416,-9.042323,-57.71384,18.88481,-0.59936523,0.46826172,0.71728516,-0.09277344,0.061523438,0.07910156,11.503227,-0.251935,-128.12425,6.5959616,0.0,0.0,0.0,0.0,0.0,0.0,0.0,-19.591503,-128.21199,11.68667,0.0,0.0,0.0,0.0,0.0,0.0,0.0,-0.44545674,44.92088,2.754491,
0.6054687409778127,31,0.012207031,-0.82385254,0.52563477,-0.080078125,-0.078125,0.15917969,0.0,0.0,0.0,0.0,0.0,0.0,0.0,0.0,0.0,0.0,0.0,0.059315264,0.060005404,-0.99658805,0.79119873,0.13128662,-0.53582764,0.24707031,-0.15820312,-0.043945312,2.4576614,1.2280087,1.2422979,-20.632462,-0.97698975,-0.051757812,-0.34680176,-0.47265625,-0.16992188,0.072265625,3.8531053,3.369924,-55.69856,-22.177717,0.50164795,0.5834961,0.71276855,0.5722656,0.13964844,-0.4033203,22.302532,7.2001762,-127.553024,-19.2173,0.0,0.0,0.0,0.0,0.0,0.0,0.0,-12.075916,-128.00885,-13.89761,0.0,0.0,0.0,0.0,0.0,0.0,0.0,-0.059315264,-0.060005404,0.99658805,-0.94207764,0.19299316,-0.29656982,-0.5078125,0.0126953125,-0.078125,8.593589,-1.2280087,-1.2422979,20.632462,-0.9412842,0.055725098,-0.36669922,-0.4482422,0.115234375,-0.040039062,18.019558,-9.10935,-57.66237,18.572401,-0.5800781,0.46411133,0.67315674,-0.12988281,-0.0126953125,0.041992188,12.1943035,0.107414246,-127.9299,5.8009815,0.0,0.0,0.0,0.0,0.0,0.0,0.0,-19.239498,-128.01837,10.863678,0.0,0.0,0.0,0.0,0.0,0.0,0.0,-0.42805278,44.92503,2.6794968,
0.6249999906867744,32,0.010009766,-0.83966064,0.5452881,-0.2109375,-0.0048828125,0.0859375,0.0,0.0,0.0,0.0,0.0,0.0,0.0,0.0,0.0,0.0,0.0,0.05500424,0.058540903,-0.9969707,0.8435669,0.16394043,-0.6399536,0.13085938,-0.21484375,-0.0068359375,2.7269213,1.1387588,1.2119782,-20.640385,-1.0050049,-0.31878662,-0.34783936,-0.35742188,-0.08984375,-0.07910156,4.000516,3.6563087,-55.70729,-22.387531,0.4970703,0.66119385,0.6748047,0.22558594,0.17675781,-0.23242188,22.593416,7.3835726,-127.55988,-19.280464,0.0,0.0,0.0,0.0,0.0,0.0,0.0,-11.93119,-127.92659,-14.095938,0.0,0.0,0.0,0.0,0.0,0.0,0.0,-0.05500424,-0.058540903,0.9969707,-0.9688721,0.15216064,-0.37457275,-0.65722656,0.091796875,-0.09667969,8.11837,-1.1387588,-1.2119782,20.640385,-0.95599365,-0.024902344,-0.34539795,-0.4482422,0.115234375,-0.040039062,18.063534,-8.844143,-57.62799,18.107754,-0.57318115,0.44158936,0.72631836,-0.16601562,-0.087890625,0.0048828125,13.153056,0.9110527,-127.8083,5.2524548,0.0,0.0,0.0,0.0,0.0,0.0,0.0,-18.429573,-127.905106,10.338085,0.0,0.0,0.0,0.0,0.0,0.0,0.0,-0.24512821,44.9318,2.6248164,
0.6445312403957361,33,0.022583008,-0.88183594,0.6444702,-0.1171875,-0.005859375,0.103515625,0.0,0.0,0.0,0.0,0.0,0.0,0.0,0.0,0.0,0.0,0.0,0.055974454,0.0583153,-0.9968852,0.87323,0.19744873,-0.5733032,-0.0029296875,-0.21386719,-0.025390625,3.169471,1.1588435,1.2073075,-20.638615,-1.0008545,-0.28009033,-0.3199463,0.24414062,-0.18652344,0.046875,4.1994123,4.098972,-55.689827,-22.459484,0.47735596,0.5664673,0.68603516,-0.005859375,0.17675781,-0.119140625,22.458838,7.801174,-127.52818,-19.067266,0.0,0.0,0.0,0.0,0.0,0.0,0.0,-11.542847,-127.803474,-13.981507,0.0,0.0,0.0,0.0,0.0,0.0,0.0,-0.055974454,-0.0583153,0.9968852,-0.94958496,0.07543945,-0.2991333,-0.6582031,0.072265625,-0.078125,7.7870173,-1.1588435,-1.2073075,20.638615,-0.9970093,-0.061706543,-0.2966919,-0.24023438,0.022460938,-0.078125,17.967398,-8.703648,-57.640194,17.815102,-0.55078125,0.39819336,0.7313843,-0.16601562,-0.087890625,0.0048828125,13.641224,1.3557053,-127.80049,5.082817,0.0,0.0,0.0,0.0,0.0,0.0,0.0,-17.995346,-127.907555,10.134137,0.0,0.0,0.0,0.0,0.0,0.0,0.0,-0.13121426,44.930485,2.620954,
0.6640624901046978,34,0.01574707,-0.94366455,0.6331177,-0.00390625,0.029296875,0.047851562,0.0,0.0,0.0,0.0,0.0,0.0,0.0,0.0,0.0,0.0,0.0,0.055982947,0.0580113,-0.9969343,0.8777466,0.16479492,-0.53552246,-0.061523438,-0.23144531,-0.080078125,3.535461,1.1590208,1.2010138,-20.639631,-1.0128784,-0.024536133,-0.2520752,0.36132812,-0.2783203,0.20214844,4.2189546,4.429799,-55.67979,-22.379414,0.45080566,0.48602295,0.74072266,-0.0234375,0.13769531,-0.044921875,21.931377,7.774248,-127.53238,-18.792004,0.0,0.0,0.0,0.0,0.0,0.0,0.0,-11.58102,-127.74889,-13.746813,0.0,0.0,0.0,0.0,0.0,0.0,0.0,-0.055982947,-0.0580113,0.9969343,-0.993042,-0.018981934,-0.24169922,-0.5996094,0.12890625,-0.095703125,7.6465755,-1.1590208,-1.2010138,20.639631,-1.0090942,-0.06530762,-0.31958008,-0.05078125,-0.08984375,-0.07714844,17.96681,-8.608264,-57.64375,17.839392,-0.52838135,0.4534912,0.7592163,-0.12890625,-0.068359375,0.00390625,13.907335,1.6851177,-127.82359,5.3815403,0.0,0.0,0.0,0.0,0.0,0.0,0.0,-17.672062,-127.95036,10.414461,0.0,0.0,0.0,0.0,0.0,0.0,0.0,-0.09591156,44.932693,2.6092339,
0.6835937398136595,35,-0.034606934,-0.88049316,0.5979614,0.09082031,-0.0078125,0.06542969,0.0,0.0,0.0,0.0,0.0,0.0,0.0,0.0,0.0,0.0,0.0,0.05414012,0.05896108,-0.9970041,0.8870239,0.021728516,-0.5378418,-0.059570312,-0.17480469,-0.043945312,3.6738644,1.1208677,1.220677,-20.641077,-1.0154419,0.08062744,-0.20422363,-0.12402344,-0.27148438,0.080078125,4.0338116,4.6221504,-55.645912,-22.46635,0.44293213,0.49658203,0.7663574,0.015625,0.13769531,-0.026367188,21.020836,7.3310432,-127.53272,-19.28802,0.0,0.0,0.0,0.0,0.0,0.0,0.0,-12.033611,-127.70147,-14.277803,0.0,0.0,0.0,0.0,0.0,0.0,0.0,-0.05414012,-0.05896108,0.9970041,-1.0046997,-0.0022583008,-0.2701416,-0.5605469,0.16699219,-0.095703125,7.5653515,-1.1208677,-1.220677,20.641077,-0.9924927,-0.018615723,-0.35211182,0.0048828125,-0.032226562,-0.0390625,17.970154,-8.42053,-57.69072,17.915678,-0.5551758,0.43572998,0.7477417,-0.091796875,-0.0126953125,0.022460938,14.140768,2.07096,-127.854614,5.551428,0.0,0.0,0.0,0.0,0.0,0.0,0.0,-17.285236,-127.99235,10.574266,0.0,0.0,0.0,0.0,0.0,0.0,0.0,-0.14427161,44.931286,2.6493232,
0.7031249895226211,36,-0.06640625,-0.85528564,0.6016846,0.052734375,-0.0078125,0.06640625,0.0,0.0,0.0,0.0,0.0,0.0,0.0,0.0,0.0,0.0,0.0,0.05605167,0.058647722,-0.9968343,0.8955078,-0.047424316,-0.5161133,0.017578125,-0.13671875,-0.044921875,3.4301677,1.1604428,1.2141896,-20.637558,-0.9857178,0.0037841797,-0.13665771,-0.3955078,-0.16601562,-0.078125,4.188906,4.604593,-55.644936,-22.722013,0.4232788,0.40985107,0.7628784,0.036132812,0.099609375,-0.02734375,20.570724,6.7466745,-127.558395,-19.773994,0.0,0.0,0.0,0.0,0.0,0.0,0.0,-12.612626,-127.68867,-14.745531,0.0,0.0,0.0,0.0,0.0,0.0,0.0,-0.05605167,-0.058647722,0.9968343,-0.9640503,-0.026245117,-0.29278564,-0.3544922,0.087890625,-0.07714844,7.5010095,-1.1604428,-1.2141896,20.637558,-0.9711304,0.0014648438,-0.3361206,-0.032226562,-0.051757812,-0.0390625,17.977339,-8.30661,-57.707035,17.984142,-0.54730225,0.44854736,0.75561523,-0.09277344,-0.0126953125,0.00390625,14.435989,2.3616676,-127.84628,5.6390877,0.0,0.0,0.0,0.0,0.0,0.0,0.0,-16.99066,-127.98638,10.673639,0.0,0.0,0.0,0.0,0.0,0.0,0.0,-0.21229488,44.928352,2.6313763,
0.7226562392315828,37,-0.115234375,-0.83251953,0.57702637,-0.00390625,-0.04296875,0.12207031,0.0,0.0,0.0,0.0,0.0,0.0,0.0,0.0,0.0,0.0,0.0,0.059147388,0.055543195,-0.9969167,0.9326172,-0.019958496,-0.5014038,0.078125,-0.022460938,-0.064453125,3.0118792,1.2245336,1.1499164,-20.639265,-1.0239868,-0.070617676,-0.14135742,-0.12402344,-0.10253906,-0.055664062,4.4529386,4.464056,-55.715588,-22.929316,0.40930176,0.4366455,0.74139404,0.13378906,0.061523438,-0.028320312,20.250233,6.1987696,-127.64349,-19.931683,0.0,0.0,0.0,0.0,0.0,0.0,0.0,-13.166141,-127.755196,-14.919214,0.0,0.0,0.0,0.0,0.0,0.0,0.0,-0.059147388,-0.055543195,0.9969167,-0.92700195,0.01586914,-0.32788086,-0.22265625,0.08691406,-0.020507812,7.2968636,-1.2245336,-1.1499164,20.639265,-0.9720459,0.009338379,-0.35198975,-0.10839844,-0.052734375,-0.020507812,17.815304,-8.082949,-57.67313,17.97095,-0.5470581,0.4277954,0.7375488,-0.11035156,-0.049804688,0.00390625,14.772553,2.7137947,-127.783295,5.562731,0.0,0.0,0.0,0.0,0.0,0.0,0.0,-16.630283,-127.90893,10.627399,0.0,0.0,0.0,0.0,0.0,0.0,0.0,-0.29181558,44.939907,2.4865127,
0.7421874889405445,38,-0.1307373,-0.86779785,0.59765625,-0.13671875,-0.078125,0.140625,0.0,0.0,0.0,0.0,0.0,0.0,0.0,0.0,0.0,0.0,0.0,0.06293252,0.05011956,-0.9969543,0.91516113,0.0021972656,-0.49420166,0.061523438,0.053710938,-0.083984375,2.6092455,1.3028979,1.0376302,-20.640047,-1.0159302,-0.04260254,-0.18078613,0.0107421875,-0.043945312,-0.015625,4.5192175,4.2859116,-55.843494,-22.953827,0.45233154,0.54034424,0.7803955,0.15429688,0.0234375,-0.029296875,19.720411,5.745756,-127.77803,-19.881222,0.0,0.0,0.0,0.0,0.0,0.0,0.0,-13.626345,-127.88057,-14.89351,0.0,0.0,0.0,0.0,0.0,0.0,0.0,-0.06293252,-0.05011956,0.9969543,-0.9219971,0.07495117,-0.29412842,-0.12597656,0.14355469,0.018554688,7.139547,-1.3028979,-1.0376302,20.640047,-0.9598999,0.019714355,-0.3270874,-0.10839844,-0.09082031,-0.05859375,17.592281,-7.950244,-57.588955,17.907585,-0.5732422,0.4524536,0.727478,-0.12890625,-0.087890625,0.00390625,15.007193,2.847599,-127.70239,5.489691,0.0,0.0,0.0,0.0,0.0,0.0,0.0,-16.48898,-127.83004,10.582346,0.0,0.0,0.0,0.0,0.0,0.0,0.0,-0.34777144,44.951767,2.2378926,
0.7617187386495062,39,-0.12158203,-0.8602295,0.62628174,0.07128906,-0.15234375,0.13964844,0.0,0.0,0.0,0.0,0.0,0.0,0.0,0.0,0.0,0.0,0.0,0.07019833,0.046482377,-0.99657345,0.8907471,0.07659912,-0.5118408,0.080078125,0.07324219,-0.13964844,2.3556771,1.4533236,0.9623292,-20.63216,-0.98883057,-0.025146484,-0.15960693,-0.0859375,0.009765625,-0.056640625,4.4059334,4.349245,-55.92791,-22.837795,0.4229126,0.53564453,0.7026367,0.11816406,-0.03515625,0.026367188,19.178392,5.642726,-127.86003,-19.789768,0.0,0.0,0.0,0.0,0.0,0.0,0.0,-13.738593,-127.962105,-14.841144,0.0,0.0,0.0,0.0,0.0,0.0,0.0,-0.07019833,-0.046482377,0.99657345,-0.95513916,0.06317139,-0.2824707,0.064453125,0.21777344,0.1328125,6.9984355,-1.4533236,-0.9623292,20.63216,-0.97924805,-0.0033569336,-0.3361206,-0.10839844,-0.16699219,-0.05859375,17.264088,-7.8104525,-57.539112,17.818722,-0.5588989,0.41394043,0.72180176,-0.12890625,-0.10644531,0.00390625,15.178118,2.9623613,-127.65788,5.4244614,0.0,0.0,0.0,0.0,0.0,0.0,0.0,-16.377075,-127.79012,10.510719,0.0,0.0,0.0,0.0,0.0,0.0,0.0,-0.4649021,44.9558,2.0640895,
0.7812499883584679,40,-0.06317139,-0.8373413,0.55340576,-0.0048828125,-0.1875,0.17675781,0.0,0.0,0.0,0.0,0.0,0.0,0.0,0.0,0.0,0.0,0.0,0.07467455,0.045190834,-0.99641013,0.8578491,0.12487793,-0.503479,0.13964844,0.12988281,-0.13964844,2.2497716,1.5459948,0.93559027,-20.62878,-0.98101807,-0.07623291,-0.19824219,-0.22167969,-0.030273438,-0.09667969,4.2791514,4.416449,-55.961807,-22.658556,0.453125,0.5401001,0.7114868,0.13574219,0.022460938,0.08203125,18.945572,5.60378,-127.90143,-19.577562,0.0,0.0,0.0,0.0,0.0,0.0,0.0,-13.791924,-128.00998,-14.690985,0.0,0.0,0.0,0.0,0.0,0.0,0.0,-0.07467455,-0.045190834,0.99641013,-0.95184326,0.07879639,-0.26861572,0.27246094,0.234375,0.17089844,6.881964,-1.5459948,-0.93559027,20.62878,-0.9663086,-0.034606934,-0.3265381,-0.013671875,-0.20410156,-0.0390625,16.946308,-7.6823325,-57.538666,17.752888,-0.5369873,0.40618896,0.76190186,-0.12890625,-0.087890625,0.00390625,15.311076,3.0516267,-127.69077,5.549756,0.0,0.0,0.0,0.0,0.0,0.0,0.0,-16.292303,-127.832214,10.615175,0.0,0.0,0.0,0.0,0.0,0.0,0.0,-0.5444324,44.96248,1.9984107,
0.8007812380674296,41,-7.9345703E-4,-0.8248291,0.5673218,-0.061523438,-0.16894531,0.19628906,0.0,0.0,0.0,0.0,0.0,0.0,0.0,0.0,0.0,0.0,0.0,0.07904297,0.045248915,-0.99604,0.7999878,0.1418457,-0.4840088,0.17871094,0.1484375,-0.140625,2.3381636,1.636435,0.9367928,-20.621115,-0.9752197,-0.13995361,-0.21124268,-0.20214844,-0.047851562,-0.095703125,4.283589,4.541205,-55.966602,-22.419313,0.46881104,0.4761963,0.72491455,0.07714844,0.080078125,0.17675781,18.764606,5.7195096,-127.89317,-19.060509,0.0,0.0,0.0,0.0,0.0,0.0,0.0,-13.707457,-128.02493,-14.295614,0.0,0.0,0.0,0.0,0.0,0.0,0.0,-0.07904297,-0.045248915,0.99604,-0.9091797,0.05847168,-0.2774048,0.3876953,0.29101562,0.171875,6.557896,-1.636435,-0.9367928,20.621115,-0.9847412,-0.054992676,-0.3046875,0.08105469,-0.25976562,-0.07714844,16.404774,-7.438348,-57.56511,17.668324,-0.5551758,0.42785645,0.75756836,-0.12890625,-0.087890625,0.041015625,15.372466,3.1596975,-127.79945,5.780015,0.0,0.0,0.0,0.0,0.0,0.0,0.0,-16.18845,-127.933784,10.842726,0.0,0.0,0.0,0.0,0.0,0.0,0.0,-0.55079746,44.961014,1.9988158,
0.8203124877763913,42,-0.018798828,-0.81536865,0.52124023,0.0703125,-0.18847656,0.23242188,0.0,0.0,0.0,0.0,0.0,0.0,0.0,0.0,0.0,0.0,0.0,0.08266103,0.045391798,-0.99572927,0.7902832,0.09979248,-0.54486084,0.12011719,0.12988281,-0.13964844,2.445126,1.7113403,0.9397509,-20.614683,-0.9470825,-0.10070801,-0.25439453,-0.125,-0.06542969,-0.07519531,4.303978,4.6952252,-55.962547,-22.234537,0.50097656,0.47973633,0.7229614,0.038085938,0.09863281,0.15820312,18.562857,5.914442,-127.874916,-18.647186,0.0,0.0,0.0,0.0,0.0,0.0,0.0,-13.5528965,-128.02171,-14.053055,0.0,0.0,0.0,0.0,0.0,0.0,0.0,-0.08266103,-0.045391798,0.99572927,-0.94659424,0.085632324,-0.265625,0.35058594,0.2919922,0.13378906,6.263628,-1.7113403,-0.9397509,20.614683,-0.9949341,-0.03466797,-0.27355957,0.0625,-0.2607422,-0.07714844,15.808241,-7.1874576,-57.600113,17.642754,-0.53479004,0.3795166,0.76257324,-0.091796875,-0.087890625,0.0029296875,15.269442,3.1643615,-127.924995,6.091387,0.0,0.0,0.0,0.0,0.0,0.0,0.0,-16.181963,-128.05544,11.160699,0.0,0.0,0.0,0.0,0.0,0.0,0.0,-0.57686925,44.96009,2.0016832,
0.839843737485353,43,-0.015075684,-0.8392334,0.5515747,-0.080078125,-0.095703125,0.25195312,0.0,0.0,0.0,0.0,0.0,0.0,0.0,0.0,0.0,0.0,0.0,0.081701994,0.04427512,-0.99581265,0.7977295,0.08428955,-0.572876,-0.0126953125,0.15039062,-0.12207031,2.5701692,1.6914842,0.91663224,-20.61641,-0.9749756,-0.05126953,-0.29821777,-0.20214844,-0.048828125,-0.057617188,4.158123,4.7200193,-55.986584,-22.097332,0.46673584,0.47149658,0.71307373,0.055664062,0.13769531,0.15820312,18.753605,6.058879,-127.89661,-18.508959,0.0,0.0,0.0,0.0,0.0,0.0,0.0,-13.439168,-128.03995,-14.044636,0.0,0.0,0.0,0.0,0.0,0.0,0.0,-0.081701994,-0.04427512,0.99581265,-0.9659424,0.03918457,-0.2738037,0.19921875,0.27441406,0.057617188,5.88653,-1.6914842,-0.91663224,20.61641,-0.96875,-0.04107666,-0.22692871,-0.033203125,-0.2421875,-0.0390625,15.184794,-6.8501806,-57.61287,17.70691,-0.5601196,0.4140625,0.76348877,-0.07324219,-0.05078125,0.059570312,14.974013,3.143609,-128.03444,6.4371376,0.0,0.0,0.0,0.0,0.0,0.0,0.0,-16.207153,-128.1714,11.476892,0.0,0.0,0.0,0.0,0.0,0.0,0.0,-0.53208405,44.960617,1.9553521,
0.8593749871943147,44,-0.011047363,-0.84051514,0.58709717,0.07128906,-0.04296875,0.21484375,0.0,0.0,0.0,0.0,0.0,0.0,0.0,0.0,0.0,0.0,0.0,0.082787246,0.042624027,-0.9958501,0.80493164,0.11383057,-0.526001,-0.052734375,0.07421875,-0.12109375,2.6444168,1.7139528,0.8824495,-20.617184,-0.9680176,-0.067993164,-0.26745605,-0.18261719,-0.12207031,-0.07519531,4.019513,4.8392296,-56.018017,-21.934153,0.47485352,0.4711914,0.72979736,0.053710938,0.19433594,0.17773438,18.845919,6.13402,-127.93443,-18.383774,0.0,0.0,0.0,0.0,0.0,0.0,0.0,-13.397285,-128.07281,-14.071985,0.0,0.0,0.0,0.0,0.0,0.0,0.0,-0.082787246,-0.042624027,0.9958501,-0.9454956,-0.0015869141,-0.24633789,0.0859375,0.27539062,0.0390625,5.637012,-1.7139528,-0.8824495,20.617184,-0.98913574,-0.036254883,-0.18896484,-0.10839844,-0.22460938,-0.0390625,14.589033,-6.58527,-57.613342,17.871845,-0.54797363,0.4100952,0.75128174,-0.07324219,-0.0126953125,0.041015625,14.675487,2.992361,-128.13751,6.8757133,0.0,0.0,0.0,0.0,0.0,0.0,0.0,-16.357254,-128.27107,11.919559,0.0,0.0,0.0,0.0,0.0,0.0,0.0,-0.56728995,44.965973,1.8774579,
0.8789062369032764,45,-0.036071777,-0.836853,0.5539551,0.109375,-0.025390625,0.17675781,0.0,0.0,0.0,0.0,0.0,0.0,0.0,0.0,0.0,0.0,0.0,0.08420396,0.04085242,-0.9957918,0.80340576,0.12646484,-0.5109863,-0.07421875,-0.0029296875,-0.064453125,2.5739744,1.7432826,0.84577173,-20.615978,-0.9470825,-0.08154297,-0.2989502,0.01171875,-0.13574219,-0.052734375,4.053764,5.0056562,-56.054512,-21.841211,0.48468018,0.43969727,0.73553467,0.036132812,0.13769531,0.103515625,19.06577,6.329266,-127.96485,-18.18674,0.0,0.0,0.0,0.0,0.0,0.0,0.0,-13.229679,-128.10956,-13.995965,0.0,0.0,0.0,0.0,0.0,0.0,0.0,-0.08420396,-0.04085242,0.9957918,-0.9689331,0.056518555,-0.24127197,0.0078125,0.19921875,0.018554688,5.694538,-1.7432826,-0.84577173,20.615978,-0.97406006,-0.06652832,-0.19030762,-0.12695312,-0.18652344,-0.0390625,14.106241,-6.4684725,-57.589973,17.957327,-0.57232666,0.4338379,0.7659302,-0.0546875,-0.032226562,0.059570312,14.449503,2.7222357,-128.21384,7.2635727,0.0,0.0,0.0,0.0,0.0,0.0,0.0,-16.628632,-128.33163,12.30355,0.0,0.0,0.0,0.0,0.0,0.0,0.0,-0.7263878,44.966896,1.7833465,
0.8984374866122381,46,-0.029052734,-0.84020996,0.5952759,-0.041992188,0.01171875,0.12207031,0.0,0.0,0.0,0.0,0.0,0.0,0.0,0.0,0.0,0.0,0.0,0.084980816,0.03985625,-0.9957413,0.8076172,0.13964844,-0.5279541,-0.07324219,-0.022460938,-0.0087890625,2.611645,1.7593669,0.82514805,-20.614931,-0.9749756,-0.066223145,-0.2635498,0.14746094,-0.115234375,0.043945312,4.119084,5.1161714,-56.06881,-21.751532,0.4467163,0.46447754,0.7484741,0.018554688,0.080078125,0.06542969,18.969982,6.38304,-127.973656,-17.971859,0.0,0.0,0.0,0.0,0.0,0.0,0.0,-13.194933,-128.10263,-13.870901,0.0,0.0,0.0,0.0,0.0,0.0,0.0,-0.084980816,-0.03985625,0.9957413,-0.93603516,0.0602417,-0.24993896,-0.10839844,0.08496094,-0.020507812,5.7129564,-1.7593669,-0.82514805,20.614931,-0.97320557,-0.06286621,-0.15039062,-0.051757812,-0.14746094,-9.765625E-4,13.7097645,-6.437957,-57.57722,18.016678,-0.51708984,0.42974854,0.7428589,-0.0546875,0.005859375,0.041015625,14.227205,2.3697615,-128.285,7.6204243,0.0,0.0,0.0,0.0,0.0,0.0,0.0,-16.972958,-128.38779,12.69265,0.0,0.0,0.0,0.0,0.0,0.0,0.0,-0.77775705,44.966877,1.733499,
0.9179687363211998,47,-0.029968262,-0.82818604,0.56085205,0.07128906,0.046875,0.06640625,0.0,0.0,0.0,0.0,0.0,0.0,0.0,0.0,0.0,0.0,0.0,0.085380524,0.04012602,-0.99577934,0.8621826,0.0927124,-0.48760986,-0.13085938,-0.041015625,0.028320312,2.6596212,1.7676411,0.830733,-20.615719,-0.9628296,-0.020446777,-0.23754883,0.10839844,-0.15234375,0.005859375,4.1418896,5.15082,-56.06499,-21.683725,0.45977783,0.4663086,0.74554443,0.036132812,0.099609375,0.009765625,18.992472,6.2275734,-127.96971,-17.890041,0.0,0.0,0.0,0.0,0.0,0.0,0.0,-13.348755,-128.08078,-13.783102,0.0,0.0,0.0,0.0,0.0,0.0,0.0,-0.085380524,-0.04012602,0.99577934,-0.9367676,0.07702637,-0.2420044,-0.1875,-0.009765625,-0.021484375,5.7862144,-1.7676411,-0.830733,20.615719,-0.9608154,-0.039611816,-0.1642456,0.04296875,-0.14648438,-0.0390625,13.434558,-6.51038,-57.57939,18.049091,-0.5552368,0.43676758,0.75665283,-0.0546875,0.024414062,0.041015625,13.956172,1.927598,-128.36679,7.876457,0.0,0.0,0.0,0.0,0.0,0.0,0.0,-17.408512,-128.44576,12.973753,0.0,0.0,0.0,0.0,0.0,0.0,0.0,-0.7871237,44.97,1.7446258,
0.9374999860301615,48,-0.00970459,-0.81463623,0.53692627,0.034179688,0.046875,0.029296875,0.0,0.0,0.0,0.0,0.0,0.0,0.0,0.0,0.0,0.0,0.0,0.083512306,0.041617677,-0.99577904,0.85272217,0.08331299,-0.5005493,-0.072265625,-0.0029296875,0.045898438,2.7337322,1.7289639,0.8616149,-20.615713,-0.9899292,-0.04748535,-0.17254639,-0.0078125,-0.13671875,-0.015625,4.217608,5.1127815,-56.036304,-21.630245,0.43676758,0.4892578,0.7289429,-0.001953125,0.099609375,-0.0078125,18.652225,5.869255,-127.94461,-17.831398,0.0,0.0,0.0,0.0,0.0,0.0,0.0,-13.712271,-128.03947,-13.74551,0.0,0.0,0.0,0.0,0.0,0.0,0.0,-0.083512306,-0.041617677,0.99577904,-0.980896,0.020812988,-0.24438477,-0.1875,-0.029296875,-0.021484375,5.8836656,-1.7289639,-0.8616149,20.615713,-0.980896,-0.02166748,-0.1998291,0.04296875,-0.10839844,-9.765625E-4,13.313237,-6.5863256,-57.605286,18.102188,-0.5552368,0.42791748,0.7655029,-0.0546875,0.005859375,0.041015625,13.7041445,1.5876665,-128.44913,8.09211,0.0,0.0,0.0,0.0,0.0,0.0,0.0,-17.747093,-128.5219,13.197458,0.0,0.0,0.0,0.0,0.0,0.0,0.0,-0.77874064,44.96304,1.813879,
0.9570312357391232,49,-0.038879395,-0.81915283,0.56103516,0.015625,0.064453125,0.0107421875,0.0,0.0,0.0,0.0,0.0,0.0,0.0,0.0,0.0,0.0,0.0,0.08322209,0.04261821,-0.9958402,0.87091064,0.08911133,-0.515625,-0.16796875,-0.0029296875,0.064453125,2.8180702,1.7229555,0.88232905,-20.61698,-0.9770508,-0.09503174,-0.13189697,0.06933594,-0.13476562,0.0048828125,4.3900795,5.129032,-56.01476,-21.560251,0.43798828,0.5275879,0.71240234,-0.05859375,0.060546875,0.029296875,18.38688,5.6129894,-127.91913,-17.598064,0.0,0.0,0.0,0.0,0.0,0.0,0.0,-13.96858,-128.0054,-13.5140915,0.0,0.0,0.0,0.0,0.0,0.0,0.0,-0.08322209,-0.04261821,0.9958402,-0.9355469,0.043701172,-0.22546387,-0.16894531,-0.029296875,-0.021484375,5.99175,-1.7229555,-0.88232905,20.61698,-0.9838867,-0.028259277,-0.23071289,0.00390625,-0.10839844,0.037109375,13.309885,-6.692624,-57.614693,18.188902,-0.5109253,0.3942871,0.7672119,-0.036132812,0.024414062,0.040039062,13.612189,1.3427439,-128.4915,8.300362,0.0,0.0,0.0,0.0,0.0,0.0,0.0,-17.99126,-128.55048,13.403584,0.0,0.0,0.0,0.0,0.0,0.0,0.0,-0.7772502,44.96476,1.8593676,
0.9765624854480849,50,-0.016967773,-0.833374,0.57147217,-0.0029296875,0.13769531,-0.0078125,0.0,0.0,0.0,0.0,0.0,0.0,0.0,0.0,0.0,0.0,0.0,0.082114875,0.04319612,-0.9958671,0.86932373,0.09222412,-0.47473145,-0.18554688,0.036132812,0.045898438,2.9115453,1.700032,0.8942936,-20.617537,-0.9561157,-0.113586426,-0.19506836,0.14648438,-0.07714844,0.024414062,4.5460534,5.108082,-56.001266,-21.423103,0.44482422,0.50305176,0.71032715,-0.115234375,0.041992188,0.047851562,18.166231,5.375019,-127.88877,-17.19375,0.0,0.0,0.0,0.0,0.0,0.0,0.0,-14.206587,-127.96556,-13.112522,0.0,0.0,0.0,0.0,0.0,0.0,0.0,-0.082114875,-0.04319612,0.9958671,-0.96643066,0.020996094,-0.26208496,-0.07519531,-0.06933594,0.015625,6.067566,-1.700032,-0.8942936,20.617537,-0.97076416,-0.036193848,-0.22290039,0.0048828125,-0.12792969,-9.765625E-4,13.271693,-6.7464542,-57.625496,18.288584,-0.5501709,0.42785645,0.7564697,-0.017578125,0.04296875,0.040039062,13.574933,1.1603851,-128.54266,8.566418,0.0,0.0,0.0,0.0,0.0,0.0,0.0,-18.175165,-128.58194,13.664774,0.0,0.0,0.0,0.0,0.0,0.0,0.0,-0.7763694,44.961857,1.8862216,
0.9960937351570466,51,-0.046325684,-0.852478,0.5687866,-0.09765625,0.13867188,-0.0068359375,0.0,0.0,0.0,0.0,0.0,0.0,0.0,0.0,0.0,0.0,0.0,0.07838902,0.04214939,-0.9961688,0.8748169,0.108947754,-0.4727173,-0.24414062,-0.001953125,0.045898438,3.0328004,1.6228961,0.872623,-20.623781,-0.98706055,-0.088134766,-0.16668701,0.20507812,-0.09472656,0.026367188,4.590688,5.015145,-56.025856,-21.226364,0.43762207,0.4628296,0.7337036,-0.17382812,0.041992188,0.06738281,17.787714,5.1027403,-127.89796,-16.779121,0.0,0.0,0.0,0.0,0.0,0.0,0.0,-14.469949,-127.95815,-12.657448,0.0,0.0,0.0,0.0,0.0,0.0,0.0,-0.07838902,-0.04214939,0.9961688,-0.96380615,0.044067383,-0.270813,-0.036132812,0.0078125,0.03515625,6.002569,-1.6228961,-0.872623,20.623781,-1.00531,-0.03491211,-0.21868896,0.0048828125,-0.08984375,-9.765625E-4,13.19226,-6.662827,-57.609226,18.41423,-0.53900146,0.41497803,0.7461548,-0.055664062,0.061523438,0.041015625,13.579457,1.1398997,-128.55627,8.829755,0.0,0.0,0.0,0.0,0.0,0.0,0.0,-18.194698,-128.58542,13.938397,0.0,0.0,0.0,0.0,0.0,0.0,0.0,-0.7296428,44.962406,1.8450106,
1.0156249848660084,52,-0.060913086,-0.8208008,0.5821533,-0.0029296875,0.119140625,0.0107421875,0.0,0.0,0.0,0.0,0.0,0.0,0.0,0.0,0.0,0.0,0.0,0.07709265,0.041080363,-0.99634326,0.84210205,0.12640381,-0.46343994,-0.24316406,0.017578125,0.064453125,3.0935142,1.5960555,0.8504909,-20.627396,-0.9718628,-0.03942871,-0.20202637,0.14648438,-0.05859375,-0.013671875,4.5265365,5.0109572,-56.046932,-21.029665,0.4729004,0.4819336,0.7357788,-0.1171875,0.080078125,0.06738281,17.466105,4.9941154,-127.9205,-16.52457,0.0,0.0,0.0,0.0,0.0,0.0,0.0,-14.578028,-127.965645,-12.39904,0.0,0.0,0.0,0.0,0.0,0.0,0.0,-0.07709265,-0.041080363,0.99634326,-0.9959717,0.038879395,-0.24041748,-0.017578125,-0.03125,0.015625,6.128903,-1.5960555,-0.8504909,20.627396,-0.9819946,-0.043884277,-0.22094727,0.0234375,-0.12695312,-9.765625E-4,13.207259,-6.7121367,-57.585392,18.537615,-0.53930664,0.42791748,0.78302,-0.018554688,0.061523438,0.040039062,13.571324,1.0135913,-128.56372,9.100395,0.0,0.0,0.0,0.0,0.0,0.0,0.0,-18.31791,-128.58672,14.22019,0.0,0.0,0.0,0.0,0.0,0.0,0.0,-0.76751035,44.9651,1.7945756,
1.03515623457497,53,-0.055114746,-0.8335571,0.5532837,0.034179688,0.08300781,0.047851562,0.0,0.0,0.0,0.0,0.0,0.0,0.0,0.0,0.0,0.0,0.0,0.07452765,0.03996376,-0.99664646,0.84606934,0.05847168,-0.4925537,-0.22460938,0.016601562,0.064453125,3.1070902,1.5429515,0.8273738,-20.633673,-0.9960327,-0.0769043,-0.18261719,0.06933594,-0.07910156,-0.0146484375,4.527791,4.953943,-56.072094,-20.94025,0.4609375,0.49664307,0.7427368,-0.15136719,-0.0546875,0.047851562,17.197994,4.835023,-127.94028,-16.386395,0.0,0.0,0.0,0.0,0.0,0.0,0.0,-14.741681,-127.97505,-12.279182,0.0,0.0,0.0,0.0,0.0,0.0,0.0,-0.07452765,-0.03996376,0.99664646,-0.9473877,0.06488037,-0.22833252,0.020507812,-0.0126953125,0.016601562,6.2190843,-1.5429515,-0.8273738,20.633673,-0.9890137,-0.021606445,-0.20074463,0.080078125,-0.107421875,-9.765625E-4,13.153656,-6.7432365,-57.557392,18.621357,-0.5369873,0.41107178,0.7490845,0.01953125,0.061523438,0.040039062,13.45032,0.8315363,-128.56436,9.350265,0.0,0.0,0.0,0.0,0.0,0.0,0.0,-18.501041,-128.57361,14.465269,0.0,0.0,0.0,0.0,0.0,0.0,0.0,-0.77131706,44.969776,1.7455308,
1.0546874842839318,54,-0.078125,-0.82922363,0.56555176,-0.060546875,0.12011719,0.047851562,0.0,0.0,0.0,0.0,0.0,0.0,0.0,0.0,0.0,0.0,0.0,0.072722495,0.03841507,-0.99682033,0.8501587,0.06793213,-0.5205078,-0.20507812,0.036132812,0.045898438,3.0236208,1.5055819,0.7953111,-20.637274,-0.97302246,-0.08459473,-0.21105957,0.10839844,-0.059570312,0.0048828125,4.557973,4.8966084,-56.10658,-20.914343,0.4638672,0.4901123,0.70825195,-0.13671875,0.099609375,0.030273438,17.046804,4.706518,-127.97084,-16.309383,0.0,0.0,0.0,0.0,0.0,0.0,0.0,-14.877235,-127.99466,-12.238279,0.0,0.0,0.0,0.0,0.0,0.0,0.0,-0.072722495,-0.03841507,0.99682033,-0.92297363,0.047973633,-0.24505615,0.038085938,-0.0703125,0.053710938,6.3115864,-1.5055819,-0.7953111,20.637274,-0.9647827,-0.027832031,-0.18103027,0.061523438,-0.107421875,0.018554688,13.091095,-6.7589436,-57.52193,18.72475,-0.56427,0.4446411,0.7519531,-0.018554688,0.080078125,0.078125,13.298874,0.65985584,-128.56697,9.56883,0.0,0.0,0.0,0.0,0.0,0.0,0.0,-18.669983,-128.57281,14.689332,0.0,0.0,0.0,0.0,0.0,0.0,0.0,-0.8015329,44.971035,1.6746006,
1.0742187339928935,55,-0.08013916,-0.82910156,0.5477905,-0.059570312,0.13769531,0.0107421875,0.0,0.0,0.0,0.0,0.0,0.0,0.0,0.0,0.0,0.0,0.0,0.070827454,0.036587816,-0.9970405,0.85827637,0.104003906,-0.5015259,-0.16699219,0.016601562,0.064453125,2.973548,1.4663486,0.7574812,-20.64183,-0.973999,-0.07525635,-0.19421387,0.16601562,-0.057617188,-0.032226562,4.596871,4.8714995,-56.14337,-20.882277,0.47583008,0.47003174,0.7435913,-0.27539062,0.23339844,0.14453125,16.715061,4.6410904,-128.00491,-16.213566,0.0,0.0,0.0,0.0,0.0,0.0,0.0,-14.959579,-127.98725,-12.225805,0.0,0.0,0.0,0.0,0.0,0.0,0.0,-0.070827454,-0.036587816,0.9970405,-0.9286499,0.0335083,-0.21759033,0.040039062,0.0068359375,0.03515625,6.3935947,-1.4663486,-0.7574812,20.64183,-0.99005127,-0.026428223,-0.20178223,0.0048828125,-0.0703125,0.018554688,13.092587,-6.7758636,-57.48289,18.841467,-0.552124,0.42095947,0.76239014,-0.018554688,0.080078125,0.040039062,13.114023,0.54580307,-128.5443,9.763571,0.0,0.0,0.0,0.0,0.0,0.0,0.0,-18.787401,-128.5653,14.871973,0.0,0.0,0.0,0.0,0.0,0.0,0.0,-0.8213253,44.974346,1.5920525,
1.0937499837018552,56,-0.06640625,-0.8539429,0.54241943,-0.13574219,0.10253906,-0.0068359375,0.0,0.0,0.0,0.0,0.0,0.0,0.0,0.0,0.0,0.0,0.0,0.06827679,0.034096602,-0.99729574,0.8546753,0.08868408,-0.52349854,-0.091796875,0.016601562,0.0087890625,2.9942136,1.4135412,0.7059053,-20.647112,-0.9960327,-0.07385254,-0.18554688,0.10839844,-0.078125,-0.013671875,4.6282544,4.824616,-56.194027,-20.851421,0.45581055,0.48205566,0.74365234,-0.13769531,0.13769531,0.048828125,16.3274,4.6029863,-128.0444,-16.08417,0.0,0.0,0.0,0.0,0.0,0.0,0.0,-15.014529,-127.98846,-12.177086,0.0,0.0,0.0,0.0,0.0,0.0,0.0,-0.06827679,-0.034096602,0.99729574,-0.93151855,0.032043457,-0.24121094,0.017578125,-0.10839844,0.034179688,6.427058,-1.4135412,-0.7059053,20.647112,-0.97094727,-0.0413208,-0.18011475,0.061523438,-0.06933594,-0.020507812,13.182409,-6.84619,-57.424328,18.942802,-0.54315186,0.41607666,0.7710571,-0.018554688,0.080078125,0.059570312,12.917536,0.41630888,-128.5016,9.928139,0.0,0.0,0.0,0.0,0.0,0.0,0.0,-18.923595,-128.54207,15.011876,0.0,0.0,0.0,0.0,0.0,0.0,0.0,-0.7509489,44.978703,1.4863681,
1.1132812334108169,57,-0.04534912,-0.857605,0.59936523,-0.041015625,0.06542969,0.029296875,0.0,0.0,0.0,0.0,0.0,0.0,0.0,0.0,0.0,0.0,0.0,0.067964286,0.033223085,-0.99730426,0.8510742,0.10357666,-0.5194092,-0.051757812,0.07324219,0.0087890625,3.0330586,1.4070728,0.6878209,-20.647291,-0.95092773,-0.0680542,-0.16320801,0.0107421875,-0.043945312,-0.015625,4.7049036,4.81908,-56.21205,-20.868181,0.44573975,0.48034668,0.72888184,-0.17675781,0.13769531,0.068359375,16.115513,4.4896994,-128.06708,-16.086763,0.0,0.0,0.0,0.0,0.0,0.0,0.0,-15.134324,-127.98523,-12.211846,0.0,0.0,0.0,0.0,0.0,0.0,0.0,-0.067964286,-0.033223085,0.99730426,-0.9525757,0.05432129,-0.2421875,0.0390625,-0.05078125,-0.0029296875,6.4505982,-1.4070728,-0.6878209,20.647291,-0.97076416,-0.018920898,-0.19586182,0.061523438,-0.06933594,0.018554688,13.233586,-6.946249,-57.401615,19.040918,-0.53686523,0.3982544,0.7509155,9.765625E-4,0.080078125,0.05859375,12.667256,0.21942234,-128.49802,10.076525,0.0,0.0,0.0,0.0,0.0,0.0,0.0,-19.128647,-128.55362,15.125282,0.0,0.0,0.0,0.0,0.0,0.0,0.0,-0.68381727,44.979,1.4517798,
1.1328124831197786,58,-0.07946777,-0.8566284,0.5465698,-0.00390625,0.0107421875,0.0107421875,0.0,0.0,0.0,0.0,0.0,0.0,0.0,0.0,0.0,0.0,0.0,0.06582886,0.032963008,-0.99743795,0.8360596,0.12872314,-0.46936035,-0.12792969,0.0546875,0.0087890625,3.0803866,1.3628612,0.68243647,-20.650059,-0.9902344,-0.13574219,-0.19360352,0.049804688,-0.041992188,-0.034179688,4.7489977,4.759652,-56.22045,-20.802711,0.4710083,0.50549316,0.7260742,-0.17675781,0.15625,0.08691406,16.0597,4.405497,-128.0653,-15.866847,0.0,0.0,0.0,0.0,0.0,0.0,0.0,-15.221884,-127.95723,-12.012088,0.0,0.0,0.0,0.0,0.0,0.0,0.0,-0.06582886,-0.032963008,0.99743795,-0.95495605,0.0769043,-0.27160645,-0.037109375,-0.06933594,-0.022460938,6.500864,-1.3628612,-0.68243647,20.650059,-0.9779663,-0.035339355,-0.19396973,0.060546875,-0.06933594,0.037109375,13.281998,-6.9844203,-57.38434,19.087011,-0.5554199,0.4397583,0.779541,-0.017578125,0.061523438,0.09667969,12.642361,0.14749432,-128.49231,10.190084,0.0,0.0,0.0,0.0,0.0,0.0,0.0,-19.201275,-128.5378,15.240065,0.0,0.0,0.0,0.0,0.0,0.0,0.0,-0.65663415,44.97887,1.4431107,
1.1523437328287403,59,-0.048034668,-0.8306885,0.54626465,0.015625,0.064453125,0.0107421875,0.0,0.0,0.0,0.0,0.0,0.0,0.0,0.0,0.0,0.0,0.0,0.062457383,0.032836106,-0.99766475,0.8319702,0.121520996,-0.45239258,-0.12695312,0.11230469,-0.0107421875,3.1862888,1.2930615,0.67980915,-20.654753,-0.95599365,-0.077941895,-0.1642456,0.10839844,-0.041015625,0.0234375,4.7193704,4.6372175,-56.227627,-20.635265,0.4647827,0.465271,0.74749756,-0.21582031,0.17578125,0.10644531,15.810045,4.17774,-128.06175,-15.561569,0.0,0.0,0.0,0.0,0.0,0.0,0.0,-15.454966,-127.92004,-11.733828,0.0,0.0,0.0,0.0,0.0,0.0,0.0,-0.062457383,-0.032836106,0.99766475,-0.95825195,0.030273438,-0.23443604,-0.038085938,-0.107421875,-0.022460938,6.4916573,-1.2930615,-0.67980915,20.654753,-0.9949341,-0.02319336,-0.24554443,0.041992188,-0.0703125,0.018554688,13.362888,-6.964941,-57.37946,19.167473,-0.54504395,0.42974854,0.7276001,-0.017578125,0.061523438,0.078125,12.789704,0.19394398,-128.48802,10.321462,0.0,0.0,0.0,0.0,0.0,0.0,0.0,-19.155697,-128.50862,15.368051,0.0,0.0,0.0,0.0,0.0,0.0,0.0,-0.6068012,44.97985,1.4424324,
1.171874982537702,60,-0.08538818,-0.8456421,0.53289795,-0.00390625,0.028320312,0.029296875,0.0,0.0,0.0,0.0,0.0,0.0,0.0,0.0,0.0,0.0,0.0,0.059830725,0.032081265,-0.9978465,0.8629761,0.12445068,-0.489563,-0.1484375,0.016601562,0.0087890625,3.2896192,1.2386808,0.6641816,-20.658516,-1.0029907,-0.0680542,-0.18267822,0.08886719,-0.041992188,0.00390625,4.7227726,4.6087947,-56.242683,-20.530245,0.43066406,0.4744873,0.74554443,-0.17578125,0.13769531,0.12402344,15.66254,4.095763,-128.06717,-15.387043,0.0,0.0,0.0,0.0,0.0,0.0,0.0,-15.533044,-127.89338,-11.541407,0.0,0.0,0.0,0.0,0.0,0.0,0.0,-0.059830725,-0.032081265,0.9978465,-0.920166,0.019836426,-0.28356934,0.07519531,-0.08984375,0.034179688,6.544845,-1.2386808,-0.6641816,20.658516,-0.9746094,-0.018493652,-0.25561523,0.099609375,-0.107421875,-9.765625E-4,13.523828,-7.008541,-57.358418,19.290203,-0.5553589,0.45056152,0.75183105,-0.017578125,0.061523438,0.09667969,12.916283,0.19909286,-128.46219,10.488361,0.0,0.0,0.0,0.0,0.0,0.0,0.0,-19.149626,-128.4686,15.537387,0.0,0.0,0.0,0.0,0.0,0.0,0.0,-0.56733245,44.98116,1.4121497,
1.1914062322466636,61,-0.08459473,-0.8654785,0.5593872,-0.060546875,0.06542969,0.0107421875,0.0,0.0,0.0,0.0,0.0,0.0,0.0,0.0,0.0,0.0,0.0,0.05745572,0.030837636,-0.9980431,0.8477783,0.120788574,-0.48443604,-0.16601562,0.0546875,0.02734375,3.3615596,1.1895111,0.63843477,-20.662586,-0.9838867,-0.04559326,-0.20019531,-0.046875,-0.064453125,0.001953125,4.6219015,4.5797024,-56.26779,-20.419085,0.44873047,0.4753418,0.73669434,-0.119140625,0.15625,0.0859375,15.531205,4.020209,-128.10178,-15.365896,0.0,0.0,0.0,0.0,0.0,0.0,0.0,-15.611872,-127.903755,-11.533454,0.0,0.0,0.0,0.0,0.0,0.0,0.0,-0.05745572,-0.030837636,0.9980431,-0.92352295,0.022949219,-0.24224854,0.2109375,0.024414062,0.0546875,6.440011,-1.1895111,-0.63843477,20.662586,-0.96868896,-0.0390625,-0.23590088,0.099609375,-0.12597656,-0.01953125,13.450981,-6.8828926,-57.342545,19.445513,-0.51690674,0.4119873,0.7426758,-0.055664062,0.061523438,0.078125,12.935444,0.2844963,-128.46976,10.751383,0.0,0.0,0.0,0.0,0.0,0.0,0.0,-19.068153,-128.45747,15.783117,0.0,0.0,0.0,0.0,0.0,0.0,0.0,-0.5406976,44.983932,1.3587911,
1.2109374819556253,62,-0.08154297,-0.8594971,0.5288086,0.015625,0.06542969,0.047851562,0.0,0.0,0.0,0.0,0.0,0.0,0.0,0.0,0.0,0.0,0.0,0.05575782,0.029699713,-0.9981238,0.8856201,0.09552002,-0.4638672,-0.1484375,0.016601562,0.045898438,3.4419057,1.1543581,0.61487615,-20.664257,-0.98010254,-0.10235596,-0.1517334,-0.0087890625,-0.0068359375,-0.036132812,4.611039,4.547078,-56.28941,-20.302973,0.44470215,0.4724121,0.739624,-0.119140625,0.15625,0.10449219,15.34548,3.9065905,-128.12335,-15.200284,0.0,0.0,0.0,0.0,0.0,0.0,0.0,-15.729955,-127.90365,-11.395905,0.0,0.0,0.0,0.0,0.0,0.0,0.0,-0.05575782,-0.029699713,0.9981238,-0.94647217,0.048461914,-0.25299072,0.19140625,0.024414062,0.09277344,6.3894534,-1.1543581,-0.61487615,20.664257,-0.980896,-0.028381348,-0.21380615,0.13671875,-0.12597656,-9.765625E-4,13.363066,-6.8501234,-57.323055,19.534525,-0.5482178,0.41314697,0.7850342,-0.018554688,0.080078125,0.09667969,12.808095,0.20688868,-128.47691,10.983792,0.0,0.0,0.0,0.0,0.0,0.0,0.0,-19.15217,-128.46,15.986294,0.0,0.0,0.0,0.0,0.0,0.0,0.0,-0.49741882,44.98361,1.3107244,
1.230468731664587,63,-0.047180176,-0.8435669,0.55700684,0.0146484375,0.0107421875,0.06640625,0.0,0.0,0.0,0.0,0.0,0.0,0.0,0.0,0.0,0.0,0.0,0.053698897,0.029571846,-0.99832875,0.87713623,0.11755371,-0.46276855,-0.18652344,0.016601562,0.045898438,3.5453048,1.1117328,0.6122289,-20.6685,-0.98724365,-0.14019775,-0.14501953,0.08886719,-0.041992188,0.0234375,4.6860886,4.516248,-56.290577,-20.1895,0.4689331,0.4907837,0.73187256,-0.15625,0.11816406,0.10449219,14.948986,3.7983112,-128.09897,-14.896973,0.0,0.0,0.0,0.0,0.0,0.0,0.0,-15.852745,-127.865295,-11.165194,0.0,0.0,0.0,0.0,0.0,0.0,0.0,-0.053698897,-0.029571846,0.99832875,-0.95703125,0.044067383,-0.22747803,0.21191406,0.08105469,0.09277344,6.382606,-1.1117328,-0.6122289,20.6685,-0.9830322,-0.02758789,-0.1809082,0.15527344,-0.1640625,0.018554688,13.189895,-6.8290725,-57.31675,19.5806,-0.5258789,0.3982544,0.75665283,-0.036132812,0.061523438,0.09667969,12.461473,0.018340588,-128.5149,11.210048,0.0,0.0,0.0,0.0,0.0,0.0,0.0,-19.355072,-128.49045,16.163078,0.0,0.0,0.0,0.0,0.0,0.0,0.0,-0.4722501,44.98795,1.307202,
1.2499999813735487,64,-0.042053223,-0.82977295,0.5422363,0.09082031,0.028320312,0.047851562,0.0,0.0,0.0,0.0,0.0,0.0,0.0,0.0,0.0,0.0,0.0,0.051300675,0.0298079,-0.9983572,0.8552246,0.093566895,-0.47460938,-0.24414062,0.017578125,0.045898438,3.6779125,1.0620819,0.6171159,-20.669092,-0.9909668,-0.07196045,-0.14782715,0.10839844,-0.022460938,0.0048828125,4.679814,4.4940734,-56.27991,-20.04236,0.42980957,0.4951172,0.73876953,-0.15625,0.11816406,0.14160156,14.632734,3.726109,-128.08968,-14.660068,0.0,0.0,0.0,0.0,0.0,0.0,0.0,-15.926146,-127.83897,-10.935258,0.0,0.0,0.0,0.0,0.0,0.0,0.0,-0.051300675,-0.0298079,0.9983572,-0.94055176,0.052612305,-0.21655273,0.26953125,0.10058594,0.07421875,6.382422,-1.0620819,-0.6171159,20.669092,-1.0054932,-0.02746582,-0.16186523,0.23144531,-0.18164062,0.0,12.950904,-6.7823896,-57.322643,19.656261,-0.5165405,0.472229,0.769104,0.01953125,0.04296875,0.040039062,12.248653,-0.21156979,-128.56837,11.509291,0.0,0.0,0.0,0.0,0.0,0.0,0.0,-19.568863,-128.51013,16.5199,0.0,0.0,0.0,0.0,0.0,0.0,0.0,-0.46281117,44.983616,1.319292,
1.2695312310825104,65,-0.05206299,-0.831604,0.55029297,0.034179688,0.064453125,0.047851562,0.0,0.0,0.0,0.0,0.0,0.0,0.0,0.0,0.0,0.0,0.0,0.048950553,0.030263064,-0.998476,0.86938477,0.12756348,-0.45672607,-0.28222656,0.017578125,0.064453125,3.874391,1.0134281,0.62653923,-20.67155,-0.9890747,-0.09350586,-0.18457031,0.030273438,0.0126953125,0.0029296875,4.6737823,4.4988294,-56.265785,-19.864334,0.45593262,0.50982666,0.7064209,-0.15820312,0.17578125,0.12402344,14.356954,3.6675558,-128.06905,-14.406739,0.0,0.0,0.0,0.0,0.0,0.0,0.0,-15.991008,-127.80153,-10.719406,0.0,0.0,0.0,0.0,0.0,0.0,0.0,-0.048950553,-0.030263064,0.998476,-0.97540283,0.09814453,-0.22436523,0.21484375,0.17773438,0.07519531,6.323132,-1.0134281,-0.62653923,20.67155,-0.9848633,0.017028809,-0.1685791,0.080078125,-0.18359375,0.018554688,12.664732,-6.691772,-57.333717,19.715324,-0.52893066,0.41003418,0.7379761,9.765625E-4,0.024414062,0.040039062,11.896946,-0.4532237,-128.62534,11.6683445,0.0,0.0,0.0,0.0,0.0,0.0,0.0,-19.808104,-128.5508,16.694088,0.0,0.0,0.0,0.0,0.0,0.0,0.0,-0.44153187,44.983818,1.3417798,
1.2890624807914721,66,-0.044189453,-0.8435669,0.5480957,0.015625,0.12011719,0.047851562,0.0,0.0,0.0,0.0,0.0,0.0,0.0,0.0,0.0,0.0,0.0,0.045429975,0.0301178,-0.9987508,0.8430176,0.09326172,-0.49145508,-0.24511719,-0.020507812,0.046875,3.9972842,0.940542,0.6235319,-20.677237,-0.9850464,-0.09240723,-0.1864624,0.08886719,0.013671875,0.00390625,4.6486096,4.453186,-56.26714,-19.733757,0.44866943,0.46362305,0.7346802,-0.17675781,0.15625,0.16113281,14.267987,3.606371,-128.05869,-14.209465,0.0,0.0,0.0,0.0,0.0,0.0,0.0,-16.057083,-127.77842,-10.547843,0.0,0.0,0.0,0.0,0.0,0.0,0.0,-0.045429975,-0.0301178,0.9987508,-0.9626465,0.06817627,-0.23132324,0.21679688,0.23535156,0.09472656,6.1550126,-0.940542,-0.6235319,20.677237,-0.986084,-0.010192871,-0.1618042,-0.07128906,-0.14746094,-9.765625E-4,12.292072,-6.478733,-57.347622,19.675322,-0.5404053,0.44665527,0.77630615,0.01953125,0.024414062,0.0390625,11.700919,-0.53025484,-128.66895,11.680304,0.0,0.0,0.0,0.0,0.0,0.0,0.0,-19.87915,-128.58684,16.724564,0.0,0.0,0.0,0.0,0.0,0.0,0.0,-0.42483377,44.98879,1.3373338,
1.3085937305004338,67,-0.03100586,-0.8279419,0.5282593,-0.00390625,0.12011719,0.047851562,0.0,0.0,0.0,0.0,0.0,0.0,0.0,0.0,0.0,0.0,0.0,0.039968908,0.029564293,-0.99896044,0.8483887,0.14892578,-0.5014038,-0.1875,-0.001953125,0.02734375,4.126589,0.82748073,0.6120725,-20.681578,-0.98101807,-0.07220459,-0.23095703,0.12695312,0.015625,0.00390625,4.658628,4.4285765,-56.269844,-19.643545,0.45263672,0.449646,0.75823975,-0.17578125,0.13671875,0.16113281,14.167317,3.6171756,-128.06265,-14.07069,0.0,0.0,0.0,0.0,0.0,0.0,0.0,-16.05363,-127.78049,-10.454876,0.0,0.0,0.0,0.0,0.0,0.0,0.0,-0.039968908,-0.029564293,0.99896044,-0.9067993,0.04925537,-0.22235107,0.234375,0.19726562,0.076171875,5.93366,-0.82748073,-0.6120725,20.681578,-0.9855957,-0.082336426,-0.12957764,-0.08984375,-0.109375,-0.0390625,11.894477,-6.1673884,-57.361782,19.72426,-0.5500488,0.43170166,0.7297363,9.765625E-4,0.005859375,0.040039062,11.614233,-0.4392991,-128.7272,11.959759,0.0,0.0,0.0,0.0,0.0,0.0,0.0,-19.78771,-128.64003,17.00916,0.0,0.0,0.0,0.0,0.0,0.0,0.0,-0.40586978,44.987804,1.3151777,
1.3281249802093955,68,-0.07702637,-0.8243408,0.5645752,-0.060546875,0.15722656,0.048828125,0.0,0.0,0.0,0.0,0.0,0.0,0.0,0.0,0.0,0.0,0.0,0.03600651,0.028683264,-0.99912673,0.8209839,0.09765625,-0.48529053,-0.16796875,0.016601562,0.02734375,4.1333227,0.7454458,0.5938325,-20.68502,-0.9589844,-0.07110596,-0.16326904,0.06933594,0.013671875,0.022460938,4.678307,4.4125423,-56.283806,-19.632141,0.46984863,0.47509766,0.73669434,-0.17578125,0.13671875,0.1796875,13.911582,3.5947757,-128.0784,-14.112627,0.0,0.0,0.0,0.0,0.0,0.0,0.0,-16.085924,-127.79384,-10.55793,0.0,0.0,0.0,0.0,0.0,0.0,0.0,-0.03600651,-0.028683264,0.99912673,-0.9449463,-0.009338379,-0.21099854,0.15917969,0.19824219,0.038085938,5.8670845,-0.7454458,-0.5938325,20.68502,-0.9746094,-0.097229004,-0.10192871,0.061523438,-0.107421875,-9.765625E-4,11.604645,-5.975685,-57.34906,19.892885,-0.5368042,0.39624023,0.74298096,0.0,0.09863281,0.040039062,11.369503,-0.46024275,-128.76627,12.450854,0.0,0.0,0.0,0.0,0.0,0.0,0.0,-19.808449,-128.68315,17.501675,0.0,0.0,0.0,0.0,0.0,0.0,0.0,-0.42753375,44.988277,1.276131,
1.3476562299183572,69,-0.082336426,-0.8479004,0.5723877,-0.0029296875,0.119140625,0.0107421875,0.0,0.0,0.0,0.0,0.0,0.0,0.0,0.0,0.0,0.0,0.0,0.033358127,0.02774128,-0.9992435,0.86187744,0.08496094,-0.49761963,-0.15039062,-0.060546875,0.083984375,4.0077057,0.6906171,0.5743305,-20.687437,-0.9690552,-0.0871582,-0.1921997,0.030273438,-0.005859375,0.0029296875,4.683914,4.3227773,-56.306812,-19.674192,0.44171143,0.477417,0.73376465,-0.17675781,0.15625,0.16113281,13.912392,3.493228,-128.10057,-14.152158,0.0,0.0,0.0,0.0,0.0,0.0,0.0,-16.191662,-127.80315,-10.615156,0.0,0.0,0.0,0.0,0.0,0.0,0.0,-0.033358127,-0.02774128,0.9992435,-0.9703369,0.04144287,-0.2354126,0.043945312,0.16015625,0.056640625,5.8138576,-0.6906171,-0.5743305,20.687437,-0.9844971,-0.033081055,-0.0803833,0.17578125,-0.030273438,-0.0390625,11.291438,-5.8066607,-57.34598,20.030241,-0.5333252,0.45544434,0.7514038,0.056640625,0.080078125,0.0390625,10.865477,-0.53730965,-128.80598,12.855598,0.0,0.0,0.0,0.0,0.0,0.0,0.0,-19.88331,-128.72423,17.91508,0.0,0.0,0.0,0.0,0.0,0.0,0.0,-0.46646214,44.989,1.2334251,
1.367187479627319,70,-0.08428955,-0.8428345,0.55859375,-0.0029296875,0.119140625,-0.026367188,0.0,0.0,0.0,0.0,0.0,0.0,0.0,0.0,0.0,0.0,0.0,0.031277776,0.026697382,-0.99929225,0.8612671,0.10192871,-0.5015869,-0.14941406,-0.022460938,0.08300781,3.919116,0.6475469,0.5527186,-20.688448,-0.99212646,-0.105285645,-0.18859863,0.08886719,0.013671875,0.00390625,4.704446,4.254804,-56.32928,-19.687145,0.44384766,0.49194336,0.7427368,-0.15820312,0.17578125,0.16113281,13.818937,3.4349647,-128.1178,-14.088492,0.0,0.0,0.0,0.0,0.0,0.0,0.0,-16.257177,-127.80258,-10.590199,0.0,0.0,0.0,0.0,0.0,0.0,0.0,-0.031277776,-0.026697382,0.99929225,-0.97991943,0.0725708,-0.24023438,-0.013671875,0.083984375,-9.765625E-4,5.8890934,-0.6475469,-0.5527186,20.688448,-0.9803467,-0.007019043,-0.066223145,0.080078125,0.0068359375,-9.765625E-4,11.118256,-5.804305,-57.320503,20.11868,-0.52734375,0.46618652,0.73553467,0.056640625,0.024414062,0.001953125,10.396405,-0.8329382,-128.81253,13.050744,0.0,0.0,0.0,0.0,0.0,0.0,0.0,-20.165432,-128.70886,18.165438,0.0,0.0,0.0,0.0,0.0,0.0,0.0,-0.49031118,44.987896,1.186563,
1.3867187293362806,71,-0.06414795,-0.8323364,0.54455566,0.015625,0.10058594,-0.0078125,0.0,0.0,0.0,0.0,0.0,0.0,0.0,0.0,0.0,0.0,0.0,0.029533356,0.025504746,-0.99937767,0.8602905,0.1375122,-0.49353027,-0.015625,-0.00390625,0.02734375,3.8415515,0.6114321,0.5280273,-20.690216,-0.98291016,-0.060668945,-0.15863037,0.049804688,0.0126953125,0.022460938,4.714387,4.203748,-56.35311,-19.67964,0.44665527,0.46368408,0.7307129,-0.17773438,0.19433594,0.16113281,13.428441,3.3273253,-128.1413,-14.095581,0.0,0.0,0.0,0.0,0.0,0.0,0.0,-16.374006,-127.82061,-10.644882,0.0,0.0,0.0,0.0,0.0,0.0,0.0,-0.029533356,-0.025504746,0.99937767,-0.9486084,0.10479736,-0.22814941,-0.016601562,0.0068359375,0.0546875,6.076735,-0.6114321,-0.5280273,20.690216,-0.98480225,0.035461426,-0.16741943,-0.08984375,0.04296875,0.017578125,11.159109,-5.922413,-57.27988,20.170849,-0.53326416,0.43572998,0.7651367,0.01953125,0.061523438,0.001953125,10.06771,-1.1605749,-128.77997,13.031466,0.0,0.0,0.0,0.0,0.0,0.0,0.0,-20.492203,-128.66434,18.151808,0.0,0.0,0.0,0.0,0.0,0.0,0.0,-0.5192381,44.98901,1.1328034,
1.4062499790452423,72,-0.08502197,-0.82110596,0.5519409,-0.0029296875,0.13671875,-0.044921875,0.0,0.0,0.0,0.0,0.0,0.0,0.0,0.0,0.0,0.0,0.0,0.027327597,0.02435354,-0.99950284,0.87023926,0.13122559,-0.48962402,-0.015625,-0.0029296875,-0.02734375,3.7637436,0.5657664,0.5041938,-20.692806,-0.98114014,-0.105285645,-0.18548584,-0.046875,0.0107421875,-0.017578125,4.7306886,4.1332555,-56.37556,-19.639565,0.45483398,0.48114014,0.73773193,-0.17773438,0.19433594,0.1796875,13.1091,3.179443,-128.16364,-14.025631,0.0,0.0,0.0,0.0,0.0,0.0,0.0,-16.532475,-127.83769,-10.643602,0.0,0.0,0.0,0.0,0.0,0.0,0.0,-0.027327597,-0.02435354,0.99950284,-0.9196167,0.0871582,-0.30682373,0.001953125,0.0068359375,0.016601562,6.1257997,-0.5657664,-0.5041938,20.692806,-0.97088623,-0.03552246,-0.18206787,-0.109375,0.061523438,0.017578125,11.160503,-5.882924,-57.256565,20.144154,-0.55615234,0.42785645,0.7546387,0.01953125,0.005859375,0.020507812,10.205867,-1.1193867,-128.75264,12.981787,0.0,0.0,0.0,0.0,0.0,0.0,0.0,-20.450495,-128.63214,18.101742,0.0,0.0,0.0,0.0,0.0,0.0,0.0,-0.56428134,44.991264,1.0808134,
1.425781228754204,73,-0.07598877,-0.81933594,0.5458374,-0.041015625,0.1015625,-0.044921875,0.0,0.0,0.0,0.0,0.0,0.0,0.0,0.0,0.0,0.0,0.0,0.026300877,0.022620203,-0.9995629,0.83483887,0.125,-0.47937012,-0.033203125,0.03515625,-0.009765625,3.6749833,0.5445094,0.4683083,-20.694052,-0.9760132,-0.07293701,-0.17541504,-0.0087890625,-0.0068359375,0.001953125,4.8002424,4.10748,-56.417725,-19.633753,0.45373535,0.47332764,0.7347412,-0.19628906,0.17578125,0.16113281,12.817936,3.0844352,-128.20113,-13.950153,0.0,0.0,0.0,0.0,0.0,0.0,0.0,-16.636618,-127.87028,-10.6156,0.0,0.0,0.0,0.0,0.0,0.0,0.0,-0.026300877,-0.022620203,0.9995629,-0.9454346,0.044677734,-0.26190186,0.078125,0.025390625,0.036132812,6.1424184,-0.5445094,-0.4683083,20.694052,-1.0144653,-0.047424316,-0.22076416,-0.033203125,-0.013671875,-9.765625E-4,11.268427,-5.854547,-57.22108,20.17106,-0.5772705,0.44067383,0.75024414,9.765625E-4,0.005859375,0.001953125,10.605302,-0.94508886,-128.7093,13.012039,0.0,0.0,0.0,0.0,0.0,0.0,0.0,-20.270967,-128.56909,18.15264,0.0,0.0,0.0,0.0,0.0,0.0,0.0,-0.59044933,44.99237,1.0026454,
1.4453124784631657,74,-0.0690918,-0.83148193,0.5802002,0.034179688,0.10058594,-0.026367188,0.0,0.0,0.0,0.0,0.0,0.0,0.0,0.0,0.0,0.0,0.0,0.02462086,0.02097649,-0.9997126,0.84680176,0.11871338,-0.48046875,-0.13085938,-0.001953125,-0.0087890625,3.6532338,0.50972736,0.4342783,-20.697147,-0.99505615,-0.09057617,-0.18560791,0.030273438,0.049804688,-0.016601562,4.8705754,4.1168575,-56.447342,-19.587406,0.4315796,0.47283936,0.7160034,-0.21679688,0.19433594,0.14355469,12.694838,3.0732987,-128.22066,-13.795593,0.0,0.0,0.0,0.0,0.0,0.0,0.0,-16.655022,-127.8681,-10.508417,0.0,0.0,0.0,0.0,0.0,0.0,0.0,-0.02462086,-0.02097649,0.9997126,-0.927063,0.029052734,-0.29138184,0.11816406,0.1015625,0.07421875,6.0246706,-0.50972736,-0.4342783,20.697147,-0.9871216,-0.06414795,-0.22906494,0.041992188,-0.03125,0.018554688,11.265264,-5.676858,-57.201145,20.175436,-0.5449829,0.41101074,0.741272,9.765625E-4,0.024414062,0.040039062,10.874603,-0.5742922,-128.68092,13.047802,0.0,0.0,0.0,0.0,0.0,0.0,0.0,-19.906063,-128.53958,18.168982,0.0,0.0,0.0,0.0,0.0,0.0,0.0,-0.61917424,44.996758,0.9288964,
1.4648437281721274,75,-0.075805664,-0.8825073,0.5739136,0.052734375,0.08300781,0.029296875,0.0,0.0,0.0,0.0,0.0,0.0,0.0,0.0,0.0,0.0,0.0,0.02147159,0.019141302,-0.99972236,0.8571167,0.18084717,-0.5213623,-0.09277344,-0.022460938,0.028320312,3.6944327,0.4445282,0.39628434,-20.697351,-0.96795654,-0.0657959,-0.17828369,0.06933594,0.033203125,-0.053710938,4.89833,4.1280785,-56.47425,-19.502598,0.44769287,0.46240234,0.75927734,-0.21386719,0.13671875,0.21679688,12.591549,3.0740209,-128.24393,-13.683853,0.0,0.0,0.0,0.0,0.0,0.0,0.0,-16.656538,-127.87536,-10.417434,0.0,0.0,0.0,0.0,0.0,0.0,0.0,-0.02147159,-0.019141302,0.99972236,-0.95025635,0.0030517578,-0.27392578,0.23144531,0.08203125,0.037109375,5.8489156,-0.4445282,-0.39628434,20.697351,-1.0084839,-0.049560547,-0.2008667,0.099609375,-0.049804688,-9.765625E-4,11.207391,-5.426443,-57.184315,20.272102,-0.5192871,0.43579102,0.7786865,-0.017578125,0.024414062,0.040039062,11.013599,-0.20971203,-128.65897,13.194139,0.0,0.0,0.0,0.0,0.0,0.0,0.0,-19.541348,-128.50891,18.314384,0.0,0.0,0.0,0.0,0.0,0.0,0.0,-0.627741,44.993755,0.84799594,
1.484374977881089,76,-0.06341553,-0.85498047,0.5404053,0.015625,0.12011719,0.06640625,0.0,0.0,0.0,0.0,0.0,0.0,0.0,0.0,0.0,0.0,0.0,0.017245173,0.01821008,-0.99986154,0.8467407,0.15325928,-0.47143555,-0.18652344,0.016601562,0.045898438,3.775691,0.35702884,0.3770051,-20.700232,-0.9829712,-0.079589844,-0.12298584,0.107421875,0.08984375,-0.03515625,4.9645553,4.1266966,-56.485565,-19.410284,0.45880127,0.47210693,0.75634766,-0.09863281,0.15625,0.2529297,12.123008,3.0316684,-128.24915,-13.532188,0.0,0.0,0.0,0.0,0.0,0.0,0.0,-16.711868,-127.87982,-10.341218,0.0,0.0,0.0,0.0,0.0,0.0,0.0,-0.017245173,-0.01821008,0.99986154,-0.93133545,-0.004638672,-0.34472656,0.171875,0.0048828125,0.091796875,5.8012686,-0.35702884,-0.3770051,20.700232,-1.0021973,-0.044433594,-0.2506714,0.09863281,-0.087890625,0.018554688,11.269423,-5.263487,-57.165737,20.396269,-0.5673828,0.4368286,0.77282715,9.765625E-4,0.024414062,0.040039062,11.321973,0.079265594,-128.6314,13.365905,0.0,0.0,0.0,0.0,0.0,0.0,0.0,-19.249298,-128.47298,18.500448,0.0,0.0,0.0,0.0,0.0,0.0,0.0,-0.6427257,44.99607,0.80841005,
1.5039062275900508,77,-0.07476807,-0.8764038,0.5383911,0.052734375,0.119140625,0.06640625,0.0,0.0,0.0,0.0,0.0,0.0,0.0,0.0,0.0,0.0,0.0,0.012872517,0.017126832,-0.9999884,0.861084,0.17572021,-0.517395,-0.24414062,-0.001953125,0.045898438,3.8879132,0.2665003,0.3545785,-20.702858,-0.98413086,-0.11029053,-0.15283203,0.18554688,0.0546875,-0.033203125,5.0216465,4.1136327,-56.503754,-19.27901,0.48083496,0.45617676,0.75823975,0.036132812,0.15625,0.2705078,11.475916,2.999921,-128.25525,-13.27082,0.0,0.0,0.0,0.0,0.0,0.0,0.0,-16.759912,-127.91193,-10.181367,0.0,0.0,0.0,0.0,0.0,0.0,0.0,-0.012872517,-0.017126832,0.9999884,-0.897522,-0.0068359375,-0.35638428,0.27246094,0.19628906,0.09472656,5.4430895,-0.2665003,-0.3545785,20.702858,-0.9949951,-0.05114746,-0.2796631,0.0048828125,-0.18457031,-0.01953125,11.006375,-4.826847,-57.17433,20.405066,-0.52490234,0.38549805,0.7783203,0.056640625,0.024414062,0.001953125,11.690863,0.63328457,-128.64285,13.476524,0.0,0.0,0.0,0.0,0.0,0.0,0.0,-18.699333,-128.48358,18.585962,0.0,0.0,0.0,0.0,0.0,0.0,0.0,-0.6387302,44.99881,0.7624739,
1.5234374772990125,78,-0.08258057,-0.8624878,0.54559326,-0.00390625,0.12011719,0.06640625,0.0,0.0,0.0,0.0,0.0,0.0,0.0,0.0,0.0,0.0,0.0,0.0075553656,0.016081318,-1.0000976,0.8362427,0.18499756,-0.5031738,-0.37304688,0.1328125,0.08203125,4.1081343,0.15641916,0.33293313,-20.70512,-0.9550171,-0.09967041,-0.10089111,0.30078125,0.11425781,-0.05078125,5.111554,4.154814,-56.506714,-19.084452,0.49108887,0.50445557,0.7122803,-0.0029296875,0.15625,0.17773438,10.459218,3.0691156,-128.2421,-12.864397,0.0,0.0,0.0,0.0,0.0,0.0,0.0,-16.714855,-127.91915,-9.931855,0.0,0.0,0.0,0.0,0.0,0.0,0.0,-0.0075553656,-0.016081318,1.0000976,-0.91534424,0.022277832,-0.35339355,0.4248047,0.25195312,0.15234375,4.9901795,-0.15641916,-0.33293313,20.70512,-0.9962158,-0.062072754,-0.23895264,0.13769531,-0.24023438,-0.038085938,10.57265,-4.28799,-57.18115,20.38659,-0.57922363,0.41906738,0.7678833,0.018554688,0.1171875,0.040039062,11.95027,1.1946816,-128.66168,13.613649,0.0,0.0,0.0,0.0,0.0,0.0,0.0,-18.14091,-128.521,18.719448,0.0,0.0,0.0,0.0,0.0,0.0,0.0,-0.6269095,45.001385,0.71887493,
1.5429687270079742,79,-0.06854248,-0.86395264,0.58288574,0.07128906,0.12011719,0.103515625,0.0,0.0,0.0,0.0,0.0,0.0,0.0,0.0,0.0,0.0,0.0,0.0041562915,0.014169874,-1.0000719,0.8555908,0.18066406,-0.46447754,-0.50683594,0.11425781,0.15527344,4.2353096,0.086048305,0.29336035,-20.70459,-0.9388428,-0.047546387,-0.08868408,0.30078125,0.15039062,-0.032226562,4.9356637,4.070927,-56.535572,-18.723246,0.48895264,0.4857788,0.72302246,0.11230469,0.17578125,0.13964844,9.133036,3.0114539,-128.25583,-12.387401,0.0,0.0,0.0,0.0,0.0,0.0,0.0,-16.795908,-127.95636,-9.6103,0.0,0.0,0.0,0.0,0.0,0.0,0.0,-0.0041562915,-0.014169874,1.0000719,-0.9489746,0.049743652,-0.31103516,0.50390625,0.34765625,0.13476562,4.5614524,-0.086048305,-0.29336035,20.70459,-0.9904785,-0.087768555,-0.17944336,0.23144531,-0.2578125,-0.01953125,9.942298,-3.7733057,-57.17671,20.324284,-0.54803467,0.4277954,0.7355957,0.037109375,0.13671875,0.040039062,11.865197,1.5774815,-128.70175,13.8566475,0.0,0.0,0.0,0.0,0.0,0.0,0.0,-17.764608,-128.5714,18.941593,0.0,0.0,0.0,0.0,0.0,0.0,0.0,-0.6542277,44.99891,0.6348641,
1.5624999767169359,80,-0.03326416,-0.85076904,0.5626831,0.12792969,0.15625,0.17773438,0.0,0.0,0.0,0.0,0.0,0.0,0.0,0.0,0.0,0.0,0.0,4.6008825E-4,0.012820329,-1.0001224,0.928833,0.16265869,-0.45214844,-0.734375,0.15429688,0.19238281,4.247869,0.009525716,0.2654206,-20.705635,-0.98706055,-0.09033203,-0.15875244,0.2421875,0.2607422,-0.053710938,4.526147,3.920527,-56.55386,-18.360674,0.42767334,0.4835205,0.7269287,-0.1015625,0.21386719,0.12402344,8.357336,3.108975,-128.28127,-11.998641,0.0,0.0,0.0,0.0,0.0,0.0,0.0,-16.705627,-127.95358,-9.283501,0.0,0.0,0.0,0.0,0.0,0.0,0.0,-4.6008825E-4,-0.012820329,1.0001224,-0.9593506,0.051513672,-0.29437256,0.4658203,0.34765625,0.13476562,4.379269,-0.009525716,-0.2654206,20.705635,-0.9949341,-0.09515381,-0.08581543,0.42089844,-0.23730469,-0.038085938,9.172583,-3.3372326,-57.16825,20.25049,-0.54016113,0.42193604,0.7661133,0.13085938,0.15429688,0.11328125,11.307386,1.6720934,-128.75598,14.260311,0.0,0.0,0.0,0.0,0.0,0.0,0.0,-17.678951,-128.61082,19.317545,0.0,0.0,0.0,0.0,0.0,0.0,0.0,-0.804158,44.998337,0.57645285,
1.5820312264258976,81,-0.03930664,-0.8545532,0.56170654,0.14746094,0.17382812,0.103515625,0.0,0.0,0.0,0.0,0.0,0.0,0.0,0.0,0.0,0.0,0.0,-0.0051595867,0.011342322,-1.0000988,0.8942871,0.10644531,-0.4260254,-0.8496094,0.11621094,0.26660156,4.2341995,-0.10681841,0.23482122,-20.705147,-1.0111694,-0.111694336,-0.24334717,0.3203125,0.24414062,-0.033203125,3.9618046,3.6598127,-56.581432,-18.012846,0.3867798,0.51904297,0.74383545,-0.16015625,0.25195312,0.2548828,8.2806,3.2326627,-128.30948,-11.655127,0.0,0.0,0.0,0.0,0.0,0.0,0.0,-16.573158,-127.91904,-8.890903,0.0,0.0,0.0,0.0,0.0,0.0,0.0,0.0051595867,-0.011342322,1.0000988,-1.0029297,0.057495117,-0.21972656,0.36914062,0.29101562,0.115234375,4.4205794,0.10681841,-0.23482122,20.705147,-0.99572754,-0.0079956055,-0.032287598,0.4970703,-0.17871094,-0.038085938,8.526916,-3.070884,-57.14819,20.275595,-0.53497314,0.42773438,0.72540283,0.13085938,0.15429688,0.11328125,10.304828,1.3979242,-128.80205,14.684614,0.0,0.0,0.0,0.0,0.0,0.0,0.0,-17.956823,-128.601,19.721653,0.0,0.0,0.0,0.0,0.0,0.0,0.0,-0.9577565,44.9948,0.5152362,
1.6015624761348592,82,0.0038452148,-0.84832764,0.53240967,0.22265625,0.2265625,0.047851562,0.0,0.0,0.0,0.0,0.0,0.0,0.0,0.0,0.0,0.0,0.0,-0.0144045055,0.011905558,-1.0000126,0.81781006,0.10620117,-0.41540527,-0.7753906,0.0390625,0.24902344,4.3112073,-0.29821798,0.24648196,-20.703363,-0.9501343,-0.1149292,-0.24456787,0.4169922,0.22851562,-0.05078125,3.4040408,3.3523495,-56.566574,-17.772724,0.4798584,0.46411133,0.7435303,-0.20019531,0.3095703,0.21875,8.0429325,3.4149127,-128.29901,-11.416133,0.0,0.0,0.0,0.0,0.0,0.0,0.0,-16.405113,-127.89659,-8.754803,0.0,0.0,0.0,0.0,0.0,0.0,0.0,0.0144045055,-0.011905558,1.0000126,-0.95703125,0.047912598,-0.22058105,0.32910156,0.17675781,0.056640625,4.539111,0.29821798,-0.24648196,20.703363,-0.9588623,0.03918457,-0.03503418,0.2890625,-0.10449219,-0.0390625,8.084321,-2.8279657,-57.160015,20.385149,-0.5563965,0.47705078,0.7263794,0.13085938,0.13574219,0.09472656,9.302018,1.0662174,-128.84889,14.9372835,0.0,0.0,0.0,0.0,0.0,0.0,0.0,-18.279087,-128.59451,20.005829,0.0,0.0,0.0,0.0,0.0,0.0,0.0,-1.0831828,44.99202,0.55125076,
1.621093725843821,83,-0.008728027,-0.8156128,0.53393555,0.09082031,0.26367188,-0.026367188,0.0,0.0,0.0,0.0,0.0,0.0,0.0,0.0,0.0,0.0,0.0,-0.02587369,0.012882613,-0.9997421,0.821228,0.026000977,-0.4734497,-0.47265625,-0.01953125,0.17578125,4.2599316,-0.5356641,0.26671007,-20.697763,-0.9401245,-0.105041504,-0.2711792,0.5136719,0.24902344,-0.0107421875,3.0172043,3.0349498,-56.55499,-17.808107,0.46484375,0.48712158,0.7161255,-0.15917969,0.21386719,0.1796875,7.934468,3.630876,-128.27357,-11.399555,0.0,0.0,0.0,0.0,0.0,0.0,0.0,-16.197037,-127.86514,-8.798863,0.0,0.0,0.0,0.0,0.0,0.0,0.0,0.02587369,-0.012882613,0.9997421,-0.9713135,0.06903076,-0.1743164,0.32910156,0.17675781,0.07519531,4.647345,0.5356641,-0.26671007,20.697763,-0.9550781,0.0030517578,-0.011474609,0.13769531,-0.01171875,-0.020507812,7.850605,-2.6025639,-57.177814,20.533619,-0.5474243,0.49084473,0.7163696,0.038085938,0.09863281,0.095703125,8.473615,0.843369,-128.9013,15.138173,0.0,0.0,0.0,0.0,0.0,0.0,0.0,-18.491207,-128.61176,20.233017,0.0,0.0,0.0,0.0,0.0,0.0,0.0,-1.1395212,44.988644,0.6092119,
1.6406249755527826,84,-0.0064086914,-0.78985596,0.5015259,0.03515625,0.2998047,-0.099609375,0.0,0.0,0.0,0.0,0.0,0.0,0.0,0.0,0.0,0.0,0.0,-0.03847921,0.013240652,-0.9993045,0.85601807,0.022033691,-0.515625,-0.28320312,-0.059570312,0.15820312,4.0028653,-0.79663885,0.27412257,-20.6887,-0.9980469,-0.06958008,-0.25891113,0.37890625,0.115234375,0.0078125,2.837729,2.6720886,-56.562016,-18.069988,0.45263672,0.46276855,0.71990967,-0.25390625,0.17578125,0.18066406,7.704006,3.6405082,-128.28844,-11.732003,0.0,0.0,0.0,0.0,0.0,0.0,0.0,-16.191156,-127.868965,-9.153761,0.0,0.0,0.0,0.0,0.0,0.0,0.0,0.03847921,-0.013240652,0.9993045,-0.9664917,0.12207031,-0.13763428,0.27246094,0.19628906,0.076171875,4.7493277,0.79663885,-0.27412257,20.6887,-0.9734497,0.0012817383,-4.272461E-4,0.099609375,0.026367188,-0.05859375,7.6531944,-2.4134898,-57.181366,20.637907,-0.5264282,0.46624756,0.74938965,0.01953125,0.080078125,0.07714844,7.71396,0.63104725,-128.92941,15.377167,0.0,0.0,0.0,0.0,0.0,0.0,0.0,-18.69957,-128.63889,20.48583,0.0,0.0,0.0,0.0,0.0,0.0,0.0,-1.1458037,44.986828,0.6401898,
1.6601562252617443,85,-0.020141602,-0.84088135,0.51904297,-0.059570312,0.31933594,-0.099609375,0.0,0.0,0.0,0.0,0.0,0.0,0.0,0.0,0.0,0.0,0.0,-0.05191496,0.0132695995,-0.9988053,0.881897,0.034301758,-0.47094727,-0.09277344,-0.060546875,0.06542969,3.8498516,-1.0748003,0.27472186,-20.678368,-0.954895,-0.045959473,-0.17608643,0.12695312,0.14648438,-0.0546875,2.7473032,2.2723894,-56.578835,-18.271816,0.4800415,0.49749756,0.7338867,-0.15820312,0.17578125,0.12402344,7.2303357,3.3917177,-128.3121,-12.056104,0.0,0.0,0.0,0.0,0.0,0.0,0.0,-16.445543,-127.899376,-9.520252,0.0,0.0,0.0,0.0,0.0,0.0,0.0,0.05191496,-0.0132695995,0.9988053,-0.9979248,0.081848145,-0.1506958,0.12011719,0.140625,0.037109375,4.7331724,1.0748003,-0.27472186,20.678368,-1.0031128,-0.039245605,0.0073242188,0.11816406,0.140625,-0.020507812,7.570071,-2.2480443,-57.176727,20.762083,-0.55841064,0.46826172,0.7441406,-0.018554688,0.061523438,0.021484375,7.0747366,0.49133134,-128.94629,15.626934,0.0,0.0,0.0,0.0,0.0,0.0,0.0,-18.835058,-128.66092,20.75305,0.0,0.0,0.0,0.0,0.0,0.0,0.0,-1.0229527,44.994537,0.65094376,
1.679687474970706,86,-0.11224365,-0.82836914,0.5335083,0.053710938,0.2265625,-0.10058594,0.0,0.0,0.0,0.0,0.0,0.0,0.0,0.0,0.0,0.0,0.0,-0.05897692,0.011942364,-0.99836844,0.8859863,0.06011963,-0.43200684,0.00390625,0.015625,-0.009765625,3.6590714,-1.2210052,0.24724397,-20.669323,-0.9790039,-0.08117676,-0.16558838,-0.028320312,0.123046875,-0.056640625,2.5975919,1.9572909,-56.618202,-18.32158,0.45202637,0.524353,0.7192993,-0.21484375,0.13769531,0.12402344,6.8317056,3.1363134,-128.36243,-12.191156,0.0,0.0,0.0,0.0,0.0,0.0,0.0,-16.701817,-127.94764,-9.656927,0.0,0.0,0.0,0.0,0.0,0.0,0.0,0.05897692,-0.011942364,0.99836844,-0.96429443,0.09387207,-0.22039795,0.001953125,-0.01171875,-0.0029296875,4.9376874,1.2210052,-0.24724397,20.669323,-0.9815674,-0.009277344,-0.014465332,0.15722656,0.19921875,-0.059570312,7.6309032,-2.3212736,-57.138298,20.81928,-0.55529785,0.4593506,0.73706055,-0.018554688,0.061523438,0.040039062,6.5837703,0.22583699,-128.92177,15.76834,0.0,0.0,0.0,0.0,0.0,0.0,0.0,-19.086758,-128.61728,20.944172,0.0,0.0,0.0,0.0,0.0,0.0,0.0,-1.0131075,44.992733,0.5980453,
1.6992187246796677,87,-0.16241455,-0.8283081,0.52246094,-0.078125,0.15527344,-0.08203125,0.0,0.0,0.0,0.0,0.0,0.0,0.0,0.0,0.0,0.0,0.0,-0.06258756,0.00950391,-0.99819416,0.8831787,0.064819336,-0.41601562,-0.036132812,-0.022460938,-0.045898438,3.4588156,-1.295758,0.1967604,-20.665712,-0.9470215,-0.08569336,-0.13446045,0.068359375,0.16308594,-0.07421875,2.4777288,1.6912344,-56.67497,-18.288921,0.45166016,0.4446411,0.7729492,-0.23339844,0.09863281,0.08691406,6.4416246,2.877141,-128.4131,-12.119631,0.0,0.0,0.0,0.0,0.0,0.0,0.0,-16.955887,-127.99249,-9.560661,0.0,0.0,0.0,0.0,0.0,0.0,0.0,0.06258756,-0.00950391,0.99819416,-0.9362793,0.12664795,-0.18469238,-0.11035156,0.028320312,-0.05859375,5.229858,1.295758,-0.1967604,20.665712,-1.0004272,0.0513916,-0.044677734,-0.013671875,0.2919922,-0.041015625,7.8669896,-2.5389924,-57.067135,20.804749,-0.5493164,0.47210693,0.7122803,-0.018554688,0.080078125,0.040039062,6.033807,-0.11094332,-128.83775,15.594566,0.0,0.0,0.0,0.0,0.0,0.0,0.0,-19.4206,-128.5317,20.777054,0.0,0.0,0.0,0.0,0.0,0.0,0.0,-1.033418,44.994408,0.4931926,
1.7187499743886294,88,-0.21203613,-0.789978,0.5246582,-0.09765625,0.06542969,-0.026367188,0.0,0.0,0.0,0.0,0.0,0.0,0.0,0.0,0.0,0.0,0.0,-0.060493946,0.0040455516,-0.998327,0.98413086,0.076416016,-0.43084717,-0.05078125,0.07324219,0.02734375,3.1256218,-1.2524123,0.083755486,-20.668467,-0.98065186,0.0020141602,-0.10888672,0.22265625,0.31640625,-0.111328125,2.2827623,1.5620542,-56.80035,-18.253908,0.46240234,0.39233398,0.8012085,-0.09472656,0.00390625,0.029296875,5.816655,2.931843,-128.53128,-12.068541,0.0,0.0,0.0,0.0,0.0,0.0,0.0,-16.890993,-128.13278,-9.427365,0.0,0.0,0.0,0.0,0.0,0.0,0.0,0.060493946,-0.0040455516,0.998327,-0.98272705,0.08319092,-0.13000488,-0.14941406,-0.048828125,-0.09765625,5.558694,1.2524123,-0.083755486,20.668467,-1.0022583,-0.06262207,0.0071411133,-0.18359375,0.4423828,-0.080078125,8.368653,-2.9268622,-56.927402,20.884565,-0.557312,0.442688,0.7567749,-0.018554688,0.09863281,0.021484375,5.8889933,-0.36529255,-128.6866,15.502598,0.0,0.0,0.0,0.0,0.0,0.0,0.0,-19.673004,-128.39493,20.69659,0.0,0.0,0.0,0.0,0.0,0.0,0.0,-1.043441,44.99472,0.24556118,
1.7382812240975911,89,-0.17852783,-0.7611084,0.5342407,-0.09765625,-0.0068359375,0.047851562,0.0,0.0,0.0,0.0,0.0,0.0,0.0,0.0,0.0,0.0,0.0,-0.055689007,-4.9345195E-4,-0.9986422,0.96899414,0.020202637,-0.38293457,-0.0078125,0.22558594,0.025390625,2.9157782,-1.1529351,-0.010215975,-20.67499,-0.9725342,0.045898438,-0.08880615,0.10644531,0.40722656,-0.15332031,1.6965059,1.2656807,-56.9048,-18.02658,0.49194336,0.4578247,0.7739868,0.17675781,-0.072265625,-0.123046875,4.8475537,2.9391983,-128.62411,-11.994666,0.0,0.0,0.0,0.0,0.0,0.0,0.0,-16.883923,-128.27184,-9.345077,0.0,0.0,0.0,0.0,0.0,0.0,0.0,0.055689007,4.9345195E-4,0.9986422,-0.9718628,0.040771484,-0.06524658,-0.26367188,-0.06640625,-0.11621094,5.9542713,1.1529351,0.010215975,20.67499,-0.9259033,-0.12261963,0.13763428,-0.12597656,0.51953125,-0.11816406,8.928652,-3.390005,-56.8014,21.160294,-0.53930664,0.44067383,0.76135254,-0.01953125,0.17382812,0.09765625,5.6859965,-0.5433972,-128.56271,15.993705,0.0,0.0,0.0,0.0,0.0,0.0,0.0,-19.866404,-128.29391,21.12958,0.0,0.0,0.0,0.0,0.0,0.0,0.0,-1.066916,44.996063,0.037262708,
1.7578124738065528,90,-0.14123535,-0.8210449,0.55181885,-0.09863281,-0.07910156,0.103515625,0.0,0.0,0.0,0.0,0.0,0.0,0.0,0.0,0.0,0.0,0.0,-0.051996857,-0.004524755,-0.99880075,0.9329834,0.0040283203,-0.41656494,0.22265625,0.28125,0.005859375,2.711228,-1.0764958,-0.09367647,-20.678272,-0.95788574,-0.047058105,-0.14239502,-0.14648438,0.5126953,-0.234375,1.407226,0.80341554,-57.000668,-17.84546,0.4368286,0.5020752,0.7201538,0.2919922,-0.072265625,-0.19824219,4.607129,2.9769523,-128.73279,-11.936159,0.0,0.0,0.0,0.0,0.0,0.0,0.0,-16.838829,-128.40013,-9.234625,0.0,0.0,0.0,0.0,0.0,0.0,0.0,0.051996857,0.004524755,0.99880075,-1.017273,0.050048828,-0.006286621,-0.4140625,-0.026367188,-0.15429688,6.4208617,1.0764958,0.09367647,20.678272,-0.96014404,0.014953613,0.26654053,-0.01171875,0.6357422,-0.1953125,9.492332,-3.9108315,-56.67634,21.520882,-0.5072632,0.4494629,0.75079346,-9.765625E-4,0.2109375,0.09667969,5.3449283,-0.8632536,-128.4384,16.718946,0.0,0.0,0.0,0.0,0.0,0.0,0.0,-20.198647,-128.1651,21.813446,0.0,0.0,0.0,0.0,0.0,0.0,0.0,-1.0734435,44.994312,-0.1479501,
1.7773437235155145,91,-0.05303955,-0.74749756,0.4819336,-0.19238281,-0.1328125,0.08496094,0.0,0.0,0.0,0.0,0.0,0.0,0.0,0.0,0.0,0.0,0.0,-0.049202323,-0.0058221696,-0.9989181,0.87475586,-0.032714844,-0.3922119,0.4345703,0.375,-0.12402344,2.6824853,-1.0186409,-0.12053694,-20.6807,-0.9493408,-0.17028809,-0.24169922,-0.22460938,0.6044922,-0.2939453,2.1572192,0.2598871,-57.03676,-17.741947,0.4371338,0.56921387,0.65753174,0.1953125,-0.072265625,-0.17871094,5.345038,3.272471,-128.73282,-11.732469,0.0,0.0,0.0,0.0,0.0,0.0,0.0,-16.531475,-128.42601,-8.939283,0.0,0.0,0.0,0.0,0.0,0.0,0.0,0.049202323,0.0058221696,0.9989181,-1.086853,0.09875488,0.092041016,-0.6464844,-0.25390625,-0.23242188,7.0163236,1.0186409,0.12053694,20.6807,-0.9974365,0.11895752,0.32641602,-0.29492188,0.89941406,-0.19628906,10.411685,-4.635016,-56.569572,22.053158,-0.51831055,0.47406006,0.72650146,-0.020507812,0.2861328,0.0048828125,5.1230025,-1.498908,-128.30304,17.241987,0.0,0.0,0.0,0.0,0.0,0.0,0.0,-20.826256,-128.01909,22.362837,0.0,0.0,0.0,0.0,0.0,0.0,0.0,-0.96926945,44.995625,-0.21451385,
1.7968749732244762,92,-0.024291992,-0.772522,0.45159912,-0.4375,-0.11328125,-0.0068359375,0.0,0.0,0.0,0.0,0.0,0.0,0.0,0.0,0.0,0.0,0.0,-0.04793054,-0.0066349264,-0.9990097,0.8100586,-0.039916992,-0.39367676,0.73339844,0.24023438,-0.2890625,2.6643271,-0.99231035,-0.13736355,-20.682598,-0.9562378,-0.128479,-0.2555542,-0.32128906,0.52734375,-0.29492188,3.2750058,-0.27462536,-57.057808,-17.699741,0.5023804,0.5695801,0.6437378,0.07910156,-0.034179688,-0.12207031,6.283723,3.6331637,-128.70456,-11.6180935,0.0,0.0,0.0,0.0,0.0,0.0,0.0,-16.161852,-128.40974,-8.765547,0.0,0.0,0.0,0.0,0.0,0.0,0.0,0.04793054,0.0066349264,0.9990097,-1.0888672,0.20111084,0.20666504,-1.1162109,-0.78808594,-0.3154297,7.40181,0.99231035,0.13736355,20.682598,-1.0083008,-0.005432129,0.34832764,-0.6738281,1.2382812,-0.17871094,11.590274,-5.3770733,-56.48818,22.350822,-0.5386963,0.49487305,0.756897,-0.022460938,0.4169922,-0.125,5.372354,-1.8090122,-128.19565,17.258389,0.0,0.0,0.0,0.0,0.0,0.0,0.0,-21.11647,-127.93932,22.449217,0.0,0.0,0.0,0.0,0.0,0.0,0.0,-0.6781919,45.00224,-0.2663443,
1.816406222933438,93,-0.02722168,-0.8444824,0.4786377,-0.6826172,-0.038085938,-0.080078125,0.0,0.0,0.0,0.0,0.0,0.0,0.0,0.0,0.0,0.0,0.0,-0.053783804,-0.009901967,-0.99871755,0.81677246,-3.6621094E-4,-0.44152832,1.0546875,0.16210938,-0.41796875,2.3728137,-1.1134905,-0.20500143,-20.67655,-0.93310547,-0.08782959,-0.34631348,-0.5332031,0.3720703,-0.296875,4.1717596,-0.6844261,-57.136192,-17.780575,0.5083008,0.5217285,0.72125244,0.13183594,0.119140625,-0.083984375,7.306939,4.0198445,-128.7356,-11.7259445,0.0,0.0,0.0,0.0,0.0,0.0,0.0,-15.781555,-128.46666,-8.912182,0.0,0.0,0.0,0.0,0.0,0.0,0.0,0.053783804,0.009901967,0.99871755,-1.1860352,0.2244873,0.24578857,-1.7558594,-1.3574219,-0.51171875,7.892846,1.1134905,0.20500143,20.67655,-1.0891113,-0.13647461,0.31274414,-0.74902344,1.5615234,-0.21875,14.053655,-6.4708586,-56.254696,22.749653,-0.55200195,0.5372925,0.74871826,-0.028320312,0.8847656,-0.29101562,6.2611237,-1.6291671,-127.85861,16.849808,0.0,0.0,0.0,0.0,0.0,0.0,0.0,-20.916689,-127.71378,22.111664,0.0,0.0,0.0,0.0,0.0,0.0,0.0,-0.07564502,45.00738,-0.44216022,
1.8359374726423996,94,-0.06286621,-0.88739014,0.52923584,-0.5683594,-0.059570312,-0.22949219,0.0,0.0,0.0,0.0,0.0,0.0,0.0,0.0,0.0,0.0,0.0,-0.060387105,-0.011792076,-0.9983056,0.7774658,0.11364746,-0.43597412,1.1650391,0.06640625,-0.4716797,2.2132857,-1.2502017,-0.24413253,-20.668022,-0.9561157,-0.099609375,-0.3248291,-0.68847656,0.3671875,-0.2607422,4.88752,-0.9629264,-57.181793,-17.979403,0.479187,0.53515625,0.6878662,0.20996094,0.08105469,-0.103515625,8.582657,4.43758,-128.73975,-12.036626,0.0,0.0,0.0,0.0,0.0,0.0,0.0,-15.369461,-128.4734,-9.251233,0.0,0.0,0.0,0.0,0.0,0.0,0.0,0.060387105,0.011792076,0.9983056,-1.3035889,0.23425293,0.23760986,-2.4658203,-1.734375,-0.7060547,8.92885,1.2502017,0.24413253,20.668022,-1.2843018,-0.17797852,0.3085327,-0.3701172,1.8720703,-0.21972656,17.843512,-8.074173,-55.935684,23.249504,-0.6628418,0.723938,0.79071045,0.18652344,1.5966797,-0.7939453,7.1760535,-1.1455979,-127.24354,15.942787,0.0,0.0,0.0,0.0,0.0,0.0,0.0,-20.446142,-127.465614,21.170399,0.0,0.0,0.0,0.0,0.0,0.0,0.0,0.54221934,45.00219,-0.56436855,
1.8554687223513613,95,-0.061584473,-0.94177246,0.5652466,-0.5683594,-0.041992188,-0.32226562,0.0,0.0,0.0,0.0,0.0,0.0,0.0,0.0,0.0,0.0,0.0,-0.06388241,-0.010614785,-0.9980648,0.7929077,0.3284912,-0.4786377,1.1220703,-0.125,-0.4326172,2.7000866,-1.3225636,-0.21975897,-20.663034,-0.94555664,-0.2064209,-0.34979248,-0.7080078,0.36621094,-0.20410156,5.269386,-0.81575584,-57.166462,-18.060667,0.41296387,0.55462646,0.67614746,0.1328125,0.099609375,-0.083984375,10.160608,5.28913,-128.66707,-12.084867,0.0,0.0,0.0,0.0,0.0,0.0,0.0,-14.511821,-128.3994,-9.26061,0.0,0.0,0.0,0.0,0.0,0.0,0.0,0.06388241,0.010614785,0.9980648,-1.3654785,0.1940918,0.19781494,-2.9267578,-2.09375,-1.0507812,10.534182,1.3225636,0.21975897,20.663034,-1.432373,-0.047180176,0.17211914,0.08300781,2.086914,-0.10449219,22.282726,-10.141504,-55.52886,23.888327,-0.7385864,0.62176514,0.87457275,0.025390625,2.4941406,-1.0283203,7.2294674,-0.9490118,-126.399414,14.959025,0.0,0.0,0.0,0.0,0.0,0.0,0.0,-20.271336,-127.296646,20.042881,0.0,0.0,0.0,0.0,0.0,0.0,0.0,1.0926735,44.99075,-0.54843104,
1.874999972060323,96,-0.05645752,-0.93188477,0.5385742,-0.4736328,-0.043945312,-0.3779297,0.0,0.0,0.0,0.0,0.0,0.0,0.0,0.0,0.0,0.0,0.0,-0.06721735,-0.009339518,-0.99790215,0.81311035,0.37872314,-0.6243286,0.81347656,-0.27539062,-0.26464844,3.8279688,-1.3916078,-0.19335696,-20.65967,-0.9109497,-0.3218994,-0.33874512,-0.24316406,0.39746094,-0.15820312,5.3695083,-0.1932168,-57.1218,-18.132322,0.41314697,0.59191895,0.6635742,0.017578125,0.099609375,-0.0087890625,11.56037,6.7059145,-128.51537,-11.779787,0.0,0.0,0.0,0.0,0.0,0.0,0.0,-13.085591,-128.22823,-8.899725,0.0,0.0,0.0,0.0,0.0,0.0,0.0,0.06721735,0.009339518,0.99790215,-1.3755493,0.22735596,0.14086914,-3.2597656,-2.53125,-1.2451172,12.577206,1.3916078,0.19335696,20.65967,-1.4881592,0.21691895,0.007446289,0.2705078,2.1660156,-0.0087890625,27.25422,-12.638014,-54.916107,24.63853,-0.57147217,0.774292,0.85772705,-0.625,3.430664,-1.7402344,6.444972,-1.193799,-125.20423,13.90662,0.0,0.0,0.0,0.0,0.0,0.0,0.0,-20.50988,-127.073616,18.760937,0.0,0.0,0.0,0.0,0.0,0.0,0.0,1.6809545,44.974743,-0.53415227,
1.8945312217692847,97,-0.10546875,-0.90844727,0.39038086,-0.171875,-0.009765625,-0.36035156,0.0,0.0,0.0,0.0,0.0,0.0,0.0,0.0,0.0,0.0,0.0,-0.07506919,-0.007867729,-0.99728954,0.65911865,1.2463379,-0.69036865,-0.2109375,-0.11621094,-0.044921875,4.4052224,-1.5541666,-0.16288637,-20.646984,-0.9108887,-0.3161621,-0.33380127,0.24121094,0.44726562,-0.09375,6.0691814,-0.19418633,-57.100643,-18.252209,0.43737793,0.60528564,0.66955566,-0.119140625,0.15625,0.06738281,12.294799,7.520135,-128.36435,-11.329384,0.0,0.0,0.0,0.0,0.0,0.0,0.0,-12.264445,-128.06276,-8.402337,0.0,0.0,0.0,0.0,0.0,0.0,0.0,0.07506919,0.007867729,0.99728954,-1.2141724,-1.4375,0.62438965,-1.6660156,-2.6035156,-1.5839844,14.930081,1.5541666,0.16288637,20.646984,-1.3588257,0.4958496,-0.22894287,-0.31640625,2.1777344,0.06738281,32.40204,-15.064466,-54.151634,25.498306,-1.0565186,1.0495605,1.2766724,-1.2822266,3.506836,-1.953125,4.724639,-1.370636,-123.707695,12.845179,0.0,0.0,0.0,0.0,0.0,0.0,0.0,-20.628592,-126.90746,17.217018,0.0,0.0,0.0,0.0,0.0,0.0,0.0,2.099466,44.954468,-0.5126844,
1.9140624714782464,98,-0.13641357,-0.8979492,0.38409424,-0.58691406,0.06738281,-0.30273438,0.0,0.0,0.0,0.0,0.0,0.0,0.0,0.0,0.0,0.0,0.0,-0.08212224,-0.011497743,-0.9967747,0.7425537,0.59454346,-0.47174072,-1.2011719,-0.1484375,0.30664062,5.347787,-1.7001842,-0.2380389,-20.636326,-0.9748535,-0.28582764,-0.37908936,0.18359375,0.40820312,-0.09472656,6.365072,-0.027164936,-57.15826,-17.980217,0.41833496,0.6375122,0.60180664,-0.140625,0.25195312,0.18066406,12.825461,8.486578,-128.2923,-10.7045355,0.0,0.0,0.0,0.0,0.0,0.0,0.0,-11.297514,-127.958015,-7.779936,0.0,0.0,0.0,0.0,0.0,0.0,0.0,0.08212224,0.011497743,0.9967747,-1.1872559,-0.13562012,0.24505615,-0.8125,-2.2890625,-0.80566406,16.938257,1.7001842,0.2380389,20.636326,-1.1950684,0.33062744,-0.5172119,-1.6386719,2.3144531,-0.12597656,37.706375,-17.295082,-53.179626,26.60318,-1.328186,1.5079346,1.4152222,-1.7226562,1.3369141,-0.98828125,3.682435,-1.2361889,-121.81444,11.855182,0.0,0.0,0.0,0.0,0.0,0.0,0.0,-20.391237,-126.10542,15.700879,0.0,0.0,0.0,0.0,0.0,0.0,0.0,2.652103,44.925568,-0.73671544,
1.933593721187208,99,-0.16705322,-0.9324951,0.33190918,-0.49316406,-0.0234375,-0.17382812,0.0,0.0,0.0,0.0,0.0,0.0,0.0,0.0,0.0,0.0,0.0,-0.087447554,-0.017912386,-0.9961656,0.7494507,0.3824463,-0.5380249,-1.2558594,-0.09082031,0.3798828,6.8381906,-1.8104357,-0.3708419,-20.623716,-0.9008789,-0.30517578,-0.39605713,0.16503906,0.18261719,0.060546875,6.010304,0.6819178,-57.23695,-17.65937,0.43115234,0.5891113,0.6320801,-0.42871094,0.21386719,0.21972656,13.370866,9.759291,-128.2646,-10.017534,0.0,0.0,0.0,0.0,0.0,0.0,0.0,-10.027227,-127.9082,-7.1082506,0.0,0.0,0.0,0.0,0.0,0.0,0.0,0.087447554,0.017912386,0.9961656,-1.2062378,-0.10455322,-0.3027954,0.24511719,-2.2070312,-0.23730469,18.577753,1.8104357,0.3708419,20.623716,-1.2508545,0.03527832,-0.428833,-2.3769531,1.9990234,-0.08691406,42.681057,-19.357126,-52.12231,27.40776,0.29656982,0.9821167,0.5805054,-2.1699219,1.5732422,0.34765625,4.1940928,-0.9423466,-119.72067,10.755589,0.0,0.0,0.0,0.0,0.0,0.0,0.0,-20.11357,-124.46758,13.928961,0.0,0.0,0.0,0.0,0.0,0.0,0.0,3.2531104,44.87604,-1.0925027,
1.9531249708961698,100,-0.18865967,-1.050415,0.3647461,-0.8154297,0.018554688,0.087890625,0.0,0.0,0.0,0.0,0.0,0.0,0.0,0.0,0.0,0.0,0.0,-0.09023374,-0.0273224,-0.99574816,0.86279297,0.055358887,-0.4138794,-0.7910156,-0.55371094,0.45898438,7.7415166,-1.8681183,-0.56565833,-20.615072,-0.97247314,-0.17907715,-0.35003662,0.33984375,0.16796875,0.1015625,6.1137223,0.9320097,-57.43001,-17.728508,0.40667725,0.522522,0.67004395,-0.50683594,0.2705078,0.3330078,13.797188,10.402793,-128.38466,-9.883197,0.0,0.0,0.0,0.0,0.0,0.0,0.0,-9.378779,-128.00504,-6.9408274,0.0,0.0,0.0,0.0,0.0,0.0,0.0,0.09023374,0.0273224,0.99574816,-1.0279541,-0.23278809,-0.48382568,0.5205078,-2.3466797,0.12011719,20.384823,1.8681183,0.56565833,20.615072,-1.0790405,-0.14996338,-0.47729492,-2.0751953,1.2207031,0.03125,47.16095,-21.639193,-50.83046,28.079845,0.24316406,0.9541626,1.0664673,-1.1240234,2.0371094,0.875,4.382667,-1.4955807,-117.57283,10.018864,0.0,0.0,0.0,0.0,0.0,0.0,0.0,-20.715902,-122.640915,12.259753,0.0,0.0,0.0,0.0,0.0,0.0,0.0,3.8246446,44.81856,-1.5763649,
1.9726562206051315,101,-0.21691895,-1.0689697,0.43322754,-0.11816406,-0.20507812,0.21484375,0.0,0.0,0.0,0.0,0.0,0.0,0.0,0.0,0.0,0.0,0.0,-0.08683136,-0.03345326,-0.9958293,0.9269409,-0.17895508,-0.43780518,-0.5048828,-0.51660156,0.31054688,7.973462,-1.7976801,-0.69258624,-20.616753,-0.9577637,-0.0036621094,-0.2354126,0.107421875,0.087890625,0.07910156,6.3301053,0.9159453,-57.590588,-18.40039,0.428833,0.52697754,0.6868286,-0.6230469,0.2890625,0.4267578,13.225393,10.35051,-128.58484,-10.92322,0.0,0.0,0.0,0.0,0.0,0.0,0.0,-9.429634,-128.18475,-7.977624,0.0,0.0,0.0,0.0,0.0,0.0,0.0,0.08683136,0.03345326,0.9958293,-0.87768555,-0.16204834,-0.066833496,-0.28515625,-2.0117188,0.16113281,21.959421,1.7976801,0.69258624,20.616753,-0.95007324,-0.41381836,-0.32495117,-1.265625,0.46679688,0.26464844,49.95086,-23.564312,-49.797142,28.131172,0.53741455,0.61694336,1.2203369,-0.8691406,1.0664062,0.8642578,4.578554,-2.5136337,-116.084526,9.472622,0.0,0.0,0.0,0.0,0.0,0.0,0.0,-21.786972,-121.220184,10.961829,0.0,0.0,0.0,0.0,0.0,0.0,0.0,4.113223,44.78045,-1.862979,
1.9921874703140932,102,-0.17492676,-1.0057983,0.44006348,-0.11816406,-0.25878906,0.2890625,0.0,0.0,0.0,0.0,0.0,0.0,0.0,0.0,0.0,0.0,0.0,-0.08001819,-0.036319442,-0.99624974,0.9223633,-0.16461182,-0.31500244,-0.14550781,-0.49902344,-0.0029296875,7.6376386,-1.6566249,-0.7519252,-20.625458,-0.9688721,-0.041015625,-0.21386719,-0.43652344,0.2783203,-0.06542969,6.6198616,0.739344,-57.676815,-18.866707,0.4638672,0.493042,0.70825195,-0.54785156,0.36621094,0.50097656,13.018191,10.178944,-128.71733,-11.884256,0.0,0.0,0.0,0.0,0.0,0.0,0.0,-9.581446,-128.27058,-8.822673,0.0,0.0,0.0,0.0,0.0,0.0,0.0,0.08001819,0.036319442,0.99624974,-0.8796997,-0.07208252,0.021118164,-0.30859375,-1.5673828,0.015625,23.862047,1.6566249,0.7519252,20.625458,-0.87371826,-0.36523438,-0.30004883,0.001953125,-0.54785156,0.25,51.30704,-25.402279,-48.858475,28.157724,0.7201538,0.5947876,1.1686401,-0.20410156,0.09765625,0.3798828,4.4480977,-4.43482,-115.396545,10.320467,0.0,0.0,0.0,0.0,0.0,0.0,0.0,-23.74239,-120.4865,11.471914,0.0,0.0,0.0,0.0,0.0,0.0,0.0,4.073575,44.777702,-1.9596105,
2.011718720023055,103,-0.10290527,-0.946167,0.43743896,0.25878906,-0.31640625,0.32421875,0.0,0.0,0.0,0.0,0.0,0.0,0.0,0.0,0.0,0.0,0.0,-0.07224184,-0.03804861,-0.99685484,0.9020386,-0.08929443,-0.33068848,0.44433594,-0.44433594,-0.31835938,7.3262734,-1.4956303,-0.7877242,-20.637983,-0.94732666,-0.16986084,-0.19213867,-0.5527344,0.2939453,-0.08691406,6.9530506,0.7417927,-57.72879,-19.221632,0.33184814,0.607666,0.65771484,-0.49316406,0.48046875,0.63183594,13.132359,10.3426075,-128.77792,-12.438612,0.0,0.0,0.0,0.0,0.0,0.0,0.0,-9.418871,-128.27798,-9.401715,0.0,0.0,0.0,0.0,0.0,0.0,0.0,0.07224184,0.03804861,0.99685484,-0.8129883,-0.043701172,-0.041503906,-0.1484375,-1.3759766,-0.20800781,25.669575,1.4956303,0.7877242,20.637983,-0.7559204,-0.19256592,-0.3161621,0.85253906,-1.6054688,0.19726562,51.433598,-26.934126,-48.0079,28.410595,0.7225952,0.71191406,1.0973511,-0.3466797,-0.6855469,0.078125,3.7337093,-7.334009,-115.23776,11.607203,0.0,0.0,0.0,0.0,0.0,0.0,0.0,-26.660896,-120.26703,12.714996,0.0,0.0,0.0,0.0,0.0,0.0,0.0,3.9151697,44.793743,-1.9934485,
2.0312499697320168,104,-0.045837402,-0.8010254,0.35186768,0.296875,-0.28027344,0.36132812,0.0,0.0,0.0,0.0,0.0,0.0,0.0,0.0,0.0,0.0,0.0,-0.06716728,-0.03786923,-0.99714166,0.83880615,0.076293945,-0.34381104,0.9970703,-0.42871094,-0.4658203,7.062331,-1.3905716,-0.78401047,-20.643923,-0.9295044,-0.21020508,-0.22277832,-0.57128906,0.23828125,-0.10546875,7.270384,0.86508846,-57.734585,-19.568027,0.46136475,0.602417,0.63409424,-0.65234375,0.671875,0.82128906,13.2469015,10.68019,-128.75279,-12.779865,0.0,0.0,0.0,0.0,0.0,0.0,0.0,-9.109218,-128.19829,-9.929287,0.0,0.0,0.0,0.0,0.0,0.0,0.0,0.06716728,0.03786923,0.99714166,-0.7211304,0.024597168,-0.076293945,-0.2890625,-1.0078125,-0.27929688,27.330538,1.3905716,0.78401047,20.643923,-0.6999512,-0.032409668,-0.38482666,1.0039062,-2.5771484,0.21972656,50.25419,-28.100021,-47.319046,28.785557,0.55181885,0.75665283,1.137207,-0.15332031,-1.2275391,0.24023438,3.0091484,-11.082552,-115.5963,13.466432,0.0,0.0,0.0,0.0,0.0,0.0,0.0,-30.437683,-120.49076,14.684209,0.0,0.0,0.0,0.0,0.0,0.0,0.0,3.6511545,44.81467,-1.9479032,
2.0507812194409785,105,-0.018249512,-0.75787354,0.2836914,0.24023438,-0.18847656,0.39941406,0.0,0.0,0.0,0.0,0.0,0.0,0.0,0.0,0.0,0.0,0.0,-0.05971262,-0.039823797,-0.99761295,0.80352783,0.2730713,-0.36010742,1.2617188,-0.5263672,-0.48339844,7.063803,-1.2362349,-0.82447606,-20.653679,-0.95129395,-0.1630249,-0.22290039,-0.5136719,0.27539062,-0.028320312,7.4218774,1.3114305,-57.774303,-20.003504,0.55041504,0.5065918,0.715271,-0.7470703,0.6142578,0.83984375,13.260249,11.3190365,-128.76776,-13.187303,0.0,0.0,0.0,0.0,0.0,0.0,0.0,-8.501751,-128.14658,-10.571505,0.0,0.0,0.0,0.0,0.0,0.0,0.0,0.05971262,0.039823797,0.99761295,-0.6520996,0.0024414062,-0.06237793,-0.4638672,-0.5058594,-0.2548828,28.506159,1.2362349,0.82447606,20.653679,-0.6800537,0.06951904,-0.39898682,0.7001953,-3.1728516,0.24121094,47.723965,-28.888243,-46.8503,28.989277,0.55181885,0.75665283,1.137207,-0.15332031,-1.2275391,0.24023438,3.8077092,-15.329987,-116.33078,15.742714,0.0,0.0,0.0,0.0,0.0,0.0,0.0,-34.68512,-121.22524,16.960491,0.0,0.0,0.0,0.0,0.0,0.0,0.0,3.3326793,44.84095,-1.9894891,
2.07031246914994,106,-0.035888672,-0.7967529,0.2539673,0.05078125,-0.16796875,0.40039062,0.0,0.0,0.0,0.0,0.0,0.0,0.0,0.0,0.0,0.0,0.0,-0.053404987,-0.04345127,-0.9978331,0.82073975,0.37854004,-0.44189453,1.0888672,-0.62109375,-0.31640625,7.5126166,-1.1056492,-0.899576,-20.658237,-0.91833496,-0.16790771,-0.24432373,-0.45507812,0.29589844,-0.02734375,7.155,2.054836,-57.819843,-20.238148,0.4373169,0.58447266,0.69207764,-0.8095703,0.8046875,1.0283203,13.15202,12.244985,-128.7895,-13.53157,0.0,0.0,0.0,0.0,0.0,0.0,0.0,-7.615424,-128.095,-11.259918,0.0,0.0,0.0,0.0,0.0,0.0,0.0,0.053404987,0.04345127,0.9978331,-0.58428955,0.053710938,-0.07861328,-0.61035156,-0.27441406,-0.1953125,29.150394,1.1056492,0.899576,20.658237,-0.7114868,0.08538818,-0.39367676,0.16992188,-3.7138672,0.28125,44.2014,-29.366507,-46.545025,29.044022,-0.030090332,0.7684326,1.1348267,0.328125,-1.9970703,1.1796875,3.7228377,-19.986458,-117.13289,18.30272,0.0,0.0,0.0,0.0,0.0,0.0,0.0,-39.53772,-121.03449,19.924015,0.0,0.0,0.0,0.0,0.0,0.0,0.0,3.1236956,44.850636,-2.1202323,
2.089843718858902,107,-0.0625,-0.91552734,0.2819214,-0.0234375,-0.24121094,0.25097656,0.0,0.0,0.0,0.0,0.0,0.0,0.0,0.0,0.0,0.0,0.0,-0.057160854,-0.049327306,-0.9973399,0.8319702,0.3842163,-0.44195557,0.63378906,-0.60058594,-0.09472656,8.456331,-1.1834054,-1.0212282,-20.648027,-0.9194336,-0.19763184,-0.17797852,-0.3203125,0.37402344,-0.0078125,6.873323,2.6476204,-57.898083,-20.43106,0.45031738,0.58654785,0.6694336,-0.9472656,0.9003906,1.0673828,12.942154,13.082536,-128.85086,-13.843767,0.0,0.0,0.0,0.0,0.0,0.0,0.0,-6.812114,-128.06477,-11.930373,0.0,0.0,0.0,0.0,0.0,0.0,0.0,0.057160854,0.049327306,0.9973399,-0.5484619,0.062683105,-0.053894043,-0.7939453,-0.080078125,-0.17382812,29.151411,1.1834054,1.0212282,20.648027,-0.7890625,0.04901123,-0.3477173,-0.26464844,-4.0810547,0.22460938,40.031452,-29.48354,-46.31415,28.934345,-0.30615234,0.76568604,1.0751953,0.5732422,-2.0,1.6611328,4.4901714,-24.774899,-117.74541,21.050129,0.0,0.0,0.0,0.0,0.0,0.0,0.0,-44.462234,-120.80228,22.836983,0.0,0.0,0.0,0.0,0.0,0.0,0.0,3.2254744,44.828686,-2.4020386,
2.1093749685678636,108,-0.103759766,-1.0015259,0.30950928,0.10839844,-0.29882812,0.13867188,0.0,0.0,0.0,0.0,0.0,0.0,0.0,0.0,0.0,0.0,0.0,-0.061454058,-0.052293513,-0.99687827,0.8602905,0.3994751,-0.35638428,0.15722656,-0.6357422,0.09082031,9.241312,-1.2722905,-1.0826378,-20.63847,-0.9104614,-0.2232666,-0.17596436,-0.0107421875,0.5498047,0.0146484375,6.697351,3.1388776,-57.918674,-20.41199,0.50305176,0.496521,0.7073364,-0.9033203,0.6904297,0.8417969,12.897233,13.968319,-128.80783,-13.787006,0.0,0.0,0.0,0.0,0.0,0.0,0.0,-5.94359,-127.955605,-12.09478,0.0,0.0,0.0,0.0,0.0,0.0,0.0,0.061454058,0.052293513,0.99687827,-0.5923462,0.032714844,-0.025634766,-0.9199219,0.15234375,-0.15234375,28.896769,1.2722905,1.0826378,20.63847,-0.8657837,-0.023376465,-0.29315186,-0.64160156,-4.448242,0.052734375,35.53004,-29.40286,-46.278946,28.722858,-0.75909424,0.80548096,1.2618408,0.19824219,-1.8515625,2.0048828,5.235138,-29.448133,-118.119774,23.975967,0.0,0.0,0.0,0.0,0.0,0.0,0.0,-49.256744,-120.23984,25.776894,0.0,0.0,0.0,0.0,0.0,0.0,0.0,3.3669775,44.807167,-2.5580242,
2.1289062182768252,109,-0.099121094,-0.95233154,0.29406738,0.18457031,-0.28222656,0.02734375,0.0,0.0,0.0,0.0,0.0,0.0,0.0,0.0,0.0,0.0,0.0,-0.06694767,-0.052257147,-0.99650306,0.869751,0.31292725,-0.40148926,-0.2421875,-0.6142578,0.23828125,9.894594,-1.3860252,-1.081885,-20.630701,-0.93933105,-0.1574707,-0.2703247,0.24023438,0.7050781,0.017578125,6.7589726,3.527847,-57.869823,-20.453438,0.45367432,0.47454834,0.71209717,-0.94140625,0.65234375,0.8046875,13.28292,15.070444,-128.64864,-13.866753,0.0,0.0,0.0,0.0,0.0,0.0,0.0,-4.8471947,-127.713295,-12.282886,0.0,0.0,0.0,0.0,0.0,0.0,0.0,0.06694767,0.052257147,0.99650306,-0.59313965,-0.04547119,-0.0063476562,-0.95410156,0.30566406,-0.09375,28.47831,1.3860252,1.081885,20.630701,-0.8684082,-0.058898926,-0.20379639,-0.7910156,-4.526367,-0.10058594,30.77953,-29.124886,-46.434807,28.432287,-0.98217773,0.35827637,1.3135376,-0.0234375,-2.0761719,2.1386719,6.3969364,-33.9943,-118.2655,26.895596,0.0,0.0,0.0,0.0,0.0,0.0,0.0,-53.895363,-119.44983,28.526192,0.0,0.0,0.0,0.0,0.0,0.0,0.0,3.487905,44.795406,-2.5834217,
