TOTAL_TIME,0m8s
TOTAL_FRAMES,400
SELECTED_FRAMES,400
NO_OF_JOINTS,12
FREQUENCY,51.2
DESCRIPTION,Capture 15
TIME_STAMP,Jul 8, 2010

Time,Frame,Pelvis_accelX_Pelvis,Pelvis_accelY_Pelvis,Pelvis_accelZ_Pelvis,Pelvis_gyroX_Pelvis,Pelvis_gyroY_Pelvis,Pelvis_gyroZ_Pelvis,Pelvis_Joint angle_Pelvis,Pelvis_Relative pos X_Pelvis,Pelvis_Relative pos Y_Pelvis,Pelvis_Relative pos Z_Pelvis,RightPelvis_accelX_RightPelvis,RightPelvis_accelY_RightPelvis,RightPelvis_accelZ_RightPelvis,RightPelvis_gyroX_RightPelvis,RightPelvis_gyroY_RightPelvis,RightPelvis_gyroZ_RightPelvis,RightPelvis_Joint angle_RightPelvis,RightPelvis_Relative pos X_RightPelvis,RightPelvis_Relative pos Y_RightPelvis,RightPelvis_Relative pos Z_RightPelvis,RightUpLeg_accelX_RightUpLeg,RightUpLeg_accelY_RightUpLeg,RightUpLeg_accelZ_RightUpLeg,RightUpLeg_gyroX_RightUpLeg,RightUpLeg_gyroY_RightUpLeg,RightUpLeg_gyroZ_RightUpLeg,RightUpLeg_Joint angle_RightUpLeg,RightUpLeg_Relative pos X_RightUpLeg,RightUpLeg_Relative pos Y_RightUpLeg,RightUpLeg_Relative pos Z_RightUpLeg,RightLeg_accelX_RightLeg,RightLeg_accelY_RightLeg,RightLeg_accelZ_RightLeg,RightLeg_gyroX_RightLeg,RightLeg_gyroY_RightLeg,RightLeg_gyroZ_RightLeg,RightLeg_Joint angle_RightLeg,RightLeg_Relative pos X_RightLeg,RightLeg_Relative pos Y_RightLeg,RightLeg_Relative pos Z_RightLeg,RightFoot_accelX_RightFoot,RightFoot_accelY_RightFoot,RightFoot_accelZ_RightFoot,RightFoot_gyroX_RightFoot,RightFoot_gyroY_RightFoot,RightFoot_gyroZ_RightFoot,RightFoot_Joint angle_RightFoot,RightFoot_Relative pos X_RightFoot,RightFoot_Relative pos Y_RightFoot,RightFoot_Relative pos Z_RightFoot,RightFootEnd_accelX_RightFootEnd,RightFootEnd_accelY_RightFootEnd,RightFootEnd_accelZ_RightFootEnd,RightFootEnd_gyroX_RightFootEnd,RightFootEnd_gyroY_RightFootEnd,RightFootEnd_gyroZ_RightFootEnd,RightFootEnd_Joint angle_RightFootEnd,RightFootEnd_Relative pos X_RightFootEnd,RightFootEnd_Relative pos Y_RightFootEnd,RightFootEnd_Relative pos Z_RightFootEnd,LeftPelvis_accelX_LeftPelvis,LeftPelvis_accelY_LeftPelvis,LeftPelvis_accelZ_LeftPelvis,LeftPelvis_gyroX_LeftPelvis,LeftPelvis_gyroY_LeftPelvis,LeftPelvis_gyroZ_LeftPelvis,LeftPelvis_Joint angle_LeftPelvis,LeftPelvis_Relative pos X_LeftPelvis,LeftPelvis_Relative pos Y_LeftPelvis,LeftPelvis_Relative pos Z_LeftPelvis,LeftUpLeg_accelX_LeftUpLeg,LeftUpLeg_accelY_LeftUpLeg,LeftUpLeg_accelZ_LeftUpLeg,LeftUpLeg_gyroX_LeftUpLeg,LeftUpLeg_gyroY_LeftUpLeg,LeftUpLeg_gyroZ_LeftUpLeg,LeftUpLeg_Joint angle_LeftUpLeg,LeftUpLeg_Relative pos X_LeftUpLeg,LeftUpLeg_Relative pos Y_LeftUpLeg,LeftUpLeg_Relative pos Z_LeftUpLeg,LeftLeg_accelX_LeftLeg,LeftLeg_accelY_LeftLeg,LeftLeg_accelZ_LeftLeg,LeftLeg_gyroX_LeftLeg,LeftLeg_gyroY_LeftLeg,LeftLeg_gyroZ_LeftLeg,LeftLeg_Joint angle_LeftLeg,LeftLeg_Relative pos X_LeftLeg,LeftLeg_Relative pos Y_LeftLeg,LeftLeg_Relative pos Z_LeftLeg,LeftFoot_accelX_LeftFoot,LeftFoot_accelY_LeftFoot,LeftFoot_accelZ_LeftFoot,LeftFoot_gyroX_LeftFoot,LeftFoot_gyroY_LeftFoot,LeftFoot_gyroZ_LeftFoot,LeftFoot_Joint angle_LeftFoot,LeftFoot_Relative pos X_LeftFoot,LeftFoot_Relative pos Y_LeftFoot,LeftFoot_Relative pos Z_LeftFoot,LeftFootEnd_accelX_LeftFootEnd,LeftFootEnd_accelY_LeftFootEnd,LeftFootEnd_accelZ_LeftFootEnd,LeftFootEnd_gyroX_LeftFootEnd,LeftFootEnd_gyroY_LeftFootEnd,LeftFootEnd_gyroZ_LeftFootEnd,LeftFootEnd_Joint angle_LeftFootEnd,LeftFootEnd_Relative pos X_LeftFootEnd,LeftFootEnd_Relative pos Y_LeftFootEnd,LeftFootEnd_Relative pos Z_LeftFootEnd,Spine_accelX_Spine,Spine_accelY_Spine,Spine_accelZ_Spine,Spine_gyroX_Spine,Spine_gyroY_Spine,Spine_gyroZ_Spine,Spine_Joint angle_Spine,Spine_Relative pos X_Spine,Spine_Relative pos Y_Spine,Spine_Relative pos Z_Spine,
0.0,0,0.0,0.0,0.0,0.0,0.0,0.0,0.0,0.0,0.0,0.0,0.0,0.0,0.0,0.0,0.0,0.0,0.0,0.0,0.0,0.0,0.0,0.0,0.0,0.0,0.0,0.0,NaN,0.0,0.0,0.0,0.0,0.0,0.0,0.0,0.0,0.0,NaN,0.0,0.0,0.0,0.0,0.0,0.0,0.0,0.0,0.0,NaN,0.0,0.0,0.0,0.0,0.0,0.0,0.0,0.0,0.0,0.0,0.0,0.0,0.0,0.0,0.0,0.0,0.0,0.0,0.0,0.0,0.0,0.0,0.0,0.0,0.0,0.0,0.0,0.0,0.0,NaN,0.0,0.0,0.0,0.0,0.0,0.0,0.0,0.0,0.0,NaN,0.0,0.0,0.0,0.0,0.0,0.0,0.0,0.0,0.0,NaN,0.0,0.0,0.0,0.0,0.0,0.0,0.0,0.0,0.0,0.0,0.0,0.0,0.0,0.0,0.0,0.0,0.0,0.0,0.0,0.0,0.0,0.0,0.0,
0.0195312497089617,1,0.0,0.0,0.0,0.0,0.0,0.0,0.0,0.0,0.0,0.0,0.0,0.0,0.0,0.0,0.0,0.0,0.0,0.0,0.0,0.0,0.0,0.0,0.0,0.0,0.0,0.0,NaN,0.0,0.0,0.0,0.0,0.0,0.0,0.0,0.0,0.0,NaN,0.0,0.0,0.0,0.0,0.0,0.0,0.0,0.0,0.0,NaN,0.0,0.0,0.0,0.0,0.0,0.0,0.0,0.0,0.0,0.0,0.0,0.0,0.0,0.0,0.0,0.0,0.0,0.0,0.0,0.0,0.0,0.0,0.0,0.0,0.0,0.0,0.0,0.0,0.0,NaN,0.0,0.0,0.0,0.0,0.0,0.0,0.0,0.0,0.0,NaN,0.0,0.0,0.0,0.0,0.0,0.0,0.0,0.0,0.0,NaN,0.0,0.0,0.0,0.0,0.0,0.0,0.0,0.0,0.0,0.0,0.0,0.0,0.0,0.0,0.0,0.0,0.0,0.0,0.0,0.0,0.0,0.0,0.0,
0.0390624994179234,2,0.0,0.0,0.0,0.0,0.0,0.0,0.0,0.0,0.0,0.0,0.0,0.0,0.0,0.0,0.0,0.0,0.0,0.0,0.0,0.0,0.0,0.0,0.0,0.0,0.0,0.0,NaN,0.0,0.0,0.0,0.0,0.0,0.0,0.0,0.0,0.0,NaN,0.0,0.0,0.0,0.0,0.0,0.0,0.0,0.0,0.0,NaN,0.0,0.0,0.0,0.0,0.0,0.0,0.0,0.0,0.0,0.0,0.0,0.0,0.0,0.0,0.0,0.0,0.0,0.0,0.0,0.0,0.0,0.0,0.0,0.0,0.0,0.0,0.0,0.0,0.0,NaN,0.0,0.0,0.0,0.0,0.0,0.0,0.0,0.0,0.0,NaN,0.0,0.0,0.0,0.0,0.0,0.0,0.0,0.0,0.0,NaN,0.0,0.0,0.0,0.0,0.0,0.0,0.0,0.0,0.0,0.0,0.0,0.0,0.0,0.0,0.0,0.0,0.0,0.0,0.0,0.0,0.0,0.0,0.0,
0.0585937491268851,3,-0.06719971,-0.8363037,0.5593872,-0.041015625,0.13769531,-0.026367188,0.0,0.0,0.0,0.0,0.0,0.0,0.0,0.0,0.0,0.0,0.0,-0.22761863,0.027048804,0.9734383,0.8851929,0.10253906,-0.4199829,-0.12988281,-0.0029296875,0.064453125,5.004568,-4.7124124,0.5599941,20.153193,-0.96087646,-0.053344727,-0.16326904,0.06933594,0.013671875,0.0029296875,4.1408024,-1.111639,-56.328606,19.934725,0.43182373,0.5029297,0.7359009,-0.018554688,0.00390625,0.009765625,6.627678,2.6445186,-128.09799,15.365826,0.0,0.0,0.0,0.0,0.0,0.0,0.0,21.93649,-127.77754,20.641396,0.0,0.0,0.0,0.0,0.0,0.0,0.0,0.22761863,-0.027048804,-0.9734383,-0.89611816,0.09851074,-0.385437,-0.10449219,0.67578125,1.1005859,3.3399405,4.7124124,-0.5599941,-20.153193,-1.00177,-0.0068969727,-0.044189453,0.020507812,0.6542969,0.36035156,2.5592556,3.3002014,-57.358364,-15.529026,-0.5621948,0.44458008,0.7310791,-0.07519531,0.0625,-0.0703125,2.0604208,5.270057,-129.20065,-10.898305,0.0,0.0,0.0,0.0,0.0,0.0,0.0,23.245327,-128.92528,-2.135129,0.0,0.0,0.0,0.0,0.0,0.0,0.0,0.8941604,44.98187,-1.0408242,
0.0781249988358468,4,-0.06427002,-0.84417725,0.5513916,0.015625,0.13671875,-0.06347656,0.0,0.0,0.0,0.0,0.0,0.0,0.0,0.0,0.0,0.0,0.0,-0.22591457,0.025652658,0.97412795,0.8874512,0.10821533,-0.40802002,-0.11035156,-0.0029296875,0.064453125,5.0103974,-4.677132,0.5310896,20.16747,-1.0018921,-0.04321289,-0.15484619,0.08886719,0.013671875,0.00390625,4.1769204,-1.0433121,-56.358784,19.914516,0.43774414,0.4772339,0.753479,-0.018554688,0.00390625,0.009765625,6.6658273,2.7497268,-128.122,15.254707,0.0,0.0,0.0,0.0,0.0,0.0,0.0,22.045685,-127.80372,20.52055,0.0,0.0,0.0,0.0,0.0,0.0,0.0,0.22591457,-0.025652658,-0.97412795,-0.9013672,0.10595703,-0.35687256,-0.06933594,0.5029297,0.92871094,4.558102,4.677132,-0.5310896,-20.16747,-0.9977417,-0.015686035,-0.040283203,0.041992188,0.06347656,0.017578125,3.2132707,2.813851,-57.219994,-14.463707,-0.51452637,0.47320557,0.769104,-0.09277344,-0.03125,-0.08984375,1.8600426,4.379591,-129.05524,-9.636073,0.0,0.0,0.0,0.0,0.0,0.0,0.0,22.338923,-128.78346,-0.8378315,0.0,0.0,0.0,0.0,0.0,0.0,0.0,0.8841411,44.994614,-0.9798416,
0.09765624854480849,5,-0.09552002,-0.8553467,0.5458374,-0.0029296875,0.13671875,-0.06347656,0.0,0.0,0.0,0.0,0.0,0.0,0.0,0.0,0.0,0.0,0.0,-0.22385222,0.024388628,0.97469074,0.88653564,0.11859131,-0.42993164,-0.12988281,-0.0029296875,0.064453125,5.032481,-4.6344337,0.5049202,20.179121,-0.98205566,-0.08630371,-0.16064453,0.06933594,0.032226562,0.022460938,4.14241,-0.9905548,-56.38016,19.845373,0.42364502,0.4744873,0.7554321,-0.020507812,0.080078125,0.0107421875,6.665033,2.8237884,-128.13562,15.125189,0.0,0.0,0.0,0.0,0.0,0.0,0.0,22.117386,-127.80688,20.398176,0.0,0.0,0.0,0.0,0.0,0.0,0.0,0.22385222,-0.024388628,-0.97469074,-0.92071533,0.1159668,-0.34509277,-0.0126953125,0.38867188,0.58691406,5.3907065,4.6344337,-0.5049202,-20.179121,-1.0130615,-0.024353027,-0.024353027,0.080078125,0.0068359375,-9.765625E-4,3.9917445,2.4463744,-57.108482,-13.770491,-0.52630615,0.4524536,0.75024414,-0.0546875,-0.049804688,-0.12792969,1.9336069,4.0525193,-128.94498,-8.983939,0.0,0.0,0.0,0.0,0.0,0.0,0.0,22.007883,-128.69778,-0.1771698,0.0,0.0,0.0,0.0,0.0,0.0,0.0,0.89259917,44.998074,-0.9209392,
0.11718749825377019,6,-0.0803833,-0.8458252,0.5466919,-0.041015625,0.17382812,-0.044921875,0.0,0.0,0.0,0.0,0.0,0.0,0.0,0.0,0.0,0.0,0.0,-0.22157371,0.022915758,0.97528327,0.8874512,0.07897949,-0.434021,-0.12988281,-0.0029296875,0.064453125,5.033688,-4.587262,0.47442725,20.191387,-0.97998047,-0.06982422,-0.18041992,0.06933594,0.049804688,0.041015625,4.1170864,-0.94404745,-56.414196,19.771982,0.4519043,0.49090576,0.7427368,-0.018554688,0.00390625,0.009765625,6.6512184,2.850263,-128.17746,14.980869,0.0,0.0,0.0,0.0,0.0,0.0,0.0,22.147263,-127.86751,20.236889,0.0,0.0,0.0,0.0,0.0,0.0,0.0,0.22157371,-0.022915758,-0.97528327,-0.9254761,0.12731934,-0.35980225,0.0048828125,0.140625,0.13183594,5.762828,4.587262,-0.47442725,-20.191387,-1.00177,-0.009887695,-0.036254883,0.061523438,0.0068359375,0.037109375,4.3228216,2.2768688,-57.03676,-13.516959,-0.5372925,0.44854736,0.74749756,0.001953125,-0.0126953125,0.040039062,1.8064528,3.908142,-128.88028,-8.788799,0.0,0.0,0.0,0.0,0.0,0.0,0.0,21.84819,-128.61404,0.04672432,0.0,0.0,0.0,0.0,0.0,0.0,0.0,0.8940242,45.000954,-0.8542531,
0.1367187479627319,7,-0.057250977,-0.8453369,0.55322266,0.015625,0.13671875,-0.044921875,0.0,0.0,0.0,0.0,0.0,0.0,0.0,0.0,0.0,0.0,0.0,-0.21961126,0.0211374,0.9758917,0.8757324,0.12243652,-0.4099121,-0.12890625,-0.0029296875,0.08300781,5.0837274,-4.5466337,0.4376097,20.203983,-0.9760132,-0.073913574,-0.17443848,0.049804688,0.03125,0.0029296875,4.1070375,-0.86219335,-56.445354,19.721695,0.4500122,0.5023804,0.7683716,-0.057617188,0.022460938,0.009765625,6.663738,2.9188545,-128.19101,14.88467,0.0,0.0,0.0,0.0,0.0,0.0,0.0,22.218952,-127.88147,20.130896,0.0,0.0,0.0,0.0,0.0,0.0,0.0,0.21961126,-0.0211374,-0.9758917,-0.9262085,0.09039307,-0.3590088,0.07714844,0.005859375,0.091796875,5.822583,4.5466337,-0.4376097,-20.203983,-1.0119019,0.0048217773,-0.034057617,0.080078125,-0.01171875,0.018554688,4.2887063,2.3715577,-57.012074,-13.544437,-0.5453491,0.46228027,0.7359009,0.01953125,0.061523438,0.021484375,1.7321227,4.0817785,-128.85002,-8.858755,0.0,0.0,0.0,0.0,0.0,0.0,0.0,22.010746,-128.57275,-8.468628E-4,0.0,0.0,0.0,0.0,0.0,0.0,0.0,0.9134016,45.00757,-0.7692961,
0.1562499976716936,8,-0.10028076,-0.8355713,0.54711914,-0.022460938,0.119140625,-0.044921875,0.0,0.0,0.0,0.0,0.0,0.0,0.0,0.0,0.0,0.0,0.0,-0.21770644,0.019625144,0.9763411,0.8590698,0.104003906,-0.4107666,-0.053710938,-0.0029296875,0.02734375,5.088427,-4.5071983,0.40630132,20.213287,-0.9819946,-0.078063965,-0.17053223,0.030273438,0.01171875,0.021484375,4.0776067,-0.83712626,-56.478886,19.692417,0.44683838,0.49499512,0.72991943,-0.018554688,0.00390625,0.009765625,6.641482,2.937268,-128.22145,14.84107,0.0,0.0,0.0,0.0,0.0,0.0,0.0,22.240984,-127.92324,20.07563,0.0,0.0,0.0,0.0,0.0,0.0,0.0,0.21770644,-0.019625144,-0.9763411,-0.90441895,0.11352539,-0.33618164,0.059570312,0.044921875,0.09277344,5.8484797,4.5071983,-0.40630132,-20.213287,-1.0079346,-0.005004883,-0.02319336,0.061523438,-0.0126953125,-9.765625E-4,4.1948395,2.453236,-56.991043,-13.595474,-0.5314331,0.465271,0.7515259,-0.018554688,0.061523438,0.0029296875,1.670701,4.192854,-128.83229,-8.912657,0.0,0.0,0.0,0.0,0.0,0.0,0.0,22.111994,-128.53395,-0.033773422,0.0,0.0,0.0,0.0,0.0,0.0,0.0,0.94165504,45.00781,-0.6947165,
0.1757812473806553,9,-0.0814209,-0.8517456,0.5595093,-0.0029296875,0.13769531,-0.026367188,0.0,0.0,0.0,0.0,0.0,0.0,0.0,0.0,0.0,0.0,0.0,-0.21587327,0.018125338,0.9767675,0.87841797,0.11047363,-0.41192627,-0.091796875,-0.022460938,0.064453125,5.070568,-4.469246,0.37525073,20.222115,-0.9949341,-0.064697266,-0.16174316,0.0107421875,-0.0068359375,0.021484375,4.0758295,-0.8161557,-56.507645,19.688585,0.4286499,0.4696045,0.7484741,9.765625E-4,0.00390625,0.009765625,6.6603527,2.9309647,-128.26617,14.824221,0.0,0.0,0.0,0.0,0.0,0.0,0.0,22.234665,-127.96691,20.05441,0.0,0.0,0.0,0.0,0.0,0.0,0.0,0.21587327,-0.018125338,-0.9767675,-0.9295044,0.09283447,-0.33239746,0.020507812,0.0068359375,0.091796875,5.8752975,4.469246,-0.37525073,-20.222115,-0.99975586,-0.010803223,-0.039245605,0.041992188,0.0068359375,0.037109375,4.1033163,2.5331454,-56.9674,-13.648019,-0.5111084,0.42486572,0.7605591,0.018554688,0.080078125,0.0029296875,1.6437773,4.30216,-128.81197,-8.96807,0.0,0.0,0.0,0.0,0.0,0.0,0.0,22.214832,-128.50142,-0.07565498,0.0,0.0,0.0,0.0,0.0,0.0,0.0,0.95745695,45.008095,-0.62358516,
0.19531249708961698,10,-0.08148193,-0.85668945,0.55548096,0.015625,0.119140625,-0.026367188,0.0,0.0,0.0,0.0,0.0,0.0,0.0,0.0,0.0,0.0,0.0,-0.21411774,0.016694898,0.97721994,0.87579346,0.09094238,-0.4229126,-0.09082031,-0.0029296875,0.064453125,5.0553985,-4.4329014,0.3456362,20.231483,-0.97698975,-0.0715332,-0.18829346,0.0107421875,0.030273438,0.001953125,4.116849,-0.78459144,-56.539265,19.706034,0.43188477,0.5008545,0.7467041,-0.018554688,0.00390625,0.009765625,6.657054,2.9256396,-128.29222,14.807669,0.0,0.0,0.0,0.0,0.0,0.0,0.0,22.232962,-127.99984,20.024652,0.0,0.0,0.0,0.0,0.0,0.0,0.0,0.21411774,-0.016694898,-0.97721994,-0.9217529,0.07928467,-0.31085205,9.765625E-4,-0.0126953125,0.053710938,5.8476753,4.4329014,-0.3456362,-20.231483,-0.99560547,0.002746582,-0.044128418,0.041992188,0.025390625,0.017578125,3.964374,2.6196976,-56.952316,-13.753337,-0.55267334,0.49291992,0.75720215,9.765625E-4,0.061523438,0.040039062,1.5884386,4.4234133,-128.79065,-9.065891,0.0,0.0,0.0,0.0,0.0,0.0,0.0,22.321224,-128.4541,-0.14760399,0.0,0.0,0.0,0.0,0.0,0.0,0.0,0.9682071,45.010525,-0.5568203,
0.21484374679857868,11,-0.10412598,-0.8206177,0.5305176,-0.0029296875,0.08300781,-0.026367188,0.0,0.0,0.0,0.0,0.0,0.0,0.0,0.0,0.0,0.0,0.0,-0.21221516,0.015177597,0.97766095,0.89630127,0.114868164,-0.45196533,-0.091796875,-0.022460938,0.046875,5.0555534,-4.393512,0.31422335,20.240614,-0.973999,-0.07458496,-0.15258789,0.0107421875,0.01171875,0.040039062,4.1252127,-0.7650013,-56.571697,19.687912,0.4487915,0.4772339,0.74560547,0.0,0.041992188,0.009765625,6.6704445,2.9338398,-128.31226,14.739714,0.0,0.0,0.0,0.0,0.0,0.0,0.0,22.24219,-128.01958,19.957306,0.0,0.0,0.0,0.0,0.0,0.0,0.0,0.21221516,-0.015177597,-0.97766095,-0.91778564,0.109802246,-0.33917236,0.001953125,0.0068359375,0.0546875,5.896943,4.393512,-0.31422335,-20.240614,-1.0130005,-0.022338867,-0.03729248,-0.0146484375,0.005859375,-9.765625E-4,3.8696373,2.6879053,-56.92607,-13.794432,-0.5153198,0.4553833,0.7490845,0.01953125,0.024414062,0.001953125,1.4712669,4.47902,-128.7697,-9.111361,0.0,0.0,0.0,0.0,0.0,0.0,0.0,22.364029,-128.4073,-0.1690607,0.0,0.0,0.0,0.0,0.0,0.0,0.0,0.9968867,45.01082,-0.48237753,
0.23437499650754037,12,-0.08135986,-0.84588623,0.56347656,0.015625,0.08300781,-0.0078125,0.0,0.0,0.0,0.0,0.0,0.0,0.0,0.0,0.0,0.0,0.0,-0.21107143,0.014194744,0.9777508,0.8805542,0.11437988,-0.4099121,-0.07324219,-0.022460938,0.009765625,5.0802574,-4.3698344,0.29387522,20.242472,-0.97888184,-0.053710938,-0.1595459,0.0107421875,0.01171875,0.021484375,4.173355,-0.74308825,-56.591335,19.687954,0.4317627,0.48529053,0.7387085,9.765625E-4,0.00390625,-0.0087890625,6.6413636,2.9736137,-128.33665,14.666838,0.0,0.0,0.0,0.0,0.0,0.0,0.0,22.282104,-128.0468,19.882648,0.0,0.0,0.0,0.0,0.0,0.0,0.0,0.21107143,-0.014194744,-0.9777508,-0.94195557,0.08312988,-0.33544922,0.0029296875,0.044921875,0.0546875,5.8653474,4.3698344,-0.29387522,-20.242472,-1.0172119,-0.026306152,-0.018371582,0.0048828125,0.025390625,0.017578125,3.7752762,2.7841034,-56.917152,-13.881924,-0.55944824,0.46826172,0.7461548,-0.018554688,0.061523438,0.0029296875,1.4619266,4.621319,-128.75691,-9.23679,0.0,0.0,0.0,0.0,0.0,0.0,0.0,22.498158,-128.39162,-0.2761631,0.0,0.0,0.0,0.0,0.0,0.0,0.0,1.0295101,45.003017,-0.43109763,
0.2539062462165021,13,-0.0791626,-0.8300781,0.5418701,-0.0029296875,0.064453125,-0.026367188,0.0,0.0,0.0,0.0,0.0,0.0,0.0,0.0,0.0,0.0,0.0,-0.21027035,0.01388708,0.97786224,0.88482666,0.12200928,-0.40197754,-0.072265625,-0.0029296875,0.045898438,5.119368,-4.353249,0.28750566,20.24478,-0.99505615,-0.09039307,-0.16082764,0.0107421875,0.030273438,0.001953125,4.179967,-0.7080405,-56.595978,19.658087,0.4348755,0.49871826,0.7584839,9.765625E-4,0.00390625,-0.0087890625,6.6113544,3.012565,-128.32875,14.594547,0.0,0.0,0.0,0.0,0.0,0.0,0.0,22.322245,-128.0374,19.803768,0.0,0.0,0.0,0.0,0.0,0.0,0.0,0.21027035,-0.01388708,-0.97786224,-0.9277954,0.07489014,-0.33447266,0.001953125,0.0068359375,0.016601562,5.795184,4.353249,-0.28750566,-20.24478,-1.0100708,-0.031188965,-0.030395508,0.0048828125,0.025390625,0.017578125,3.679137,2.8709407,-56.922607,-13.969707,-0.5510864,0.4484253,0.70910645,-0.018554688,0.061523438,0.021484375,1.4745883,4.7485437,-128.76233,-9.348002,0.0,0.0,0.0,0.0,0.0,0.0,0.0,22.621075,-128.38904,-0.38104248,0.0,0.0,0.0,0.0,0.0,0.0,0.0,1.0443071,44.999947,-0.4145074,
0.2734374959254638,14,-0.056884766,-0.8197632,0.56433105,-0.00390625,0.08300781,0.0107421875,0.0,0.0,0.0,0.0,0.0,0.0,0.0,0.0,0.0,0.0,0.0,-0.20908308,0.013760138,0.97815275,0.88049316,0.118652344,-0.42590332,-0.052734375,-0.00390625,0.064453125,5.1323256,-4.328666,0.2848775,20.250795,-0.9569702,-0.07080078,-0.17218018,-0.0087890625,0.01171875,0.001953125,4.169459,-0.68674517,-56.597263,19.62757,0.42962646,0.46673584,0.7406006,0.040039062,-0.015625,-0.009765625,6.597339,3.0324032,-128.33644,14.530296,0.0,0.0,0.0,0.0,0.0,0.0,0.0,22.343943,-128.04073,19.739536,0.0,0.0,0.0,0.0,0.0,0.0,0.0,0.20908308,-0.013760138,-0.97815275,-0.92248535,0.07910156,-0.34625244,0.0029296875,0.026367188,0.0546875,5.7152886,4.328666,-0.2848775,-20.250795,-0.99780273,-0.016723633,-0.030334473,0.0234375,0.043945312,-9.765625E-4,3.578999,2.9646013,-56.935963,-14.060091,-0.53948975,0.45648193,0.7763672,0.01953125,0.061523438,0.021484375,1.4407574,4.9018517,-128.77402,-9.4542055,0.0,0.0,0.0,0.0,0.0,0.0,0.0,22.763084,-128.38644,-0.4638853,0.0,0.0,0.0,0.0,0.0,0.0,0.0,1.0522488,45.001324,-0.40813357,
0.2929687456344255,15,-0.07354736,-0.8607788,0.55633545,-0.022460938,0.08300781,0.0107421875,0.0,0.0,0.0,0.0,0.0,0.0,0.0,0.0,0.0,0.0,0.0,-0.20907578,0.013243694,0.978186,0.895874,0.0947876,-0.4420166,-0.034179688,0.015625,0.02734375,5.1161904,-4.328518,0.27418557,20.251482,-0.9829712,-0.06085205,-0.1843872,-0.0087890625,0.030273438,0.001953125,4.165417,-0.7029667,-56.61024,19.612818,0.43292236,0.5076294,0.7506714,0.020507812,-0.015625,-0.009765625,6.601261,2.97966,-128.35641,14.506191,0.0,0.0,0.0,0.0,0.0,0.0,0.0,22.291498,-128.06189,19.710323,0.0,0.0,0.0,0.0,0.0,0.0,0.0,0.20907578,-0.013243694,-0.978186,-0.9243164,0.09661865,-0.3255005,-0.016601562,0.0068359375,0.03515625,5.6761637,4.328518,-0.27418557,-20.251482,-0.9876709,-0.014038086,-0.012451172,0.0048828125,0.025390625,0.017578125,3.4939594,3.0784116,-56.936996,-14.130394,-0.52752686,0.46826172,0.7653198,9.765625E-4,0.061523438,0.021484375,1.4030479,5.0753164,-128.77335,-9.540309,0.0,0.0,0.0,0.0,0.0,0.0,0.0,22.921974,-128.37227,-0.52379036,0.0,0.0,0.0,0.0,0.0,0.0,0.0,1.0550762,45.002556,-0.38378108,
0.3124999953433872,16,-0.084106445,-0.82403564,0.54296875,-0.00390625,0.028320312,-0.0078125,0.0,0.0,0.0,0.0,0.0,0.0,0.0,0.0,0.0,0.0,0.0,-0.20863032,0.01317397,0.9782259,0.88012695,0.09838867,-0.40594482,-0.0146484375,0.015625,0.02734375,5.090275,-4.319294,0.27274203,20.25231,-0.960022,-0.092163086,-0.15344238,-0.028320312,0.0107421875,0.001953125,4.23702,-0.7029605,-56.614563,19.66941,0.4338379,0.4998169,0.7486572,9.765625E-4,0.00390625,-0.0087890625,6.592254,2.9769683,-128.36035,14.535545,0.0,0.0,0.0,0.0,0.0,0.0,0.0,22.289541,-128.06865,19.734842,0.0,0.0,0.0,0.0,0.0,0.0,0.0,0.20863032,-0.01317397,-0.9782259,-0.8850708,0.111206055,-0.33319092,-0.016601562,0.026367188,0.0546875,5.628174,4.319294,-0.27274203,-20.25231,-0.9937134,-0.024475098,-0.0423584,0.0234375,0.043945312,0.037109375,3.4317656,3.161622,-56.943253,-14.183124,-0.510437,0.47607422,0.7432251,-0.018554688,0.061523438,0.0029296875,1.3568176,5.199992,-128.78824,-9.61622,0.0,0.0,0.0,0.0,0.0,0.0,0.0,23.038464,-128.36519,-0.5808945,0.0,0.0,0.0,0.0,0.0,0.0,0.0,1.0517206,45.000175,-0.38172185,
0.3320312450523489,17,-0.096069336,-0.8178711,0.53826904,-0.00390625,0.1015625,0.0107421875,0.0,0.0,0.0,0.0,0.0,0.0,0.0,0.0,0.0,0.0,0.0,-0.20824185,0.013004055,0.9783077,0.8840332,0.107177734,-0.44989014,-0.0146484375,0.015625,0.0087890625,5.066432,-4.311251,0.26922426,20.254002,-0.9840088,-0.08648682,-0.15570068,-0.0087890625,0.01171875,0.001953125,4.285646,-0.7180095,-56.62216,19.695026,0.44091797,0.50079346,0.7437744,9.765625E-4,0.00390625,0.028320312,6.5553536,3.005202,-128.35153,14.505253,0.0,0.0,0.0,0.0,0.0,0.0,0.0,22.319704,-128.06175,19.701366,0.0,0.0,0.0,0.0,0.0,0.0,0.0,0.20824185,-0.013004055,-0.9783077,-0.91503906,0.09765625,-0.333313,-0.03515625,0.045898438,0.0546875,5.5835996,4.311251,-0.26922426,-20.254002,-1.0080566,-0.021606445,-0.013366699,-0.0146484375,0.005859375,0.017578125,3.3719106,3.2405162,-56.94978,-14.243112,-0.5393677,0.45446777,0.7575073,-0.018554688,0.061523438,0.0029296875,1.3391066,5.333097,-128.78929,-9.69599,0.0,0.0,0.0,0.0,0.0,0.0,0.0,23.161533,-128.35262,-0.64396477,0.0,0.0,0.0,0.0,0.0,0.0,0.0,1.0567597,44.999985,-0.3732167,
0.3515624947613106,18,-0.06488037,-0.8156738,0.55755615,-0.022460938,0.046875,-0.0078125,0.0,0.0,0.0,0.0,0.0,0.0,0.0,0.0,0.0,0.0,0.0,-0.20732921,0.01278607,0.97851384,0.8763428,0.11920166,-0.44482422,-0.0146484375,0.03515625,-0.009765625,5.0272617,-4.292357,0.26471126,20.25827,-0.98101807,-0.07287598,-0.17944336,-0.0087890625,-0.025390625,-0.016601562,4.308435,-0.73662424,-56.627823,19.677855,0.43780518,0.48712158,0.7426758,-0.001953125,0.099609375,0.029296875,6.581089,2.9693666,-128.35098,14.422327,0.0,0.0,0.0,0.0,0.0,0.0,0.0,22.283052,-128.06084,19.617477,0.0,0.0,0.0,0.0,0.0,0.0,0.0,0.20732921,-0.01278607,-0.97851384,-0.89453125,0.106933594,-0.31451416,-0.015625,0.045898438,0.036132812,5.5514617,4.292357,-0.26471126,-20.25827,-1.0029297,-0.024475098,-0.027404785,-0.013671875,0.024414062,-9.765625E-4,3.3320765,3.2813575,-56.94758,-14.292986,-0.5109863,0.41497803,0.75354004,9.765625E-4,0.061523438,0.040039062,1.303863,5.4074106,-128.78726,-9.770542,0.0,0.0,0.0,0.0,0.0,0.0,0.0,23.226097,-128.33813,-0.70148945,0.0,0.0,0.0,0.0,0.0,0.0,0.0,1.0531659,45.000557,-0.36486784,
0.37109374447027227,19,-0.06512451,-0.8364868,0.5840454,-0.022460938,0.028320312,-0.0078125,0.0,0.0,0.0,0.0,0.0,0.0,0.0,0.0,0.0,0.0,0.0,-0.20684189,0.012927491,0.97861034,0.87908936,0.10394287,-0.4298706,-0.034179688,0.015625,-0.009765625,5.0435643,-4.2822685,0.2676392,20.26027,-0.9749756,-0.07287598,-0.14465332,-0.0087890625,0.06640625,0.020507812,4.271547,-0.7233491,-56.62206,19.645216,0.4286499,0.4755249,0.74261475,0.0,0.022460938,-0.0087890625,6.5129786,3.0243301,-128.33675,14.38379,0.0,0.0,0.0,0.0,0.0,0.0,0.0,22.339727,-128.04773,19.575619,0.0,0.0,0.0,0.0,0.0,0.0,0.0,0.20684189,-0.012927491,-0.97861034,-0.92474365,0.120910645,-0.34210205,-0.03515625,0.045898438,0.0546875,5.518924,4.2822685,-0.2676392,-20.26027,-0.9987793,-0.0099487305,-0.028259277,-0.0146484375,0.043945312,0.037109375,3.2884288,3.3320618,-56.958424,-14.3229065,-0.5344238,0.4711914,0.7416992,-0.017578125,0.024414062,0.0029296875,1.2039852,5.4561777,-128.80396,-9.823663,0.0,0.0,0.0,0.0,0.0,0.0,0.0,23.265285,-128.33595,-0.7361269,0.0,0.0,0.0,0.0,0.0,0.0,0.0,1.0562581,45.00022,-0.37120143,
0.39062499417923396,20,-0.07611084,-0.82922363,0.5546875,-0.022460938,0.046875,0.0107421875,0.0,0.0,0.0,0.0,0.0,0.0,0.0,0.0,0.0,0.0,0.0,-0.20581743,0.013366008,0.9788102,0.90026855,0.10223389,-0.42407227,-0.015625,-0.00390625,0.009765625,5.067631,-4.2610574,0.27671778,20.264404,-0.98498535,-0.07128906,-0.13586426,-0.0087890625,-0.026367188,0.021484375,4.30507,-0.689229,-56.60944,19.652971,0.42767334,0.4744873,0.7475586,-0.018554688,0.00390625,0.009765625,6.505899,3.057908,-128.3399,14.356153,0.0,0.0,0.0,0.0,0.0,0.0,0.0,22.373379,-128.05229,19.54709,0.0,0.0,0.0,0.0,0.0,0.0,0.0,0.20581743,-0.013366008,-0.9788102,-0.91674805,0.11077881,-0.3381958,-0.015625,0.045898438,0.0546875,5.4465084,4.2610574,-0.27671778,-20.264404,-1.001831,-0.022460938,-0.045288086,0.0048828125,0.025390625,0.017578125,3.2444358,3.3650556,-56.972294,-14.37838,-0.5211792,0.44744873,0.7352295,-0.018554688,0.061523438,0.021484375,1.1365998,5.515648,-128.81825,-9.90522,0.0,0.0,0.0,0.0,0.0,0.0,0.0,23.313427,-128.33498,-0.7936611,0.0,0.0,0.0,0.0,0.0,0.0,0.0,1.0614481,44.99948,-0.3912903,
0.41015624388819566,21,-0.07928467,-0.8399048,0.5437622,-0.022460938,0.046875,0.0107421875,0.0,0.0,0.0,0.0,0.0,0.0,0.0,0.0,0.0,0.0,0.0,-0.20537555,0.013093231,0.97891545,0.87042236,0.11895752,-0.42578125,-0.053710938,-0.0029296875,0.02734375,5.0723066,-4.2519107,0.27107045,20.266586,-0.98687744,-0.048095703,-0.1843872,0.049804688,0.03125,0.021484375,4.29742,-0.68119025,-56.61848,19.642172,0.4508667,0.48199463,0.75250244,-0.017578125,-0.015625,0.009765625,6.5021,3.0327938,-128.34328,14.348523,0.0,0.0,0.0,0.0,0.0,0.0,0.0,22.351526,-128.06342,19.529472,0.0,0.0,0.0,0.0,0.0,0.0,0.0,0.20537555,-0.013093231,-0.97891545,-0.92285156,0.07159424,-0.32269287,-0.036132812,0.0068359375,0.0546875,5.408417,4.2519107,-0.27107045,-20.266586,-1.0078735,-0.0126953125,-0.042175293,-0.0146484375,0.06347656,0.017578125,3.161431,3.444622,-56.97205,-14.444063,-0.5293579,0.46228027,0.7474365,-0.018554688,0.061523438,0.0029296875,1.1034036,5.6184454,-128.81322,-9.985296,0.0,0.0,0.0,0.0,0.0,0.0,0.0,23.410946,-128.32211,-0.8641529,0.0,0.0,0.0,0.0,0.0,0.0,0.0,1.0669501,44.99985,-0.3780387,
0.42968749359715736,22,-0.0770874,-0.82922363,0.5665283,-0.00390625,0.028320312,-0.0078125,0.0,0.0,0.0,0.0,0.0,0.0,0.0,0.0,0.0,0.0,0.0,-0.20504391,0.013284003,0.9789562,0.8640747,0.109375,-0.43572998,-0.07128906,0.03515625,0.045898438,5.050358,-4.2450438,0.27502006,20.267427,-0.97906494,-0.08691406,-0.17150879,-0.0087890625,0.047851562,0.020507812,4.29213,-0.7077477,-56.61498,19.623356,0.43377686,0.49121094,0.73187256,0.01953125,0.041992188,0.028320312,6.5096054,2.9727964,-128.34006,14.309052,0.0,0.0,0.0,0.0,0.0,0.0,0.0,22.290565,-128.06488,19.48958,0.0,0.0,0.0,0.0,0.0,0.0,0.0,0.20504391,-0.013284003,-0.9789562,-0.9286499,0.08380127,-0.33050537,-0.036132812,0.0078125,0.03515625,5.333698,4.2450438,-0.27502006,-20.267427,-1.0109253,-0.0068359375,-0.039123535,-0.033203125,0.043945312,0.017578125,3.0765715,3.4991598,-56.986763,-14.515432,-0.519104,0.43762207,0.7420044,-0.036132812,0.024414062,0.0029296875,1.0916362,5.686091,-128.83195,-10.060429,0.0,0.0,0.0,0.0,0.0,0.0,0.0,23.47553,-128.33649,-0.9325104,0.0,0.0,0.0,0.0,0.0,0.0,0.0,1.0701098,44.99855,-0.38647422,
0.44921874330611905,23,-0.07611084,-0.8302002,0.5536499,-0.022460938,0.028320312,0.0107421875,0.0,0.0,0.0,0.0,0.0,0.0,0.0,0.0,0.0,0.0,0.0,-0.20378271,0.013343054,0.9791976,0.8852539,0.07104492,-0.42999268,-0.0146484375,-0.00390625,0.045898438,5.039251,-4.218934,0.27624255,20.272429,-0.9960327,-0.08996582,-0.17572021,-0.0087890625,0.08496094,0.020507812,4.352982,-0.6995263,-56.613804,19.667053,0.4277954,0.4920044,0.7574463,9.765625E-4,0.022460938,0.009765625,6.5099974,2.925511,-128.33662,14.331785,0.0,0.0,0.0,0.0,0.0,0.0,0.0,22.243526,-128.05736,19.514772,0.0,0.0,0.0,0.0,0.0,0.0,0.0,0.20378271,-0.013343054,-0.9791976,-0.9215088,0.07989502,-0.3383789,-0.053710938,0.026367188,0.03515625,5.280604,4.218934,-0.27624255,-20.272429,-0.9957886,-0.020629883,-0.032409668,0.0234375,0.043945312,0.017578125,3.0010052,3.558395,-56.996803,-14.58386,-0.54034424,0.44854736,0.7564697,0.01953125,0.024414062,0.020507812,1.0494115,5.768036,-128.83786,-10.151562,0.0,0.0,0.0,0.0,0.0,0.0,0.0,23.547985,-128.33484,-1.005147,0.0,0.0,0.0,0.0,0.0,0.0,0.0,1.0818546,44.997326,-0.3880099,
0.46874999301508075,24,-0.055847168,-0.81585693,0.5673218,-0.041015625,0.029296875,0.029296875,0.0,0.0,0.0,0.0,0.0,0.0,0.0,0.0,0.0,0.0,0.0,-0.20330259,0.01400118,0.9792599,0.88586426,0.101257324,-0.45288086,-0.0146484375,0.034179688,0.0087890625,4.9962225,-4.208994,0.28986788,20.273716,-0.993042,-0.094177246,-0.16479492,-0.0087890625,-0.026367188,0.041015625,4.358063,-0.74255943,-56.60576,19.667955,0.43060303,0.4716797,0.73376465,0.001953125,-0.015625,-0.009765625,6.5340204,2.8837569,-128.33478,14.304791,0.0,0.0,0.0,0.0,0.0,0.0,0.0,22.202595,-128.05931,19.485947,0.0,0.0,0.0,0.0,0.0,0.0,0.0,0.20330259,-0.01400118,-0.9792599,-0.9154663,0.07867432,-0.33050537,-0.03515625,0.0078125,0.016601562,5.1787295,4.208994,-0.28986788,-20.273716,-0.9906616,-0.02355957,-0.040405273,0.0048828125,0.06347656,0.017578125,2.8785484,3.6319406,-57.012573,-14.661121,-0.5239868,0.4326172,0.72125244,-0.018554688,0.061523438,0.021484375,0.9581792,5.7809772,-128.85788,-10.247235,0.0,0.0,0.0,0.0,0.0,0.0,0.0,23.557535,-128.3413,-1.0954342,0.0,0.0,0.0,0.0,0.0,0.0,0.0,1.0820293,44.995792,-0.41869888,
0.48828124272404244,25,-0.07330322,-0.8430786,0.56536865,-0.060546875,0.047851562,0.029296875,0.0,0.0,0.0,0.0,0.0,0.0,0.0,0.0,0.0,0.0,0.0,-0.20323142,0.014540068,0.97931087,0.894104,0.10272217,-0.43798828,0.0048828125,0.034179688,-0.009765625,4.9692097,-4.2075205,0.3010245,20.27477,-0.9949951,-0.072387695,-0.19940186,-0.0087890625,0.10449219,-0.017578125,4.3684325,-0.76524687,-56.596214,19.672974,0.43566895,0.4725952,0.73376465,-0.017578125,0.00390625,0.028320312,6.566502,2.7782943,-128.3258,14.316158,0.0,0.0,0.0,0.0,0.0,0.0,0.0,22.09862,-128.0511,19.489975,0.0,0.0,0.0,0.0,0.0,0.0,0.0,0.20323142,-0.014540068,-0.97931087,-0.9281006,0.110839844,-0.33428955,-0.016601562,0.026367188,0.0546875,5.122199,4.2075205,-0.3010245,-20.27477,-1.00177,-0.006958008,-0.030212402,-0.0146484375,0.043945312,0.017578125,2.818834,3.711946,-57.02807,-14.697061,-0.5272827,0.45733643,0.74139404,-0.018554688,0.061523438,0.0029296875,0.91898423,5.877985,-128.87314,-10.291355,0.0,0.0,0.0,0.0,0.0,0.0,0.0,23.649265,-128.34201,-1.1301212,0.0,0.0,0.0,0.0,0.0,0.0,0.0,1.0738378,44.997677,-0.44524357,
0.5078124924330042,26,-0.07897949,-0.8183594,0.56469727,-0.041015625,0.0107421875,0.0107421875,0.0,0.0,0.0,0.0,0.0,0.0,0.0,0.0,0.0,0.0,0.0,-0.20243192,0.014582506,0.9795164,0.8869629,0.09881592,-0.43395996,0.022460938,-0.00390625,0.009765625,4.953691,-4.1909695,0.3019031,20.279028,-0.9729614,-0.064453125,-0.16149902,-0.0087890625,0.01171875,0.001953125,4.358513,-0.76697874,-56.597,19.684765,0.44482422,0.48413086,0.7426758,-0.018554688,0.00390625,0.009765625,6.544066,2.7667217,-128.33066,14.346296,0.0,0.0,0.0,0.0,0.0,0.0,0.0,22.086294,-128.06145,19.519833,0.0,0.0,0.0,0.0,0.0,0.0,0.0,0.20243192,-0.014582506,-0.9795164,-0.94506836,0.0859375,-0.324646,-0.034179688,0.045898438,0.036132812,5.0709934,4.1909695,-0.3019031,-20.279028,-0.99975586,-0.0040893555,-0.02722168,0.0234375,0.043945312,0.037109375,2.742668,3.7761993,-57.040356,-14.764982,-0.54730225,0.4593506,0.7359009,9.765625E-4,0.061523438,0.040039062,0.89306724,5.976755,-128.88425,-10.367327,0.0,0.0,0.0,0.0,0.0,0.0,0.0,23.744425,-128.33733,-1.2003899,0.0,0.0,0.0,0.0,0.0,0.0,0.0,1.0767363,44.99938,-0.44740236,
0.5273437421419659,27,-0.07421875,-0.83709717,0.5526123,-0.022460938,0.029296875,0.029296875,0.0,0.0,0.0,0.0,0.0,0.0,0.0,0.0,0.0,0.0,0.0,-0.20139945,0.014503805,0.97974724,0.8751831,0.10681152,-0.421875,-0.0146484375,0.03515625,-0.028320312,4.951318,-4.169594,0.30027375,20.283806,-0.9869385,-0.050354004,-0.17547607,-0.047851562,0.029296875,-0.037109375,4.329522,-0.7591152,-56.59787,19.680643,0.4459839,0.50549316,0.75756836,9.765625E-4,0.022460938,0.009765625,6.53918,2.763494,-128.3289,14.367049,0.0,0.0,0.0,0.0,0.0,0.0,0.0,22.083393,-128.05702,19.542162,0.0,0.0,0.0,0.0,0.0,0.0,0.0,0.20139945,-0.014503805,-0.97974724,-0.899353,0.109558105,-0.33911133,-0.036132812,0.0068359375,0.0546875,5.0635695,4.169594,-0.30027375,-20.283806,-1.0181274,-0.021362305,-0.029296875,-0.013671875,0.043945312,-9.765625E-4,2.7042155,3.812839,-57.03828,-14.796339,-0.54901123,0.44055176,0.7109375,-0.018554688,0.061523438,0.040039062,0.89503706,6.020546,-128.88309,-10.414782,0.0,0.0,0.0,0.0,0.0,0.0,0.0,23.787209,-128.3337,-1.2479696,0.0,0.0,0.0,0.0,0.0,0.0,0.0,1.0847673,44.99997,-0.44317475,
0.5468749918509276,28,-0.11004639,-0.8147583,0.5593262,-0.060546875,0.01171875,0.06640625,0.0,0.0,0.0,0.0,0.0,0.0,0.0,0.0,0.0,0.0,0.0,-0.2008842,0.014417471,0.9798055,0.8779907,0.10949707,-0.4578247,-0.0146484375,0.034179688,0.0087890625,4.9390364,-4.1589246,0.29848632,20.285011,-0.9569702,-0.07800293,-0.16430664,-0.0087890625,0.048828125,0.001953125,4.3090262,-0.7765856,-56.601864,19.659355,0.44586182,0.48901367,0.7416992,0.001953125,-0.015625,0.0087890625,6.490177,2.7417445,-128.33612,14.334852,0.0,0.0,0.0,0.0,0.0,0.0,0.0,22.064604,-128.07024,19.496855,0.0,0.0,0.0,0.0,0.0,0.0,0.0,0.2008842,-0.014417471,-0.9798055,-0.91955566,0.10858154,-0.37268066,-0.03515625,0.0078125,0.016601562,5.0651555,4.1589246,-0.29848632,-20.285011,-1.0037842,0.0028076172,-0.03314209,0.0048828125,0.08203125,-0.001953125,2.650701,3.8429148,-57.035534,-14.814052,-0.555603,0.4703369,0.7758789,-0.017578125,0.04296875,0.040039062,0.82258147,5.9936523,-128.88797,-10.436802,0.0,0.0,0.0,0.0,0.0,0.0,0.0,23.748095,-128.3365,-1.2477608,0.0,0.0,0.0,0.0,0.0,0.0,0.0,1.0940392,44.997646,-0.43781865,
0.5664062415598893,29,-0.07330322,-0.84503174,0.5623779,-0.041015625,0.0107421875,0.047851562,0.0,0.0,0.0,0.0,0.0,0.0,0.0,0.0,0.0,0.0,0.0,-0.20087692,0.014362566,0.979756,0.90270996,0.08453369,-0.43414307,0.024414062,0.053710938,0.0087890625,4.904206,-4.158775,0.29734966,20.283985,-0.9940796,-0.08831787,-0.16278076,-0.028320312,0.029296875,0.001953125,4.3151126,-0.80002856,-56.60292,19.668812,0.4387207,0.47644043,0.7387085,-0.017578125,0.00390625,0.028320312,6.416249,2.7537227,-128.32675,14.331427,0.0,0.0,0.0,0.0,0.0,0.0,0.0,22.080275,-128.0658,19.482162,0.0,0.0,0.0,0.0,0.0,0.0,0.0,0.20087692,-0.014362566,-0.979756,-0.9188843,0.10784912,-0.34020996,-0.036132812,0.0068359375,0.0546875,5.043642,4.158775,-0.29734966,-20.283985,-1.0089111,-0.0059814453,-0.02319336,0.00390625,0.08203125,0.037109375,2.591783,3.900548,-57.040146,-14.846626,-0.5282593,0.4691162,0.7216797,-0.018554688,0.061523438,0.0029296875,0.7858408,6.0376644,-128.88919,-10.473921,0.0,0.0,0.0,0.0,0.0,0.0,0.0,23.783796,-128.33485,-1.2666111,0.0,0.0,0.0,0.0,0.0,0.0,0.0,1.0866243,44.995552,-0.4368168,
0.585937491268851,30,-0.0869751,-0.814209,0.54907227,-0.041015625,0.0107421875,0.047851562,0.0,0.0,0.0,0.0,0.0,0.0,0.0,0.0,0.0,0.0,0.0,-0.20060751,0.014052838,0.97980934,0.8996582,0.08355713,-0.4321289,0.04296875,0.053710938,-0.009765625,4.8681207,-4.153196,0.29093733,20.285091,-0.97088623,-0.051757812,-0.18719482,-0.047851562,0.08496094,9.765625E-4,4.3440638,-0.81511855,-56.6122,19.685709,0.42773438,0.48718262,0.753479,-0.018554688,0.00390625,0.009765625,6.4116635,2.6950614,-128.35019,14.334461,0.0,0.0,0.0,0.0,0.0,0.0,0.0,22.021612,-128.08923,19.485197,0.0,0.0,0.0,0.0,0.0,0.0,0.0,0.20060751,-0.014052838,-0.97980934,-0.92126465,0.095703125,-0.33044434,-0.036132812,0.0078125,0.03515625,5.0123525,4.153196,-0.29093733,-20.285091,-1.0009766,-0.040100098,-0.022583008,0.0048828125,0.06347656,0.017578125,2.5249922,3.9671543,-57.044853,-14.910063,-0.54748535,0.46929932,0.75683594,-0.037109375,0.1171875,0.041015625,0.7459858,6.107667,-128.90024,-10.566572,0.0,0.0,0.0,0.0,0.0,0.0,0.0,23.848408,-128.33606,-1.347805,0.0,0.0,0.0,0.0,0.0,0.0,0.0,1.0800592,44.99555,-0.4242124,
0.6054687409778127,31,-0.08123779,-0.83599854,0.55963135,-0.041992188,-0.0068359375,0.06640625,0.0,0.0,0.0,0.0,0.0,0.0,0.0,0.0,0.0,0.0,0.0,-0.20011598,0.0139354095,0.9799205,0.87957764,0.083984375,-0.42596436,0.0048828125,0.053710938,-0.028320312,4.8658667,-4.143021,0.28850618,20.287394,-0.99298096,-0.07446289,-0.16375732,-0.047851562,0.029296875,-0.017578125,4.3505516,-0.80737853,-56.61573,19.704468,0.44580078,0.47808838,0.7554321,0.001953125,-0.015625,-0.009765625,6.366735,2.70989,-128.35414,14.362614,0.0,0.0,0.0,0.0,0.0,0.0,0.0,22.038315,-128.09717,19.508274,0.0,0.0,0.0,0.0,0.0,0.0,0.0,0.20011598,-0.0139354095,-0.9799205,-0.94750977,0.06878662,-0.31585693,-0.0546875,0.0078125,-0.001953125,4.999789,4.143021,-0.28850618,-20.287394,-1.0039062,-0.022460938,-0.033325195,0.0234375,0.1015625,0.017578125,2.4415212,4.0574045,-57.042336,-14.960016,-0.524353,0.47113037,0.7315674,-0.018554688,0.061523438,0.040039062,0.67289436,6.1270866,-128.8949,-10.652252,0.0,0.0,0.0,0.0,0.0,0.0,0.0,23.859997,-128.32925,-1.4230213,0.0,0.0,0.0,0.0,0.0,0.0,0.0,1.0845828,44.99589,-0.418395,
0.6249999906867744,32,-0.08605957,-0.8231201,0.55688477,-0.060546875,-0.04296875,0.06640625,0.0,0.0,0.0,0.0,0.0,0.0,0.0,0.0,0.0,0.0,0.0,-0.19905233,0.01383253,0.9800475,0.8786621,0.092285156,-0.44189453,0.061523438,0.034179688,-0.028320312,4.838453,-4.121,0.28637627,20.290022,-0.9558716,-0.04522705,-0.16912842,-0.06640625,0.028320312,-0.018554688,4.393558,-0.80790067,-56.62035,19.754032,0.45288086,0.48687744,0.7505493,-0.018554688,0.022460938,0.028320312,6.3425756,2.6604445,-128.35248,14.421932,0.0,0.0,0.0,0.0,0.0,0.0,0.0,21.990484,-128.10356,19.56006,0.0,0.0,0.0,0.0,0.0,0.0,0.0,0.19905233,-0.01383253,-0.9800475,-0.9058838,0.10882568,-0.3017578,-0.091796875,0.02734375,0.016601562,5.0338435,4.121,-0.28637627,-20.290022,-1.0109863,-0.0040283203,-0.0211792,0.0234375,0.12109375,0.037109375,2.3423455,4.163306,-57.039295,-14.971626,-0.52648926,0.48590088,0.7347412,-0.018554688,0.061523438,0.040039062,0.5623221,6.1116714,-128.90169,-10.648964,0.0,0.0,0.0,0.0,0.0,0.0,0.0,23.839054,-128.32292,-1.40728,0.0,0.0,0.0,0.0,0.0,0.0,0.0,1.0899758,44.991787,-0.41364127,
0.6445312403957361,33,-0.085510254,-0.85668945,0.5684204,-0.060546875,-0.04296875,0.047851562,0.0,0.0,0.0,0.0,0.0,0.0,0.0,0.0,0.0,0.0,0.0,-0.19798315,0.01356492,0.98030394,0.8949585,0.09564209,-0.43206787,0.09863281,0.0146484375,-0.045898438,4.7738476,-4.0988655,0.28083587,20.295332,-0.9890747,-0.0927124,-0.17858887,-0.0859375,0.028320312,-0.018554688,4.4422812,-0.8296251,-56.627636,19.824898,0.44189453,0.5058594,0.72509766,9.765625E-4,0.022460938,0.009765625,6.289461,2.593773,-128.35675,14.510883,0.0,0.0,0.0,0.0,0.0,0.0,0.0,21.923813,-128.10783,19.649012,0.0,0.0,0.0,0.0,0.0,0.0,0.0,0.19798315,-0.01356492,-0.98030394,-0.95428467,0.09643555,-0.2970581,-0.111328125,0.0087890625,-0.021484375,5.087079,4.0988655,-0.28083587,-20.295332,-1.0108032,0.020263672,-0.021972656,-0.033203125,0.10058594,-0.001953125,2.2751188,4.2350416,-57.038475,-14.96151,-0.5372925,0.4593506,0.7337036,-0.018554688,0.061523438,0.040039062,0.49535072,6.091535,-128.89398,-10.59375,0.0,0.0,0.0,0.0,0.0,0.0,0.0,23.818335,-128.29944,-1.3514738,0.0,0.0,0.0,0.0,0.0,0.0,0.0,1.0863361,44.99357,-0.4031992,
0.6640624901046978,34,-0.09643555,-0.8453369,0.5162964,-0.060546875,-0.061523438,0.08496094,0.0,0.0,0.0,0.0,0.0,0.0,0.0,0.0,0.0,0.0,0.0,-0.20014843,0.012189334,0.9799194,0.9077759,0.082214355,-0.4251709,0.13867188,0.072265625,-0.06542969,4.639583,-4.143694,0.25235698,20.287369,-0.9790039,-0.078125,-0.16851807,-0.0859375,0.046875,-0.018554688,4.5127983,-0.9074247,-56.65995,19.899479,0.4387207,0.4822998,0.73773193,-0.01953125,0.060546875,0.046875,6.1622705,2.5274327,-128.38644,14.585917,0.0,0.0,0.0,0.0,0.0,0.0,0.0,21.858408,-128.14516,19.724796,0.0,0.0,0.0,0.0,0.0,0.0,0.0,0.20014843,-0.012189334,-0.9799194,-0.9265137,0.09729004,-0.30975342,-0.111328125,0.0078125,0.016601562,5.184742,4.143694,-0.25235698,-20.287369,-1.0038452,-0.005065918,-0.026245117,-0.08984375,0.10058594,0.017578125,2.2374716,4.3622417,-57.00637,-14.922733,-0.54870605,0.5028076,0.75128174,-0.036132812,0.024414062,0.021484375,0.4343124,6.0981493,-128.86594,-10.516235,0.0,0.0,0.0,0.0,0.0,0.0,0.0,23.819191,-128.25908,-1.2637653,0.0,0.0,0.0,0.0,0.0,0.0,0.0,1.0284278,44.99701,-0.3496669,
0.6835937398136595,35,-0.07702637,-0.8242798,0.55670166,-0.09863281,-0.060546875,0.06640625,0.0,0.0,0.0,0.0,0.0,0.0,0.0,0.0,0.0,0.0,0.0,-0.20119953,0.011311557,0.9798793,0.8880005,0.10406494,-0.4468994,0.099609375,0.053710938,-0.06542969,4.4980164,-4.165454,0.23418434,20.28654,-0.9749756,-0.07196045,-0.17437744,-0.10546875,0.064453125,-0.01953125,4.5366507,-0.96314335,-56.679623,19.936436,0.42645264,0.43719482,0.7640381,-0.056640625,0.00390625,0.028320312,6.1370544,2.4540389,-128.41902,14.634109,0.0,0.0,0.0,0.0,0.0,0.0,0.0,21.783241,-128.16788,19.77606,0.0,0.0,0.0,0.0,0.0,0.0,0.0,0.20119953,-0.011311557,-0.9798793,-0.9135132,0.12158203,-0.33422852,-0.14941406,0.0087890625,0.03515625,5.2830896,4.165454,-0.23418434,-20.28654,-0.99053955,-0.012756348,-0.056274414,-0.08984375,0.10058594,-0.001953125,2.2918327,4.4713717,-56.974747,-14.8504925,-0.5281372,0.4543457,0.7185669,-0.036132812,0.024414062,0.021484375,0.38916522,6.024244,-128.83612,-10.458323,0.0,0.0,0.0,0.0,0.0,0.0,0.0,23.741846,-128.21571,-1.2004948,0.0,0.0,0.0,0.0,0.0,0.0,0.0,0.95236707,45.006138,-0.32399273,
0.7031249895226211,36,-0.07928467,-0.84191895,0.5496826,-0.07910156,-0.060546875,0.08496094,0.0,0.0,0.0,0.0,0.0,0.0,0.0,0.0,0.0,0.0,0.0,-0.20326403,0.0107050445,0.97942555,0.90338135,0.11248779,-0.44207764,0.13964844,0.09082031,-0.028320312,4.4104214,-4.2081947,0.22162762,20.277145,-0.98895264,-0.059814453,-0.18841553,-0.10546875,0.045898438,-0.018554688,4.565788,-0.99753904,-56.690884,19.9533,0.4537964,0.47521973,0.74554443,-0.018554688,0.022460938,0.009765625,6.0899477,2.3215108,-128.43895,14.675887,0.0,0.0,0.0,0.0,0.0,0.0,0.0,21.652424,-128.19284,19.807865,0.0,0.0,0.0,0.0,0.0,0.0,0.0,0.20326403,-0.0107050445,-0.97942555,-0.90405273,0.12780762,-0.34985352,-0.16699219,0.028320312,-0.021484375,5.3298388,4.2081947,-0.22162762,-20.277145,-1.0057373,6.1035156E-5,-0.056030273,-0.08984375,0.119140625,0.037109375,2.3407574,4.5202045,-56.959557,-14.7878475,-0.5246582,0.47521973,0.7802124,-0.036132812,0.024414062,0.021484375,0.40541822,5.894804,-128.82585,-10.397001,0.0,0.0,0.0,0.0,0.0,0.0,0.0,23.606707,-128.19211,-1.128295,0.0,0.0,0.0,0.0,0.0,0.0,0.0,0.88198817,45.00617,-0.30887145,
0.7226562392315828,37,-0.0713501,-0.84802246,0.56036377,-0.060546875,-0.07910156,0.08496094,0.0,0.0,0.0,0.0,0.0,0.0,0.0,0.0,0.0,0.0,0.0,-0.20575768,0.009696053,0.97889364,0.8835449,0.07659912,-0.41204834,0.099609375,0.034179688,-0.009765625,4.343794,-4.2598205,0.20073836,20.266132,-0.9689331,-0.053833008,-0.21490479,-0.14453125,0.06347656,-9.765625E-4,4.568275,-1.0563941,-56.714615,19.997913,0.44458008,0.43688965,0.7728882,0.040039062,-0.015625,-0.009765625,5.961444,2.1786861,-128.46704,14.809134,0.0,0.0,0.0,0.0,0.0,0.0,0.0,21.511812,-128.21986,19.934177,0.0,0.0,0.0,0.0,0.0,0.0,0.0,0.20575768,-0.009696053,-0.97889364,-0.93408203,0.11218262,-0.34710693,-0.14746094,0.046875,-0.001953125,5.4390554,4.2598205,-0.20073836,-20.266132,-1.0046997,-0.0028076172,-0.06604004,-0.08984375,0.119140625,0.017578125,2.397269,4.60814,-56.93301,-14.714704,-0.5241089,0.43859863,0.7381592,-0.055664062,0.024414062,0.00390625,0.47353953,5.8159423,-128.80205,-10.309758,0.0,0.0,0.0,0.0,0.0,0.0,0.0,23.526342,-128.16008,-1.0414267,0.0,0.0,0.0,0.0,0.0,0.0,0.0,0.8478682,45.006138,-0.267574,
0.7421874889405445,38,-0.087646484,-0.86328125,0.5298462,-0.060546875,-0.09765625,0.103515625,0.0,0.0,0.0,0.0,0.0,0.0,0.0,0.0,0.0,0.0,0.0,-0.20876202,0.010290354,0.97825944,0.8869629,0.076049805,-0.48187256,0.15820312,0.052734375,-0.028320312,4.216447,-4.322022,0.21304223,20.253004,-0.99871826,0.011169434,-0.22009277,-0.22167969,0.060546875,-0.001953125,4.4774156,-1.2199516,-56.704605,20.040552,0.43041992,0.42919922,0.77282715,0.12011719,-0.091796875,-0.030273438,5.8703914,1.9150653,-128.47452,15.033629,0.0,0.0,0.0,0.0,0.0,0.0,0.0,21.24519,-128.25227,20.16929,0.0,0.0,0.0,0.0,0.0,0.0,0.0,0.20876202,-0.010290354,-0.97825944,-0.8986206,0.10131836,-0.32739258,-0.1484375,0.0087890625,-0.021484375,5.448667,4.322022,-0.21304223,-20.253004,-0.9976196,-0.003967285,-0.055114746,-0.08984375,0.10058594,0.037109375,2.4498444,4.6951256,-56.939007,-14.655662,-0.5354614,0.47808838,0.7407837,-0.055664062,0.061523438,0.00390625,0.5271187,5.7185884,-128.8114,-10.236954,0.0,0.0,0.0,0.0,0.0,0.0,0.0,23.420132,-128.16081,-0.950613,0.0,0.0,0.0,0.0,0.0,0.0,0.0,0.82902634,45.006664,-0.2965116,
0.7617187386495062,39,-0.09887695,-0.881958,0.56048584,-0.07910156,-0.07910156,0.06640625,0.0,0.0,0.0,0.0,0.0,0.0,0.0,0.0,0.0,0.0,0.0,-0.21048895,0.01026847,0.9778697,0.8820801,0.06512451,-0.42999268,0.19628906,0.051757812,0.0087890625,4.010685,-4.357773,0.21258916,20.244936,-0.9918823,-0.03112793,-0.2220459,-0.39648438,0.038085938,-0.04296875,4.3468585,-1.3888898,-56.7129,20.12465,0.42370605,0.48529053,0.7515259,0.19824219,-0.12988281,-0.049804688,5.5959764,1.6407027,-128.50885,15.387714,0.0,0.0,0.0,0.0,0.0,0.0,0.0,20.971296,-128.33858,20.528866,0.0,0.0,0.0,0.0,0.0,0.0,0.0,0.21048895,-0.01026847,-0.9778697,-0.9211426,0.099731445,-0.33233643,-0.12988281,0.046875,0.0546875,5.4269004,4.357773,-0.21258916,-20.244936,-1.0128174,-0.004638672,-0.070007324,-0.052734375,0.10058594,0.037109375,2.4567058,4.726848,-56.943817,-14.641539,-0.51623535,0.46417236,0.7213745,-0.055664062,0.024414062,0.00390625,0.60877204,5.582573,-128.8129,-10.198601,0.0,0.0,0.0,0.0,0.0,0.0,0.0,23.284216,-128.15453,-0.9117489,0.0,0.0,0.0,0.0,0.0,0.0,0.0,0.7799625,45.006615,-0.3047191,
0.7812499883584679,40,-0.09729004,-0.8376465,0.55096436,-0.041992188,-0.061523438,0.047851562,0.0,0.0,0.0,0.0,0.0,0.0,0.0,0.0,0.0,0.0,0.0,-0.21244344,0.010783304,0.97718674,0.85980225,0.024108887,-0.43286133,0.29003906,0.013671875,-0.064453125,3.8010182,-4.398236,0.22324784,20.230795,-0.9520874,-0.10247803,-0.19995117,-0.4345703,0.018554688,-0.04296875,4.3811026,-1.5936029,-56.710606,20.282726,0.46502686,0.51348877,0.7172241,0.19726562,-0.111328125,-0.068359375,5.1670637,1.3594489,-128.51878,15.686494,0.0,0.0,0.0,0.0,0.0,0.0,0.0,20.689848,-128.38823,20.827772,0.0,0.0,0.0,0.0,0.0,0.0,0.0,0.21244344,-0.010783304,-0.97718674,-0.8768921,0.10430908,-0.34301758,-0.12890625,0.046875,0.036132812,5.396338,4.398236,-0.22324784,-20.230795,-0.9894409,-0.0048828125,-0.0770874,-0.109375,0.099609375,0.017578125,2.466724,4.7801623,-56.946674,-14.620284,-0.5311279,0.42193604,0.75701904,-0.09277344,0.024414062,0.00390625,0.6766641,5.475423,-128.82034,-10.142603,0.0,0.0,0.0,0.0,0.0,0.0,0.0,23.170792,-128.16173,-0.84713364,0.0,0.0,0.0,0.0,0.0,0.0,0.0,0.7561721,44.99563,-0.33213478,
0.8007812380674296,41,-0.07324219,-0.8400879,0.5545044,-0.022460938,-0.080078125,0.047851562,0.0,0.0,0.0,0.0,0.0,0.0,0.0,0.0,0.0,0.0,0.0,-0.21381193,0.012042781,0.9768233,0.85357666,0.10864258,-0.48156738,0.30859375,-0.005859375,-0.08300781,3.6383035,-4.4265685,0.24932289,20.22327,-0.9800415,-0.09246826,-0.18444824,-0.24121094,0.0048828125,-0.020507812,4.4452343,-1.7799213,-56.69101,20.321047,0.44909668,0.5350952,0.729187,0.15820312,-0.091796875,-0.030273438,4.890966,1.1026845,-128.49727,15.673262,0.0,0.0,0.0,0.0,0.0,0.0,0.0,20.43326,-128.41068,20.813128,0.0,0.0,0.0,0.0,0.0,0.0,0.0,0.21381193,-0.012042781,-0.9768233,-0.9058838,0.116882324,-0.3961792,-0.11035156,0.06542969,0.036132812,5.357854,4.4265685,-0.24932289,-20.22327,-0.9946289,-0.032043457,-0.076293945,-0.10839844,0.099609375,-0.001953125,2.539678,4.798421,-56.971855,-14.573757,-0.53533936,0.43969727,0.7751465,-0.07421875,0.024414062,0.00390625,0.828271,5.3010635,-128.8456,-10.093866,0.0,0.0,0.0,0.0,0.0,0.0,0.0,22.993513,-128.18495,-0.7918987,0.0,0.0,0.0,0.0,0.0,0.0,0.0,0.7501746,44.99305,-0.39049557,
0.8203124877763913,42,-0.07623291,-0.835022,0.5407715,-0.060546875,-0.09765625,0.029296875,0.0,0.0,0.0,0.0,0.0,0.0,0.0,0.0,0.0,0.0,0.0,-0.21601877,0.013135912,0.9763058,0.88757324,0.124816895,-0.44189453,0.2890625,-0.005859375,-0.064453125,3.5220335,-4.4722595,0.2719541,20.212555,-0.97088623,-0.046325684,-0.17132568,-0.2607422,0.0048828125,-0.021484375,4.3708534,-1.9198046,-56.676113,20.294655,0.45288086,0.49786377,0.73095703,0.21582031,-0.07324219,0.025390625,4.7405753,0.9567456,-128.48518,15.702322,0.0,0.0,0.0,0.0,0.0,0.0,0.0,20.280191,-128.42816,20.868559,0.0,0.0,0.0,0.0,0.0,0.0,0.0,0.21601877,-0.013135912,-0.9763058,-0.93847656,0.13867188,-0.3696289,-0.013671875,0.103515625,-9.765625E-4,5.2793794,4.4722595,-0.2719541,-20.212555,-1.043335,-0.02557373,-0.08496094,-0.12792969,0.08105469,-0.001953125,2.6015072,4.671273,-56.992504,-14.525432,-0.5151367,0.43762207,0.74591064,-0.07421875,0.061523438,0.00390625,0.9974037,4.9702935,-128.87343,-10.083781,0.0,0.0,0.0,0.0,0.0,0.0,0.0,22.660776,-128.21053,-0.778636,0.0,0.0,0.0,0.0,0.0,0.0,0.0,0.7244163,44.992184,-0.44507146,
0.839843737485353,43,-0.086364746,-0.8479004,0.583313,-0.00390625,-0.0068359375,0.06640625,0.0,0.0,0.0,0.0,0.0,0.0,0.0,0.0,0.0,0.0,0.0,-0.2164169,0.013819288,0.9761898,0.9055786,0.11621094,-0.43408203,0.25195312,0.013671875,-0.028320312,3.4679737,-4.4805007,0.28610212,20.210155,-0.9949951,-0.07092285,-0.15185547,-0.35742188,0.020507812,-0.022460938,4.30698,-1.9711244,-56.65995,20.346205,0.44891357,0.5128174,0.708374,0.25390625,-0.07324219,-0.03125,4.3736305,1.0101726,-128.47017,15.877533,0.0,0.0,0.0,0.0,0.0,0.0,0.0,20.332342,-128.45932,21.050709,0.0,0.0,0.0,0.0,0.0,0.0,0.0,0.2164169,-0.013819288,-0.9761898,-0.92962646,0.10058594,-0.4140625,0.041015625,0.064453125,0.0546875,5.2106404,4.4805007,-0.28610212,-20.210155,-1.0404663,-0.057739258,-0.07928467,-0.052734375,0.08105469,0.055664062,2.702188,4.592695,-57.011288,-14.530572,-0.5393677,0.4564209,0.7525635,-0.018554688,0.061523438,0.021484375,1.1178513,4.7269244,-128.89433,-10.216816,0.0,0.0,0.0,0.0,0.0,0.0,0.0,22.415627,-128.24416,-0.9057188,0.0,0.0,0.0,0.0,0.0,0.0,0.0,0.71669626,44.991165,-0.47802246,
0.8593749871943147,44,-0.0881958,-0.83599854,0.58148193,0.033203125,-0.09765625,0.10253906,0.0,0.0,0.0,0.0,0.0,0.0,0.0,0.0,0.0,0.0,0.0,-0.2167758,0.013961577,0.97616255,0.89697266,0.14703369,-0.4718628,0.15820312,0.052734375,-0.028320312,3.4652627,-4.487932,0.28904793,20.20959,-0.9801636,-0.12463379,-0.19836426,-0.2998047,0.021484375,-0.022460938,4.2993793,-2.0211968,-56.65945,20.314741,0.44677734,0.49621582,0.7062988,0.17773438,-0.091796875,-0.01171875,4.103364,0.9344001,-128.47379,15.814001,0.0,0.0,0.0,0.0,0.0,0.0,0.0,20.25334,-128.51395,21.000916,0.0,0.0,0.0,0.0,0.0,0.0,0.0,0.2167758,-0.013961577,-0.97616255,-0.90948486,0.011230469,-0.352417,0.04296875,0.16015625,0.13183594,5.0904675,4.487932,-0.28904793,-20.20959,-1.0160522,-0.041503906,-0.072265625,0.00390625,0.08203125,0.07519531,2.6492238,4.397131,-57.020073,-14.620206,-0.5339966,0.42974854,0.7293701,0.01953125,0.061523438,0.040039062,1.1034036,4.49597,-128.91507,-10.408924,0.0,0.0,0.0,0.0,0.0,0.0,0.0,22.175026,-128.27614,-1.0814686,0.0,0.0,0.0,0.0,0.0,0.0,0.0,0.74485564,44.99309,-0.47810468,
0.8789062369032764,45,-0.10534668,-0.8395386,0.5678711,0.033203125,-0.11621094,0.10253906,0.0,0.0,0.0,0.0,0.0,0.0,0.0,0.0,0.0,0.0,0.0,-0.21777743,0.012889389,0.9762097,0.84765625,0.16674805,-0.40856934,0.15820312,0.052734375,-0.028320312,3.5686443,-4.5086665,0.2668503,20.21057,-0.9741821,-0.118896484,-0.18841553,-0.18359375,0.04296875,0.017578125,4.333908,-2.0018075,-56.680058,20.271292,0.45306396,0.5352783,0.70458984,0.15722656,-0.053710938,-0.048828125,3.8915877,0.9024136,-128.4902,15.690794,0.0,0.0,0.0,0.0,0.0,0.0,0.0,20.217966,-128.57715,20.884745,0.0,0.0,0.0,0.0,0.0,0.0,0.0,0.21777743,-0.012889389,-0.9762097,-0.9024658,0.0625,-0.33050537,0.00390625,0.08300781,0.11230469,5.126826,4.5086665,-0.2668503,-20.21057,-0.99884033,-0.055358887,-0.072509766,0.09765625,0.12109375,0.1328125,2.5591793,4.298823,-57.000916,-14.654841,-0.5473633,0.46331787,0.7359619,-0.017578125,0.04296875,0.021484375,1.0601714,4.3036366,-128.88943,-10.383663,0.0,0.0,0.0,0.0,0.0,0.0,0.0,21.979805,-128.26242,-1.045805,0.0,0.0,0.0,0.0,0.0,0.0,0.0,0.7990565,45.004,-0.41595328,
0.8984374866122381,46,-0.0914917,-0.85546875,0.5546875,0.0146484375,-0.09765625,0.12109375,0.0,0.0,0.0,0.0,0.0,0.0,0.0,0.0,0.0,0.0,0.0,-0.2205973,0.011992861,0.97569036,0.86138916,0.16113281,-0.43859863,0.15820312,0.052734375,-0.028320312,3.5821157,-4.5670476,0.24828939,20.199816,-0.9908447,-0.03894043,-0.16259766,-0.18261719,-0.01171875,-0.01953125,4.2009516,-2.0843601,-56.69953,20.171238,0.46087646,0.48101807,0.7416382,0.31347656,-0.091796875,0.0234375,3.7305088,0.8382683,-128.51381,15.640696,0.0,0.0,0.0,0.0,0.0,0.0,0.0,20.152617,-128.63954,20.840322,0.0,0.0,0.0,0.0,0.0,0.0,0.0,0.2205973,-0.011992861,-0.97569036,-0.93573,0.1763916,-0.36157227,0.19238281,0.08105469,0.13085938,5.2923536,4.5670476,-0.24828939,-20.199816,-1.0241699,-0.04144287,-0.07421875,0.07910156,0.15917969,0.11328125,2.5962353,4.27987,-56.97026,-14.534264,-0.5205078,0.45257568,0.7937622,0.020507812,-0.0126953125,0.001953125,1.1101223,4.1312647,-128.85121,-10.161096,0.0,0.0,0.0,0.0,0.0,0.0,0.0,21.797836,-128.21373,-0.8102751,0.0,0.0,0.0,0.0,0.0,0.0,0.0,0.8260585,45.008446,-0.36646235,
0.9179687363211998,47,-0.11053467,-0.8531494,0.55596924,0.033203125,-0.080078125,0.10253906,0.0,0.0,0.0,0.0,0.0,0.0,0.0,0.0,0.0,0.0,0.0,-0.22315264,0.011120988,0.97480243,0.8474121,0.08355713,-0.4136963,0.21679688,0.0703125,0.02734375,3.5116785,-4.6199512,0.23023893,20.181433,-0.9868164,-0.020812988,-0.20214844,-0.2607422,0.041015625,0.016601562,4.1194644,-2.196274,-56.72018,20.22166,0.49694824,0.47686768,0.7210083,0.58203125,-0.072265625,-0.052734375,3.6843488,0.7050152,-128.54407,15.874358,0.0,0.0,0.0,0.0,0.0,0.0,0.0,20.009243,-128.74265,21.110939,0.0,0.0,0.0,0.0,0.0,0.0,0.0,0.22315264,-0.011120988,-0.97480243,-0.92749023,0.074645996,-0.36791992,0.08886719,-0.28222656,0.05078125,5.4031606,4.6199512,-0.23023893,-20.181433,-1.0006104,-0.026916504,-0.101135254,0.11621094,0.12109375,0.19042969,2.606844,4.5057893,-56.947403,-14.48723,-0.5563965,0.45941162,0.75097656,0.01953125,0.080078125,0.021484375,1.1829984,4.1429825,-128.8234,-9.966333,0.0,0.0,0.0,0.0,0.0,0.0,0.0,21.81699,-128.18965,-0.62512684,0.0,0.0,0.0,0.0,0.0,0.0,0.0,0.82870495,44.99482,-0.3236134,
0.9374999860301615,48,-0.08544922,-0.8526001,0.5506592,0.07128906,-0.08105469,0.06542969,0.0,0.0,0.0,0.0,0.0,0.0,0.0,0.0,0.0,0.0,0.0,-0.2248812,0.011460301,0.97436285,0.8740845,0.08117676,-0.47277832,0.10253906,0.07128906,0.10058594,3.3479033,-4.6557384,0.23726375,20.17233,-0.9897461,-0.008972168,-0.17144775,-0.35742188,0.01953125,0.034179688,3.983789,-2.3714828,-56.721485,20.316555,0.493042,0.49554443,0.7171631,0.7373047,-0.11035156,-0.18457031,3.4701748,0.5689616,-128.5612,16.241093,0.0,0.0,0.0,0.0,0.0,0.0,0.0,19.866688,-128.81694,21.495955,0.0,0.0,0.0,0.0,0.0,0.0,0.0,0.2248812,-0.011460301,-0.97436285,-0.82910156,-0.0234375,-0.37005615,0.038085938,-0.10839844,-0.041015625,5.2627625,4.6557384,-0.23726375,-20.17233,-0.97161865,0.06518555,-0.121398926,-0.053710938,0.04296875,0.11328125,2.3761933,4.6977425,-56.971474,-14.624633,-0.5471802,0.4406128,0.7357178,0.056640625,0.08105469,-0.03515625,1.1616324,4.206436,-128.8219,-9.823189,0.0,0.0,0.0,0.0,0.0,0.0,0.0,21.87545,-128.19612,-0.47256756,0.0,0.0,0.0,0.0,0.0,0.0,0.0,0.8158987,44.993244,-0.3408954,
0.9570312357391232,49,-0.110839844,-0.8748779,0.56469727,0.12792969,-0.099609375,0.046875,0.0,0.0,0.0,0.0,0.0,0.0,0.0,0.0,0.0,0.0,0.0,-0.22796497,0.011739495,0.9737231,0.9024048,0.11779785,-0.4580078,0.0087890625,0.12890625,0.08203125,3.3820562,-4.719581,0.24304391,20.159086,-0.9897461,-0.008972168,-0.17144775,-0.35742188,0.01953125,0.034179688,4.0602803,-2.448152,-56.716652,20.382065,0.4387207,0.48937988,0.71417236,1.1376953,-0.013671875,-0.4111328,3.5084429,0.4922924,-128.55637,16.306602,0.0,0.0,0.0,0.0,0.0,0.0,0.0,19.79149,-128.85596,21.553883,0.0,0.0,0.0,0.0,0.0,0.0,0.0,0.22796497,-0.011739495,-0.9737231,-0.88409424,0.014526367,-0.4300537,-0.078125,-0.14648438,0.0146484375,5.069293,4.719581,-0.24304391,-20.159086,-1.0075073,0.013000488,-0.10571289,-0.12890625,-0.034179688,0.11425781,2.0863786,4.7309284,-56.999275,-14.810884,-0.5623169,0.4446411,0.74993896,0.09375,0.11816406,0.001953125,1.0875053,4.1261616,-128.83342,-9.786064,0.0,0.0,0.0,0.0,0.0,0.0,0.0,21.797358,-128.23134,-0.4374056,0.0,0.0,0.0,0.0,0.0,0.0,0.0,0.85764825,44.995987,-0.34169507,
0.9765624854480849,50,-0.119506836,-0.8521118,0.5709839,0.16601562,-0.13671875,0.028320312,0.0,0.0,0.0,0.0,0.0,0.0,0.0,0.0,0.0,0.0,0.0,-0.23022667,0.012874784,0.97323495,0.8793335,0.08459473,-0.45587158,-0.046875,0.16796875,0.15527344,3.5669432,-4.7664056,0.26654795,20.14898,-0.97979736,-0.01373291,-0.20599365,-0.43554688,0.09082031,0.08886719,3.8782809,-2.439517,-56.688282,20.463812,0.4633789,0.5974121,0.6439209,0.98339844,-0.032226562,-0.4091797,2.9285061,0.24429011,-128.5637,16.787981,0.0,0.0,0.0,0.0,0.0,0.0,0.0,19.528809,-128.83011,22.094324,0.0,0.0,0.0,0.0,0.0,0.0,0.0,0.23022667,-0.012874784,-0.97323495,-0.9013672,0.06555176,-0.33441162,-0.055664062,-0.01171875,0.07324219,4.9341154,4.7664056,-0.26654795,-20.14898,-0.9937134,-0.051452637,-0.08343506,-0.034179688,-0.013671875,0.056640625,2.0386488,4.797681,-57.030354,-14.9428425,-0.55633545,0.45941162,0.74401855,0.07519531,0.13671875,0.0390625,1.1005625,4.1500964,-128.86955,-9.971201,0.0,0.0,0.0,0.0,0.0,0.0,0.0,21.821136,-128.28067,-0.6233969,0.0,0.0,0.0,0.0,0.0,0.0,0.0,0.9616435,44.99624,-0.36776406,
0.9960937351570466,51,-0.11828613,-0.82928467,0.5415039,0.18457031,-0.13671875,0.028320312,0.0,0.0,0.0,0.0,0.0,0.0,0.0,0.0,0.0,0.0,0.0,-0.23308009,0.014539609,0.9726724,0.8710327,0.064331055,-0.42590332,-0.009765625,0.12890625,0.17382812,3.745752,-4.825482,0.30101496,20.137333,-0.9850464,-0.07519531,-0.23199463,-0.5126953,0.0703125,0.06933594,4.044139,-2.47687,-56.653786,20.691109,0.43878174,0.6890259,0.60510254,1.0390625,0.043945312,-0.33496094,2.6294966,-0.031904936,-128.53595,17.16259,0.0,0.0,0.0,0.0,0.0,0.0,0.0,19.236929,-128.79012,22.52694,0.0,0.0,0.0,0.0,0.0,0.0,0.0,0.23308009,-0.014539609,-0.9726724,-0.946228,0.10748291,-0.26159668,-0.16601562,0.10449219,0.055664062,4.9558663,4.825482,-0.30101496,-20.137333,-1.0059814,-0.027404785,-0.022399902,0.09863281,-0.049804688,0.076171875,2.171777,4.988146,-57.06672,-14.938307,-0.5557251,0.3912964,0.7244873,0.24316406,0.2109375,0.111328125,1.0334401,4.4442563,-128.91885,-10.137245,0.0,0.0,0.0,0.0,0.0,0.0,0.0,22.118845,-128.35013,-0.7941513,0.0,0.0,0.0,0.0,0.0,0.0,0.0,1.0875645,44.99913,-0.41204017,
1.0156249848660084,52,-0.061828613,-0.8106079,0.5299072,0.052734375,-0.080078125,0.06542969,0.0,0.0,0.0,0.0,0.0,0.0,0.0,0.0,0.0,0.0,0.0,-0.23678407,0.01620502,0.97176903,0.86865234,0.08068848,-0.39990234,0.1015625,0.033203125,0.12011719,3.7879102,-4.902163,0.3354941,20.118633,-0.9491577,-0.11175537,-0.25048828,-0.53222656,0.032226562,0.06933594,4.2416396,-2.5863123,-56.617836,20.855658,0.4937744,0.63726807,0.6303711,0.81347656,-0.14746094,-0.44628906,2.1960633,-0.2629516,-128.50375,17.322279,0.0,0.0,0.0,0.0,0.0,0.0,0.0,19.004768,-128.76045,22.686657,0.0,0.0,0.0,0.0,0.0,0.0,0.0,0.23678407,-0.01620502,-0.97176903,-1.0037842,0.10583496,-0.2401123,-0.16796875,0.028320312,0.03515625,5.0436034,4.902163,-0.3354941,-20.118633,-1.0171509,0.0064697266,0.01776123,-0.051757812,0.04296875,0.017578125,2.2518585,5.2418118,-57.097404,-14.840197,-0.5474243,0.4800415,0.729187,0.3359375,0.26660156,0.16601562,1.065327,4.8706465,-128.94785,-10.020998,0.0,0.0,0.0,0.0,0.0,0.0,0.0,22.541428,-128.3197,-0.67458534,0.0,0.0,0.0,0.0,0.0,0.0,0.0,1.1445898,44.99792,-0.47148192,
1.03515623457497,53,-0.050720215,-0.8829346,0.56365967,-0.00390625,-0.043945312,0.06640625,0.0,0.0,0.0,0.0,0.0,0.0,0.0,0.0,0.0,0.0,0.0,-0.23998094,0.016852427,0.9707258,0.9013672,0.11260986,-0.44500732,0.23242188,-0.024414062,0.028320312,3.654413,-4.9683485,0.34889746,20.097033,-0.99194336,-0.051330566,-0.23999023,-0.5126953,0.087890625,0.12597656,4.2363267,-2.7319572,-56.60459,20.914762,0.45544434,0.6242676,0.60961914,0.96484375,-0.07128906,-0.4658203,1.7029535,-0.57383204,-128.50327,17.508448,0.0,0.0,0.0,0.0,0.0,0.0,0.0,18.704672,-128.76466,22.834347,0.0,0.0,0.0,0.0,0.0,0.0,0.0,0.23998094,-0.016852427,-0.9707258,-0.96746826,0.09277344,-0.21252441,-0.34179688,-0.12402344,-0.041992188,5.1715364,4.9683485,-0.34889746,-20.097033,-0.980896,-0.032958984,0.04711914,-0.20410156,0.09863281,0.036132812,2.3957171,5.6108193,-57.095585,-14.735711,-0.5500488,0.44641113,0.7020874,0.44726562,0.41503906,0.24023438,1.0869654,5.46344,-128.94739,-9.909517,0.0,0.0,0.0,0.0,0.0,0.0,0.0,23.123283,-128.26274,-0.5468483,0.0,0.0,0.0,0.0,0.0,0.0,0.0,1.1010033,44.987774,-0.5088291,
1.0546874842839318,54,-0.022705078,-0.8843994,0.55822754,0.034179688,-0.0078125,0.047851562,0.0,0.0,0.0,0.0,0.0,0.0,0.0,0.0,0.0,0.0,0.0,-0.24309316,0.017545382,0.96982807,0.8895874,0.045166016,-0.43408203,0.3095703,-0.0068359375,0.045898438,3.4378648,-5.0327826,0.36324376,20.07845,-0.96868896,0.009765625,-0.19390869,-0.7060547,-0.009765625,0.0859375,3.988456,-2.9307265,-56.59744,21.004963,0.42944336,0.66412354,0.56951904,0.91015625,-0.14746094,-0.484375,1.2511699,-0.82337713,-128.52225,18.028658,0.0,0.0,0.0,0.0,0.0,0.0,0.0,18.458801,-128.77556,23.340448,0.0,0.0,0.0,0.0,0.0,0.0,0.0,0.24309316,-0.017545382,-0.96982807,-0.9361572,0.11743164,-0.22015381,-0.4921875,-0.083984375,-0.09863281,5.28802,5.0327826,-0.36324376,-20.07845,-0.98358154,0.017700195,0.026672363,-0.2607422,0.17480469,0.07421875,2.6627104,6.054858,-57.099953,-14.66894,-0.5095825,0.50268555,0.7315674,0.44726562,0.39648438,0.33398438,1.5109019,5.9618444,-128.95532,-9.84865,0.0,0.0,0.0,0.0,0.0,0.0,0.0,23.592148,-128.14093,-0.43861294,0.0,0.0,0.0,0.0,0.0,0.0,0.0,1.0345047,44.983982,-0.5545107,
1.0742187339928935,55,-0.03857422,-0.87109375,0.519104,0.034179688,-0.026367188,-0.02734375,0.0,0.0,0.0,0.0,0.0,0.0,0.0,0.0,0.0,0.0,0.0,-0.24630246,0.0182972,0.96907175,0.86047363,0.009033203,-0.42492676,0.42382812,-0.0068359375,-0.02734375,3.1881316,-5.099223,0.37880877,20.06279,-0.97180176,-0.018310547,-0.1821289,-0.9580078,0.001953125,0.0625,3.870194,-3.146442,-56.579605,21.251183,0.4432373,0.6140747,0.571167,0.7890625,0.005859375,-0.40722656,1.0309757,-1.0099971,-128.51978,18.709938,0.0,0.0,0.0,0.0,0.0,0.0,0.0,18.28052,-128.7651,23.990833,0.0,0.0,0.0,0.0,0.0,0.0,0.0,0.24630246,-0.0182972,-0.96907175,-0.9606323,0.06048584,-0.24609375,-0.5498047,-0.140625,-0.09863281,5.3487763,5.099223,-0.37880877,-20.06279,-0.989563,0.003540039,-0.02520752,-0.43164062,0.24804688,0.11230469,2.9185965,6.4614325,-57.110603,-14.629733,-0.5484009,0.49176025,0.70355225,0.42871094,0.43359375,0.390625,2.0007606,6.201453,-128.95175,-9.595872,0.0,0.0,0.0,0.0,0.0,0.0,0.0,23.788422,-128.00352,-0.12032032,0.0,0.0,0.0,0.0,0.0,0.0,0.0,0.9404919,44.988277,-0.61039245,
1.0937499837018552,56,-0.105285645,-0.83221436,0.494812,0.053710938,0.026367188,-0.12011719,0.0,0.0,0.0,0.0,0.0,0.0,0.0,0.0,0.0,0.0,0.0,-0.24949273,0.018592482,0.96827704,0.8789673,0.040039062,-0.36517334,0.53808594,-0.0078125,-0.02734375,3.0003529,-5.1652727,0.38492203,20.046337,-0.97576904,-0.012451172,-0.18218994,-1.09375,-0.05859375,0.080078125,3.6927361,-3.376077,-56.57178,21.548426,0.42053223,0.6779785,0.5626831,0.8330078,-0.16699219,-0.5019531,1.6954674,-1.176939,-128.52875,19.583673,0.0,0.0,0.0,0.0,0.0,0.0,0.0,18.113623,-128.7344,24.866154,0.0,0.0,0.0,0.0,0.0,0.0,0.0,0.24949273,-0.018592482,-0.96827704,-0.9633179,0.061340332,-0.28546143,-0.57128906,-0.21777344,-0.099609375,5.4578304,5.1652727,-0.38492203,-20.046337,-0.9957886,-0.040893555,-0.05444336,-0.37402344,0.28710938,0.07421875,3.4270842,6.9097767,-57.102245,-14.632271,-0.59765625,0.51361084,0.71173096,0.42773438,0.5078125,0.4658203,2.6138175,6.2805977,-128.9316,-9.494728,0.0,0.0,0.0,0.0,0.0,0.0,0.0,23.823727,-127.85488,0.050699234,0.0,0.0,0.0,0.0,0.0,0.0,0.0,0.8789646,44.990337,-0.6374071,
1.1132812334108169,57,-0.10241699,-0.84020996,0.49865723,-0.07910156,0.009765625,-0.08203125,0.0,0.0,0.0,0.0,0.0,0.0,0.0,0.0,0.0,0.0,0.0,-0.25203034,0.018072352,0.9675593,0.9063721,0.07952881,-0.34539795,0.6123047,-0.06542969,-0.045898438,2.8567042,-5.2178106,0.37415367,20.031477,-0.9789429,-0.058776855,-0.15557861,-1.09375,-0.020507812,0.060546875,3.6846147,-3.5146122,-56.573887,21.86245,0.40161133,0.7105713,0.5540161,0.8339844,-0.20507812,-0.484375,3.1087909,-1.1909366,-128.5321,20.297987,0.0,0.0,0.0,0.0,0.0,0.0,0.0,18.121773,-128.7353,25.50537,0.0,0.0,0.0,0.0,0.0,0.0,0.0,0.25203034,-0.018072352,-0.9675593,-0.91619873,0.01373291,-0.2816162,-0.4580078,-0.21875,-0.08105469,5.466728,5.2178106,-0.37415367,-20.031477,-0.98272705,-0.07977295,-0.077819824,-0.109375,0.3095703,0.0546875,4.0037947,7.284902,-57.09106,-14.700942,-0.5494995,0.52130127,0.68499756,0.4658203,0.47070312,0.44628906,3.2915232,6.2740045,-128.92915,-9.7274,0.0,0.0,0.0,0.0,0.0,0.0,0.0,23.766619,-127.69882,-0.11126137,0.0,0.0,0.0,0.0,0.0,0.0,0.0,0.7508952,44.989494,-0.644733,
1.1328124831197786,58,-0.11425781,-0.8272095,0.5128174,0.09082031,-0.009765625,-0.045898438,0.0,0.0,0.0,0.0,0.0,0.0,0.0,0.0,0.0,0.0,0.0,-0.2537784,0.017040437,0.96712744,0.9359741,0.125,-0.32458496,0.63183594,-0.046875,-0.064453125,2.9267008,-5.2539997,0.35278985,20.022535,-0.9498291,-0.051086426,-0.07293701,-0.9970703,0.0546875,0.13769531,3.6645255,-3.538376,-56.58513,22.100822,0.40753174,0.7069702,0.5215454,0.8339844,-0.20507812,-0.484375,4.6648884,-1.0023689,-128.54886,20.86552,0.0,0.0,0.0,0.0,0.0,0.0,0.0,18.3295,-128.76596,25.997585,0.0,0.0,0.0,0.0,0.0,0.0,0.0,0.2537784,-0.017040437,-0.96712744,-0.8960571,0.032104492,-0.3139038,-0.19140625,-0.12597656,0.033203125,5.5421696,5.2539997,-0.35278985,-20.022535,-0.9973755,0.007080078,-0.10882568,0.060546875,0.21679688,0.09375,4.468614,7.5468135,-57.06855,-14.756116,-0.517395,0.5300293,0.6506958,0.3720703,0.5078125,0.44726562,3.8937008,6.13857,-128.89583,-9.771028,0.0,0.0,0.0,0.0,0.0,0.0,0.0,23.565296,-127.496,-0.059654236,0.0,0.0,0.0,0.0,0.0,0.0,0.0,0.6991378,44.991104,-0.60927033,
1.1523437328287403,59,-0.10839844,-0.83917236,0.5115967,0.052734375,-0.026367188,0.009765625,0.0,0.0,0.0,0.0,0.0,0.0,0.0,0.0,0.0,0.0,0.0,-0.25595272,0.015221346,0.96657836,0.9616699,0.13348389,-0.29089355,0.59472656,-0.046875,-0.0087890625,3.1411164,-5.2990146,0.3151291,20.011168,-0.9766846,-0.017028809,0.026855469,-0.9980469,0.12890625,0.13671875,3.5651312,-3.5129344,-56.60988,22.374994,0.4046631,0.75164795,0.45977783,0.8544922,-0.20507812,-0.42871094,6.378058,-0.60959697,-128.56137,21.625183,0.0,0.0,0.0,0.0,0.0,0.0,0.0,18.737158,-128.79866,26.69992,0.0,0.0,0.0,0.0,0.0,0.0,0.0,0.25595272,-0.015221346,-0.96657836,-0.92266846,0.018310547,-0.35046387,-0.018554688,-0.0126953125,0.12988281,5.506233,5.2990146,-0.3151291,-20.011168,-1.0215454,0.018249512,-0.14642334,-0.12792969,0.23339844,0.07421875,4.694066,7.5350904,-57.036583,-14.815549,-0.5817871,0.55389404,0.68011475,0.296875,0.58203125,0.52441406,4.437914,5.6848516,-128.85321,-9.743378,0.0,0.0,0.0,0.0,0.0,0.0,0.0,23.04245,-127.33339,0.07627678,0.0,0.0,0.0,0.0,0.0,0.0,0.0,0.66445714,44.992332,-0.53257376,
1.171874982537702,60,-0.07141113,-0.85076904,0.52770996,-0.059570312,0.046875,-0.026367188,0.0,0.0,0.0,0.0,0.0,0.0,0.0,0.0,0.0,0.0,0.0,-0.25898626,0.013643327,0.9658271,0.9951782,0.13519287,-0.27124023,0.38964844,0.107421875,0.044921875,3.4072027,-5.3618197,0.2824592,19.995615,-0.9974365,0.03942871,0.10900879,-1.1337891,0.18066406,0.171875,3.2295575,-3.4008384,-56.629196,22.62575,0.27520752,0.7877197,0.43145752,0.7001953,-0.18652344,-0.22265625,8.092307,-0.0449605,-128.55342,22.648613,0.0,0.0,0.0,0.0,0.0,0.0,0.0,19.294432,-128.77342,27.749048,0.0,0.0,0.0,0.0,0.0,0.0,0.0,0.25898626,-0.013643327,-0.9658271,-0.9211426,0.008483887,-0.31115723,0.11425781,0.0048828125,0.16796875,5.4233966,5.3618197,-0.2824592,-19.995615,-0.99676514,-0.062927246,-0.10546875,-0.16601562,0.23242188,0.07421875,5.006916,7.5967617,-57.01709,-14.9103365,-0.52001953,0.4699707,0.6759033,0.3154297,0.60058594,0.56152344,5.0545845,5.3141904,-128.82404,-9.928717,0.0,0.0,0.0,0.0,0.0,0.0,0.0,22.584068,-127.19673,0.026960373,0.0,0.0,0.0,0.0,0.0,0.0,0.0,0.5952944,44.99539,-0.47597933,
1.1914062322466636,61,-0.04309082,-0.8326416,0.5244751,-0.078125,0.046875,-0.08203125,0.0,0.0,0.0,0.0,0.0,0.0,0.0,0.0,0.0,0.0,0.0,-0.26159528,0.013834813,0.9651428,1.0218506,0.23828125,-0.29919434,0.032226562,0.22363281,0.19140625,3.787962,-5.4158316,0.28642347,19.981447,-1.0106201,-0.027832031,0.23449707,-1.1923828,0.328125,0.111328125,2.8850694,-3.0031652,-56.593494,22.884151,0.30230713,0.76849365,0.46380615,0.5449219,-0.091796875,0.05859375,10.012803,0.8453202,-128.48482,23.687206,0.0,0.0,0.0,0.0,0.0,0.0,0.0,20.16413,-128.71144,28.869926,0.0,0.0,0.0,0.0,0.0,0.0,0.0,0.26159528,-0.013834813,-0.9651428,-0.91241455,0.029663086,-0.32678223,0.2841797,0.0029296875,0.20507812,5.202436,5.4158316,-0.28642347,-19.981447,-0.9935303,-0.038635254,-0.10925293,-0.12890625,0.15722656,0.09375,5.1973114,7.6577168,-57.030045,-15.017405,-0.54956055,0.51446533,0.7028198,0.24121094,0.5078125,0.52441406,5.640001,5.1188593,-128.83597,-10.13641,0.0,0.0,0.0,0.0,0.0,0.0,0.0,22.289879,-127.07962,-0.032583237,0.0,0.0,0.0,0.0,0.0,0.0,0.0,0.47945106,44.99729,-0.51506054,
1.2109374819556253,62,-0.026367188,-0.86065674,0.55059814,-0.2109375,0.06640625,-0.0625,0.0,0.0,0.0,0.0,0.0,0.0,0.0,0.0,0.0,0.0,0.0,-0.2631303,0.014739933,0.9647935,1.1061401,0.2649536,-0.30187988,-0.39746094,0.47460938,0.39160156,4.009611,-5.4476137,0.3051623,19.974215,-1.0063477,0.053527832,0.28729248,-0.9609375,0.61328125,0.15039062,2.644935,-2.7379303,-56.537342,23.283003,0.43688965,0.7548828,0.4854126,0.703125,-0.18847656,0.111328125,12.059784,1.3588386,-128.40256,24.895317,0.0,0.0,0.0,0.0,0.0,0.0,0.0,20.665953,-128.73909,30.11277,0.0,0.0,0.0,0.0,0.0,0.0,0.0,0.2631303,-0.014739933,-0.9647935,-0.90704346,0.012512207,-0.2756958,0.4189453,0.07910156,0.20703125,4.8435106,5.4476137,-0.3051623,-19.974215,-1.0023193,0.015075684,-0.13061523,-0.31835938,0.25,0.13183594,5.331456,7.6771374,-57.06317,-15.14977,-0.5633545,0.52215576,0.6416626,0.2783203,0.5449219,0.56152344,6.0966396,4.8561883,-128.84518,-10.0848055,0.0,0.0,0.0,0.0,0.0,0.0,0.0,21.93432,-126.97369,0.15286541,0.0,0.0,0.0,0.0,0.0,0.0,0.0,0.28717598,45.00129,-0.6091991,
1.230468731664587,63,-0.028320312,-0.8557129,0.5565796,-0.13476562,0.1015625,-0.10058594,0.0,0.0,0.0,0.0,0.0,0.0,0.0,0.0,0.0,0.0,0.0,-0.2619831,0.015832167,0.9652321,1.1158447,0.2630005,-0.2241211,-0.87597656,0.97265625,0.6074219,4.70532,-5.4238625,0.32777494,19.983295,-0.9940796,0.10107422,0.4144287,-0.9814453,1.0029297,0.08886719,2.564375,-2.0976982,-56.44275,23.964027,0.39923096,0.8847656,0.36016846,0.60546875,-0.11230469,0.3173828,13.838526,1.9527731,-128.27026,26.62405,0.0,0.0,0.0,0.0,0.0,0.0,0.0,21.235897,-128.79993,31.912699,0.0,0.0,0.0,0.0,0.0,0.0,0.0,0.2619831,-0.015832167,-0.9652321,-0.928833,0.07098389,-0.33746338,0.40234375,0.11816406,0.15039062,4.46515,5.4238625,-0.32777494,-19.983295,-0.9985962,-0.061706543,-0.14031982,-0.2607422,0.2890625,0.11230469,5.6299148,7.5800114,-57.097332,-15.325232,-0.5315552,0.53308105,0.6817627,0.25976562,0.5263672,0.56152344,6.790701,4.2283297,-128.84947,-10.172659,0.0,0.0,0.0,0.0,0.0,0.0,0.0,21.203442,-126.852745,0.21254921,0.0,0.0,0.0,0.0,0.0,0.0,0.0,0.14054437,45.006905,-0.7000769,
1.2499999813735487,64,-0.08557129,-0.7876587,0.5551758,-0.15429688,0.12011719,-0.099609375,0.0,0.0,0.0,0.0,0.0,0.0,0.0,0.0,0.0,0.0,0.0,-0.258001,0.01645789,0.96626526,1.3040771,0.16864014,-0.07727051,-1.3183594,1.3945312,0.8798828,6.1836762,-5.34142,0.34072936,20.004686,-1.0838623,-0.1105957,0.5158081,-0.7705078,1.5136719,-0.10449219,4.8352933,-0.9056492,-56.26559,25.023972,0.26348877,1.0366211,0.30493164,0.2421875,-0.1328125,0.7294922,13.96298,1.3210297,-128.19728,27.598352,0.0,0.0,0.0,0.0,0.0,0.0,0.0,20.543106,-128.9058,33.087547,0.0,0.0,0.0,0.0,0.0,0.0,0.0,0.258001,-0.01645789,-0.96626526,-0.8944092,0.09197998,-0.36083984,0.4033203,0.17480469,0.2265625,4.220254,5.34142,-0.34072936,-20.004686,-0.9993286,-0.002380371,-0.14276123,-0.053710938,0.17675781,0.15136719,5.6848927,7.2798805,-57.13002,-15.431914,-0.5437012,0.5930786,0.6141968,0.27929688,0.45117188,0.5048828,7.4971895,3.5551143,-128.85225,-10.178442,0.0,0.0,0.0,0.0,0.0,0.0,0.0,20.44569,-126.70112,0.31291962,0.0,0.0,0.0,0.0,0.0,0.0,0.0,0.11239518,45.00517,-0.736539,
1.2695312310825104,65,-0.11621094,-0.751709,0.5678711,-0.17285156,0.12109375,-0.025390625,0.0,0.0,0.0,0.0,0.0,0.0,0.0,0.0,0.0,0.0,0.0,-0.25199935,0.014504872,0.9676497,1.3740234,0.3305664,0.060058594,-1.1630859,2.1396484,0.7421875,8.375596,-5.2171664,0.3002958,20.033348,-1.1953735,-0.19952393,0.3793335,-0.28808594,1.8652344,-0.3095703,8.709691,0.8308625,-56.0194,26.42374,0.23809814,1.1052246,0.4116211,-0.08886719,-0.5185547,1.2675781,14.10041,0.686876,-128.00647,28.363993,0.0,0.0,0.0,0.0,0.0,0.0,0.0,19.864988,-129.09985,33.946148,0.0,0.0,0.0,0.0,0.0,0.0,0.0,0.25199935,-0.014504872,-0.9676497,-0.9411011,-0.0037231445,-0.2876587,0.51660156,0.21191406,0.32128906,4.207892,5.2171664,-0.3002958,-20.033348,-0.98205566,0.026306152,-0.10675049,0.041015625,0.13964844,0.19042969,5.6704636,6.942086,-57.0947,-15.449593,-0.5560913,0.63848877,0.62091064,0.16796875,0.2841797,0.41210938,8.060756,2.9425433,-128.7898,-9.951469,0.0,0.0,0.0,0.0,0.0,0.0,0.0,19.763355,-126.49574,0.621748,0.0,0.0,0.0,0.0,0.0,0.0,0.0,0.085090086,44.996536,-0.65232944,
1.2890624807914721,66,-0.088378906,-0.6958618,0.5185547,-0.041992188,0.06640625,0.103515625,0.0,0.0,0.0,0.0,0.0,0.0,0.0,0.0,0.0,0.0,0.0,-0.24936971,0.012483505,0.96836346,1.3136597,0.28533936,0.20513916,-1.671875,2.90625,0.91796875,11.467449,-5.162726,0.25844726,20.048126,-1.2042847,-0.12579346,0.007873535,0.21484375,2.2324219,-0.32421875,14.012699,3.295652,-55.532146,28.15099,0.3406372,1.2178955,0.54315186,-0.20019531,-1.1337891,1.7451172,13.989352,0.34564328,-127.48039,29.05712,0.0,0.0,0.0,0.0,0.0,0.0,0.0,19.471388,-129.23161,34.64656,0.0,0.0,0.0,0.0,0.0,0.0,0.0,0.24936971,-0.012483505,-0.96836346,-0.90496826,0.23675537,-0.4506836,0.06347656,0.23632812,0.24609375,4.443824,5.162726,-0.25844726,-20.048126,-0.9828491,0.057434082,-0.10546875,0.09667969,0.12109375,0.20898438,5.470885,6.5161853,-57.04026,-15.180963,-0.5256958,0.60284424,0.6020508,0.18652344,0.2841797,0.33691406,8.475399,2.3057451,-128.69832,-9.348951,0.0,0.0,0.0,0.0,0.0,0.0,0.0,19.06128,-126.29487,1.3039913,0.0,0.0,0.0,0.0,0.0,0.0,0.0,0.09262632,44.998016,-0.556232,
1.3085937305004338,67,-0.021362305,-0.70373535,0.4729004,-0.28710938,0.16113281,0.25390625,0.0,0.0,0.0,0.0,0.0,0.0,0.0,0.0,0.0,0.0,0.0,-0.24922574,0.0072400477,0.96847486,1.1506958,1.0457764,0.014343262,-1.4951172,2.9794922,1.1572266,15.1888485,-5.1597447,0.14989142,20.050432,-1.34021,-0.31903076,-0.27679443,0.2529297,2.4189453,-0.28808594,20.170944,5.9197783,-54.779076,30.492672,0.493042,0.9734497,0.6470947,-0.2265625,-1.3476562,2.4853516,13.777541,-0.16048145,-126.53495,30.298811,0.0,0.0,0.0,0.0,0.0,0.0,0.0,18.857391,-129.21158,35.893623,0.0,0.0,0.0,0.0,0.0,0.0,0.0,0.24922574,-0.0072400477,-0.96847486,-0.9682617,0.16638184,-0.29284668,-0.2705078,-0.1640625,0.203125,5.069525,5.1597447,-0.14989142,-20.050432,-0.9836426,0.07232666,-0.15716553,-0.053710938,0.15722656,0.17089844,5.672779,6.4703383,-56.89702,-14.754918,-0.555542,0.5576782,0.6359253,0.13085938,0.265625,0.33789062,8.829841,1.9621143,-128.49756,-8.4999485,0.0,0.0,0.0,0.0,0.0,0.0,0.0,18.662703,-126.013176,2.2220345,0.0,0.0,0.0,0.0,0.0,0.0,0.0,-0.010708198,45.001183,-0.3391719,
1.3281249802093955,68,0.059631348,-0.79870605,0.4430542,-0.6269531,0.21972656,0.32910156,0.0,0.0,0.0,0.0,0.0,0.0,0.0,0.0,0.0,0.0,0.0,-0.25137034,-0.0015266802,0.9679871,1.2171631,0.18225098,0.08703613,-1.0498047,2.6523438,0.88378906,18.404423,-5.2041445,-0.03160701,20.040335,-1.2822876,-0.60058594,-0.47503662,0.71777344,2.5029297,-0.07128906,26.182215,8.423725,-53.988846,32.390152,0.5070801,1.1421509,0.58013916,-0.22265625,-1.3876953,2.875,13.074529,-1.0086412,-125.3736,31.207325,0.0,0.0,0.0,0.0,0.0,0.0,0.0,17.802753,-129.12636,36.879616,0.0,0.0,0.0,0.0,0.0,0.0,0.0,0.25137034,0.0015266802,-0.9679871,-0.911438,0.22613525,-0.32580566,-0.58203125,0.08984375,-0.020507812,5.7952514,5.2041445,0.03160701,-20.040335,-1.0290527,0.10699463,-0.17749023,-0.053710938,0.17675781,0.18945312,5.981501,6.5076165,-56.666447,-14.292648,-0.58740234,0.5565796,0.5979004,0.24316406,0.2841797,0.3359375,9.263889,1.6149611,-128.20097,-7.6041846,0.0,0.0,0.0,0.0,0.0,0.0,0.0,18.265648,-125.63145,3.1715598,0.0,0.0,0.0,0.0,0.0,0.0,0.0,-0.41228613,45.002335,-0.03608758,
1.3476562299183572,69,0.109558105,-0.961853,0.39923096,-0.68359375,0.2939453,0.40429688,0.0,0.0,0.0,0.0,0.0,0.0,0.0,0.0,0.0,0.0,0.0,-0.2588985,-0.0103681665,0.96546286,1.2509766,0.05529785,-0.27954102,-1.2265625,2.0263672,0.55859375,20.46534,-5.3600006,-0.21465322,19.988075,-1.1681519,-0.5848999,-0.52404785,1.4755859,1.9814453,0.21386719,31.172201,10.329551,-53.299927,33.610626,0.5784302,1.322815,0.5241089,-0.5410156,-1.0429688,3.0488281,11.326042,-2.12438,-124.20251,31.62738,0.0,0.0,0.0,0.0,0.0,0.0,0.0,16.38117,-129.06143,37.46516,0.0,0.0,0.0,0.0,0.0,0.0,0.0,0.2588985,0.0103681665,-0.96546286,-0.9254761,0.17858887,-0.23852539,-0.14355469,0.18164062,-0.01953125,6.3345637,5.3600006,0.21465322,-19.988075,-1.0076904,0.11450195,-0.17456055,-0.015625,0.15820312,0.1328125,6.2268977,6.6681385,-56.448402,-13.925739,-0.5841675,0.6414795,0.6175537,0.24316406,0.24707031,0.3173828,9.701804,1.4695673,-127.92192,-6.8445168,0.0,0.0,0.0,0.0,0.0,0.0,0.0,18.076214,-125.234276,3.9700499,0.0,0.0,0.0,0.0,0.0,0.0,0.0,-1.1326478,44.968605,0.17918982,
1.367187479627319,70,0.10070801,-1.0996704,0.4179077,-0.5703125,0.40039062,0.31152344,0.0,0.0,0.0,0.0,0.0,0.0,0.0,0.0,0.0,0.0,0.0,-0.25947836,-0.022882273,0.96542084,1.1626587,0.06213379,-0.4882202,-1.2666016,2.1445312,0.076171875,22.593897,-5.3720064,-0.47373396,19.987206,-0.93774414,-0.5036011,-0.63586426,1.7871094,1.7470703,0.3173828,35.424538,12.483348,-52.69859,34.227077,0.35754395,1.4633179,0.6154785,-2.0517578,0.14746094,2.4638672,8.8454895,-2.3727064,-123.12074,31.750336,0.0,0.0,0.0,0.0,0.0,0.0,0.0,15.853631,-128.69812,37.818092,0.0,0.0,0.0,0.0,0.0,0.0,0.0,0.25947836,0.022882273,-0.96542084,-0.9025879,0.22241211,-0.29534912,-0.0234375,0.44921875,0.059570312,7.1948113,5.3720064,0.47373396,-19.987206,-1.0197754,0.15332031,-0.14227295,0.041992188,0.13964844,0.07519531,6.1940665,6.4283733,-56.176273,-13.710007,-0.5115967,0.63323975,0.5444946,0.16796875,0.20996094,0.24414062,10.125703,0.9468937,-127.60202,-6.313483,0.0,0.0,0.0,0.0,0.0,0.0,0.0,17.511765,-124.81015,4.538783,0.0,0.0,0.0,0.0,0.0,0.0,0.0,-1.6116259,44.964207,0.63257515,
1.3867187293362806,71,0.06750488,-1.105896,0.418396,-0.26757812,0.37695312,0.03125,0.0,0.0,0.0,0.0,0.0,0.0,0.0,0.0,0.0,0.0,0.0,-0.25518942,-0.032699414,0.96644074,0.9226074,0.056518555,-0.4921875,-0.7597656,2.086914,-0.4404297,24.162594,-5.2832117,-0.67697924,20.00832,-1.0127563,-0.22857666,-0.51916504,2.0996094,1.2910156,0.38476562,38.995792,14.553576,-52.19395,34.182114,-0.30999756,1.022522,0.4454956,-2.4052734,0.13085938,1.5019531,6.025972,-2.3982973,-122.11836,31.266674,0.0,0.0,0.0,0.0,0.0,0.0,0.0,15.730296,-127.91341,37.422752,0.0,0.0,0.0,0.0,0.0,0.0,0.0,0.25518942,0.032699414,-0.96644074,-0.9130249,0.1451416,-0.22192383,-0.0625,0.43066406,0.11621094,8.056688,5.2832117,0.67697924,-20.00832,-0.99884033,0.11590576,-0.10089111,0.099609375,0.12207031,0.017578125,5.965125,5.9852724,-55.94512,-13.477206,-0.630188,0.62091064,0.6381836,0.20605469,0.17285156,0.22460938,10.372837,0.35519648,-127.33443,-5.835943,0.0,0.0,0.0,0.0,0.0,0.0,0.0,16.889132,-124.47138,5.045089,0.0,0.0,0.0,0.0,0.0,0.0,0.0,-1.9559276,44.95072,1.0044384,
1.4062499790452423,72,9.765625E-4,-1.0471191,0.34490967,-0.15332031,0.28222656,-0.17382812,0.0,0.0,0.0,0.0,0.0,0.0,0.0,0.0,0.0,0.0,0.0,-0.24891964,-0.034966882,0.9680072,0.80493164,0.038391113,-0.29370117,-0.50683594,1.7246094,-0.75,25.1888,-5.153409,-0.7239229,20.040752,-0.9053955,-0.15765381,-0.47302246,2.0634766,0.5644531,0.4873047,41.291245,16.326168,-51.730812,33.71227,-0.45239258,1.0571289,0.4781494,-2.1503906,-0.17285156,0.64160156,4.0363355,-1.7399788,-121.37404,30.579771,0.0,0.0,0.0,0.0,0.0,0.0,0.0,16.398233,-127.289444,36.59236,0.0,0.0,0.0,0.0,0.0,0.0,0.0,0.24891964,0.034966882,-0.9680072,-0.9290161,0.10546875,-0.13165283,0.29882812,0.5029297,0.23046875,8.435009,5.153409,0.7239229,-20.040752,-1.0023804,0.07562256,-0.02947998,0.19433594,0.1796875,-0.040039062,5.7757034,5.666151,-55.87866,-13.314611,-0.48968506,0.59594727,0.618042,0.28222656,0.07910156,0.18457031,10.522614,0.05262184,-127.251785,-5.537615,0.0,0.0,0.0,0.0,0.0,0.0,0.0,16.574121,-124.31206,5.3447266,0.0,0.0,0.0,0.0,0.0,0.0,0.0,-2.0569665,44.94463,1.0945725,
1.425781228754204,73,0.004333496,-1.0288696,0.41516113,-0.115234375,0.19042969,-0.26757812,0.0,0.0,0.0,0.0,0.0,0.0,0.0,0.0,0.0,0.0,0.0,-0.24915022,-0.034153737,0.96765065,0.79034424,0.15197754,-0.112854004,-0.86035156,1.3837891,-0.671875,26.084702,-5.1581807,-0.70708823,20.033367,-0.8442383,-0.12536621,-0.43847656,1.8720703,-0.07128906,0.41601562,43.324383,18.132154,-51.01371,33.315376,-0.61346436,0.84051514,0.5300293,-2.0751953,-0.265625,-0.10253906,2.963194,-0.24263191,-120.55463,29.844547,0.0,0.0,0.0,0.0,0.0,0.0,0.0,18.013235,-126.46766,35.486908,0.0,0.0,0.0,0.0,0.0,0.0,0.0,0.24915022,0.034153737,-0.96765065,-0.9572754,0.018371582,-0.14691162,0.6591797,0.53808594,0.28808594,8.353482,5.1581807,0.70708823,-20.033367,-0.9812622,0.07305908,0.026123047,0.32617188,0.2578125,0.017578125,5.435199,5.444984,-55.910027,-13.435354,-0.51190186,0.6166992,0.6286621,0.20800781,-0.0126953125,0.036132812,10.631897,-0.04787588,-127.29178,-5.645805,0.0,0.0,0.0,0.0,0.0,0.0,0.0,16.465971,-124.27868,5.225455,0.0,0.0,0.0,0.0,0.0,0.0,0.0,-2.4349673,44.91461,0.95833087,
1.4453124784631657,74,-0.038513184,-0.9293823,0.3831787,0.07324219,0.20605469,-0.34179688,0.0,0.0,0.0,0.0,0.0,0.0,0.0,0.0,0.0,0.0,0.0,-0.25139636,-0.029548442,0.9674089,0.833313,0.17297363,0.010498047,-1.4697266,1.2705078,-0.22753906,26.90477,-5.2046843,-0.6117444,20.028364,-0.79974365,-0.014099121,-0.38012695,1.5849609,-0.83984375,0.3623047,44.41205,19.780273,-50.212093,32.872055,-0.4777832,0.7963257,0.66760254,-1.7070312,0.19628906,-0.5283203,2.4070466,2.1186829,-119.93834,29.297468,0.0,0.0,0.0,0.0,0.0,0.0,0.0,20.54155,-125.69307,34.54986,0.0,0.0,0.0,0.0,0.0,0.0,0.0,0.25139636,0.029548442,-0.9674089,-0.9191284,0.11437988,-0.18078613,0.9609375,0.5527344,0.42089844,8.194266,5.2046843,0.6117444,-20.028364,-0.9645386,0.15167236,0.013793945,0.34472656,0.2578125,0.036132812,5.0906215,5.199683,-56.01335,-13.501354,-0.5368042,0.6019287,0.6161499,0.11425781,-0.125,-0.07519531,10.712153,-0.2557912,-127.38085,-5.539834,0.0,0.0,0.0,0.0,0.0,0.0,0.0,16.266705,-124.31307,5.3049335,0.0,0.0,0.0,0.0,0.0,0.0,0.0,-2.7354944,44.910862,0.660892,
1.4648437281721274,75,-0.045959473,-0.88494873,0.38964844,0.24316406,0.22265625,-0.32421875,0.0,0.0,0.0,0.0,0.0,0.0,0.0,0.0,0.0,0.0,0.0,-0.25106144,-0.024722055,0.96760386,0.81695557,0.08483887,0.022460938,-1.6591797,1.2128906,0.087890625,27.936344,-5.197749,-0.5118231,20.0324,-0.765625,0.008666992,-0.33599854,1.1806641,-1.5205078,0.36328125,44.6034,21.310001,-49.405926,32.52484,-0.3470459,0.7672119,0.77178955,-1.3867188,0.9638672,-0.7089844,1.9861321,5.368002,-119.53598,28.940529,0.0,0.0,0.0,0.0,0.0,0.0,0.0,23.988455,-124.87953,33.92733,0.0,0.0,0.0,0.0,0.0,0.0,0.0,0.25106144,0.024722055,-0.96760386,-0.92266846,0.21643066,-0.23736572,0.9013672,0.4189453,0.38085938,8.270587,5.197749,0.5118231,-20.0324,-0.9466553,0.07867432,0.005065918,0.26953125,0.31445312,0.055664062,4.8301854,4.863656,-56.10041,-13.34132,-0.47485352,0.6480713,0.5805664,0.060546875,-0.421875,-0.2998047,10.609198,-0.66694784,-127.439606,-5.2296257,0.0,0.0,0.0,0.0,0.0,0.0,0.0,15.927616,-124.37107,5.503233,0.0,0.0,0.0,0.0,0.0,0.0,0.0,-2.8514524,44.90547,0.40746617,
1.484374977881089,76,-0.05480957,-0.79815674,0.38763428,0.22363281,0.2783203,-0.23046875,0.0,0.0,0.0,0.0,0.0,0.0,0.0,0.0,0.0,0.0,0.0,-0.24753782,-0.020290006,0.9687956,0.7736206,0.062805176,0.08465576,-1.7402344,1.0224609,0.14550781,29.225515,-5.1248007,-0.42006606,20.057074,-0.83984375,-0.04925537,-0.3133545,0.7753906,-2.1083984,0.42089844,44.016163,22.76788,-48.624718,32.218594,-0.14135742,0.85614014,0.8175659,-1.0117188,1.828125,-0.98339844,1.6691775,9.398137,-119.303276,28.6959,0.0,0.0,0.0,0.0,0.0,0.0,0.0,28.22696,-123.95962,33.589973,0.0,0.0,0.0,0.0,0.0,0.0,0.0,0.24753782,0.020290006,-0.9687956,-0.88427734,0.24078369,-0.23614502,0.5419922,0.42382812,0.2861328,8.448036,5.1248007,0.42006606,-20.057074,-0.93933105,0.11834717,0.012329102,0.3251953,0.39160156,0.11230469,4.6716027,4.4955354,-56.147625,-13.04138,-0.46136475,0.600647,0.5549927,-0.3125,-0.64453125,-0.6689453,10.319059,-1.1710162,-127.45828,-4.7498417,0.0,0.0,0.0,0.0,0.0,0.0,0.0,15.517748,-124.47056,5.8591423,0.0,0.0,0.0,0.0,0.0,0.0,0.0,-2.7417026,44.921432,0.24027884,
1.5039062275900508,77,-0.09240723,-0.7526245,0.30169678,0.12988281,0.35351562,-0.10058594,0.0,0.0,0.0,0.0,0.0,0.0,0.0,0.0,0.0,0.0,0.0,-0.24088797,-0.019348878,0.9705427,0.7574463,-0.0057373047,0.061706543,-1.8310547,0.5644531,0.15039062,30.198189,-4.9871287,-0.40058175,20.093243,-0.883728,0.0025024414,-0.31079102,0.6611328,-2.6142578,0.51953125,42.216774,23.92321,-48.13378,31.727167,-0.120910645,0.75219727,0.8218994,-0.9111328,2.2509766,-1.1279297,1.6572938,14.065057,-119.39611,28.42979,0.0,0.0,0.0,0.0,0.0,0.0,0.0,33.10176,-123.119576,33.313423,0.0,0.0,0.0,0.0,0.0,0.0,0.0,0.24088797,0.019348878,-0.9705427,-0.89953613,0.23760986,-0.2617798,0.2763672,0.34960938,0.13476562,8.780446,4.9871287,0.40058175,-20.093243,-0.96118164,0.17333984,-0.034851074,0.24902344,0.37109375,0.13183594,4.568361,4.0746975,-56.128906,-12.778944,-0.50561523,0.76831055,0.53881836,-0.83691406,-0.7919922,-0.9785156,9.752579,-1.8227062,-127.37046,-4.074976,0.0,0.0,0.0,0.0,0.0,0.0,0.0,14.983923,-124.54806,6.3914986,0.0,0.0,0.0,0.0,0.0,0.0,0.0,-2.61723,44.931145,0.2461589,
1.5234374772990125,78,-0.080566406,-0.76446533,0.2727661,-0.021484375,0.31933594,-0.0068359375,0.0,0.0,0.0,0.0,0.0,0.0,0.0,0.0,0.0,0.0,0.0,-0.23486903,-0.021424841,0.9719315,0.80548096,-0.121276855,0.02520752,-1.6845703,0.37304688,0.11621094,30.799204,-4.8625183,-0.4435606,20.121996,-0.8565674,0.037475586,-0.2816162,0.6435547,-3.024414,0.60058594,39.59864,24.76017,-47.891373,31.121878,0.03302002,0.7935791,0.80249023,-0.8388672,2.366211,-1.2392578,1.9176506,18.950397,-119.61834,28.23531,0.0,0.0,0.0,0.0,0.0,0.0,0.0,38.160347,-122.30892,33.11918,0.0,0.0,0.0,0.0,0.0,0.0,0.0,0.23486903,0.021424841,-0.9719315,-0.83929443,0.24584961,-0.22021484,0.0126953125,0.41015625,0.09667969,9.339088,4.8625183,0.4435606,-20.121996,-0.9276123,0.19042969,-0.03289795,0.0029296875,0.42578125,0.18847656,4.650716,3.7139063,-56.027893,-12.429876,-0.5109863,0.7282715,0.6645508,-1.0595703,-1.0341797,-1.1445312,8.750686,-2.6012087,-127.16717,-3.1538506,0.0,0.0,0.0,0.0,0.0,0.0,0.0,14.337691,-124.67667,7.185671,0.0,0.0,0.0,0.0,0.0,0.0,0.0,-2.5655394,44.931442,0.37048185,
1.5429687270079742,79,-0.08337402,-0.8267822,0.33050537,-0.15429688,0.32128906,0.068359375,0.0,0.0,0.0,0.0,0.0,0.0,0.0,0.0,0.0,0.0,0.0,-0.22907603,-0.025815714,0.97328675,0.77453613,-0.1609497,0.061279297,-1.4990234,0.23828125,0.0068359375,31.05905,-4.7425847,-0.5344654,20.150055,-0.8825073,0.061340332,-0.29473877,0.6640625,-3.3027344,0.6044922,36.493656,25.430632,-47.793602,30.411293,0.14447021,0.7584839,0.8465576,-0.9082031,2.1552734,-1.1289062,2.6101456,24.05954,-119.75316,27.906076,0.0,0.0,0.0,0.0,0.0,0.0,0.0,43.394005,-121.4225,32.75539,0.0,0.0,0.0,0.0,0.0,0.0,0.0,0.22907603,0.025815714,-0.97328675,-0.94140625,0.21795654,-0.20397949,-0.15332031,0.5283203,0.060546875,10.0575075,4.7425847,0.5344654,-20.150055,-0.9480591,0.1394043,-0.07110596,-0.3564453,0.53515625,0.16894531,4.7397895,3.2611985,-55.88731,-12.143049,-0.5036621,0.5704346,0.65179443,-0.88964844,-1.1279297,-1.0361328,7.6907983,-3.6031232,-126.9064,-2.3481789,0.0,0.0,0.0,0.0,0.0,0.0,0.0,13.491196,-124.78712,7.8158054,0.0,0.0,0.0,0.0,0.0,0.0,0.0,-2.6634276,44.92723,0.5647885,
1.5624999767169359,80,-0.07019043,-0.888916,0.3050537,-0.17285156,0.26757812,0.10546875,0.0,0.0,0.0,0.0,0.0,0.0,0.0,0.0,0.0,0.0,0.0,-0.2354489,-0.032510564,0.9709381,0.78912354,-0.20025635,0.11791992,-1.0820312,0.12011719,0.0078125,30.895016,-4.8745227,-0.6730695,20.10143,-0.90838623,0.076538086,-0.22271729,0.7421875,-3.4492188,0.6074219,33.023075,25.67445,-47.820126,29.763756,0.38726807,0.78796387,1.012146,-0.9794922,2.0009766,-1.0371094,3.780511,29.049538,-119.720825,27.64159,0.0,0.0,0.0,0.0,0.0,0.0,0.0,48.462135,-120.45731,32.41304,0.0,0.0,0.0,0.0,0.0,0.0,0.0,0.2354489,0.032510564,-0.9709381,-0.9139404,0.11828613,-0.17974854,-0.2861328,0.5292969,0.041992188,10.75206,4.8745227,0.6730695,-20.10143,-0.96417236,-0.0015258789,-0.0423584,-0.28027344,0.57421875,0.16894531,4.960529,3.1389296,-55.714733,-11.969391,-0.5845337,0.54785156,0.64038086,-1.4169922,-0.921875,-1.0634766,7.1089263,-4.314232,-126.66022,-2.1255589,0.0,0.0,0.0,0.0,0.0,0.0,0.0,12.894609,-124.84823,7.9040527,0.0,0.0,0.0,0.0,0.0,0.0,0.0,-3.0144517,44.874557,0.7715711,
1.5820312264258976,81,-0.05871582,-0.93652344,0.32617188,-0.2109375,0.17675781,0.123046875,0.0,0.0,0.0,0.0,0.0,0.0,0.0,0.0,0.0,0.0,0.0,-0.24493763,-0.03924208,0.9683726,0.81018066,-0.27233887,0.21539307,-0.62109375,0.17285156,0.0625,30.501173,-5.070967,-0.8124327,20.048315,-0.9312744,0.10021973,-0.13574219,0.6845703,-3.3955078,0.625,29.52383,25.727816,-47.871685,29.321321,0.6732788,0.69537354,1.1169434,-0.78125,2.3476562,-1.4072266,4.7202835,33.842335,-119.40581,27.530504,0.0,0.0,0.0,0.0,0.0,0.0,0.0,53.29541,-119.126625,32.18528,0.0,0.0,0.0,0.0,0.0,0.0,0.0,0.24493763,0.03924208,-0.9683726,-0.92144775,0.058166504,-0.16333008,-0.07910156,0.5263672,0.13574219,11.381226,5.070967,0.8124327,-20.048315,-0.944397,0.053894043,-0.07684326,-0.16699219,0.70996094,0.14941406,5.2584047,3.122229,-55.568,-11.91258,-0.5101929,0.5923462,0.7127075,-1.5654297,-0.9970703,-0.96777344,6.5321894,-4.9901013,-126.42948,-1.9755831,0.0,0.0,0.0,0.0,0.0,0.0,0.0,12.311768,-124.994286,7.9524164,0.0,0.0,0.0,0.0,0.0,0.0,0.0,-3.5037894,44.837467,0.9307427,
1.6015624761348592,82,-0.074401855,-0.9824219,0.31610107,-0.041992188,0.12109375,0.16015625,0.0,0.0,0.0,0.0,0.0,0.0,0.0,0.0,0.0,0.0,0.0,-0.25637203,-0.045130037,0.96494806,0.8180542,-0.32666016,0.24017334,-0.29785156,0.15234375,-0.029296875,30.603735,-5.307697,-0.93433154,19.977419,-0.9949951,0.19018555,-0.035217285,0.5673828,-3.3447266,0.7363281,26.242237,25.846703,-47.71412,29.465008,0.7160034,0.48498535,1.083252,-0.4814453,2.5791016,-1.6123047,5.3590975,38.80719,-118.544975,28.339228,0.0,0.0,0.0,0.0,0.0,0.0,0.0,58.233494,-117.10469,32.883144,0.0,0.0,0.0,0.0,0.0,0.0,0.0,0.25637203,0.045130037,-0.96494806,-0.9109497,0.04058838,-0.23522949,0.09472656,0.62109375,0.099609375,11.874975,5.307697,0.93433154,-19.977419,-0.9831543,-0.027832031,-0.14807129,-0.16601562,0.76660156,0.072265625,5.730563,3.0726388,-55.457108,-11.962066,-0.6043091,0.40838623,0.8000488,-1.3222656,-0.8125,-0.6904297,6.202923,-6.0038652,-126.21813,-2.1035376,0.0,0.0,0.0,0.0,0.0,0.0,0.0,11.355987,-125.18758,7.7759237,0.0,0.0,0.0,0.0,0.0,0.0,0.0,-3.8869865,44.794098,1.0622795,
1.621093725843821,83,-0.08270264,-0.9302368,0.33447266,0.052734375,0.13867188,0.21484375,0.0,0.0,0.0,0.0,0.0,0.0,0.0,0.0,0.0,0.0,0.0,-0.26759195,-0.05095335,0.96177346,0.8392334,-0.24658203,0.22814941,0.119140625,0.091796875,-0.15820312,30.560616,-5.5399847,-1.0548923,19.911694,-0.98480225,0.23242188,-0.087524414,0.25683594,-3.149414,0.7480469,23.044262,25.767818,-47.69238,29.597855,0.6324463,0.4907837,1.0045166,-0.7294922,2.5205078,-1.4619141,5.625492,43.088097,-117.589355,29.270462,0.0,0.0,0.0,0.0,0.0,0.0,0.0,62.41854,-114.96829,33.696575,0.0,0.0,0.0,0.0,0.0,0.0,0.0,0.26759195,0.05095335,-0.96177346,-0.9001465,-0.010009766,-0.29937744,0.28808594,0.7734375,0.13964844,12.422956,5.5399847,1.0548923,-19.911694,-0.9663696,-0.13562012,-0.18597412,-0.24121094,0.8232422,0.0146484375,5.9177814,2.6860113,-55.354126,-12.207636,-0.5777588,0.1973877,0.82507324,-0.5019531,-0.38476562,-0.38378906,6.4445767,-7.386821,-126.05528,-2.9024096,0.0,0.0,0.0,0.0,0.0,0.0,0.0,10.062554,-125.379,6.8455725,0.0,0.0,0.0,0.0,0.0,0.0,0.0,-4.2023177,44.76935,1.2026132,
1.6406249755527826,84,-0.055358887,-0.90496826,0.3007202,0.18457031,0.15722656,0.3076172,0.0,0.0,0.0,0.0,0.0,0.0,0.0,0.0,0.0,0.0,0.0,-0.27884093,-0.056843944,0.95834196,0.86816406,-0.2041626,0.29681396,0.48242188,0.14648438,-0.25097656,30.931095,-5.7728705,-1.1768458,19.84065,-0.93151855,0.3017578,-0.042053223,-0.26660156,-3.0898438,0.7001953,20.044777,25.825514,-47.55098,29.857601,0.6983032,0.45062256,0.93341064,-0.9169922,2.461914,-1.0332031,6.0295167,47.392384,-116.25796,30.620775,0.0,0.0,0.0,0.0,0.0,0.0,0.0,66.574295,-112.5638,34.927383,0.0,0.0,0.0,0.0,0.0,0.0,0.0,0.27884093,0.056843944,-0.95834196,-0.88287354,-0.088012695,-0.3479004,0.4189453,0.65722656,0.08203125,12.757205,5.7728705,1.1768458,-19.84065,-0.9837036,-0.12109375,-0.14990234,0.024414062,0.921875,-0.0048828125,6.127047,2.259234,-55.27415,-12.739246,-0.51123047,0.40722656,0.80303955,-0.390625,-0.23535156,-0.23535156,7.343447,-8.904413,-125.89577,-4.1520805,0.0,0.0,0.0,0.0,0.0,0.0,0.0,8.582346,-125.31982,5.5378313,0.0,0.0,0.0,0.0,0.0,0.0,0.0,-4.373214,44.75216,1.382031,
1.6601562252617443,85,-0.095947266,-0.93859863,0.2980957,0.07128906,0.23144531,0.3642578,0.0,0.0,0.0,0.0,0.0,0.0,0.0,0.0,0.0,0.0,0.0,-0.29075798,-0.06426443,0.95418245,0.93566895,-0.18328857,0.3501587,0.48046875,0.0703125,-0.23144531,31.467365,-6.0195923,-1.3304728,19.754532,-0.9361572,0.13104248,-0.01776123,-0.65625,-2.7626953,0.49902344,17.607473,25.95876,-47.347588,30.203945,0.70458984,0.37213135,0.861145,-0.89160156,2.4023438,-0.4404297,6.3870287,51.37255,-114.7088,31.793219,0.0,0.0,0.0,0.0,0.0,0.0,0.0,70.34366,-110.051994,36.100082,0.0,0.0,0.0,0.0,0.0,0.0,0.0,0.29075798,0.06426443,-0.95418245,-0.8428955,0.045410156,-0.27038574,0.47558594,0.6748047,0.13867188,13.352438,6.0195923,1.3304728,-19.754532,-0.9510498,0.094177246,-0.13720703,0.19335938,0.9433594,0.072265625,6.329393,1.8858109,-55.126133,-13.022015,-0.5125122,0.4829712,0.74334717,-0.22167969,-0.21679688,-0.20117188,8.054666,-10.314495,-125.61809,-4.773325,0.0,0.0,0.0,0.0,0.0,0.0,0.0,7.206707,-125.1121,4.8552113,0.0,0.0,0.0,0.0,0.0,0.0,0.0,-4.5677543,44.718655,1.6199288,
1.679687474970706,86,-0.0947876,-0.93304443,0.35443115,-0.0048828125,0.28710938,0.4013672,0.0,0.0,0.0,0.0,0.0,0.0,0.0,0.0,0.0,0.0,0.0,-0.30002296,-0.07366936,0.9509794,1.0084839,-0.16052246,0.3116455,0.484375,0.12695312,-0.103515625,31.871655,-6.2114053,-1.525184,19.688223,-0.8991089,0.11395264,0.068847656,-0.46289062,-2.5898438,0.46289062,15.738174,25.998045,-47.28477,30.566277,0.8185425,0.2767334,0.8763428,-0.52734375,2.5166016,-0.12695312,6.518606,54.593506,-113.345276,32.54628,0.0,0.0,0.0,0.0,0.0,0.0,0.0,73.28322,-107.8028,37.026623,0.0,0.0,0.0,0.0,0.0,0.0,0.0,0.30002296,0.07366936,-0.9509794,-0.8338623,0.28308105,-0.28399658,0.36621094,0.8496094,0.140625,14.473859,6.2114053,1.525184,-19.688223,-0.9413452,0.17785645,-0.17041016,-0.16503906,1.0722656,0.033203125,6.623623,1.323967,-54.859505,-12.874464,-0.48797607,0.40612793,0.77178955,-0.12890625,-0.16113281,-0.18359375,8.768491,-12.186114,-125.0925,-4.441454,0.0,0.0,0.0,0.0,0.0,0.0,0.0,5.368516,-124.66096,5.132618,0.0,0.0,0.0,0.0,0.0,0.0,0.0,-4.7875605,44.69753,1.9521561,
1.6992187246796677,87,-0.13616943,-0.87805176,0.34570312,0.033203125,0.26757812,0.32714844,0.0,0.0,0.0,0.0,0.0,0.0,0.0,0.0,0.0,0.0,0.0,-0.3060296,-0.08263635,0.9485014,0.94610596,-0.1729126,0.3630371,0.3798828,0.41308594,0.022460938,32.832657,-6.335761,-1.7108287,19.63692,-0.8046875,0.19720459,0.2555542,-0.23242188,-2.100586,0.4794922,14.55249,26.330353,-46.978165,31.163517,0.87457275,0.30725098,0.7003784,0.19335938,2.8623047,-0.29785156,6.4635954,57.926815,-111.654396,33.43048,0.0,0.0,0.0,0.0,0.0,0.0,0.0,76.23423,-105.16257,38.202297,0.0,0.0,0.0,0.0,0.0,0.0,0.0,0.3060296,0.08263635,-0.9485014,-0.8389282,0.24511719,-0.3717041,0.12011719,0.8515625,0.140625,15.742492,6.335761,1.7108287,-19.63692,-0.93914795,0.032043457,-0.16174316,-0.33496094,1.1279297,-0.024414062,6.966522,0.6252346,-54.5508,-12.471656,-0.53912354,0.40130615,0.784729,-0.20410156,-0.12402344,-0.21875,9.816543,-14.288462,-124.50423,-4.126252,0.0,0.0,0.0,0.0,0.0,0.0,0.0,3.2908669,-124.11915,5.4029884,0.0,0.0,0.0,0.0,0.0,0.0,0.0,-4.889345,44.676777,2.3148537,
1.7187499743886294,88,-0.08203125,-0.8779907,0.32806396,0.07128906,0.15722656,0.23339844,0.0,0.0,0.0,0.0,0.0,0.0,0.0,0.0,0.0,0.0,0.0,-0.31342635,-0.08874901,0.94545215,0.9545288,-0.045043945,0.3602295,0.43164062,0.24023438,0.04296875,33.786236,-6.4888973,-1.8373796,19.57379,-0.8935547,0.23388672,0.31103516,-0.42773438,-1.6601562,0.45214844,13.540947,26.733843,-46.55085,31.668972,0.69970703,0.22338867,0.513855,-0.15234375,2.2861328,-0.115234375,7.242428,60.814568,-109.91215,34.69758,0.0,0.0,0.0,0.0,0.0,0.0,0.0,78.92366,-102.95788,39.562756,0.0,0.0,0.0,0.0,0.0,0.0,0.0,0.31342635,0.08874901,-0.94545215,-0.8045044,0.1605835,-0.4064331,0.09863281,0.7373047,0.06347656,16.769264,6.4888973,1.8373796,-19.57379,-0.97613525,0.037231445,-0.30389404,-0.18359375,1.1865234,0.013671875,7.39717,-0.069096565,-54.321632,-12.294824,-0.513916,0.38153076,0.78100586,-0.11230469,0.0625,-0.14453125,10.8311825,-16.514107,-123.97172,-4.24063,0.0,0.0,0.0,0.0,0.0,0.0,0.0,1.0902233,-123.68285,5.2461596,0.0,0.0,0.0,0.0,0.0,0.0,0.0,-5.000737,44.649284,2.533409,
1.7382812240975911,89,-0.06854248,-1.0018921,0.41955566,-0.15429688,0.23144531,0.123046875,0.0,0.0,0.0,0.0,0.0,0.0,0.0,0.0,0.0,0.0,0.0,-0.32090262,-0.09298433,0.9425289,1.0443726,0.008850098,0.32763672,0.38085938,0.3544922,0.2265625,34.225616,-6.643678,-1.925064,19.51327,-0.86712646,0.08905029,0.2772827,-0.58496094,-1.1044922,0.27148438,12.7417,26.95149,-46.23459,32.063164,0.8364258,0.28363037,0.39312744,-0.54785156,1.4228516,-0.0078125,8.834311,62.82534,-108.56029,35.84128,0.0,0.0,0.0,0.0,0.0,0.0,0.0,80.96006,-101.65627,40.592525,0.0,0.0,0.0,0.0,0.0,0.0,0.0,0.32090262,0.09298433,-0.9425289,-0.74542236,0.007019043,-0.49353027,0.21484375,0.7939453,0.026367188,17.697466,6.643678,1.925064,-19.51327,-0.9924927,-0.041748047,-0.3881836,-0.032226562,1.2080078,-0.005859375,7.8791065,-0.8514724,-54.148434,-12.485292,-0.5308838,0.35699463,0.80688477,0.03515625,0.24902344,-0.12792969,11.915783,-19.039724,-123.407776,-4.829652,0.0,0.0,0.0,0.0,0.0,0.0,0.0,-1.3994923,-123.23055,4.590461,0.0,0.0,0.0,0.0,0.0,0.0,0.0,-5.2642236,44.614468,2.609091,
1.7578124738065528,90,0.008178711,-1.119812,0.46759033,0.09082031,0.13769531,0.140625,0.0,0.0,0.0,0.0,0.0,0.0,0.0,0.0,0.0,0.0,0.0,-0.31938154,-0.09704733,0.9428216,1.1071167,-0.08862305,0.30993652,0.20898438,0.35546875,0.26367188,34.82941,-6.6121883,-2.0091808,19.519331,-0.78240967,-0.008850098,0.2503662,-0.3173828,-0.40722656,0.078125,12.663876,27.218874,-46.02094,32.478596,0.8550415,0.24835205,0.28961182,-0.71777344,0.76953125,0.15429688,10.726402,63.967926,-107.8244,36.496338,0.0,0.0,0.0,0.0,0.0,0.0,0.0,82.28949,-101.28464,41.002632,0.0,0.0,0.0,0.0,0.0,0.0,0.0,0.31938154,0.09704733,-0.9428216,-0.835083,0.10333252,-0.5543823,0.42773438,0.96484375,0.009765625,18.611319,6.6121883,2.0091808,-19.519331,-1.0388794,0.004638672,-0.41137695,0.08203125,1.1904297,-0.08203125,8.174234,-1.9957752,-53.941574,-12.809559,-0.53326416,0.4210205,0.7927246,0.23730469,0.6220703,-0.12890625,12.923308,-21.91323,-122.7671,-5.5720997,0.0,0.0,0.0,0.0,0.0,0.0,0.0,-4.2589264,-122.68897,3.826807,0.0,0.0,0.0,0.0,0.0,0.0,0.0,-5.291854,44.60763,2.7989724,
1.7773437235155145,91,0.013244629,-1.1158447,0.44976807,0.3359375,0.15429688,0.15820312,0.0,0.0,0.0,0.0,0.0,0.0,0.0,0.0,0.0,0.0,0.0,-0.3178001,-0.098808184,0.9431865,1.0473022,-0.18365479,0.3272705,0.05859375,0.4716797,0.16992188,35.701492,-6.579448,-2.0456357,19.526884,-0.84484863,-0.10247803,0.18884277,0.14453125,0.3876953,-0.056640625,13.195685,27.524494,-45.75104,32.799713,1.0749512,0.25006104,0.24438477,-0.81347656,0.21289062,0.390625,11.767552,64.19175,-107.59883,36.84155,0.0,0.0,0.0,0.0,0.0,0.0,0.0,82.6947,-101.40618,41.22209,0.0,0.0,0.0,0.0,0.0,0.0,0.0,0.3178001,0.098808184,-0.9431865,-0.9075928,0.168396,-0.6566162,0.48632812,1.0224609,0.0107421875,19.381859,6.579448,2.0456357,-19.526884,-1.097168,0.09387207,-0.4331665,0.10058594,1.2099609,-0.08203125,8.252287,-3.2262502,-53.737804,-13.046776,-0.50842285,0.43292236,0.8111572,0.42089844,0.99609375,-0.12890625,13.762117,-24.70234,-122.126495,-6.129978,0.0,0.0,0.0,0.0,0.0,0.0,0.0,-7.0622025,-122.14323,3.2948875,0.0,0.0,0.0,0.0,0.0,0.0,0.0,-5.060061,44.624058,2.9698622,
1.7968749732244762,92,-0.033813477,-1.1048584,0.40716553,0.16601562,0.19238281,0.15917969,0.0,0.0,0.0,0.0,0.0,0.0,0.0,0.0,0.0,0.0,0.0,-0.31633228,-0.101018295,0.94343364,1.0293579,-0.16290283,0.3982544,0.2109375,0.5488281,-0.034179688,36.641296,-6.5490584,-2.091392,19.532001,-0.78686523,-0.11437988,0.053833008,0.5292969,1.1816406,-0.21191406,14.404407,27.976255,-45.411106,32.990833,1.3447876,0.21356201,0.15362549,-0.9892578,-0.24902344,0.6298828,11.089778,63.620712,-107.86656,36.869503,0.0,0.0,0.0,0.0,0.0,0.0,0.0,82.160965,-101.763916,41.242886,0.0,0.0,0.0,0.0,0.0,0.0,0.0,0.31633228,0.101018295,-0.94343364,-0.9656372,0.2156372,-0.5897217,0.35253906,0.94628906,-0.028320312,20.122377,6.5490584,2.091392,-19.532001,-1.1383057,0.05206299,-0.3605957,0.17675781,1.2109375,-0.08203125,8.479939,-4.3374324,-53.510235,-13.244289,-0.5449829,0.5,0.8017578,0.54589844,1.4443359,-0.25976562,14.498979,-27.399908,-121.41359,-6.649657,0.0,0.0,0.0,0.0,0.0,0.0,0.0,-9.795736,-121.56138,2.8383555,0.0,0.0,0.0,0.0,0.0,0.0,0.0,-4.854165,44.63394,3.1515899,
1.816406222933438,93,-0.06945801,-1.1403198,0.35510254,0.29785156,0.24511719,0.140625,0.0,0.0,0.0,0.0,0.0,0.0,0.0,0.0,0.0,0.0,0.0,-0.3139103,-0.102645114,0.9441227,1.0077515,-0.19940186,0.46020508,0.63378906,0.69921875,-0.23925781,37.707657,-6.498916,-2.1250722,19.546267,-0.7669678,-0.121520996,-0.12237549,0.3515625,1.9052734,-0.50878906,16.463512,28.49609,-45.011124,33.181984,1.5848999,0.119628906,-0.019104004,-1.484375,-0.828125,1.6123047,10.2769165,62.117176,-108.5966,36.70185,0.0,0.0,0.0,0.0,0.0,0.0,0.0,80.75105,-102.84017,41.150974,0.0,0.0,0.0,0.0,0.0,0.0,0.0,0.3139103,0.102645114,-0.9441227,-0.94921875,0.2487793,-0.51672363,0.33496094,0.9472656,-0.12207031,20.781464,6.498916,2.1250722,-19.546267,-1.0894165,0.09313965,-0.33764648,0.4033203,1.2705078,-0.08203125,8.832487,-5.3975244,-53.28358,-13.36464,-0.58599854,0.5461426,0.73168945,0.61328125,2.0429688,-0.5,14.939384,-30.074495,-120.652756,-7.17091,0.0,0.0,0.0,0.0,0.0,0.0,0.0,-12.511049,-121.0554,2.3860464,0.0,0.0,0.0,0.0,0.0,0.0,0.0,-4.584794,44.651844,3.3301601,
1.8359374726423996,94,-0.074523926,-1.2139282,0.33770752,0.39257812,0.18847656,0.06542969,0.0,0.0,0.0,0.0,0.0,0.0,0.0,0.0,0.0,0.0,0.0,-0.3110878,-0.10263218,0.94503,1.0465698,-0.28094482,0.42285156,0.97558594,0.67871094,-0.38671875,38.83866,-6.44048,-2.1248045,19.565052,-0.6552124,-0.1529541,-0.49658203,-0.17480469,2.6220703,-1.0019531,19.54183,29.026752,-44.538113,33.4507,1.9555664,0.13153076,-0.09082031,-1.1347656,-1.2529297,2.71875,9.571442,59.595413,-109.683075,36.30582,0.0,0.0,0.0,0.0,0.0,0.0,0.0,78.32468,-104.60222,41.15978,0.0,0.0,0.0,0.0,0.0,0.0,0.0,0.3110878,0.10263218,-0.94503,-1.0056763,0.22973633,-0.43237305,0.23828125,0.8720703,-0.16113281,21.243406,6.44048,2.1248045,-19.565052,-1.1350098,0.15454102,-0.2800293,0.5175781,1.3486328,-0.12109375,9.268301,-6.413249,-53.09397,-13.628875,-0.6057739,0.54504395,0.68048096,0.5488281,2.6611328,-0.8496094,14.862703,-32.75693,-119.870605,-7.8493423,0.0,0.0,0.0,0.0,0.0,0.0,0.0,-15.268114,-120.72249,1.818821,0.0,0.0,0.0,0.0,0.0,0.0,0.0,-4.2745953,44.672752,3.444428,
1.8554687223513613,95,-0.16107178,-1.0388184,0.65289307,-0.17285156,0.19433594,0.048828125,0.0,0.0,0.0,0.0,0.0,0.0,0.0,0.0,0.0,0.0,0.0,-0.30816576,-0.10257195,0.9459716,0.98291016,-0.2154541,0.3147583,0.4033203,0.7402344,-0.4248047,39.85258,-6.379987,-2.1235573,19.584545,-1.4717407,-0.10308838,1.3313599,0.064453125,1.078125,-1.5322266,23.103455,29.605019,-44.021248,33.69811,-1.7044067,1.5819702,-2.0,0.041015625,-2.290039,3.1230469,9.867629,57.087185,-110.57034,35.12876,0.0,0.0,0.0,0.0,0.0,0.0,0.0,75.863014,-106.48903,40.693924,0.0,0.0,0.0,0.0,0.0,0.0,0.0,0.30816576,0.10257195,-0.9459716,-0.98358154,0.2156372,-0.30249023,0.2939453,0.88964844,-0.028320312,21.680216,6.379987,2.1235573,-19.584545,-1.1726685,0.16156006,-0.25286865,0.5751953,1.4257812,-0.17871094,9.998925,-7.225194,-52.92999,-13.807337,-0.63116455,0.5629883,0.7219238,0.4658203,3.241211,-1.2177734,14.148091,-35.301197,-119.03659,-8.486939,0.0,0.0,0.0,0.0,0.0,0.0,0.0,-17.944704,-120.59468,1.3278418,0.0,0.0,0.0,0.0,0.0,0.0,0.0,-4.0872216,44.683968,3.513615,
1.874999972060323,96,-0.45751953,-1.3673706,0.57470703,0.3173828,-0.23144531,-0.25195312,0.0,0.0,0.0,0.0,0.0,0.0,0.0,0.0,0.0,0.0,0.0,-0.3056029,-0.10218847,0.9468662,1.5701904,-0.20935059,0.1541748,-0.13378906,0.6689453,-0.40527344,40.622013,-6.326928,-2.1156182,19.603067,-2.0,-0.11584473,0.6567383,-0.6933594,1.4248047,-0.21582031,25.467539,30.51088,-43.31286,33.580204,1.8629761,0.48284912,1.2625122,-3.734375,-5.4375,2.9628906,13.828942,55.756287,-110.73694,35.189198,0.0,0.0,0.0,0.0,0.0,0.0,0.0,74.5807,-108.44765,41.5547,0.0,0.0,0.0,0.0,0.0,0.0,0.0,0.3056029,0.10218847,-0.9468662,-1.3151245,0.3998413,-0.49163818,0.7158203,1.078125,-0.026367188,22.690908,6.326928,2.1156182,-19.603067,-1.4004517,0.12506104,-0.21899414,0.40625,1.5,-0.3515625,10.413915,-8.379103,-52.682163,-14.083338,-0.68499756,0.5246582,0.7315674,0.0078125,3.859375,-1.6181641,12.691015,-38.204117,-118.06146,-9.39026,0.0,0.0,0.0,0.0,0.0,0.0,0.0,-21.098427,-120.603424,0.6553154,0.0,0.0,0.0,0.0,0.0,0.0,0.0,-4.214545,44.677155,3.461432,
1.8945312217692847,97,-0.28808594,-1.2849121,0.3869629,0.7128906,-0.6171875,-0.2548828,0.0,0.0,0.0,0.0,0.0,0.0,0.0,0.0,0.0,0.0,0.0,-0.30999064,-0.08901271,0.94678664,1.7532959,0.2901001,-0.12976074,-0.15917969,0.38085938,-0.1796875,41.259846,-6.4177675,-1.8428391,19.60142,-0.121276855,-0.31750488,-0.18304443,-0.9873047,2.2548828,-1.5634766,26.965572,30.81261,-42.763657,33.34796,0.9171753,0.2680664,0.56921387,0.8173828,-0.08300781,3.1191406,15.403805,54.722733,-110.68903,34.416332,0.0,0.0,0.0,0.0,0.0,0.0,0.0,73.38382,-109.300095,41.482197,0.0,0.0,0.0,0.0,0.0,0.0,0.0,0.30999064,0.08901271,-0.94678664,-1.3235474,0.038269043,-0.37530518,0.018554688,0.47070312,-0.2421875,22.414385,6.4177675,1.8428391,-19.60142,-1.225647,-0.107299805,-0.051757812,0.50097656,1.7304688,-0.31347656,11.472928,-9.018272,-52.78368,-14.391376,-0.7206421,0.57702637,0.7626343,0.26660156,4.029297,-2.069336,11.192147,-40.874672,-117.24753,-10.444746,0.0,0.0,0.0,0.0,0.0,0.0,0.0,-24.08731,-120.894745,-0.20188999,0.0,0.0,0.0,0.0,0.0,0.0,0.0,-3.717907,44.755894,2.990459,
1.9140624714782464,98,-0.2300415,-1.0925293,0.6357422,0.14648438,-0.71777344,0.08203125,0.0,0.0,0.0,0.0,0.0,0.0,0.0,0.0,0.0,0.0,0.0,-0.3203858,-0.07889381,0.944214,0.85565186,0.5470581,0.16760254,-0.5546875,-0.09375,-0.08203125,41.392685,-6.632979,-1.6333466,19.548157,-0.5621948,0.12225342,-0.67004395,0.059570312,2.305664,-1.6992188,30.35876,30.876158,-42.459335,32.76857,0.0914917,0.3864746,0.7686157,-0.3466797,-3.2792969,0.9824219,15.266588,51.340637,-111.49876,31.558857,0.0,0.0,0.0,0.0,0.0,0.0,0.0,69.81698,-111.03052,39.206867,0.0,0.0,0.0,0.0,0.0,0.0,0.0,0.3203858,0.07889381,-0.944214,-1.3945923,-0.10076904,-0.31225586,-0.026367188,0.25878906,-0.16894531,22.141726,6.632979,1.6333466,-19.548157,-1.402832,-0.34466553,-0.008972168,0.78515625,1.8486328,-0.3330078,13.095828,-9.141947,-52.91619,-14.517045,-0.7319946,0.5482178,0.67926025,0.18359375,4.6660156,-2.4375,9.42181,-43.169617,-116.29448,-11.243322,0.0,0.0,0.0,0.0,0.0,0.0,0.0,-26.85215,-121.183136,-0.76072216,0.0,0.0,0.0,0.0,0.0,0.0,0.0,-3.4493005,44.80306,2.5731215,
1.933593721187208,99,-0.12554932,-0.8605957,0.7053833,0.22070312,-0.6621094,0.26757812,0.0,0.0,0.0,0.0,0.0,0.0,0.0,0.0,0.0,0.0,0.0,-0.3329934,-0.07368042,0.94022727,0.39770508,0.29449463,0.190979,-0.25097656,-0.9394531,0.27929688,40.93074,-6.893995,-1.5254134,19.465618,-2.0,-0.2578125,-0.555542,0.7011719,1.7646484,-0.40625,32.41602,30.219358,-42.809765,32.415527,1.999939,0.26019287,1.2641602,-1.2412109,0.47753906,1.2890625,14.696286,47.453857,-112.6945,30.159193,0.0,0.0,0.0,0.0,0.0,0.0,0.0,65.87976,-112.683685,37.94482,0.0,0.0,0.0,0.0,0.0,0.0,0.0,0.3329934,0.07368042,-0.94022727,-1.477478,-0.18560791,-0.1673584,0.3076172,-0.013671875,-0.19042969,21.732157,6.893995,1.5254134,-19.465618,-1.3113403,-0.31347656,0.27166748,1.2392578,1.9111328,-0.37109375,15.0210085,-8.950321,-53.020454,-14.639394,-0.79956055,0.49108887,0.66522217,-0.296875,5.5273438,-2.9472656,7.4420223,-45.127018,-115.23167,-12.1415615,0.0,0.0,0.0,0.0,0.0,0.0,0.0,-29.571964,-121.60588,-1.3048801,0.0,0.0,0.0,0.0,0.0,0.0,0.0,-3.1897306,44.83118,2.3834887,
1.9531249708961698,100,0.006652832,-0.8811035,0.7435303,0.25878906,-0.7890625,0.28515625,0.0,0.0,0.0,0.0,0.0,0.0,0.0,0.0,0.0,0.0,0.0,-0.34741136,-0.069721244,0.93535405,0.7161865,-0.13616943,-0.005004883,0.65722656,-1.1943359,0.20800781,40.058495,-7.192492,-1.4434459,19.364729,-0.48168945,-0.5880127,-0.54608154,1.7275391,1.9941406,-0.14355469,33.796513,28.97561,-43.498726,32.51181,0.34375,1.0999756,0.86828613,0.8886719,0.71191406,0.5830078,14.707467,43.29031,-113.93114,29.42157,0.0,0.0,0.0,0.0,0.0,0.0,0.0,61.558384,-113.7198,37.566227,0.0,0.0,0.0,0.0,0.0,0.0,0.0,0.34741136,0.069721244,-0.93535405,-1.5751343,0.04638672,0.05279541,0.63964844,-0.36328125,-0.25097656,21.070364,7.192492,1.4434459,-19.364729,-1.3773804,-0.11993408,0.8156128,0.95703125,2.1748047,-0.5449219,17.35598,-8.507566,-53.18307,-15.018855,-0.78582764,0.47198486,0.56555176,-0.703125,6.482422,-3.4580078,7.492136,-47.02781,-114.003815,-13.418003,0.0,0.0,0.0,0.0,0.0,0.0,0.0,-32.695114,-121.95821,-1.9611187,0.0,0.0,0.0,0.0,0.0,0.0,0.0,-2.9559119,44.856617,2.2457187,
1.9726562206051315,101,0.03656006,-0.7437744,0.7314453,-0.21191406,-0.73339844,-0.009765625,0.0,0.0,0.0,0.0,0.0,0.0,0.0,0.0,0.0,0.0,0.0,-0.35688353,-0.056438137,0.9322981,0.986084,-0.15795898,-0.4232788,0.5136719,-1.3818359,-0.08496094,37.946075,-7.388596,-1.1684444,19.301462,-0.9939575,-0.28845215,-0.49328613,0.024414062,1.4316406,-0.5283203,33.957394,26.97483,-44.71313,32.364742,0.7929077,0.08850098,0.77093506,-0.31445312,0.29003906,0.34960938,14.435372,38.427345,-115.714264,28.565035,0.0,0.0,0.0,0.0,0.0,0.0,0.0,56.697002,-115.54608,36.707382,0.0,0.0,0.0,0.0,0.0,0.0,0.0,0.35688353,0.056438137,-0.9322981,-1.4685059,0.13183594,0.4647827,-0.0546875,-1.453125,-0.30371094,19.272366,7.388596,1.1684444,-19.301462,-1.3217163,0.16363525,0.7440796,0.2548828,2.6425781,-0.29785156,21.1212,-7.2845283,-53.772667,-15.403227,-1.008667,0.5488281,0.7416992,-0.9248047,7.736328,-4.0810547,10.04091,-48.661724,-112.7119,-14.512933,0.0,0.0,0.0,0.0,0.0,0.0,0.0,-36.054916,-122.42655,-2.4023228,0.0,0.0,0.0,0.0,0.0,0.0,0.0,-2.6173117,44.88499,1.7152776,
1.9921874703140932,102,0.01361084,-0.5826416,0.69873047,-0.3798828,-0.51660156,-0.30566406,0.0,0.0,0.0,0.0,0.0,0.0,0.0,0.0,0.0,0.0,0.0,-0.3575365,-0.039660014,0.9322373,1.133667,0.29888916,-0.25317383,0.7001953,-1.1279297,-1.0498047,36.349907,-7.402114,-0.8210852,19.300203,-0.98461914,-0.4562378,-0.5897827,0.0048828125,1.3203125,-0.54589844,34.131123,26.057953,-45.252007,31.775288,0.42266846,0.64404297,0.717041,-0.5449219,0.2705078,0.38867188,13.817736,35.480736,-116.52861,27.575516,0.0,0.0,0.0,0.0,0.0,0.0,0.0,53.679317,-116.24296,35.861965,0.0,0.0,0.0,0.0,0.0,0.0,0.0,0.3575365,0.039660014,-0.9322373,-1.2657471,0.15997314,0.41937256,-0.9404297,-2.5986328,-0.3564453,16.367853,7.402114,0.8210852,-19.300203,-1.2781982,-0.07788086,0.44586182,0.1796875,3.1767578,-0.31933594,26.838316,-4.865877,-54.722984,-15.519672,-2.0,0.5861206,1.1183472,-0.8574219,6.875,-3.6767578,14.633059,-49.5328,-111.217606,-15.030962,0.0,0.0,0.0,0.0,0.0,0.0,0.0,-39.146458,-122.45751,-2.1550436,0.0,0.0,0.0,0.0,0.0,0.0,0.0,-2.452668,44.8882,0.9690111,
2.011718720023055,103,-0.08343506,-0.5640869,0.7093506,-0.68066406,-0.24414062,-0.6015625,0.0,0.0,0.0,0.0,0.0,0.0,0.0,0.0,0.0,0.0,0.0,-0.34842604,-0.026287047,0.9357918,1.0129395,0.4720459,-0.17700195,0.9658203,-1.6240234,-1.4873047,34.129395,-7.2134995,-0.54422325,19.37379,-0.8805542,-0.47253418,-0.56469727,0.22167969,0.61328125,-0.07714844,33.16628,25.241816,-46.04321,30.5957,0.60369873,0.3560791,0.7438965,-0.38964844,0.17578125,0.12597656,13.791086,33.512764,-117.43906,26.150593,0.0,0.0,0.0,0.0,0.0,0.0,0.0,51.714024,-117.210075,34.442074,0.0,0.0,0.0,0.0,0.0,0.0,0.0,0.34842604,0.026287047,-0.9357918,-1.1873169,0.20581055,0.0026855469,-0.79003906,-2.6767578,-0.4140625,13.329216,7.2134995,0.54422325,-19.37379,-1.4937744,0.2033081,-0.1350708,0.36816406,3.3310547,-0.24316406,33.50281,-2.0787778,-55.5641,-15.575649,-1.9367676,1.3479004,1.0217896,-1.3564453,4.486328,-3.8144531,18.129566,-50.22221,-109.11919,-15.596585,0.0,0.0,0.0,0.0,0.0,0.0,0.0,-41.609196,-121.3302,-2.3030157,0.0,0.0,0.0,0.0,0.0,0.0,0.0,-2.5475113,44.877094,0.31210673,
2.0312499697320168,104,-0.13354492,-0.7034302,0.6229248,-1.3398438,-0.29492188,-0.859375,0.0,0.0,0.0,0.0,0.0,0.0,0.0,0.0,0.0,0.0,0.0,-0.33929947,-0.019489486,0.93982214,0.8821411,0.5362549,-0.4680786,0.7675781,-2.0253906,-1.0947266,30.23961,-7.0245523,-0.40349278,19.457232,-0.9530029,-0.29693604,-0.58496094,0.5888672,0.84472656,0.021484375,31.082176,23.724777,-47.464233,28.916576,0.5194092,0.52038574,0.74487305,-0.48535156,0.15625,0.14550781,14.357835,30.910238,-118.986725,24.504051,0.0,0.0,0.0,0.0,0.0,0.0,0.0,49.057182,-118.717865,32.91207,0.0,0.0,0.0,0.0,0.0,0.0,0.0,0.33929947,0.019489486,-0.93982214,-1.2151489,0.11151123,-0.41497803,-0.6113281,-3.100586,-0.6074219,10.8756895,7.0245523,0.40349278,-19.457232,-1.6956177,0.07598877,-0.38806152,0.25,2.7949219,0.18066406,40.147133,0.92163706,-56.15615,-15.858366,-0.83813477,1.3269043,0.8543091,-1.4912109,5.006836,-3.3417969,22.287779,-50.378235,-106.70239,-15.876933,0.0,0.0,0.0,0.0,0.0,0.0,0.0,-43.826893,-119.73833,-2.1995707,0.0,0.0,0.0,0.0,0.0,0.0,0.0,-3.307145,44.849766,-0.26389432,
2.0507812194409785,105,-0.14282227,-0.87493896,0.68377686,-1.9042969,-0.328125,-1.1542969,0.0,0.0,0.0,0.0,0.0,0.0,0.0,0.0,0.0,0.0,0.0,-0.3336785,-0.013939654,0.9425194,0.8496704,0.385437,-0.38128662,0.3466797,-1.7021484,-0.4326172,25.335394,-6.9081793,-0.28859404,19.513073,-0.9557495,0.03704834,-0.55737305,0.9189453,0.7236328,0.047851562,28.877604,21.786545,-48.903805,27.314983,0.47174072,0.28771973,0.79071045,-0.33007812,0.13671875,0.125,15.098333,27.85452,-120.51912,22.82396,0.0,0.0,0.0,0.0,0.0,0.0,0.0,46.013565,-120.29686,31.207594,0.0,0.0,0.0,0.0,0.0,0.0,0.0,0.3336785,0.013939654,-0.9425194,-1.3319092,-0.18267822,-0.85650635,-0.26660156,-3.71875,-0.7470703,8.451824,6.9081793,0.28859404,-19.513073,-1.2432251,-0.09680176,-0.7557373,-0.8857422,1.8642578,0.25976562,46.38533,4.676008,-56.580807,-16.359262,-1.6883545,1.1264648,1.9168701,-0.3779297,4.4990234,-2.6533203,25.584631,-48.707016,-104.907524,-15.899899,0.0,0.0,0.0,0.0,0.0,0.0,0.0,-44.017254,-118.42798,-1.9272852,0.0,0.0,0.0,0.0,0.0,0.0,0.0,-4.6985884,44.74007,-1.0017372,
2.07031246914994,106,-0.11730957,-1.0873413,0.89971924,-0.66015625,-0.3935547,-0.9736328,0.0,0.0,0.0,0.0,0.0,0.0,0.0,0.0,0.0,0.0,0.0,-0.32874954,-0.008054659,0.9444533,0.7369385,0.11004639,-0.222229,-0.13183594,-1.9121094,0.03125,20.801533,-6.8061347,-0.16675632,19.553112,-0.91522217,0.15185547,-0.45446777,0.62890625,0.47460938,0.0078125,27.535711,20.098852,-49.960274,26.3661,0.5031128,0.31866455,0.78796387,-0.27734375,0.3095703,0.2939453,16.315552,24.561363,-121.72194,22.351643,0.0,0.0,0.0,0.0,0.0,0.0,0.0,42.694187,-121.44946,30.792034,0.0,0.0,0.0,0.0,0.0,0.0,0.0,0.32874954,0.008054659,-0.9444533,-1.3994141,-0.17681885,-0.8527832,-0.67089844,-3.8320312,-0.50390625,5.9728756,6.8061347,0.16675632,-19.553112,-1.2332764,-0.036865234,-0.8737793,-0.546875,1.6201172,0.39453125,52.76432,8.857676,-56.72755,-16.720596,-1.2344971,-2.0,1.8061523,0.5214844,0.453125,0.08984375,24.506273,-46.278755,-103.041885,-15.759394,0.0,0.0,0.0,0.0,0.0,0.0,0.0,-41.895138,-116.72438,-1.8452702,0.0,0.0,0.0,0.0,0.0,0.0,0.0,-6.272584,44.52719,-1.8036442,
2.089843718858902,107,-0.10498047,-0.80322266,0.4140625,0.2421875,-0.44921875,-0.2890625,0.0,0.0,0.0,0.0,0.0,0.0,0.0,0.0,0.0,0.0,0.0,-0.33554882,0.0052179694,0.9421078,0.79052734,-0.1864624,-0.34088135,-0.078125,-2.0078125,-0.00390625,18.77386,-6.946901,0.10802835,19.50455,-0.9908447,-0.0024414062,-0.38153076,-0.087890625,0.5136719,-0.17675781,26.165243,18.108671,-50.730465,25.60262,0.44036865,0.41448975,0.7698364,-0.123046875,0.328125,0.4033203,17.1341,21.21917,-122.58893,22.001049,0.0,0.0,0.0,0.0,0.0,0.0,0.0,39.282745,-122.24392,30.584484,0.0,0.0,0.0,0.0,0.0,0.0,0.0,0.33554882,-0.0052179694,-0.9421078,-1.3683472,0.16973877,-0.56573486,-1.0058594,-3.5976562,-0.48242188,1.4137468,6.946901,-0.10802835,-19.50455,-1.3699951,-0.13653564,-0.84802246,0.37890625,0.4296875,0.4189453,58.01264,13.14043,-56.699776,-16.569725,-0.37036133,1.3830566,1.6940918,-1.0859375,-1.2314453,1.1152344,24.108772,-42.87498,-101.93498,-15.021538,0.0,0.0,0.0,0.0,0.0,0.0,0.0,-38.371746,-115.41036,-0.9466944,0.0,0.0,0.0,0.0,0.0,0.0,0.0,-5.9898853,44.54027,-2.380098,
2.1093749685678636,108,-0.08679199,-0.79803467,0.4800415,0.203125,-0.4091797,0.1015625,0.0,0.0,0.0,0.0,0.0,0.0,0.0,0.0,0.0,0.0,0.0,-0.3475289,0.0070710853,0.93761,1.008606,-0.30181885,-0.17633057,0.69140625,-1.7636719,-0.265625,16.190529,-7.1949263,0.1463933,19.411434,-0.99523926,-0.122680664,-0.32836914,-0.88183594,0.28808594,-0.3017578,24.307358,15.42534,-51.825672,25.392195,0.4767456,0.4555664,0.7267456,0.109375,0.29003906,0.32617188,17.128326,17.595823,-123.711716,21.761728,0.0,0.0,0.0,0.0,0.0,0.0,0.0,35.575546,-123.327614,30.520683,0.0,0.0,0.0,0.0,0.0,0.0,0.0,0.3475289,-0.0070710853,-0.93761,-1.3354492,0.2052002,-0.38049316,-0.921875,-3.3291016,-0.51660156,2.627784,7.1949263,-0.1463933,-19.411434,-0.96087646,0.17114258,-0.90441895,0.8330078,-1.0908203,0.3486328,61.137554,17.224972,-56.176834,-16.398699,-0.3795166,0.98760986,1.3677368,-0.7324219,-2.3935547,2.1484375,24.495024,-38.186317,-102.136795,-14.453756,0.0,0.0,0.0,0.0,0.0,0.0,0.0,-33.12924,-115.19206,-0.16993904,0.0,0.0,0.0,0.0,0.0,0.0,0.0,-5.88241,44.541462,-2.5162532,
2.1289062182768252,109,-0.14678955,-0.7029419,0.40979004,0.296875,-0.40820312,0.30566406,0.0,0.0,0.0,0.0,0.0,0.0,0.0,0.0,0.0,0.0,0.0,-0.35661715,0.007849801,0.9344007,1.0223999,-0.13800049,-0.012573242,2.046875,-2.1914062,-0.7783203,14.400906,-7.3830805,0.16251521,19.344992,-1.0059204,-0.3112793,-0.30426025,-1.3662109,0.22070312,-0.40429688,22.87129,13.125159,-52.685493,25.347467,0.4989624,0.4928589,0.6895752,0.0107421875,0.3857422,0.47753906,16.568962,14.561217,-124.568665,21.29187,0.0,0.0,0.0,0.0,0.0,0.0,0.0,32.4241,-124.12047,30.283476,0.0,0.0,0.0,0.0,0.0,0.0,0.0,0.35661715,-0.007849801,-0.9344007,-1.2598267,0.21087646,-0.46087646,-0.9941406,-3.1367188,-0.30664062,6.65113,7.3830805,-0.16251521,-19.344992,-0.72180176,0.3567505,-1.0247192,0.64160156,-1.9902344,0.44726562,62.744015,20.87584,-55.454727,-16.09732,-0.38964844,0.73168945,1.1976318,-0.078125,-3.7597656,2.7080078,24.0992,-32.938377,-103.241356,-13.742068,0.0,0.0,0.0,0.0,0.0,0.0,0.0,-26.79403,-115.74085,0.6091099,0.0,0.0,0.0,0.0,0.0,0.0,0.0,-5.517902,44.59924,-2.480599,
2.148437467985787,110,-0.16235352,-0.6682739,0.4251709,0.08886719,-0.38671875,0.38085938,0.0,0.0,0.0,0.0,0.0,0.0,0.0,0.0,0.0,0.0,0.0,-0.36548188,0.006489627,0.9309599,0.8452759,0.2006836,-0.32073975,2.1279297,-2.5146484,-1.1259766,11.619457,-7.566608,0.13435543,19.273754,-0.93341064,-0.4569702,-0.29382324,-1.3271484,0.10644531,-0.19238281,20.56463,10.26198,-53.759228,24.483274,0.4282837,0.5996094,0.66064453,-0.08886719,0.5,0.53515625,16.04353,11.195736,-125.59741,19.608564,0.0,0.0,0.0,0.0,0.0,0.0,0.0,28.914137,-125.049904,28.866728,0.0,0.0,0.0,0.0,0.0,0.0,0.0,0.36548188,-0.006489627,-0.9309599,-1.0942383,0.26593018,-0.5269165,-1.1503906,-3.2324219,-0.15722656,10.460252,7.566608,-0.13435543,-19.273754,-0.5443115,0.31976318,-1.0220947,-0.13574219,-2.7832031,0.6220703,63.483734,24.489166,-54.43541,-15.454582,-0.619812,0.7883301,0.89068604,-0.09667969,-5.328125,2.8291016,22.435692,-26.904552,-104.79607,-12.442124,0.0,0.0,0.0,0.0,0.0,0.0,0.0,-19.298344,-116.618706,1.7830362,0.0,0.0,0.0,0.0,0.0,0.0,0.0,-5.3662157,44.620358,-2.4177454,
