TOTAL_TIME,0m8s,,,,,,,,,,,,,,,,,,,,,,,,,,,,,,,,,,,,,,,,,,,,,,,,,,,,,,,,,,,,,,,,,,,,,,,,,,,,,,,,,,,,,,,,,,,,,,,,,,,,,,,,,,,,,,,,,,,,,,,,
TOTAL_FRAMES,357,,,,,,,,,,,,,,,,,,,,,,,,,,,,,,,,,,,,,,,,,,,,,,,,,,,,,,,,,,,,,,,,,,,,,,,,,,,,,,,,,,,,,,,,,,,,,,,,,,,,,,,,,,,,,,,,,,,,,,,,
SELECTED_FRAMES,357,,,,,,,,,,,,,,,,,,,,,,,,,,,,,,,,,,,,,,,,,,,,,,,,,,,,,,,,,,,,,,,,,,,,,,,,,,,,,,,,,,,,,,,,,,,,,,,,,,,,,,,,,,,,,,,,,,,,,,,,
NO_OF_JOINTS,12,,,,,,,,,,,,,,,,,,,,,,,,,,,,,,,,,,,,,,,,,,,,,,,,,,,,,,,,,,,,,,,,,,,,,,,,,,,,,,,,,,,,,,,,,,,,,,,,,,,,,,,,,,,,,,,,,,,,,,,,
FREQUENCY,42.666668,,,,,,,,,,,,,,,,,,,,,,,,,,,,,,,,,,,,,,,,,,,,,,,,,,,,,,,,,,,,,,,,,,,,,,,,,,,,,,,,,,,,,,,,,,,,,,,,,,,,,,,,,,,,,,,,,,,,,,,,
DESCRIPTION,Capture 5,,,,,,,,,,,,,,,,,,,,,,,,,,,,,,,,,,,,,,,,,,,,,,,,,,,,,,,,,,,,,,,,,,,,,,,,,,,,,,,,,,,,,,,,,,,,,,,,,,,,,,,,,,,,,,,,,,,,,,,,
TIME_STAMP,Jul-09,2010,,,,,,,,,,,,,,,,,,,,,,,,,,,,,,,,,,,,,,,,,,,,,,,,,,,,,,,,,,,,,,,,,,,,,,,,,,,,,,,,,,,,,,,,,,,,,,,,,,,,,,,,,,,,,,,,,,,,,,,
Time,Frame,Pelvis_accelX_Pelvis,Pelvis_accelY_Pelvis,Pelvis_accelZ_Pelvis,Pelvis_gyroX_Pelvis,Pelvis_gyroY_Pelvis,Pelvis_gyroZ_Pelvis,Pelvis_Joint angle_Pelvis,Pelvis_Relative pos X_Pelvis,Pelvis_Relative pos Y_Pelvis,Pelvis_Relative pos Z_Pelvis,RightPelvis_accelX_RightPelvis,RightPelvis_accelY_RightPelvis,RightPelvis_accelZ_RightPelvis,RightPelvis_gyroX_RightPelvis,RightPelvis_gyroY_RightPelvis,RightPelvis_gyroZ_RightPelvis,RightPelvis_Joint angle_RightPelvis,RightPelvis_Relative pos X_RightPelvis,RightPelvis_Relative pos Y_RightPelvis,RightPelvis_Relative pos Z_RightPelvis,RightUpLeg_accelX_RightUpLeg,RightUpLeg_accelY_RightUpLeg,RightUpLeg_accelZ_RightUpLeg,RightUpLeg_gyroX_RightUpLeg,RightUpLeg_gyroY_RightUpLeg,RightUpLeg_gyroZ_RightUpLeg,RightUpLeg_Joint angle_RightUpLeg,RightUpLeg_Relative pos X_RightUpLeg,RightUpLeg_Relative pos Y_RightUpLeg,RightUpLeg_Relative pos Z_RightUpLeg,RightLeg_accelX_RightLeg,RightLeg_accelY_RightLeg,RightLeg_accelZ_RightLeg,RightLeg_gyroX_RightLeg,RightLeg_gyroY_RightLeg,RightLeg_gyroZ_RightLeg,RightLeg_Joint angle_RightLeg,RightLeg_Relative pos X_RightLeg,RightLeg_Relative pos Y_RightLeg,RightLeg_Relative pos Z_RightLeg,RightFoot_accelX_RightFoot,RightFoot_accelY_RightFoot,RightFoot_accelZ_RightFoot,RightFoot_gyroX_RightFoot,RightFoot_gyroY_RightFoot,RightFoot_gyroZ_RightFoot,RightFoot_Joint angle_RightFoot,RightFoot_Relative pos X_RightFoot,RightFoot_Relative pos Y_RightFoot,RightFoot_Relative pos Z_RightFoot,RightFootEnd_accelX_RightFootEnd,RightFootEnd_accelY_RightFootEnd,RightFootEnd_accelZ_RightFootEnd,RightFootEnd_gyroX_RightFootEnd,RightFootEnd_gyroY_RightFootEnd,RightFootEnd_gyroZ_RightFootEnd,RightFootEnd_Joint angle_RightFootEnd,RightFootEnd_Relative pos X_RightFootEnd,RightFootEnd_Relative pos Y_RightFootEnd,RightFootEnd_Relative pos Z_RightFootEnd,LeftPelvis_accelX_LeftPelvis,LeftPelvis_accelY_LeftPelvis,LeftPelvis_accelZ_LeftPelvis,LeftPelvis_gyroX_LeftPelvis,LeftPelvis_gyroY_LeftPelvis,LeftPelvis_gyroZ_LeftPelvis,LeftPelvis_Joint angle_LeftPelvis,LeftPelvis_Relative pos X_LeftPelvis,LeftPelvis_Relative pos Y_LeftPelvis,LeftPelvis_Relative pos Z_LeftPelvis,LeftUpLeg_accelX_LeftUpLeg,LeftUpLeg_accelY_LeftUpLeg,LeftUpLeg_accelZ_LeftUpLeg,LeftUpLeg_gyroX_LeftUpLeg,LeftUpLeg_gyroY_LeftUpLeg,LeftUpLeg_gyroZ_LeftUpLeg,LeftUpLeg_Joint angle_LeftUpLeg,LeftUpLeg_Relative pos X_LeftUpLeg,LeftUpLeg_Relative pos Y_LeftUpLeg,LeftUpLeg_Relative pos Z_LeftUpLeg,LeftLeg_accelX_LeftLeg,LeftLeg_accelY_LeftLeg,LeftLeg_accelZ_LeftLeg,LeftLeg_gyroX_LeftLeg,LeftLeg_gyroY_LeftLeg,LeftLeg_gyroZ_LeftLeg,LeftLeg_Joint angle_LeftLeg,LeftLeg_Relative pos X_LeftLeg,LeftLeg_Relative pos Y_LeftLeg,LeftLeg_Relative pos Z_LeftLeg,LeftFoot_accelX_LeftFoot,LeftFoot_accelY_LeftFoot,LeftFoot_accelZ_LeftFoot,LeftFoot_gyroX_LeftFoot,LeftFoot_gyroY_LeftFoot,LeftFoot_gyroZ_LeftFoot,LeftFoot_Joint angle_LeftFoot,LeftFoot_Relative pos X_LeftFoot,LeftFoot_Relative pos Y_LeftFoot,LeftFoot_Relative pos Z_LeftFoot,LeftFootEnd_accelX_LeftFootEnd,LeftFootEnd_accelY_LeftFootEnd,LeftFootEnd_accelZ_LeftFootEnd,LeftFootEnd_gyroX_LeftFootEnd,LeftFootEnd_gyroY_LeftFootEnd,LeftFootEnd_gyroZ_LeftFootEnd,LeftFootEnd_Joint angle_LeftFootEnd,LeftFootEnd_Relative pos X_LeftFootEnd,LeftFootEnd_Relative pos Y_LeftFootEnd,LeftFootEnd_Relative pos Z_LeftFootEnd,Spine_accelX_Spine,Spine_accelY_Spine,Spine_accelZ_Spine,Spine_gyroX_Spine,Spine_gyroY_Spine,Spine_gyroZ_Spine,Spine_Joint angle_Spine,Spine_Relative pos X_Spine,Spine_Relative pos Y_Spine,Spine_Relative pos Z_Spine
0,0,0,0,0,0,0,0,0,0,0,0,0,0,0,0,0,0,0,0,0,0,0,0,0,0,0,0,NaN,0,0,0,0,0,0,0,0,0,NaN,0,0,0,0,0,0,0,0,0,NaN,0,0,0,0,0,0,0,0,0,0,0,0,0,0,0,0,0,0,0,0,0,0,0,0,0,0,0,0,0,NaN,0,0,0,0,0,0,0,0,0,NaN,0,0,0,0,0,0,0,0,0,NaN,0,0,0,0,0,0,0,0,0,0,0,0,0,0,0,0,0,0,0,0,0,0,0
0.023437499,1,0,0,0,0,0,0,0,0,0,0,0,0,0,0,0,0,0,0,0,0,0,0,0,0,0,0,NaN,0,0,0,0,0,0,0,0,0,NaN,0,0,0,0,0,0,0,0,0,NaN,0,0,0,0,0,0,0,0,0,0,0,0,0,0,0,0,0,0,0,0,0,0,0,0,0,0,0,0,0,NaN,0,0,0,0,0,0,0,0,0,NaN,0,0,0,0,0,0,0,0,0,NaN,0,0,0,0,0,0,0,0,0,0,0,0,0,0,0,0,0,0,0,0,0,0,0
0.046874999,2,0,0,0,0,0,0,0,0,0,0,0,0,0,0,0,0,0,0,0,0,0,0,0,0,0,0,NaN,0,0,0,0,0,0,0,0,0,NaN,0,0,0,0,0,0,0,0,0,NaN,0,0,0,0,0,0,0,0,0,0,0,0,0,0,0,0,0,0,0,0,0,0,0,0,0,0,0,0,0,NaN,0,0,0,0,0,0,0,0,0,NaN,0,0,0,0,0,0,0,0,0,NaN,0,0,0,0,0,0,0,0,0,0,0,0,0,0,0,0,0,0,0,0,0,0,0
0.070312498,3,0.033325195,-0.9074707,0.5415039,-0.7597656,0.7792969,0.34375,0,0,0,0,0,0,0,0,0,0,0,0.031223267,-0.007113613,-0.99973583,-0.9536133,-0.046813965,-0.02960205,-0.24414062,0.037109375,-0.009765625,2.626145,0.6464176,-0.14727387,-20.697632,-0.94696045,-0.07531738,-0.11859131,0.030273438,-0.080078125,0.00390625,6.383374,-0.21380037,-57.11826,-18.964993,-0.32928467,-0.5076904,0.8098755,-0.05078125,0.5029297,0.92871094,17.695309,5.0635867,-128.71579,-13.287338,0,0,0,0,0,0,0,-14.90435,-128.57495,-14.428969,0,0,0,0,0,0,0,-0.031223267,0.007113613,0.99973583,0,0,0,0,0,0,NaN,-0.6464176,0.14727387,20.697632,-0.9667969,-0.144104,-0.078430176,-0.014648438,-0.013671875,-9.77E-04,NaN,-0.6464176,0.14727387,20.697632,-0.18475342,0.5231323,0.8274536,0,0.022460938,-0.02734375,4.681739,0.089200735,-71.839386,22.410387,0,0,0,0,0,0,0,-19.900707,-72.20226,22.894981,0,0,0,0,0,0,0,2.4088655,44.946014,-0.24458057
0.093749997,4,5.49E-04,-0.86291504,0.53674316,-0.57128906,0.546875,0.30371094,0,0,0,0,0,0,0,0,0,0,0,0.02441889,-0.026889091,-0.99955904,-1.0136108,-0.12854004,-0.078125,-0.111328125,-0.002929688,0.008789063,2.8538249,0.5055466,-0.5566876,-20.693972,-1.0437012,0.012329102,-0.115600586,0.010742188,-0.0625,0.002929688,6.0871468,-0.21880662,-57.528618,-18.918503,-0.33813477,-0.5452881,0.8008423,-0.05078125,0.3125,0.4921875,16.537125,4.881991,-129.14407,-13.336552,0,0,0,0,0,0,0,-15.07259,-129.31648,-14.671394,0,0,0,0,0,0,0,-0.02441889,0.026889091,0.99955904,-0.97332764,0.028381348,-0.19348145,0.052734375,-0.0078125,0.06640625,5.414428,-0.5055466,0.5566876,20.693972,-0.9862671,-0.16821289,-0.070617676,0.0234375,-0.012695313,-0.020507812,3.7912173,-0.20000666,-56.210922,25.903217,-0.17877197,0.5152588,0.8244629,0,0.041992188,-0.02734375,4.65299,0.5534224,-128.20613,27.644215,0,0,0,0,0,0,0,-19.437342,-128.56316,28.121044,0,0,0,0,0,0,0,2.7969184,44.908398,-1.139751
0.117187497,5,0.043823242,-0.8436279,0.50598145,-0.09863281,0.21777344,0.18554688,0,0,0,0,0,0,0,0,0,0,0,0.021764666,-0.037023947,-0.99930286,-0.9834595,-0.064453125,-0.049316406,0.002929688,-0.002929688,-0.064453125,3.121987,0.45059672,-0.7665105,-20.688667,-0.96569824,7.93E-04,-0.095825195,-0.125,-0.06640625,9.77E-04,5.71028,-0.16347113,-57.73645,-18.83348,-0.35858154,-0.54119873,0.8066406,-0.111328125,-0.010742188,-0.002929688,15.888686,4.6991587,-129.38632,-13.477603,0,0,0,0,0,0,0,-15.251281,-129.66281,-14.869097,0,0,0,0,0,0,0,-0.021764666,0.037023947,0.99930286,-0.96209717,0.11682129,-0.1918335,0.09082031,-0.026367188,0.046875,5.0445747,-0.45059672,0.7665105,20.688667,-0.98095703,-0.13415527,-0.08325195,0.099609375,-0.03125,-9.77E-04,3.640563,-0.16469589,-56.008602,25.74351,-0.17572021,0.519104,0.82647705,0.07714844,0.022460938,-0.009765625,4.599981,0.60473776,-127.99959,27.50606,0,0,0,0,0,0,0,-19.386263,-128.34755,27.974394,0,0,0,0,0,0,0,2.93148,44.886093,-1.5991724
0.140624996,6,0.03540039,-0.8914795,0.5316162,0.051757812,-0.052734375,0.03515625,0,0,0,0,0,0,0,0,0,0,0,0.0247311,-0.036987748,-0.9992359,-0.99664307,-0.04748535,0.00769043,0.004882813,0.053710938,-0.046875,2.9670231,0.512011,-0.7657611,-20.68728,-0.9925537,0.029846191,-0.0871582,-0.06640625,-0.1015625,0.021484375,5.403052,-0.096322656,-57.73595,-18.769323,-0.36883545,-0.5401001,0.80859375,-0.055664062,-0.049804688,-0.021484375,15.409974,4.45822,-129.4176,-13.578115,0,0,0,0,0,0,0,-15.490356,-129.687,-14.991916,0,0,0,0,0,0,0,-0.0247311,0.036987748,0.9992359,-0.9777832,0.1416626,-0.18640137,-0.022460938,-0.043945312,0.010742188,4.678181,-0.512011,0.7657611,20.68728,-1.000061,-0.08355713,-0.0647583,0.061523438,-0.06933594,-0.020507812,3.413231,-0.30058008,-56.03568,25.433659,-0.18774414,0.52301025,0.84124756,0.07910156,-0.015625,-0.009765625,4.3998394,0.38251752,-128.02942,27.11565,0,0,0,0,0,0,0,-19.60703,-128.34076,27.59993,0,0,0,0,0,0,0,2.8079045,44.89427,-1.5923121
0.164062495,7,0.014831543,-0.8665161,0.55029297,-0.004882813,-0.08984375,-0.020507812,0,0,0,0,0,0,0,0,0,0,0,0.028774261,-0.034043737,-0.99923843,-1.0169067,-0.051818848,0.002868652,0.0390625,-0.080078125,-0.008789063,2.8460631,0.59571743,-0.7048109,-20.687336,-1.0037842,-0.018127441,-0.07354736,-0.0078125,-0.06347656,0.022460938,5.211016,-0.06733817,-57.67085,-18.710402,-0.37506104,-0.54693604,0.805603,-0.07519531,-0.06933594,-0.002929688,14.899073,4.23675,-129.38039,-13.636843,0,0,0,0,0,0,0,-15.710932,-129.64223,-15.069576,0,0,0,0,0,0,0,-0.028774261,0.034043737,0.99923843,-0.98254395,0.16040039,-0.17132568,-0.13574219,-0.04296875,-0.026367188,4.433189,-0.59571743,0.7048109,20.687336,-0.9949951,-0.08654785,-0.05883789,-0.10839844,-0.109375,-0.020507812,3.164897,-0.50083065,-56.128525,25.09275,-0.18249512,0.57037354,0.79522705,0.037109375,0.061523438,-0.02734375,4.1681905,-0.029372215,-128.12408,26.657322,0,0,0,0,0,0,0,-20.019936,-128.4032,27.159225,0,0,0,0,0,0,0,2.7550678,44.90263,-1.4504827
0.187499994,8,0.035949707,-0.8577881,0.5338745,-0.04296875,-0.12890625,-0.038085938,0,0,0,0,0,0,0,0,0,0,0,0.03237003,-0.031723585,-0.9992329,-0.9769287,-0.096191406,-0.011535645,0.1328125,-0.13867188,0.010742188,2.7857938,0.6701607,-0.65677655,-20.68722,-0.994751,-0.018188477,-0.068481445,0.030273438,-0.043945312,0.022460938,5.064808,-0.07449776,-57.615765,-18.474945,-0.37017822,-0.5549927,0.8085327,-0.0546875,-0.030273438,-0.021484375,14.490491,4.0618,-129.33524,-13.472873,0,0,0,0,0,0,0,-15.884882,-129.59097,-14.940474,0,0,0,0,0,0,0,-0.03237003,0.031723585,0.9992329,-0.96698,0.12158203,-0.15319824,-0.2109375,-0.115234375,-0.044921875,4.0718875,-0.6701607,0.65677655,20.68722,-0.98205566,-0.1217041,-0.05126953,-0.10839844,-0.07128906,-0.020507812,2.9997003,-0.89122885,-56.199074,24.804926,-0.16564941,0.53289795,0.80981445,0.038085938,0.041992188,-0.008789063,4.0791435,-0.6155832,-128.19958,26.315042,0,0,0,0,0,0,0,-20.607384,-128.47081,26.826675,0,0,0,0,0,0,0,2.73658,44.908546,-1.3371025
0.210937494,9,0.028747559,-0.8584595,0.52612305,-0.04296875,-0.051757812,-0.01953125,0,0,0,0,0,0,0,0,0,0,0,0.03516671,-0.030751696,-0.999161,-0.99401855,-0.056030273,-0.012329102,0.13574219,-0.04296875,-0.008789063,2.8711944,0.72805977,-0.63665545,-20.68573,-1.0076904,0.00402832,-0.057678223,0.010742188,-0.043945312,0.022460938,4.865545,-0.044390976,-57.590256,-18.354532,-0.2919922,-0.54486084,0.7960205,-0.016601562,0.006835938,0.016601562,14.0974245,3.8648822,-129.33023,-13.422123,0,0,0,0,0,0,0,-16.079742,-129.57819,-14.894027,0,0,0,0,0,0,0,-0.03516671,0.030751696,0.999161,-0.9838867,0.057861328,-0.14263916,-0.15429688,-0.09765625,-0.0078125,3.9190161,-0.72805977,0.63665545,20.68573,-0.99542236,-0.13922119,-0.026428223,-0.013671875,-0.051757812,-0.020507812,2.97618,-1.1879289,-56.224537,24.702202,-0.15753174,0.54345703,0.8147583,0,0.022460938,-0.008789063,3.9000325,-1.028213,-128.2248,26.20924,0,0,0,0,0,0,0,-21.021683,-128.48099,26.73848,0,0,0,0,0,0,0,2.7945294,44.906185,-1.2837441
0.234374993,10,0.014953613,-0.91485596,0.53790283,0.08984375,-0.052734375,-0.001953125,0,0,0,0,0,0,0,0,0,0,0,0.036443263,-0.029946119,-0.9991196,-1.0266724,-0.003112793,0.010986328,0.01953125,-0.080078125,-0.026367188,2.7657661,0.75448847,-0.6199775,-20.684872,-0.9986572,0.010986328,-0.08630371,-0.0078125,-0.06347656,0.041015625,4.780081,-0.10531074,-57.57284,-18.374163,-0.35369873,-0.5204468,0.7684326,-0.018554688,-0.06933594,-0.022460938,13.74317,3.611401,-129.33105,-13.559362,0,0,0,0,0,0,0,-16.332142,-129.5771,-15.047178,0,0,0,0,0,0,0,-0.036443263,0.029946119,0.9991196,-0.97094727,0.05090332,-0.18041992,0.014648438,-0.0625,0.046875,3.8319564,-0.75448847,0.6199775,20.684872,-0.9831543,-0.13537598,-0.04638672,0.04296875,-0.05078125,-9.77E-04,2.9472961,-1.3068843,-56.24076,24.665401,-0.1687622,0.5153198,0.8096924,0,0.041992188,-0.008789063,3.6743438,-1.2425271,-128.24289,26.183681,0,0,0,0,0,0,0,-21.23747,-128.49326,26.714375,0,0,0,0,0,0,0,2.7718213,44.907776,-1.2448955
0.257812492,11,-0.022277832,-0.90802,0.5369873,0.10839844,-0.033203125,0.052734375,0,0,0,0,0,0,0,0,0,0,0,0.03862807,-0.029563006,-0.99906415,-0.97802734,-0.02911377,0.007568359,-0.11328125,-0.059570312,-0.045898438,2.5201814,0.7997203,-0.6120459,-20.683725,-0.9664917,0.039611816,-0.073913574,-0.046875,-0.064453125,0.021484375,4.619782,-0.20359826,-57.560513,-18.346764,-0.34014893,-0.5423584,0.8027954,-0.037109375,-0.049804688,-0.021484375,13.165896,3.1851184,-129.34361,-13.71607,0,0,0,0,0,0,0,-16.757729,-129.58191,-15.219296,0,0,0,0,0,0,0,-0.03862807,0.029563006,0.99906415,-0.9453125,0.091674805,-0.16174316,0.109375,-0.099609375,0.06542969,3.6367424,-0.7997203,0.6120459,20.683725,-0.9658203,-0.13256836,-0.058410645,0.04296875,-0.05078125,-9.77E-04,2.9745352,-1.4893312,-56.251854,24.65046,-0.19586182,0.52941895,0.79992676,9.77E-04,0.022460938,0.009765625,3.5521464,-1.4787121,-128.25441,26.182447,0,0,0,0,0,0,0,-21.473774,-128.51328,26.687672,0,0,0,0,0,0,0,2.671784,44.91505,-1.2257652
0.281249992,12,0.03479004,-0.8905029,0.47998047,0.013671875,-0.051757812,-0.001953125,0,0,0,0,0,0,0,0,0,0,0,0.03909415,-0.029416211,-0.9990527,-1.008728,-0.050354004,0.01776123,-0.1328125,-0.07910156,-0.008789063,2.4336522,0.8093702,-0.60900676,-20.683489,-1.0006104,0.024108887,-0.064453125,-0.06640625,-0.045898438,0.001953125,4.4646235,-0.27361995,-57.55266,-18.29401,-0.29693604,-0.5310669,0.80792236,-0.056640625,-0.06933594,-0.002929688,12.625685,2.8754568,-129.35783,-13.854441,0,0,0,0,0,0,0,-17.067928,-129.58177,-15.344243,0,0,0,0,0,0,0,-0.03909415,0.029416211,0.9990527,-0.967041,0.11663818,-0.15222168,0.09082031,-0.044921875,0.046875,3.515022,-0.8093702,0.60900676,20.683489,-0.99017334,-0.12646484,-0.052246094,0.04296875,-0.12695312,-0.01953125,2.8497062,-1.5279192,-56.25722,24.528728,-0.17572021,0.52093506,0.83825684,0.078125,0.00390625,0.008789063,3.4230826,-1.5824149,-128.25977,26.079966,0,0,0,0,0,0,0,-21.57271,-128.50366,26.549952,0,0,0,0,0,0,0,2.645797,44.91688,-1.219004
0.304687491,13,0.049865723,-0.85583496,0.51464844,-0.099609375,-0.08984375,-9.77E-04,0,0,0,0,0,0,0,0,0,0,0,0.03849688,-0.028679172,-0.9991061,-0.99609375,-0.09661865,-0.016357422,9.77E-04,-0.060546875,-0.02734375,2.5595615,0.79700553,-0.59374774,-20.684593,-0.9836426,-0.003173828,-0.03857422,-0.02734375,-0.044921875,0.001953125,4.3122973,-0.29723632,-57.53464,-18.178692,-0.331604,-0.5340576,0.7832031,-0.0546875,-0.030273438,-0.021484375,12.311788,2.68753,-129.35683,-13.821275,0,0,0,0,0,0,0,-17.256405,-129.56842,-15.3254595,0,0,0,0,0,0,0,-0.03849688,0.028679172,0.9991061,-0.9499512,0.12133789,-0.1663208,-0.022460938,-0.043945312,0.047851562,3.4040983,-0.79700553,0.59374774,20.684593,-0.98101807,-0.122680664,-0.056274414,-0.014648438,-0.051757812,0.018554688,2.70776,-1.6007878,-56.28952,24.319288,-0.18151855,0.5662842,0.80999756,0.09765625,0.00390625,-0.028320312,3.4166133,-1.7157805,-128.29102,25.8499,0,0,0,0,0,0,0,-21.706236,-128.49368,26.333359,0,0,0,0,0,0,0,2.7106872,44.91432,-1.1848115
0.32812499,14,0.05218506,-0.89837646,0.5072632,-0.061523438,-0.07128906,0.017578125,0,0,0,0,0,0,0,0,0,0,0,0.03973034,-0.02754601,-0.9990535,-0.9891968,-0.10809326,0.001525879,0.095703125,-0.099609375,0.010742188,2.73187,0.82253957,-0.57028776,-20.683504,-0.9567261,-0.020751953,-0.0670166,0.049804688,-0.04296875,0.022460938,4.2142167,-0.3258469,-57.500217,-17.979115,-0.32183838,-0.55145264,0.796875,-0.0546875,-0.01171875,-0.002929688,11.910852,2.5059626,-129.32721,-13.635652,0,0,0,0,0,0,0,-17.435106,-129.5339,-15.163048,0,0,0,0,0,0,0,-0.03973034,0.02754601,0.9990535,-0.97717285,0.107910156,-0.14227295,-0.09765625,0.01171875,0.010742188,3.3416402,-0.82253957,0.57028776,20.683504,-0.97180176,-0.10723877,-0.053222656,-0.051757812,-0.07128906,-9.77E-04,2.6588113,-1.7351251,-56.31951,24.138157,-0.17175293,0.5203247,0.7998657,0.076171875,0.061523438,-0.009765625,3.3265488,-1.9118409,-128.31906,25.573324,0,0,0,0,0,0,0,-21.904589,-128.48706,26.069466,0,0,0,0,0,0,0,2.8004303,44.908672,-1.1268597
0.35156249,15,0.044128418,-0.8982544,0.5124512,-0.080078125,-0.012695313,0.036132812,0,0,0,0,0,0,0,0,0,0,0,0.04180354,-0.026657347,-0.99902296,-0.973999,-0.057250977,-0.026428223,0.09667969,-0.08105469,0.028320312,2.8284702,0.8654625,-0.5518898,-20.682873,-1.0056763,0.005981445,-0.056640625,0.010742188,-0.026367188,0.059570312,4.170351,-0.38965493,-57.471344,-17.820099,-0.3013916,-0.6102295,0.77996826,0.021484375,-0.01171875,-0.021484375,11.582979,2.283036,-129.31567,-13.562056,0,0,0,0,0,0,0,-17.658262,-129.51659,-15.0956335,0,0,0,0,0,0,0,-0.04180354,0.026657347,0.99902296,-0.9699707,0.12567139,-0.16595459,-0.2109375,-0.060546875,-0.026367188,3.2075384,-0.8654625,0.5518898,20.682873,-0.9951782,-0.10992432,-0.048095703,-0.051757812,-0.07128906,-9.77E-04,2.5817192,-1.9170167,-56.354378,23.918331,-0.2008667,0.5315552,0.79107666,0.057617188,0.041992188,0.008789063,3.1450405,-2.1825993,-128.3558,25.264772,0,0,0,0,0,0,0,-22.175615,-128.521,25.750443,0,0,0,0,0,0,0,2.871667,44.906723,-1.0781016
0.374999989,16,0.03253174,-0.8977051,0.5505371,-0.061523438,-0.013671875,0.036132812,0,0,0,0,0,0,0,0,0,0,0,0.04193321,-0.02600243,-0.9989895,-0.98968506,-0.050476074,6.10E-04,9.77E-04,-0.099609375,0.010742188,2.8101401,0.86814797,-0.5383309,-20.682178,-1.0045166,0.03857422,-0.05456543,0.010742188,-0.006835938,0.021484375,4.1630187,-0.5103811,-57.448875,-17.75302,-0.31524658,-0.5305786,0.79803467,0.002929688,0.006835938,-0.021484375,11.291351,2.0083113,-129.29956,-13.585244,0,0,0,0,0,0,0,-17.934544,-129.47842,-15.106891,0,0,0,0,0,0,0,-0.04193321,0.02600243,0.9989895,-0.98828125,0.10430908,-0.1539917,-0.15429688,-0.025390625,-0.026367188,3.0768259,-0.86814797,0.5383309,20.682178,-0.97094727,-0.14318848,-0.055541992,-0.033203125,-0.032226562,-0.020507812,2.5198708,-2.03142,-56.370564,23.766586,-0.1807251,0.532959,0.8167114,0.036132812,0.119140625,-0.02734375,3.1442933,-2.3428695,-128.37227,25.104393,0,0,0,0,0,0,0,-22.33633,-128.52531,25.61288,0,0,0,0,0,0,0,2.8965793,44.903816,-1.0472038
0.398437488,17,0.04510498,-0.91137695,0.5232544,0.013671875,-0.051757812,0.016601562,0,0,0,0,0,0,0,0,0,0,0,0.043605268,-0.025835095,-0.99893343,-0.9805908,-0.040283203,-0.024353027,-0.052734375,0.015625,0.008789063,2.7524993,0.9027638,-0.5348665,-20.681017,-0.97058105,0.02746582,-0.06707764,-0.008789063,-0.0078125,0.021484375,4.1211753,-0.5657137,-57.442463,-17.745655,-0.3383789,-0.5477905,0.82244873,0.001953125,-0.01171875,-0.021484375,10.921334,1.791502,-129.31076,-13.775679,0,0,0,0,0,0,0,-18.149645,-129.4792,-15.313295,0,0,0,0,0,0,0,-0.043605268,0.025835095,0.99893343,-0.95770264,0.066223145,-0.14990234,-0.060546875,-0.006835938,0.010742188,2.9935596,-0.9027638,0.5348665,20.681017,-0.98321533,-0.14123535,-0.038513184,-0.014648438,-0.032226562,-9.77E-04,2.4919076,-2.1549282,-56.374653,23.726645,-0.18060303,0.553772,0.79418945,0.060546875,-0.053710938,0.0078125,3.0935774,-2.5508304,-128.37883,25.091253,0,0,0,0,0,0,0,-22.543488,-128.53148,25.609581,0,0,0,0,0,0,0,2.899466,44.904415,-1.0347815
0.421874987,18,0.025512695,-0.85705566,0.5083008,0.013671875,-0.032226562,-0.001953125,0,0,0,0,0,0,0,0,0,0,0,0.045081764,-0.025438298,-0.9988912,-0.99609375,-0.027648926,0.008728027,-0.0546875,-0.041015625,0.009765625,2.7168534,0.9333321,-0.5266517,-20.680145,-0.9837036,-0.013854981,-0.07623291,-0.008789063,0.010742188,0.021484375,4.070974,-0.5774586,-57.439518,-17.739372,-0.32592773,-0.559021,0.7821045,0.002929688,0.026367188,-0.020507812,10.674,1.6625216,-129.31873,-13.88439,0,0,0,0,0,0,0,-18.278452,-129.47867,-15.434251,0,0,0,0,0,0,0,-0.045081764,0.025438298,0.9988912,-0.96673584,0.06237793,-0.1329956,0.09082031,0.009765625,0.06542969,2.931379,-0.9333321,0.5266517,20.680145,-0.986145,-0.120788574,-0.041259766,0.0234375,-0.032226562,-9.77E-04,2.5033493,-2.2588549,-56.38026,23.72996,-0.18981934,0.5283203,0.8078003,0.040039062,0.00390625,0.008789063,2.9021173,-2.731947,-128.38336,25.100683,0,0,0,0,0,0,0,-22.724783,-128.53854,25.593533,0,0,0,0,0,0,0,2.8787298,44.906826,-1.0136993
0.445312487,19,0.0335083,-0.88952637,0.5366821,-0.04296875,-0.012695313,0.017578125,0,0,0,0,0,0,0,0,0,0,0,0.045284867,-0.024883792,-0.9989306,-0.9697876,-0.10406494,0.02130127,0.0234375,0.034179688,0.008789063,2.8127859,0.93753684,-0.51517165,-20.68096,-0.9837036,-4.27E-04,-0.09503174,-0.008789063,0.01171875,0.001953125,3.9948828,-0.54611397,-57.42095,-17.668211,-0.3378296,-0.53704834,0.78808594,-0.016601562,0.0078125,-0.021484375,10.499156,1.6232686,-129.30815,-13.922991,0,0,0,0,0,0,0,-18.316103,-129.46272,-15.486081,0,0,0,0,0,0,0,-0.045284867,0.024883792,0.9989306,-0.9733887,0.09210205,-0.13653564,0.09082031,-0.026367188,0.046875,2.8782084,-0.93753684,0.51517165,20.68096,-0.986145,-0.120788574,-0.041259766,0.0234375,-0.032226562,-9.77E-04,2.5303354,-2.3362904,-56.39182,23.691399,-0.18450928,0.5554199,0.8276367,0.05859375,0.00390625,-0.009765625,2.9185965,-2.8093824,-128.39491,25.062122,0,0,0,0,0,0,0,-22.802628,-128.53291,25.560581,0,0,0,0,0,0,0,2.8879285,44.90837,-0.98776734
0.468749986,20,0.04486084,-0.8968506,0.48858643,-0.0234375,-0.051757812,-9.77E-04,0,0,0,0,0,0,0,0,0,0,0,0.04532525,-0.02463241,-0.9988554,-1.039917,-0.017700195,-0.07867432,0.076171875,-0.119140625,0.010742188,2.8845265,0.93837357,-0.5099672,-20.679403,-0.99768066,0.002624512,-0.07244873,0.049804688,0.012695313,0.022460938,3.9456582,-0.53794837,-57.412746,-17.624714,-0.32983398,-0.5432129,0.7919922,0.001953125,-0.03125,-0.021484375,10.366519,1.5682156,-129.3014,-13.956735,0,0,0,0,0,0,0,-18.371044,-129.44612,-15.532858,0,0,0,0,0,0,0,-0.04532525,0.02463241,0.9988554,-0.9729614,0.12359619,-0.14221191,0.052734375,-0.044921875,0.028320312,2.765129,-0.93837357,0.5099672,20.679403,-0.9697876,-0.10925293,-0.05126953,0.04296875,-0.03125,-9.77E-04,2.4729846,-2.4232788,-56.403435,23.5518,-0.18371582,0.5419922,0.7999878,0.040039062,0.00390625,-0.009765625,2.8174448,-2.9944472,-128.40926,24.869497,0,0,0,0,0,0,0,-22.989157,-128.54099,25.371544,0,0,0,0,0,0,0,2.917319,44.903168,-0.9749609
0.492187485,21,0.045898438,-0.9090576,0.50335693,-0.080078125,0.025390625,0.018554688,0,0,0,0,0,0,0,0,0,0,0,0.04499802,-0.024047486,-0.9989498,-0.95306396,-0.07104492,-0.011657715,0.07714844,-0.099609375,-0.0078125,2.9588969,0.9315995,-0.4978575,-20.681358,-0.99157715,0.03527832,-0.072265625,0.010742188,0.01171875,0.040039062,4.0090733,-0.67415774,-57.393703,-17.538074,-0.33581543,-0.5322876,0.7979126,0.001953125,-0.01171875,-0.021484375,10.126868,1.3177674,-129.29823,-14.024693,0,0,0,0,0,0,0,-18.620895,-129.43335,-15.596017,0,0,0,0,0,0,0,-0.04499802,0.024047486,0.9989498,-0.9680786,0.11566162,-0.15026855,-0.022460938,-0.043945312,0.010742188,2.7580411,-0.9315995,0.4978575,20.681358,-0.9901123,-0.11584473,-0.049194336,0.004882813,-0.032226562,-9.77E-04,2.433411,-2.4938493,-56.41749,23.44566,-0.2008667,0.52459717,0.79992676,0,0.022460938,-0.008789063,2.6779573,-3.13516,-128.42352,24.73617,0,0,0,0,0,0,0,-23.128614,-128.54987,25.227188,0,0,0,0,0,0,0,3.011427,44.90054,-0.9452295
0.515624985,22,0.018859863,-0.9137573,0.52593994,-0.0234375,0.025390625,-9.77E-04,0,0,0,0,0,0,0,0,0,0,0,0.04382053,-0.023587389,-0.9989659,-1.013977,-0.010864258,-0.013061523,0.001953125,-0.060546875,0.009765625,2.9690678,0.90722,-0.48833206,-20.681692,-0.9656372,0.006042481,-0.07495117,-0.028320312,0.009765625,0.05859375,3.9912047,-0.76449466,-57.38281,-17.578499,-0.34344482,-0.5523071,0.8046875,-0.03515625,0.0078125,-0.001953125,9.86751,1.1047478,-129.29602,-14.223361,0,0,0,0,0,0,0,-18.834171,-129.42502,-15.806545,0,0,0,0,0,0,0,-0.04382053,0.023587389,0.9989659,-0.9793091,0.09820557,-0.15124512,-0.060546875,-0.006835938,0.029296875,2.7084105,-0.90722,0.48833206,20.681692,-0.98706055,-0.11291504,-0.0501709,-0.033203125,-0.051757812,0.018554688,2.4029772,-2.5568056,-56.428555,23.324766,-0.1887207,0.53100586,0.8245239,0.040039062,0.00390625,-0.009765625,2.7102168,-3.2640324,-128.43434,24.579453,0,0,0,0,0,0,0,-23.258247,-128.55383,25.081951,0,0,0,0,0,0,0,3.0837474,44.89393,-0.9247554
0.539062484,23,0.011901856,-0.90252686,0.5192261,-0.004882813,0.005859375,0.017578125,0,0,0,0,0,0,0,0,0,0,0,0.044691235,-0.023061711,-0.9989597,-0.9937744,-0.080566406,-0.026306152,0.020507812,-0.080078125,-0.008789063,2.9965663,0.92524636,-0.47744897,-20.681564,-1.0216675,0.004516602,-0.077697754,0.010742188,-0.043945312,0.022460938,3.9618046,-0.7612746,-57.37123,-17.545456,-0.32763672,-0.5239258,0.8196411,-0.0546875,-0.030273438,-0.040039062,9.5942335,1.0303826,-129.28723,-14.268084,0,0,0,0,0,0,0,-18.904655,-129.41414,-15.885847,0,0,0,0,0,0,0,-0.044691235,0.023061711,0.9989597,-0.98657227,0.08453369,-0.1541748,-0.00390625,-0.0078125,-0.0078125,2.630092,-0.92524636,0.47744897,20.681564,-0.98498535,-0.112854004,-0.070129395,0.004882813,-0.05078125,0.018554688,2.4217198,-2.636516,-56.444332,23.254318,-0.18365479,0.5459595,0.79315186,0.07910156,-0.015625,-0.009765625,2.74944,-3.3749213,-128.446,24.443773,0,0,0,0,0,0,0,-23.366705,-128.54744,24.96067,0,0,0,0,0,0,0,3.0783443,44.895733,-0.8987325
0.562499983,24,0.03918457,-0.911438,0.5333252,-0.0234375,-0.012695313,-9.77E-04,0,0,0,0,0,0,0,0,0,0,0,0.04383421,-0.022646507,-0.9990574,-0.9785156,-0.046813965,-4.27E-04,0.020507812,-0.080078125,-0.008789063,3.0026357,0.9075036,-0.4688529,-20.683586,-0.98657227,0.02722168,-0.06427002,0.049804688,-0.005859375,0.022460938,4.018636,-0.88402057,-57.354794,-17.471344,-0.31103516,-0.51605225,0.8157959,-0.07324219,-0.030273438,-0.059570312,9.433172,0.81809974,-129.27519,-14.241888,0,0,0,0,0,0,0,-19.116583,-129.39241,-15.868766,0,0,0,0,0,0,0,-0.04383421,0.022646507,0.9990574,-0.946228,0.097595215,-0.16064453,-0.060546875,-0.025390625,0.029296875,2.5450673,-0.9075036,0.4688529,20.683586,-0.98309326,-0.11981201,-0.042297363,0.0234375,-0.05078125,0.018554688,2.4800186,-2.7392988,-56.450752,23.230562,-0.19256592,0.57647705,0.78448486,0.059570312,-0.015625,-0.028320312,2.6936266,-3.5222454,-128.45273,24.408909,0,0,0,0,0,0,0,-23.515867,-128.5455,24.916908,0,0,0,0,0,0,0,3.0955741,44.897144,-0.88190264
0.585937483,25,0.055847168,-0.87615967,0.5332031,-0.004882813,0.006835938,-0.038085938,0,0,0,0,0,0,0,0,0,0,0,0.04409221,-0.02173075,-0.9989901,-0.97247314,-0.040649414,-0.015441895,0.002929688,-0.041992188,0.028320312,3.0250447,0.91284657,-0.44989386,-20.682194,-0.9984741,0.06365967,-0.066345215,-0.008789063,-0.026367188,0.021484375,3.9830027,-0.95117235,-57.331104,-17.43952,-0.34228516,-0.54248047,0.8096924,-0.1484375,-0.009765625,-0.059570312,8.967537,0.5662745,-129.26315,-14.364628,0,0,0,0,0,0,0,-19.364346,-129.3917,-16.028576,0,0,0,0,0,0,0,-0.04409221,0.02173075,0.9989901,-0.9660034,0.117492676,-0.13250732,0.015625,-0.043945312,0.009765625,2.4497645,-0.91284657,0.44989386,20.682194,-0.9881592,-0.12176514,-0.038269043,0.061523438,-0.03125,-9.77E-04,2.4791503,-2.844442,-56.470078,23.126066,-0.17462158,0.54467773,0.8147583,0.059570312,-0.015625,-0.028320312,2.635371,-3.6806598,-128.47003,24.285248,0,0,0,0,0,0,0,-23.67262,-128.53882,24.799927,0,0,0,0,0,0,0,3.1099029,44.89353,-0.83929527
0.609374982,26,0.030761719,-0.91070557,0.5057373,0.013671875,0.025390625,-0.07519531,0,0,0,0,0,0,0,0,0,0,0,0.044845134,-0.02117742,-0.9989625,-0.9928589,-0.02722168,0.028625488,-0.036132812,-0.060546875,0.009765625,3.0269854,0.9284339,-0.43843824,-20.68162,-1.0036621,0.00402832,-0.055664062,-0.028320312,-0.0078125,0.001953125,3.9634354,-1.0092988,-57.31758,-17.405388,-0.33221436,-0.55926514,0.79681396,-0.20605469,-0.028320312,-0.09765625,8.636563,0.35536456,-129.2619,-14.410598,0,0,0,0,0,0,0,-19.574135,-129.40216,-16.09222,0,0,0,0,0,0,0,-0.044845134,0.02117742,0.9989625,-0.96221924,0.10076904,-0.14160156,0.015625,-0.0078125,0.029296875,2.3602426,-0.9284339,0.43843824,20.68162,-0.9880371,-0.09838867,-0.04107666,0.0234375,-0.0703125,-9.77E-04,2.473697,-2.9527988,-56.480274,23.06459,-0.19146729,0.57507324,0.8218384,0.05859375,0.00390625,-0.009765625,2.535204,-3.8906324,-128.48703,24.187695,0,0,0,0,0,0,0,-23.882294,-128.53033,24.716871,0,0,0,0,0,0,0,3.1120625,44.893612,-0.81201255
0.632812481,27,0.03894043,-0.8989258,0.50164795,-0.061523438,0.064453125,-0.037109375,0,0,0,0,0,0,0,0,0,0,0,0.044627458,-0.020360494,-0.9990338,-1.00531,-0.04827881,0.053649902,-0.016601562,-0.041992188,0.009765625,3.0908551,0.92392755,-0.4215254,-20.683096,-0.97558594,0.026428223,-0.06713867,0.06933594,0.013671875,0.022460938,3.9980679,-1.1130154,-57.290237,-17.292353,-0.3480835,-0.56018066,0.8479004,-0.2626953,-0.046875,-0.15429688,8.410201,0.09466326,-129.23694,-14.393805,0,0,0,0,0,0,0,-19.837362,-129.37021,-16.053785,0,0,0,0,0,0,0,-0.044627458,0.020360494,0.9990338,-0.9602051,0.10064697,-0.12683105,0.052734375,-0.044921875,0.028320312,2.2634752,-0.92392755,0.4215254,20.683096,-0.9729004,-0.11218262,-0.03729248,0.041992188,-0.03125,0.018554688,2.4759114,-3.0530474,-56.494183,22.991114,-0.18066406,0.54888916,0.79315186,0.07910156,-0.015625,-0.028320312,2.3936737,-4.088618,-128.49594,24.074083,0,0,0,0,0,0,0,-24.080315,-128.51657,24.605335,0,0,0,0,0,0,0,3.1177552,44.89587,-0.77571404
0.65624998,28,0.023376465,-0.89630127,0.5418701,0.013671875,0.006835938,-0.056640625,0,0,0,0,0,0,0,0,0,0,0,0.044924796,-0.020078085,-0.9990276,-1.0032349,-0.038879395,0.030700684,0.05859375,-0.061523438,-0.008789063,3.1425495,0.9300814,-0.41567856,-20.682968,-1.0046387,0.010375977,-0.070495605,0.068359375,0.087890625,0.021484375,4.000908,-1.1477497,-57.277607,-17.207777,-0.34417725,-0.56536865,0.85479736,-0.33984375,-0.14160156,-0.2685547,8.051984,-0.044400454,-129.23157,-14.356158,0,0,0,0,0,0,0,-19.971334,-129.3447,-16.071487,0,0,0,0,0,0,0,-0.044924796,0.020078085,0.9990276,-0.98657227,0.082458496,-0.13244629,-0.00390625,-0.026367188,0.010742188,2.1802316,-0.9300814,0.41567856,20.682968,-0.99017334,-0.11981201,-0.036254883,0.061523438,-0.012695313,0.018554688,2.4761484,-3.1408443,-56.50165,22.95388,-0.18035889,0.5807495,0.8267822,0.040039062,-0.015625,-0.028320312,2.313761,-4.2517195,-128.50581,24.03909,0,0,0,0,0,0,0,-24.244152,-128.52638,24.562553,0,0,0,0,0,0,0,3.1125312,44.896526,-0.76234776
0.67968748,29,0.030761719,-0.9066162,0.49884033,-0.004882813,0.005859375,-0.01953125,0,0,0,0,0,0,0,0,0,0,0,0.044379056,-0.020649467,-0.9990641,-0.9938965,-0.022949219,0.017700195,-0.014648438,0.034179688,0.008789063,3.0981302,0.91878396,-0.42750794,-20.683722,-0.9835205,0.038330078,-0.072143555,0.049804688,0.049804688,0.021484375,4.0016418,-1.1781919,-57.290424,-17.251013,-0.31610107,-0.623291,0.79364014,-0.22851562,-0.20117188,-0.23144531,7.8583016,-0.11914778,-129.2434,-14.506548,0,0,0,0,0,0,0,-20.0433,-129.26881,-16.258482,0,0,0,0,0,0,0,-0.044379056,0.020649467,0.9990641,-0.9602051,0.099609375,-0.12585449,0.014648438,-0.0625,0.028320312,2.1040332,-0.91878396,0.42750794,20.683722,-0.99316406,-0.1060791,-0.044128418,0.04296875,-0.03125,-9.77E-04,2.488292,-3.2173276,-56.48409,22.91812,-0.1817627,0.524292,0.8097534,0.0390625,0.022460938,-0.009765625,2.1310215,-4.3987217,-128.48119,24.001307,0,0,0,0,0,0,0,-24.392277,-128.50238,24.50344,0,0,0,0,0,0,0,3.1480312,44.894672,-0.78808224
0.703124979,30,0.012634277,-0.9072876,0.505249,-0.0234375,0.006835938,-0.056640625,0,0,0,0,0,0,0,0,0,0,0,0.04250902,-0.0209738,-0.99908257,-0.9765625,-0.05529785,0.022460938,-0.08984375,0.0546875,0.008789063,3.0601106,0.8800687,-0.43422267,-20.684107,-0.97875977,-0.030700684,-0.072265625,-0.008789063,0.048828125,-0.017578125,3.9240093,-1.2083683,-57.298347,-17.30603,-0.41552734,-0.66674805,0.9298096,0.22265625,-0.26464844,-0.024414062,7.6620874,-0.21953034,-129.25522,-14.569377,0,0,0,0,0,0,0,-20.137627,-129.16881,-16.382591,0,0,0,0,0,0,0,-0.04250902,0.0209738,0.99908257,-0.98986816,0.13464355,-0.117126465,0.015625,-0.026367188,0.010742188,1.9886926,-0.8800687,0.43422267,20.684107,-0.9902344,-0.12561035,-0.040283203,0.04296875,-0.012695313,-9.77E-04,2.4993584,-3.2704828,-56.47428,22.832052,-0.18670654,0.54504395,0.795105,0.059570312,-0.015625,-0.009765625,2.1037543,-4.5062127,-128.474,23.89567,0,0,0,0,0,0,0,-24.501062,-128.49652,24.389482,0,0,0,0,0,0,0,3.1715422,44.89015,-0.8074384
0.726562478,31,0.039123535,-0.881958,0.49682617,-0.004882813,0.006835938,-0.056640625,0,0,0,0,0,0,0,0,0,0,0,0.041742206,-0.02064893,-0.9991132,-0.9951782,-0.03479004,0.016662598,0.024414062,0.072265625,-0.009765625,3.1168408,0.86419284,-0.4274969,-20.68474,-0.9785156,0.046325684,-0.10473633,0.06933594,0.05078125,0.022460938,3.9315875,-1.2102829,-57.29441,-17.286995,-0.16455078,-0.78411865,0.66156006,0.10546875,-0.359375,0.049804688,7.4506392,-0.22621995,-129.25479,-14.607921,0,0,0,0,0,0,0,-20.12352,-128.99274,-16.58255,0,0,0,0,0,0,0,-0.041742206,0.02064893,0.9991132,-0.9638672,0.12921143,-0.122558594,0.015625,0.028320312,0.029296875,1.9181607,-0.86419284,0.4274969,20.68474,-0.9902344,-0.12182617,-0.024353027,0.04296875,-0.012695313,-9.77E-04,2.4906507,-3.3420224,-56.483204,22.774212,-0.1694336,0.5720825,0.8041382,0.020507812,-0.015625,-0.009765625,2.0211012,-4.658119,-128.47734,23.850586,0,0,0,0,0,0,0,-24.652275,-128.50026,24.352167,0,0,0,0,0,0,0,3.1957421,44.888287,-0.7942021
0.749999978,32,0.04510498,-0.8880615,0.4946289,-0.061523438,0.064453125,0,0,0,0,0,0,0,0,0,0,0,0,0.04004845,-0.020222105,-0.99922645,-0.97540283,-0.04083252,-0.003479004,0.006835938,0.091796875,0.0078125,3.0861013,0.8291272,-0.41866028,-20.687084,-0.9956665,-0.001281738,-0.072387695,-0.047851562,0.06542969,0.01953125,3.7160993,-1.1420053,-57.298546,-17.47027,-0.16662598,-0.6277466,0.6760864,0.080078125,0.026367188,-0.13378906,7.3499904,-0.2801605,-129.26294,-14.923069,0,0,0,0,0,0,0,-20.178864,-128.89836,-16.882053,0,0,0,0,0,0,0,-0.04004845,0.020222105,0.99922645,-0.9603882,0.089782715,-0.122924805,0.034179688,0.009765625,0.010742188,1.872626,-0.8291272,0.41866028,20.687084,-0.98913574,-0.10626221,-0.029174805,0.04296875,-0.012695313,-9.77E-04,2.4894717,-3.3975816,-56.48987,22.760075,-0.19781494,0.5372925,0.79803467,0.001953125,-0.015625,-0.009765625,1.911415,-4.8261313,-128.48605,23.82922,0,0,0,0,0,0,0,-24.819305,-128.50478,24.328705,0,0,0,0,0,0,0,3.2223802,44.888233,-0.77928597
0.773437477,33,0.034423828,-0.89245605,0.53460693,-0.004882813,0.064453125,-0.01953125,0,0,0,0,0,0,0,0,0,0,0,0.039397,-0.01974361,-0.99925566,-0.9918823,-0.08666992,-0.021362305,0.043945312,0.072265625,0.008789063,3.2000222,0.8156402,-0.408754,-20.68769,-0.9567261,-0.00970459,-0.103637695,0.14648438,0.07128906,-0.014648438,3.6225548,-1.0632383,-57.28933,-17.475985,-0.10455322,-0.40948486,0.6477661,0.12207031,0.21777344,0.038085938,7.587834,-0.16793084,-129.25162,-14.828225,0,0,0,0,0,0,0,-20.075623,-128.88815,-16.728893,0,0,0,0,0,0,0,-0.039397,0.01974361,0.99925566,-0.9520874,0.10638428,-0.12591553,0.014648438,-0.025390625,0.047851562,1.818223,-0.8156402,0.408754,20.68769,-0.9942627,-0.1217041,-0.034301758,0.04296875,0.006835938,-0.020507812,2.5269294,-3.4903736,-56.49499,22.721878,-0.19769287,0.55200195,0.795166,9.77E-04,0.00390625,-0.02734375,1.7991797,-4.991773,-128.4899,23.76829,0,0,0,0,0,0,0,-24.98646,-128.51192,24.25113,0,0,0,0,0,0,0,3.2603455,44.885567,-0.7583198
0.796874976,34,0.014892578,-0.885376,0.4984131,0.033203125,0.044921875,-9.77E-04,0,0,0,0,0,0,0,0,0,0,0,0.038343668,-0.019590106,-0.9992572,-0.9432373,-6.10E-04,-0.020629883,0.15917969,0.07128906,0.044921875,3.1684825,0.79383206,-0.40557593,-20.687723,-0.9321289,0.14642334,-0.09698486,0.12695312,0.015625,0.00390625,3.556333,-1.0822728,-57.291317,-17.53496,-0.17565918,-0.47473145,0.664978,0.017578125,0.62109375,0.25097656,6.886608,-0.3367563,-129.25264,-15.110381,0,0,0,0,0,0,0,-20.253437,-129.0986,-16.94171,0,0,0,0,0,0,0,-0.038343668,0.019590106,0.9992572,-0.9505005,0.075805664,-0.12420654,-0.022460938,0.06542969,0.029296875,1.7584732,-0.79383206,0.40557593,20.687723,-0.98114014,-0.1305542,-0.038391113,0.04296875,-0.012695313,-9.77E-04,2.5102983,-3.525984,-56.500504,22.685814,-0.17553711,0.56048584,0.7991333,-0.018554688,0.00390625,-0.045898438,1.7650272,-5.092985,-128.4922,23.754944,0,0,0,0,0,0,0,-25.088184,-128.51218,24.238323,0,0,0,0,0,0,0,3.265524,44.883343,-0.7546179
0.820312476,35,0.023132324,-0.88079834,0.50616455,0.033203125,0.005859375,-9.77E-04,0,0,0,0,0,0,0,0,0,0,0,0.038928896,-0.019135492,-0.99927986,-0.9433594,0.048461914,0.04827881,0.0078125,0.11035156,0.08203125,2.8842552,0.8059491,-0.39616406,-20.68819,-0.98028564,0.08917236,0.010253906,-0.14355469,-0.0859375,0.01953125,3.3898623,-1.2000877,-57.291286,-17.85907,-0.20574951,-0.4883423,1.1271362,0.15136719,0.7910156,0.59277344,6.4368134,-0.7790211,-129.26851,-15.683418,0,0,0,0,0,0,0,-20.700226,-129.47765,-17.359135,0,0,0,0,0,0,0,-0.038928896,0.019135492,0.99927986,-0.97528076,0.09893799,-0.12756348,-0.022460938,0.046875,0.029296875,1.7343807,-0.8059491,0.39616406,20.68819,-0.9840698,-0.11401367,-0.038269043,0.0234375,0.005859375,0.017578125,2.4963024,-3.5868587,-56.508274,22.65899,-0.1963501,0.5956421,0.82592773,-0.055664062,-0.03515625,-0.02734375,1.7012289,-5.2083883,-128.50082,23.755543,0,0,0,0,0,0,0,-25.202034,-128.52495,24.219076,0,0,0,0,0,0,0,3.2794018,44.88435,-0.7317476
0.843749975,36,0.01739502,-0.8709717,0.5213623,-0.099609375,0.005859375,0.055664062,0,0,0,0,0,0,0,0,0,0,0,0.04067892,-0.018605113,-0.9992222,-1.076477,-0.023986816,0.026367188,-0.17089844,-0.07910156,0.028320312,2.785653,0.84218115,-0.3851835,-20.686998,-1.0319214,-0.057678223,-0.08392334,-0.24121094,0.004882813,0.017578125,3.543261,-1.448461,-57.268425,-17.75272,-0.36346436,-0.60046387,0.87524414,0.1484375,-0.07324219,0.33691406,6.132197,-1.2156211,-129.24876,-15.530069,0,0,0,0,0,0,0,-21.135712,-129.63028,-17.290482,0,0,0,0,0,0,0,-0.04067892,0.018605113,0.9992222,-0.9827881,0.1395874,-0.14782715,0.015625,0.046875,0.047851562,1.6954674,-0.84218115,0.3851835,20.686998,-0.98809814,-0.11199951,-0.044189453,-0.014648438,-0.013671875,0.017578125,2.4874265,-3.6748784,-56.51692,22.61519,-0.1906128,0.54473877,0.8275757,-0.016601562,-0.053710938,-0.046875,1.6822574,-5.3478413,-128.50607,23.722672,0,0,0,0,0,0,0,-25.341883,-128.53687,24.170578,0,0,0,0,0,0,0,3.2847981,44.884525,-0.70200545
0.867187474,37,0.019104004,-0.91204834,0.53985596,-0.15625,-0.012695313,0.055664062,0,0,0,0,0,0,0,0,0,0,0,0.040973365,-0.02079496,-0.99921453,-0.9747925,-0.13793945,-0.10235596,-0.27734375,0.17089844,0.006835938,2.9618726,0.84827584,-0.43052015,-20.686838,-1.0489502,-0.0569458,-0.1138916,-0.06640625,0.047851562,-0.056640625,3.4136896,-1.2571354,-57.315285,-17.77397,-0.35040283,-0.6610718,0.76379395,0.34277344,0.041015625,0.20605469,6.3872433,-0.89637035,-129.29279,-15.413286,0,0,0,0,0,0,0,-20.80865,-129.69705,-17.240395,0,0,0,0,0,0,0,-0.040973365,0.02079496,0.99921453,-0.9857178,0.14758301,-0.1595459,-0.022460938,0.046875,0.029296875,1.655758,-0.84827584,0.43052015,20.686838,-1.0062866,-0.093322754,-0.044921875,-0.033203125,-0.013671875,0.017578125,2.498967,-3.7646978,-56.467655,22.500677,-0.19378662,0.5371704,0.8029175,-0.037109375,-0.015625,-0.008789063,1.6229298,-5.4992046,-128.4545,23.544521,0,0,0,0,0,0,0,-25.493668,-128.49226,23.976774,0,0,0,0,0,0,0,3.4344354,44.873943,-0.79305434
0.890624973,38,0.030395508,-0.94659424,0.517395,-0.0234375,-0.051757812,0.03515625,0,0,0,0,0,0,0,0,0,0,0,0.040628225,-0.022290064,-0.9992155,-1.0163574,-0.097961426,-0.020141602,-0.051757812,0.07324219,-0.028320312,3.1823542,0.84113,-0.4614734,-20.68686,-0.98272705,-0.014709473,-0.11193848,0.030273438,0.01171875,0.041015625,3.0995202,-0.8996265,-57.37075,-17.911203,-0.43737793,-0.5494385,0.77783203,0.26757812,0.0234375,0.07324219,6.31699,-0.40736145,-129.34402,-15.485924,0,0,0,0,0,0,0,-20.30581,-129.78989,-17.429218,0,0,0,0,0,0,0,-0.040628225,0.022290064,0.9992155,-0.9864502,0.16418457,-0.13372803,-0.09765625,0.029296875,-0.0078125,1.5449703,-0.84113,0.4614734,20.68686,-0.98602295,-0.097473145,-0.036071777,-0.051757812,-0.013671875,0.017578125,2.485931,-3.836397,-56.4427,22.352247,-0.19970703,0.5609131,0.78533936,0.001953125,-0.015625,-0.028320312,1.5053221,-5.645225,-128.43047,23.330198,0,0,0,0,0,0,0,-25.641388,-128.47063,23.738499,0,0,0,0,0,0,0,3.4883585,44.86943,-0.85909057
0.914062473,39,0.03881836,-0.927063,0.52130127,0.013671875,-0.09082031,0.016601562,0,0,0,0,0,0,0,0,0,0,0,0.041601896,-0.021648277,-0.99916685,-1.0015259,-4.27E-04,-0.006164551,0.13671875,-0.024414062,0.028320312,3.1872716,0.86128974,-0.44818643,-20.685852,-1.0012817,0.10546875,-0.076171875,0.06933594,0.013671875,0.022460938,3.1044426,-0.88553786,-57.361183,-17.964685,-0.29742432,-0.50128174,0.81591797,0.11621094,0.005859375,-0.021484375,6.217855,-0.44059265,-129.34222,-15.728972,0,0,0,0,0,0,0,-20.345243,-129.7508,-17.636013,0,0,0,0,0,0,0,-0.041601896,0.021648277,0.99916685,-0.9741211,0.11383057,-0.14916992,-0.09765625,0.010742188,-0.0078125,1.4545456,-0.86128974,0.44818643,20.685852,-0.9901123,-0.11193848,-0.05114746,-0.033203125,0.024414062,-9.77E-04,2.522588,-3.9467595,-56.45208,22.242487,-0.1887207,0.54211426,0.795105,0,0.022460938,-0.008789063,1.5435765,-5.790619,-128.44278,23.182102,0,0,0,0,0,0,0,-25.786095,-128.48016,23.599222,0,0,0,0,0,0,0,3.5039494,44.86781,-0.82622814
0.937499972,40,0.06463623,-0.89312744,0.5308838,-0.004882813,-0.109375,-0.001953125,0,0,0,0,0,0,0,0,0,0,0,0.040424556,-0.020091435,-0.99926186,-0.98443604,0.04638672,-0.03515625,0.022460938,-0.00390625,0.009765625,3.1022348,0.8369124,-0.41595495,-20.687817,-0.95843506,0.066467285,-0.109436035,-0.14453125,0.0078125,0,3.0704567,-0.9763453,-57.333755,-18.163618,-0.3239746,-0.5093994,0.79119873,0.0390625,-0.05078125,-0.002929688,6.0931334,-0.685452,-129.32079,-16.231775,0,0,0,0,0,0,0,-20.596268,-129.69685,-18.093521,0,0,0,0,0,0,0,-0.040424556,0.020091435,0.99926186,-0.94207764,0.11126709,-0.15661621,-0.07910156,0.029296875,-0.0078125,1.4575025,-0.8369124,0.41595495,20.687817,-0.97491455,-0.12182617,-0.051330566,0.004882813,0.005859375,-0.020507812,2.5285554,-3.9640028,-56.48139,22.184435,-0.20178223,0.54418945,0.79803467,0,0.022460938,-0.008789063,1.571096,-5.8375483,-128.46852,23.100538,0,0,0,0,0,0,0,-25.833366,-128.51802,23.50406,0,0,0,0,0,0,0,3.5317001,44.86746,-0.75924456
0.960937471,41,0.04711914,-0.89520264,0.50445557,0.013671875,-0.051757812,-0.001953125,0,0,0,0,0,0,0,0,0,0,0,0.041297853,-0.019257594,-0.9991397,-0.98114014,-0.025512695,-0.017333984,-0.12890625,0.016601562,0.02734375,2.9554543,0.85499376,-0.3986919,-20.68529,-0.989624,0.013122559,-0.088134766,-0.008789063,0.030273438,0.001953125,3.123805,-1.0601742,-57.32195,-18.298653,-0.31500244,-0.513855,0.8069458,-0.017578125,-0.01171875,0.03515625,6.274574,-0.7769389,-129.31308,-16.419378,0,0,0,0,0,0,0,-20.68844,-129.67247,-18.269915,0,0,0,0,0,0,0,-0.041297853,0.019257594,0.9991397,-0.9724121,0.09222412,-0.16223145,-0.022460938,0.010742188,0.010742188,1.4600513,-0.85499376,0.3986919,20.68529,-0.9923096,-0.14782715,-0.053466797,-0.033203125,-0.032226562,0.017578125,2.530258,-3.992773,-56.49888,22.201332,-0.18676758,0.5341797,0.8019409,9.77E-04,0.00390625,-0.008789063,1.5815244,-5.87897,-128.48239,23.134586,0,0,0,0,0,0,0,-25.874695,-128.5457,23.49744,0,0,0,0,0,0,0,3.518464,44.864525,-0.71929646
0.984374971,42,0.017211914,-0.8687134,0.50445557,0.033203125,-0.09082031,-0.001953125,0,0,0,0,0,0,0,0,0,0,0,0.04445973,-0.018918604,-0.9991176,-0.9968262,-0.071899414,-0.05517578,-0.053710938,0.015625,-0.009765625,2.9563816,0.9204534,-0.39167377,-20.684832,-0.9924927,0.041992188,-0.06530762,-0.046875,0.009765625,0.001953125,3.0527449,-0.9426527,-57.313812,-18.340847,-0.30096436,-0.52038574,0.82562256,9.77E-04,-0.03125,0.016601562,6.2451954,-0.70012516,-129.30624,-16.543503,0,0,0,0,0,0,0,-20.615343,-129.64427,-18.367828,0,0,0,0,0,0,0,-0.04445973,0.018918604,0.9991176,-0.95214844,0.10559082,-0.16540527,0.015625,-0.0078125,0.010742188,1.442522,-0.9204534,0.39167377,20.684832,-0.98602295,-0.12158203,-0.06518555,-0.014648438,-0.013671875,-9.77E-04,2.4861672,-4.024069,-56.510036,22.149942,-0.18658447,0.5574951,0.8187866,0.001953125,-0.015625,-0.028320312,1.5912696,-5.9125586,-128.49895,23.061756,0,0,0,0,0,0,0,-25.90858,-128.56865,23.409012,0,0,0,0,0,0,0,3.4836955,44.87245,-0.69465303
1.00781247,43,0.055358887,-0.8956299,0.51519775,-0.0234375,0.025390625,0.036132812,0,0,0,0,0,0,0,0,0,0,0,0.04636374,-0.018427502,-0.9989053,-0.9929199,-0.02178955,0.00769043,0.060546875,-0.00390625,-0.008789063,2.9776268,0.95987403,-0.38150638,-20.680435,-0.99157715,0.020568848,-0.07525635,-0.10546875,0.0078125,0.01953125,3.0146728,-0.8520595,-57.30951,-18.335794,-0.34265137,-0.56140137,0.80859375,0.002929688,0.006835938,-0.001953125,6.283192,-0.621733,-129.30681,-16.60005,0,0,0,0,0,0,0,-20.534323,-129.63588,-18.443275,0,0,0,0,0,0,0,-0.04636374,0.018427502,0.9989053,-0.96380615,0.13134766,-0.14422607,0.015625,-0.026367188,0.029296875,1.3845149,-0.95987403,0.38150638,20.680435,-0.9911499,-0.11578369,-0.054138184,0.04296875,-0.012695313,-9.77E-04,2.4729846,-4.062415,-56.52416,22.072746,-0.17974854,0.53027344,0.79400635,0.021484375,-0.034179688,-0.028320312,1.5742068,-5.95361,-128.50937,22.94285,0,0,0,0,0,0,0,-25.95016,-128.58755,23.268185,0,0,0,0,0,0,0,3.4462252,44.869667,-0.66778696
1.031249969,44,0.037353516,-0.8883667,0.52264404,-0.04296875,-0.051757812,0.036132812,0,0,0,0,0,0,0,0,0,0,0,0.046697557,-0.017925678,-0.99902374,-1.0008545,-0.007995606,-0.023132324,-0.015625,-0.002929688,-0.008789063,2.9561167,0.9667854,-0.3711171,-20.682888,-0.97052,0.03540039,-0.0670166,-0.046875,0.009765625,0.001953125,2.9608147,-0.8561334,-57.298885,-18.405277,-0.3363037,-0.5064697,0.80200195,0.001953125,-0.03125,-0.021484375,6.19973,-0.6840507,-129.2956,-16.684078,0,0,0,0,0,0,0,-20.596233,-129.6168,-18.54005,0,0,0,0,0,0,0,-0.046697557,0.017925678,0.99902374,-0.96191406,0.128479,-0.17199707,-0.041015625,0.010742188,0.029296875,1.3675919,-0.9667854,0.3711171,20.682888,-0.9859619,-0.0993042,-0.057006836,0.0234375,-0.012695313,-9.77E-04,2.4760695,-4.0739884,-56.535545,21.992756,-0.19677734,0.5291748,0.8225708,0.040039062,-0.015625,-0.028320312,1.6136183,-5.958935,-128.52338,22.794342,0,0,0,0,0,0,0,-25.955566,-128.6114,23.114433,0,0,0,0,0,0,0,3.452661,44.875153,-0.64381504
1.054687469,45,0.02331543,-0.87091064,0.50927734,-0.0234375,-0.051757812,-9.77E-04,0,0,0,0,0,0,0,0,0,0,0,0.048103392,-0.0174384,-0.99890316,-0.97869873,-0.047424316,-0.015380859,-0.09375,-0.041015625,-0.008789063,2.9236894,0.99588877,-0.36102894,-20.680391,-0.9795532,0.028747559,-0.080078125,-0.008789063,0.01171875,0.001953125,2.9488235,-0.86711496,-57.293842,-18.420376,-0.34570312,-0.52093506,0.78515625,9.77E-04,-0.05078125,0.015625,6.0587716,-0.7705164,-129.29213,-16.742039,0,0,0,0,0,0,0,-20.684277,-129.59581,-18.588272,0,0,0,0,0,0,0,-0.048103392,0.0174384,0.99890316,-0.9772339,0.10510254,-0.16204834,-0.060546875,0.010742188,0.010742188,1.3088064,-0.99588877,0.36102894,20.680391,-0.9738159,-0.10333252,-0.054138184,0.004882813,-0.012695313,-9.77E-04,2.506475,-4.141298,-56.540516,21.910822,-0.15765381,0.5319824,0.79504395,0.0390625,0.022460938,-0.028320312,1.7494354,-6.0280814,-128.52858,22.645144,0,0,0,0,0,0,0,-26.025297,-128.61191,23.006428,0,0,0,0,0,0,0,3.4472666,44.87312,-0.6173675
1.078124968,46,0.035339355,-0.8741455,0.506897,-0.04296875,-0.032226562,0.036132812,0,0,0,0,0,0,0,0,0,0,0,0.04950854,-0.016690314,-0.99892414,-1.024231,-0.052124023,-0.020996094,-0.07324219,-0.022460938,0.009765625,2.9104693,1.024981,-0.3455412,-20.680828,-0.9845581,0.029907227,-0.08605957,-0.046875,0.009765625,0.001953125,2.968936,-0.8581748,-57.273838,-18.405119,-0.3092041,-0.5251465,0.8187256,0.020507812,-0.03125,0.016601562,6.116415,-0.8006854,-129.2721,-16.80134,0,0,0,0,0,0,0,-20.716099,-129.55699,-18.6255,0,0,0,0,0,0,0,-0.04950854,0.016690314,0.99892414,-0.9682007,0.10797119,-0.17700195,-0.060546875,-0.025390625,-0.0078125,1.2514827,-1.024981,0.3455412,20.680828,-0.99328613,-0.12463379,-0.03527832,-0.051757812,0.004882813,0.017578125,2.485616,-4.188349,-56.56015,21.83752,-0.17858887,0.55462646,0.802063,0.040039062,-0.015625,-0.028320312,1.8535078,-6.1135693,-128.54675,22.527199,0,0,0,0,0,0,0,-26.111216,-128.62251,22.91558,0,0,0,0,0,0,0,3.4212048,44.879078,-0.58029115
1.101562467,47,0.059753418,-0.8922119,0.5409546,0.014648438,-0.013671875,0.053710938,0,0,0,0,0,0,0,0,0,0,0,0.050082833,-0.015462674,-0.9988892,-0.9906616,-0.050598145,0.005615234,-0.018554688,-0.080078125,-0.008789063,2.9466984,1.0368687,-0.3201253,-20.680103,-0.98773193,-0.006835938,-0.08123779,-0.046875,0.010742188,-0.017578125,3.0293128,-0.884235,-57.242447,-18.356606,-0.32751465,-0.52563477,0.80584717,0.021484375,0.006835938,0.03515625,6.292983,-0.82077724,-129.2399,-16.757717,0,0,0,0,0,0,0,-20.737719,-129.5146,-18.563404,0,0,0,0,0,0,0,-0.050082833,0.015462674,0.9988892,-0.9813843,0.09729004,-0.15612793,-0.060546875,0.010742188,0.010742188,1.2521081,-1.0368687,0.3201253,20.680103,-0.993042,-0.0914917,-0.053955078,-0.033203125,-0.032226562,-9.77E-04,2.4804132,-4.2186437,-56.583942,21.809612,-0.17248535,0.56536865,0.7942505,0,0.041992188,-0.02734375,1.8859555,-6.175745,-128.57188,22.456738,0,0,0,0,0,0,0,-26.17111,-128.65073,22.852348,0,0,0,0,0,0,0,3.4228268,44.87848,-0.5230977
1.124999966,48,0.02520752,-0.87890625,0.51013184,-0.0234375,-0.013671875,0.07324219,0,0,0,0,0,0,0,0,0,0,0,0.050836444,-0.015585646,-0.998774,-0.9906006,-0.035888672,-0.032226562,-0.0390625,-0.13671875,0.010742188,2.9394484,1.052472,-0.32267123,-20.677717,-1.0096436,0.0078125,-0.08343506,-0.028320312,0.028320312,0.040039062,3.0307987,-0.86558497,-57.24658,-18.353045,-0.3338623,-0.5354004,0.8018799,0.020507812,-0.012695313,0.016601562,6.3316226,-0.7992159,-129.24648,-16.760065,0,0,0,0,0,0,0,-20.716364,-129.51697,-18.581215,0,0,0,0,0,0,0,-0.050836444,0.015585646,0.998774,-0.9882202,0.10827637,-0.16186523,0.015625,-0.026367188,0.029296875,1.2569435,-1.052472,0.32267123,20.677717,-0.97491455,-0.11895752,-0.0413208,0.04296875,-0.03125,-9.77E-04,2.4739342,-4.2173214,-56.583836,21.805481,-0.16564941,0.5368042,0.80688477,0.021484375,-0.034179688,-0.028320312,1.9759567,-6.1621995,-128.56966,22.443586,0,0,0,0,0,0,0,-26.157278,-128.64854,22.850649,0,0,0,0,0,0,0,3.414999,44.87565,-0.526455
1.148437466,49,0.027770996,-0.89849854,0.49401855,-0.004882813,-0.033203125,0.072265625,0,0,0,0,0,0,0,0,0,0,0,0.05109498,-0.015892984,-0.9987736,-0.994751,-0.009399414,-0.011230469,-0.07519531,-0.07910156,0.009765625,2.8542364,1.0578251,-0.3290341,-20.67771,-0.98443604,0.05706787,-0.07110596,0.010742188,0.030273438,0.021484375,3.0714128,-0.9326377,-57.252148,-18.386532,-0.34033203,-0.505249,0.7941284,0.001953125,0.006835938,0.016601562,6.3125186,-0.9155847,-129.252,-16.86588,0,0,0,0,0,0,0,-20.834196,-129.5059,-18.672127,0,0,0,0,0,0,0,-0.05109498,0.015892984,0.9987736,-0.9772949,0.105163574,-0.17687988,0.052734375,-0.026367188,0.009765625,1.287552,-1.0578251,0.3290341,20.67771,-1.0002441,-0.12237549,-0.07312012,0.04296875,0.006835938,-9.77E-04,2.455909,-4.1938562,-56.578136,21.821623,-0.17852783,0.5663452,0.80114746,0.0390625,0.022460938,-0.009765625,2.0294118,-6.1245785,-128.56651,22.48113,0,0,0,0,0,0,0,-26.120346,-128.64806,22.88142,0,0,0,0,0,0,0,3.418055,44.876053,-0.5392302
1.171874965,50,0.05718994,-0.9126587,0.5229492,-0.04296875,0.005859375,0.0546875,0,0,0,0,0,0,0,0,0,0,0,0.050551206,-0.015656516,-0.99880445,-1.0101929,-0.026245117,0.003845215,-0.07324219,-0.022460938,0.009765625,2.8384874,1.0465667,-0.3241384,-20.678349,-0.9935303,0.046936035,-0.0970459,-0.046875,0.009765625,0.001953125,3.097435,-0.9825516,-57.247143,-18.401007,-0.31402588,-0.5177002,0.80200195,-0.017578125,-0.03125,-0.002929688,6.2594323,-1.0182446,-129.2515,-16.981367,0,0,0,0,0,0,0,-20.936918,-129.49147,-18.770103,0,0,0,0,0,0,0,-0.050551206,0.015656516,0.99880445,-0.96691895,0.12750244,-0.15014648,0.072265625,-0.008789063,0.028320312,1.3008579,-1.0465667,0.3241384,20.678349,-0.99102783,-0.10412598,-0.056030273,0.061523438,-0.012695313,-9.77E-04,2.459413,-4.1765537,-56.58417,21.775923,-0.18359375,0.5515137,0.8226929,0.041015625,-0.034179688,-0.028320312,2.0356705,-6.086846,-128.56955,22.415277,0,0,0,0,0,0,0,-26.082745,-128.65549,22.808294,0,0,0,0,0,0,0,3.4343247,44.8749,-0.5296086
1.195312464,51,0.04083252,-0.91796875,0.5093994,0.033203125,-0.013671875,0.016601562,0,0,0,0,0,0,0,0,0,0,0,0.050858498,-0.015398162,-0.99885666,-0.97991943,-0.060668945,-4.88E-04,-0.037109375,-0.07910156,-0.008789063,2.8251464,1.0529289,-0.31878972,-20.67943,-0.9866333,0.015808105,-0.10992432,-0.0859375,0.045898438,0,3.1961656,-1.0435421,-57.23658,-18.345678,-0.31384277,-0.51916504,0.77545166,-0.037109375,-0.03125,0.015625,6.404442,-1.0981867,-129.24045,-16.998375,0,0,0,0,0,0,0,-21.020174,-129.46358,-18.7621,0,0,0,0,0,0,0,-0.050858498,0.015398162,0.99885666,-0.97595215,0.12475586,-0.15795898,0.015625,0.010742188,0.029296875,1.2867919,-1.0529289,0.31878972,20.67943,-0.9880371,-0.118652344,-0.062194824,0.04296875,-0.03125,-9.77E-04,2.4673586,-4.183777,-56.5882,21.72183,-0.17541504,0.56604004,0.8257446,0.0390625,0.00390625,-0.028320312,2.070654,-6.087632,-128.57965,22.28172,0,0,0,0,0,0,0,-26.08321,-128.65335,22.690372,0,0,0,0,0,0,0,3.433915,44.877956,-0.5169853
1.218749964,52,0.017211914,-0.8808594,0.5182495,-0.041992188,0.06347656,0.0546875,0,0,0,0,0,0,0,0,0,0,0,0.05109048,-0.014962249,-0.9987592,-0.97991943,-0.060668945,-4.88E-04,-0.037109375,-0.07910156,-0.008789063,2.8391082,1.0577319,-0.30976492,-20.677412,-0.9945679,0.029663086,-0.05053711,-0.06640625,0.046875,0.01953125,3.1684206,-1.0387392,-57.227554,-18.34366,-0.30737305,-0.5313721,0.82751465,0.001953125,-0.03125,-0.021484375,6.306863,-1.1410434,-129.22876,-17.012177,0,0,0,0,0,0,0,-21.062666,-129.44183,-18.780663,0,0,0,0,0,0,0,-0.05109048,0.014962249,0.9987592,-0.95166016,0.1408081,-0.12658691,-0.00390625,-0.025390625,0.029296875,1.2169182,-1.0577319,0.30976492,20.677412,-0.98913574,-0.11682129,-0.04425049,0.080078125,-0.01171875,-9.77E-04,2.4864821,-4.2521334,-56.593292,21.671473,-0.17651367,0.56744385,0.78637695,0.041015625,-0.03515625,-0.009765625,2.0528076,-6.2022705,-128.57848,22.225126,0,0,0,0,0,0,0,-26.196987,-128.64471,22.649899,0,0,0,0,0,0,0,3.432117,44.87417,-0.49668634
1.242187463,53,0.035095215,-0.8707886,0.48608398,0.013671875,-0.032226562,-0.001953125,0,0,0,0,0,0,0,0,0,0,0,0.051469535,-0.015063407,-0.9987403,-0.9789429,-0.03137207,0.022521973,-0.037109375,-0.080078125,0.009765625,2.7808707,1.0655792,-0.31185928,-20.677021,-0.9996338,0.00793457,-0.053588867,-0.06738281,0.10253906,0.01953125,3.4687638,-1.2844648,-57.212833,-18.136665,-0.31652832,-0.53778076,0.8078003,-0.016601562,0.006835938,0.016601562,6.287497,-1.406691,-129.21297,-16.779613,0,0,0,0,0,0,0,-21.329268,-129.40807,-18.528456,0,0,0,0,0,0,0,-0.051469535,0.015063407,0.9987403,-0.96972656,0.14019775,-0.12432861,-0.022460938,-0.0078125,0.010742188,1.1800172,-1.0655792,0.31185928,20.677021,-0.993042,-0.0847168,-0.044921875,0.080078125,-0.01171875,-9.77E-04,2.482622,-4.2905664,-56.593884,21.628704,-0.19152832,0.5663452,0.81689453,0.020507812,-0.015625,-0.046875,1.8988825,-6.2785015,-128.58127,22.16441,0,0,0,0,0,0,0,-26.275028,-128.65274,22.579304,0,0,0,0,0,0,0,3.4367075,44.873875,-0.4996972
1.265624962,54,0.04675293,-0.88494873,0.54034424,0.014648438,-0.013671875,0.053710938,0,0,0,0,0,0,0,0,0,0,0,0.052057505,-0.014789857,-0.99877894,-0.98913574,-0.027526855,-0.006286621,-0.076171875,-0.09863281,-0.0078125,2.7900066,1.0777504,-0.30619594,-20.677822,-0.9835205,0.038146973,-0.066223145,-0.047851562,0.06640625,-0.018554688,3.5861037,-1.4027541,-57.197456,-18.005156,-0.31604004,-0.52142334,0.788208,0.040039062,-0.012695313,0.016601562,6.1473956,-1.6219434,-129.2001,-16.658735,0,0,0,0,0,0,0,-21.54613,-129.38226,-18.390688,0,0,0,0,0,0,0,-0.052057505,0.014789857,0.99877894,-0.9798584,0.13153076,-0.12719727,-0.022460938,-0.006835938,0.047851562,1.117326,-1.0777504,0.30619594,20.677822,-0.9880371,-0.09844971,-0.035095215,0.061523438,0.006835938,-0.020507812,2.483489,-4.3539104,-56.59462,21.598978,-0.18054199,0.5564575,0.8148804,0.040039062,-0.015625,0.008789063,1.8398367,-6.404853,-128.5849,22.108204,0,0,0,0,0,0,0,-26.399574,-128.64514,22.535057,0,0,0,0,0,0,0,3.4290934,44.87754,-0.48581564
1.289062462,55,0.017822266,-0.9066162,0.51605225,-0.0234375,-0.033203125,0.036132812,0,0,0,0,0,0,0,0,0,0,0,0.05369422,-0.015839197,-0.9986205,-0.9989624,-0.02154541,0.004760742,-0.05859375,-0.15625,0.010742188,2.725557,1.1116347,-0.32792047,-20.674543,-0.9735718,0.027404785,-0.097839355,-0.047851562,0.047851562,-0.017578125,3.8212104,-1.5666018,-57.20174,-17.854927,-0.309021,-0.5180664,0.81481934,0.021484375,0.006835938,0.03515625,6.0349116,-1.8406448,-129.20224,-16.568258,0,0,0,0,0,0,0,-21.766232,-129.36778,-18.28532,0,0,0,0,0,0,0,-0.05369422,0.015839197,0.9986205,-0.9678345,0.13146973,-0.15405273,-0.041015625,-0.006835938,0.029296875,1.0462368,-1.1116347,0.32792047,20.674543,-0.9890747,-0.101379395,-0.032104492,-0.014648438,-0.032226562,-9.77E-04,2.478361,-4.422968,-56.573353,21.55162,-0.18365479,0.5428467,0.81085205,0.020507812,-0.015625,-0.028320312,1.8577265,-6.522418,-128.5597,22.023447,0,0,0,0,0,0,0,-26.515915,-128.60898,22.481007,0,0,0,0,0,0,0,3.4179692,44.875404,-0.5279937
1.312499961,56,0.030273438,-0.9230957,0.47979736,-0.0234375,-0.013671875,0.036132812,0,0,0,0,0,0,0,0,0,0,0,0.051636815,-0.01608645,-0.9988174,-0.9897461,-0.044067383,-0.022277832,-0.11328125,-0.059570312,0.009765625,2.7385254,1.0690433,-0.33303946,-20.678616,-0.97857666,0.027648926,-0.13952637,-0.06738281,0.08496094,-0.038085938,4.0703,-1.6642286,-57.202187,-17.813194,-0.3180542,-0.56744385,0.7958374,0.040039062,0.006835938,0.03515625,6.2077885,-1.7838578,-129.20837,-16.702154,0,0,0,0,0,0,0,-21.709139,-129.37024,-18.420427,0,0,0,0,0,0,0,-0.051636815,0.01608645,0.9988174,-0.95703125,0.11541748,-0.13659668,-0.041015625,0.029296875,0.010742188,1.0302162,-1.0690433,0.33303946,20.678616,-0.99420166,-0.114868164,-0.03918457,-0.013671875,0.005859375,-0.020507812,2.4963808,-4.43271,-56.563194,21.540977,-0.19494629,0.51971436,0.7910156,0.001953125,-0.015625,-0.009765625,1.8898947,-6.57535,-128.54915,21.999079,0,0,0,0,0,0,0,-26.57026,-128.59389,22.463455,0,0,0,0,0,0,0,3.4522336,44.876747,-0.544289
1.33593746,57,0.018310547,-0.9260864,0.49798584,-0.04296875,-0.013671875,0.036132812,0,0,0,0,0,0,0,0,0,0,0,0.05051738,-0.017473068,-0.9988366,-0.9862671,-0.059631348,-0.03930664,-0.1328125,-0.07910156,-0.026367188,2.6715908,1.0458663,-0.3617467,-20.679012,-0.98358154,0.03112793,-0.124694824,-0.06738281,0.083984375,0,4.253858,-1.7578382,-57.22493,-17.826914,-0.3109131,-0.53186035,0.76257324,0.040039062,0.006835938,-0.001953125,6.4464626,-1.773871,-129.23616,-16.860987,0,0,0,0,0,0,0,-21.700762,-129.3855,-18.56675,0,0,0,0,0,0,0,-0.05051738,0.017473068,0.9988366,-0.9880371,0.12402344,-0.15875244,-0.022460938,0.028320312,0.010742188,1.103581,-1.0458663,0.3617467,20.679012,-0.986084,-0.114990234,-0.038269043,0.061523438,0.006835938,0.037109375,2.4815178,-4.4078045,-56.537132,21.536373,-0.19067383,0.546875,0.8069458,-0.018554688,0.00390625,-0.02734375,1.9728839,-6.5659204,-128.52136,21.994734,0,0,0,0,0,0,0,-26.558718,-128.56406,22.479378,0,0,0,0,0,0,0,3.5166984,44.87027,-0.6070733
1.359374959,58,0.046691895,-0.92089844,0.50128174,0.014648438,0.025390625,0.017578125,0,0,0,0,0,0,0,0,0,0,0,0.04934764,-0.017602578,-0.99894047,-0.9871216,-0.057922363,-0.02734375,-0.07421875,-0.041015625,-0.008789063,2.7073262,1.0216491,-0.36442792,-20.681164,-0.99157715,0.031982422,-0.124816895,-0.06738281,0.06542969,0.01953125,4.2841377,-1.6928003,-57.235504,-17.867453,-0.30297852,-0.5325928,0.79016113,0.040039062,0.006835938,-0.001953125,6.6217575,-1.606145,-129.24628,-17.040203,0,0,0,0,0,0,0,-21.533297,-129.38194,-18.749105,0,0,0,0,0,0,0,-0.04934764,0.017602578,0.99894047,-0.9538574,0.12817383,-0.14837646,0.015625,0.046875,0.029296875,1.0839008,-1.0216491,0.36442792,20.681164,-0.9962158,-0.101257324,-0.034057617,0.004882813,-0.012695313,-0.020507812,2.4868755,-4.426695,-56.531292,21.516129,-0.19165039,0.5519409,0.79418945,0.001953125,-0.015625,-0.028320312,1.8833596,-6.6356287,-128.51294,21.929193,0,0,0,0,0,0,0,-26.628967,-128.55469,22.395096,0,0,0,0,0,0,0,3.537374,44.87067,-0.61593103
1.382812459,59,0.016357422,-0.9281616,0.5050049,0.014648438,-0.013671875,0.016601562,0,0,0,0,0,0,0,0,0,0,0,0.047813058,-0.017545005,-0.9988469,-0.9968262,-0.010314941,-0.013183594,0.041992188,-0.00390625,0.009765625,2.694353,0.98987734,-0.36323598,-20.679226,-0.9926758,0.013000488,-0.14959717,0.010742188,0.030273438,0.021484375,4.310798,-1.6665331,-57.24106,-17.95937,-0.33270264,-0.4890747,0.7814331,0.021484375,-0.012695313,-0.002929688,6.924074,-1.4650204,-129.2504,-17.251732,0,0,0,0,0,0,0,-21.39363,-129.37529,-18.95094,0,0,0,0,0,0,0,-0.047813058,0.017545005,0.9988469,-0.96777344,0.13739014,-0.15991211,-0.00390625,0.046875,0.029296875,1.1108271,-0.98987734,0.36323598,20.679226,-0.9911499,-0.11584473,-0.04522705,0.041992188,-0.012695313,0.017578125,2.457582,-4.3958936,-56.535423,21.502377,-0.19256592,0.56243896,0.81884766,0.041015625,-0.03515625,-0.009765625,1.831521,-6.643732,-128.51428,21.896982,0,0,0,0,0,0,0,-26.63946,-128.55692,22.350456,0,0,0,0,0,0,0,3.5589464,44.861313,-0.61764014
1.406249958,60,0.046569824,-0.93182373,0.50219727,0.033203125,0.005859375,-9.77E-04,0,0,0,0,0,0,0,0,0,0,0,0.04649228,-0.017191494,-0.9988887,-0.9893799,-0.03112793,-0.023254395,0.060546875,-0.00390625,-0.008789063,2.6876614,0.96253365,-0.35591722,-20.680092,-0.98358154,0.032165527,-0.12768555,0.010742188,0.01171875,0.021484375,4.345597,-1.6627796,-57.240242,-18.049788,-0.3468628,-0.4798584,0.7784424,0.001953125,-0.01171875,-0.002929688,6.991958,-1.3901259,-129.25488,-17.488232,0,0,0,0,0,0,0,-21.31701,-129.37372,-19.202682,0,0,0,0,0,0,0,-0.04649228,0.017191494,0.9988887,-0.94085693,0.12506104,-0.16442871,0.052734375,0.045898438,0.029296875,1.1658362,-0.96253365,0.35591722,20.680092,-0.99523926,-0.12060547,-0.049194336,0.080078125,0.006835938,0.037109375,2.433411,-4.346749,-56.5415,21.457062,-0.17053223,0.5566406,0.78826904,0.021484375,-0.03515625,-0.009765625,1.9210155,-6.5885487,-128.5206,21.853327,0,0,0,0,0,0,0,-26.584208,-128.55188,22.348522,0,0,0,0,0,0,0,3.5853877,44.858177,-0.6051588
1.429687457,61,0.028198242,-0.87786865,0.50408936,-0.004882813,0.005859375,-9.77E-04,0,0,0,0,0,0,0,0,0,0,0,0.04688528,-0.01726089,-0.99891335,-1.0008545,-0.017700195,0.010742188,0.061523438,0.014648438,0.008789063,2.6688051,0.9706695,-0.3573539,-20.680601,-0.98358154,0.030090332,-0.09295654,0.049804688,-0.024414062,0.022460938,4.371884,-1.6550369,-57.243286,-18.07091,-0.3468628,-0.4798584,0.7784424,0.001953125,-0.01171875,-0.002929688,7.0391836,-1.388269,-129.25883,-17.602982,0,0,0,0,0,0,0,-21.315155,-129.37767,-19.317432,0,0,0,0,0,0,0,-0.04688528,0.01726089,0.99891335,-0.97991943,0.12878418,-0.16375732,0.072265625,0.045898438,0.047851562,1.1524999,-0.9706695,0.3573539,20.680601,-0.9951172,-0.10412598,-0.049072266,0.061523438,0.006835938,-9.77E-04,2.4313185,-4.364638,-56.53826,21.43344,-0.17547607,0.5722046,0.7982178,0.002929688,-0.053710938,-0.046875,1.8703252,-6.6214027,-128.51907,21.807026,0,0,0,0,0,0,0,-26.61924,-128.55595,22.278818,0,0,0,0,0,0,0,3.5827408,44.86036,-0.60701156
1.453124957,62,0.030761719,-0.9066162,0.49884033,0.013671875,0.005859375,-0.038085938,0,0,0,0,0,0,0,0,0,0,0,0.046367645,-0.017632306,-0.99894404,-0.9859619,-0.02166748,-0.005310059,0.060546875,-0.00390625,0.009765625,2.6079698,0.95995426,-0.36504337,-20.681238,-0.9996338,0.020141602,-0.095214844,0.08886719,-0.041992188,0.041992188,4.3655176,-1.6825628,-57.253124,-18.106905,-0.3795166,-0.49389648,0.84716797,-0.1484375,-0.009765625,-0.059570312,6.7922025,-1.4313314,-129.26926,-17.660284,0,0,0,0,0,0,0,-21.351326,-129.40709,-19.450584,0,0,0,0,0,0,0,-0.046367645,0.017632306,0.99894404,-0.9735718,0.15435791,-0.17749023,0.034179688,0.08300781,0.047851562,1.2309877,-0.95995426,0.36504337,20.681238,-0.98809814,-0.10235596,-0.036132812,0.04296875,0.025390625,-9.77E-04,2.3194218,-4.2721853,-56.535126,21.34626,-0.1887207,0.5460205,0.7970581,0.041015625,-0.053710938,-0.028320312,1.8940324,-6.555009,-128.51668,21.70248,0,0,0,0,0,0,0,-26.550087,-128.5504,22.179947,0,0,0,0,0,0,0,3.5746489,44.861332,-0.6259216
1.476562456,63,0.033203125,-0.8789673,0.5019531,0.014648438,0.025390625,-9.77E-04,0,0,0,0,0,0,0,0,0,0,0,0.04700774,-0.017546928,-0.99903077,-0.99487305,0.005249023,0.045654297,0.041015625,-0.0234375,0.009765625,2.54891,0.9732067,-0.3632758,-20.683035,-0.9925537,0.03491211,-0.09112549,0.030273438,0.01171875,0.021484375,4.4655886,-1.7902508,-57.238873,-18.072155,-0.33081055,-0.48944092,0.7962036,-0.24511719,-0.0859375,-0.13574219,6.5210724,-1.5902418,-129.25284,-17.64901,0,0,0,0,0,0,0,-21.508785,-129.39764,-19.468134,0,0,0,0,0,0,0,-0.04700774,0.017546928,0.99903077,-0.97076416,0.13946533,-0.17272949,0.015625,0.010742188,0.047851562,1.228123,-0.9732067,0.3632758,20.683035,-1.0083618,-0.09240723,-0.031921387,0.04296875,-0.03125,-9.77E-04,2.2620912,-4.28811,-56.54283,21.30114,-0.21063232,0.55773926,0.8227539,0.002929688,-0.053710938,-0.028320312,1.8429189,-6.6447105,-128.52328,21.614824,0,0,0,0,0,0,0,-26.637552,-128.54512,22.117805,0,0,0,0,0,0,0,3.5708537,44.86691,-0.62001944
1.499999955,64,0.037841797,-0.9098511,0.50457764,0.033203125,0.005859375,-0.038085938,0,0,0,0,0,0,0,0,0,0,0,0.047068477,-0.017443793,-0.9990219,-0.98651123,-0.005859375,-0.002319336,-0.033203125,0.03515625,-0.009765625,2.4933212,0.97446144,-0.36114058,-20.682848,-1.0005493,0.041748047,-0.092163086,-0.046875,0.009765625,0.001953125,4.456324,-1.834005,-57.239338,-18.112432,-0.35681152,-0.5494385,0.81744385,-0.20507812,-0.028320312,-0.13476562,6.4131002,-1.7226862,-129.2553,-17.76555,0,0,0,0,0,0,0,-21.64215,-129.38342,-19.562107,0,0,0,0,0,0,0,-0.047068477,0.017443793,0.9990219,-0.9686279,0.15020752,-0.1607666,-0.022460938,-0.025390625,0.010742188,1.2080417,-0.97446144,0.36114058,20.682848,-1.0043335,-0.105041504,-0.035095215,-0.033203125,-0.051757812,-0.020507812,2.2481182,-4.319978,-56.542492,21.236092,-0.18463135,0.55773926,0.7932129,0.020507812,-0.015625,-0.009765625,1.7702308,-6.7313185,-128.51956,21.487625,0,0,0,0,0,0,0,-26.72419,-128.54251,21.971325,0,0,0,0,0,0,0,3.5716372,44.866558,-0.6151333
1.523437455,65,0.047058105,-0.8768921,0.47973633,-0.0234375,0.025390625,-9.77E-04,0,0,0,0,0,0,0,0,0,0,0,0.04676944,-0.017411778,-0.99891347,-1.0133057,-0.035461426,0.020812988,-0.015625,-0.002929688,-0.02734375,2.4829373,0.9682725,-0.3604778,-20.680605,-0.9796753,9.16E-04,-0.10491943,0.010742188,0.049804688,-0.036132812,4.4351325,-1.8300459,-57.240513,-18.13199,-0.34362793,-0.56695557,0.7908325,-0.22460938,-0.06640625,-0.17285156,6.329393,-1.7265406,-129.25677,-17.795725,0,0,0,0,0,0,0,-21.642532,-129.38103,-19.617529,0,0,0,0,0,0,0,-0.04676944,0.017411778,0.99891347,-0.97302246,0.119628906,-0.13433838,-0.022460938,-0.025390625,0.010742188,1.1415817,-0.9682725,0.3604778,20.680605,-0.97094727,-0.10852051,-0.008422852,-0.013671875,-0.032226562,-0.0390625,2.2337947,-4.3780727,-56.537533,21.235018,-0.17279053,0.5194092,0.79693604,0.05859375,0.022460938,-0.009765625,1.6702324,-6.887143,-128.51419,21.515146,0,0,0,0,0,0,0,-26.883583,-128.54213,21.961946,0,0,0,0,0,0,0,3.5690427,44.86122,-0.61485934
1.546874954,66,0.05316162,-0.899353,0.505249,-0.0234375,0.025390625,-9.77E-04,0,0,0,0,0,0,0,0,0,0,0,0.04608497,-0.016894277,-0.99896336,-1.0026855,-0.043029785,-0.008239746,0.11816406,0.014648438,-0.028320312,2.5303354,0.9541031,-0.349764,-20.681637,-0.975647,0.019226074,-0.120666504,0.06933594,0.05078125,0.002929688,4.456148,-1.8324353,-57.229324,-18.112324,-0.30944824,-0.5560913,0.7733154,-0.15039062,-0.10546875,-0.15429688,6.491113,-1.6921661,-129.24634,-17.764793,0,0,0,0,0,0,0,-21.613785,-129.30121,-19.535374,0,0,0,0,0,0,0,-0.04608497,0.016894277,0.99896336,-0.9500122,0.111206055,-0.11505127,-0.041015625,-0.0078125,-0.0078125,1.0660615,-0.9541031,0.349764,20.681637,-0.9779663,-0.09863281,-0.019226074,0.0234375,0.08300781,-0.001953125,2.2632158,-4.443387,-56.545494,21.230473,-0.16448975,0.5574341,0.79815674,0.037109375,0.080078125,-0.02734375,1.5879457,-7.0135775,-128.5133,21.531275,0,0,0,0,0,0,0,-27.008675,-128.54065,21.969193,0,0,0,0,0,0,0,3.5746808,44.86147,-0.5937786
1.570312453,67,0.03173828,-0.9005127,0.49090576,-0.004882813,0.025390625,-9.77E-04,0,0,0,0,0,0,0,0,0,0,0,0.0446485,-0.01700402,-0.9991201,-0.9941406,-0.028625488,0.003723145,0.19335938,-0.024414062,-0.045898438,2.5762546,0.92436254,-0.35203597,-20.684883,-0.96746826,0.049316406,-0.10064697,0.08886719,0.013671875,0.00390625,4.4295645,-1.7891039,-57.235542,-18.13823,-0.2532959,-0.54644775,0.70666504,-0.03515625,-0.030273438,-0.09667969,6.731612,-1.5909511,-129.25233,-17.810938,0,0,0,0,0,0,0,-21.518257,-129.23079,-19.512848,0,0,0,0,0,0,0,-0.0446485,0.01700402,0.9991201,-0.9807739,0.13745117,-0.12713623,0.034179688,0.009765625,0.029296875,1.0494115,-0.92436254,0.35203597,20.684883,-0.9871216,-0.08892822,-0.007141113,0.0234375,0.043945312,-9.77E-04,2.2249277,-4.4554834,-56.542316,21.249535,-0.19567871,0.55688477,0.7932129,0.057617188,0.041992188,-0.009765625,1.5709714,-7.1289015,-128.50717,21.556171,0,0,0,0,0,0,0,-27.12415,-128.53168,22.010231,0,0,0,0,0,0,0,3.5952811,44.86392,-0.60287356
1.593749953,68,0.032714844,-0.9126587,0.5007324,0.013671875,-0.012695313,-0.038085938,0,0,0,0,0,0,0,0,0,0,0,0.044700295,-0.017190687,-0.9991665,-1.0143433,-0.018371582,-0.03302002,0.19335938,-0.024414062,-0.045898438,2.5462976,0.9254347,-0.35590056,-20.685843,-0.97766113,0.01348877,-0.095947266,0.107421875,-0.00390625,-0.014648438,4.531726,-1.8342077,-57.23678,-18.129025,-0.26489258,-0.5093994,0.70874023,0.061523438,0.083984375,-0.020507812,6.758624,-1.5703342,-129.25436,-17.831453,0,0,0,0,0,0,0,-21.499804,-129.22862,-19.514742,0,0,0,0,0,0,0,-0.044700295,0.017190687,0.9991665,-0.9642334,0.09967041,-0.11981201,-0.00390625,-0.043945312,0.010742188,1.0001465,-0.9254347,0.35590056,20.685843,-0.9871216,-0.08892822,-0.007141113,0.0234375,0.043945312,-9.77E-04,2.2808752,-4.510183,-56.533867,21.264894,-0.1706543,0.54107666,0.7822876,0.076171875,0.080078125,0.028320312,1.5676044,-7.1836004,-128.49872,21.571531,0,0,0,0,0,0,0,-27.179562,-128.54265,21.979134,0,0,0,0,0,0,0,3.5990186,44.865845,-0.6109071
1.617187452,69,0.028259277,-0.8820801,0.5159912,0.014648438,-0.013671875,-9.77E-04,0,0,0,0,0,0,0,0,0,0,0,0.04477653,-0.017494967,-0.9990778,-0.96984863,-0.020080566,-0.006469727,0.17675781,0.07128906,-0.06542969,2.5764825,0.9270121,-0.36220008,-20.684006,-0.9524536,0.060058594,-0.0914917,0.06933594,0.013671875,0.002929688,4.5225964,-1.7880372,-57.243343,-18.103348,-0.23162842,-0.5025635,0.78759766,0.08203125,0.16015625,0.056640625,7.0343328,-1.5292058,-129.25743,-17.842405,0,0,0,0,0,0,0,-21.468027,-129.22937,-19.405695,0,0,0,0,0,0,0,-0.04477653,0.017494967,0.9990778,-0.9671631,0.10473633,-0.1315918,0.015625,-0.0078125,-0.0078125,0.9285166,-0.9270121,0.36220008,20.684006,-1.0013428,-0.11669922,-0.045166016,0.0234375,0.08300781,-0.001953125,2.3740509,-4.571803,-56.525528,21.299511,-0.15960693,0.54382324,0.7862549,0.038085938,0.041992188,0.009765625,1.4753844,-7.2119923,-128.49437,21.581202,0,0,0,0,0,0,0,-27.20814,-128.52676,22.006031,0,0,0,0,0,0,0,3.5918458,44.86262,-0.6246159
1.640624951,70,0.018432617,-0.9191284,0.4960327,0.013671875,-0.013671875,-0.01953125,0,0,0,0,0,0,0,0,0,0,0,0.04533094,-0.018195821,-0.99898535,-0.9937744,0.015563965,0.025756836,0.13769531,0.033203125,-0.028320312,2.4912794,0.93849176,-0.3767098,-20.682095,-0.99853516,0.05078125,-0.096069336,0.10839844,-0.041015625,0.004882813,4.4731264,-1.7946777,-57.25891,-18.151266,-0.36779785,-0.56243896,0.8724365,0.08105469,0.16015625,0.11328125,7.0232253,-1.6264502,-129.27237,-17.93883,0,0,0,0,0,0,0,-21.572227,-129.28897,-19.411762,0,0,0,0,0,0,0,-0.04533094,0.018195821,0.99898535,-0.965271,0.101989746,-0.17218018,0.09082031,-0.008789063,0.009765625,0.91898423,-0.93849176,0.3767098,20.682095,-0.9909668,-0.09918213,-0.06793213,0.061523438,0.08300781,0.017578125,2.5228984,-4.57848,-56.50755,21.330688,-0.18670654,0.5510254,0.78234863,0.05859375,0.022460938,-0.009765625,1.3415884,-7.043052,-128.48083,21.520956,0,0,0,0,0,0,0,-27.0396,-128.497,21.97399,0,0,0,0,0,0,0,3.579746,44.860687,-0.65466785
1.66406245,71,0.006591797,-0.9030762,0.5024414,0.013671875,-0.032226562,-0.001953125,0,0,0,0,0,0,0,0,0,0,0,0.044041365,-0.018968806,-0.9989817,-1.001709,-0.04724121,0.003723145,0.13769531,0.014648438,-0.045898438,2.4459264,0.91179156,-0.39271307,-20.682018,-0.989563,0.036193848,-0.13171387,0.06933594,-0.004882813,-0.015625,4.563084,-1.8604407,-57.273216,-18.151657,-0.30706787,-0.5506592,0.751709,0.004882813,0.06542969,-0.020507812,6.832624,-1.6563,-129.29092,-18.011356,0,0,0,0,0,0,0,-21.597597,-129.34665,-19.543217,0,0,0,0,0,0,0,-0.044041365,0.018968806,0.9989817,-0.95495605,0.11834717,-0.13861084,0.07128906,-0.026367188,0.028320312,0.9561348,-0.91179156,0.39271307,20.682018,-1.0062256,-0.089416504,-0.043884277,0.004882813,0.08203125,-0.020507812,2.6405647,-4.554945,-56.491,21.306648,-0.1887207,0.53808594,0.8029175,0.09667969,0.041992188,0.02734375,1.19009,-6.887251,-128.47458,21.391136,0,0,0,0,0,0,0,-26.882544,-128.48343,21.799881,0,0,0,0,0,0,0,3.5980794,44.856525,-0.6931164
1.68749995,72,0.012817383,-0.904541,0.5181885,-0.0234375,-0.051757812,0.03515625,0,0,0,0,0,0,0,0,0,0,0,0.044267207,-0.019315828,-0.9990758,-0.9797363,-0.048339844,-0.018371582,0.08300781,0.12988281,-0.047851562,2.5086603,0.91646814,-0.3998975,-20.683966,-0.9835205,0.04345703,-0.109802246,0.14648438,-0.002929688,0.024414062,4.432217,-1.6995666,-57.289024,-18.200438,-0.34643555,-0.5635376,0.7711792,-0.015625,0.026367188,-0.020507812,6.620069,-1.4871769,-129.30634,-18.102041,0,0,0,0,0,0,0,-21.42884,-129.35608,-19.632778,0,0,0,0,0,0,0,-0.044267207,0.019315828,0.9990758,-0.95495605,0.11834717,-0.13861084,0.07128906,-0.026367188,0.028320312,0.94563967,-0.91646814,0.3998975,20.683966,-0.9849243,-0.09448242,-0.04901123,-0.013671875,0.08203125,-0.020507812,2.7659786,-4.559622,-56.483814,21.308596,-0.17749023,0.56921387,0.8070679,0.13378906,0.099609375,0.045898438,1.0387285,-6.751274,-128.46667,21.28821,0,0,0,0,0,0,0,-26.7453,-128.45932,21.684465,0,0,0,0,0,0,0,3.5858274,44.86226,-0.708472
1.710937449,73,0.01751709,-0.91015625,0.49414062,-0.004882813,-0.09082031,0.03515625,0,0,0,0,0,0,0,0,0,0,0,0.044567585,-0.019787146,-0.9990616,-1.0041504,-0.026367188,0.00378418,0.19726562,0.07128906,-0.009765625,2.5234413,0.922688,-0.4096552,-20.683672,-0.9706421,0.001708984,-0.09484863,0.20507812,0.017578125,-0.013671875,4.386062,-1.6526928,-57.303497,-18.204676,-0.27789307,-0.571228,0.7625122,-0.09082031,0.028320312,-0.09667969,6.225922,-1.394736,-129.3174,-18.01935,0,0,0,0,0,0,0,-21.332235,-129.376,-19.598675,0,0,0,0,0,0,0,-0.044567585,0.019787146,0.9990616,-0.96520996,0.1776123,-0.13690186,-0.041015625,-0.043945312,-0.0078125,0.9078444,-0.922688,0.4096552,20.683672,-0.97784424,-0.07720947,-0.028015137,-0.013671875,0.1015625,-0.040039062,2.925028,-4.661357,-56.468754,21.20109,-0.1963501,0.5988159,0.8032837,0.09472656,0.11816406,0.083984375,0.7981939,-6.7670975,-128.4564,21.07143,0,0,0,0,0,0,0,-26.762812,-128.41249,21.453964,0,0,0,0,0,0,0,3.5877223,44.862164,-0.72848153
1.734374948,74,0.024902344,-0.90478516,0.5148926,-0.004882813,-0.12988281,0.053710938,0,0,0,0,0,0,0,0,0,0,0,0.04624799,-0.019163638,-0.99892867,-0.97991943,-0.0637207,0.004516602,0.12109375,0.11035156,-0.047851562,2.6237586,0.9574771,-0.39674672,-20.68092,-0.99053955,0.04663086,-0.08605957,0.16601562,0.03515625,0.004882813,4.2802954,-1.5096855,-57.300667,-18.25931,-0.30133057,-0.56207275,0.76934814,-0.033203125,0.045898438,-0.05859375,5.9039197,-1.2698939,-129.31677,-18.133364,0,0,0,0,0,0,0,-21.211882,-129.3671,-19.682243,0,0,0,0,0,0,0,-0.04624799,0.019163638,0.99892867,-0.95544434,0.15759277,-0.11846924,-0.17285156,-0.07910156,-0.026367188,0.73435366,-0.9574771,0.39674672,20.68092,-0.9777832,-0.095458984,-0.06500244,-0.10839844,0.099609375,-0.001953125,3.2460043,-4.934772,-56.46547,21.13632,-0.18365479,0.5459595,0.7970581,0.07421875,0.13769531,0.12109375,0.63796467,-6.9480467,-128.45828,20.849329,0,0,0,0,0,0,0,-26.94408,-128.39914,21.182579,0,0,0,0,0,0,0,3.6086807,44.85794,-0.6934899
1.757812448,75,-6.10E-05,-0.9213257,0.47766113,-0.024414062,-0.16796875,0.016601562,0,0,0,0,0,0,0,0,0,0,0,0.04781556,-0.019656954,-0.99896204,-1.007019,-0.027893066,0.030761719,0.13867188,0.072265625,-0.046875,2.7032743,0.9899304,-0.40695992,-20.681612,-0.9916992,0.00378418,-0.10601807,0.14648438,0.015625,-0.014648438,4.220486,-1.4103363,-57.30956,-18.311039,-0.36773682,-0.54467773,0.79089355,-0.12792969,0.047851562,-0.09667969,5.805153,-1.096883,-129.32555,-18.135036,0,0,0,0,0,0,0,-21.037844,-129.3716,-19.683762,0,0,0,0,0,0,0,-0.04781556,0.019656954,0.99896204,-0.9701538,0.10974121,-0.13543701,-0.2861328,0.030273438,-0.043945312,0.7860898,-0.9899304,0.40695992,20.681612,-0.98913574,-0.12548828,-0.055236816,-0.051757812,0.12011719,-0.001953125,3.434902,-5.035329,-56.452282,21.0793,-0.21960449,0.5765381,0.8100586,0.11425781,0.11816406,0.12109375,0.4821389,-6.887124,-128.44815,20.746017,0,0,0,0,0,0,0,-26.885735,-128.38116,21.026323,0,0,0,0,0,0,0,3.6692352,44.85808,-0.7070606
1.781249947,76,-0.014770508,-0.91137695,0.49700928,-0.061523438,-0.1875,0.09082031,0,0,0,0,0,0,0,0,0,0,0,0.049739897,-0.020603202,-0.998811,-0.9874878,-0.01348877,0.030639648,0.17871094,0.09082031,-0.010742188,2.8154292,1.0297699,-0.42655006,-20.678484,-0.98046875,0.05645752,-0.1126709,0.16601562,0.03515625,0.004882813,4.179076,-1.3320913,-57.333782,-18.336176,-0.32122803,-0.5291748,0.78222656,-0.12890625,0.008789063,-0.09667969,5.778316,-1.0106645,-129.3468,-18.161482,0,0,0,0,0,0,0,-20.956224,-129.37453,-19.653015,0,0,0,0,0,0,0,-0.049739897,0.020603202,0.998811,-0.95806885,0.111450195,-0.13562012,-0.17285156,-0.006835938,-0.026367188,0.85041845,-1.0297699,0.42655006,20.678484,-0.9859619,-0.1060791,-0.05706787,-0.07128906,0.13867188,-0.001953125,3.6388419,-5.1516953,-56.426926,21.083752,-0.18060303,0.567688,0.7696533,0.09472656,0.11816406,0.17675781,0.42243615,-6.8451824,-128.4206,20.723173,0,0,0,0,0,0,0,-26.846498,-128.33337,20.913244,0,0,0,0,0,0,0,3.7744465,44.84715,-0.73713064
1.804687446,77,-0.00201416,-0.92126465,0.47869873,-0.061523438,-0.16796875,0.072265625,0,0,0,0,0,0,0,0,0,0,0,0.053503573,-0.020965707,-0.99860644,-0.97698975,0.014831543,-0.007324219,0.0234375,0.034179688,-0.009765625,2.8358657,1.1076894,-0.43405515,-20.674248,-0.9725342,0.0390625,-0.122558594,-0.047851562,0.046875,9.77E-04,4.1875973,-1.2690029,-57.34698,-18.398178,-0.2824707,-0.54711914,0.75671387,-0.12988281,-0.029296875,-0.078125,5.5880203,-1.0072237,-129.36078,-18.379833,0,0,0,0,0,0,0,-20.954132,-129.38298,-19.846918,0,0,0,0,0,0,0,-0.053503573,0.020965707,0.99860644,-0.98620605,0.10809326,-0.14215088,-0.17285156,0.01171875,-0.0078125,0.8672784,-1.1076894,0.43405515,20.674248,-0.99401855,-0.089416504,-0.06488037,-0.14648438,0.11816406,0.017578125,3.8498516,-5.2715244,-56.414867,21.092325,-0.19067383,0.5527954,0.8040161,0.09375,0.15625,0.21386719,0.48173293,-6.7803555,-128.418,20.566765,0,0,0,0,0,0,0,-26.778635,-128.27455,20.667675,0,0,0,0,0,0,0,3.8329678,44.842094,-0.7360947
1.828124946,78,0.009948731,-0.9477539,0.5,0.051757812,-0.20703125,0.107421875,0,0,0,0,0,0,0,0,0,0,0,0.0568721,-0.020919971,-0.9984349,-0.97454834,-0.04675293,-0.006469727,-0.0703125,0.09277344,-0.028320312,2.8798401,1.1774299,-0.43310827,-20.670696,-1.0077515,-0.006835938,-0.08843994,-0.028320312,0.029296875,-0.017578125,4.1505804,-1.168,-57.347996,-18.43695,-0.29608154,-0.5438843,0.7999878,-0.111328125,-0.010742188,-0.021484375,5.662751,-0.8731446,-129.36737,-18.402819,0,0,0,0,0,0,0,-20.820599,-129.38266,-19.84991,0,0,0,0,0,0,0,-0.0568721,0.020919971,0.9984349,-0.9459839,0.11517334,-0.13580322,-0.13574219,0.01171875,0.029296875,0.85957295,-1.1774299,0.43310827,20.670696,-0.9616089,-0.10247803,-0.05621338,-0.14648438,0.11816406,-0.001953125,4.046753,-5.365775,-56.412914,21.088388,-0.19750977,0.5733032,0.81396484,0.038085938,0.09863281,0.1953125,0.6370438,-6.6699724,-128.41687,20.472406,0,0,0,0,0,0,0,-26.67102,-128.24657,20.476994,0,0,0,0,0,0,0,3.8564267,44.84096,-0.7198751
1.851562445,79,0.002563477,-0.90802,0.50653076,0.013671875,-0.32226562,0.051757812,0,0,0,0,0,0,0,0,0,0,0,0.06198275,-0.019675352,-0.99806744,-1.0095825,-0.04333496,0.013793945,-0.08886719,0.111328125,-0.010742188,2.980912,1.2832352,-0.40734074,-20.66309,-0.9866333,0.016662598,-0.10595703,0.068359375,0.068359375,0.059570312,4.088399,-0.97357786,-57.32512,-18.423983,-0.33544922,-0.5566406,0.8165283,-0.15039062,-0.08691406,-0.09765625,5.38707,-0.62515265,-129.34315,-18.330406,0,0,0,0,0,0,0,-20.56711,-129.39226,-19.87696,0,0,0,0,0,0,0,-0.06198275,0.019675352,0.99806744,-0.98101807,0.11968994,-0.11444092,-0.07910156,-0.006835938,0.047851562,0.7433581,-1.2832352,0.40734074,20.66309,-0.9909668,-0.09429932,-0.06689453,-0.14648438,0.13769531,0.017578125,4.2790604,-5.520285,-56.43912,21.080246,-0.20349121,0.5991821,0.7786865,0.07714844,0.07910156,0.23242188,0.8963478,-6.6114564,-128.44003,20.350739,0,0,0,0,0,0,0,-26.614279,-128.23897,20.243467,0,0,0,0,0,0,0,3.834392,44.83999,-0.6458242
1.874999944,80,0.008300781,-0.91278076,0.48944092,-0.099609375,-0.30273438,0.07128906,0,0,0,0,0,0,0,0,0,0,0,0.06644353,-0.018410143,-0.99784774,-0.99298096,-0.058288574,-0.002319336,-0.08984375,0.07324219,-0.009765625,3.2417796,1.3755866,-0.38114703,-20.658543,-0.99542236,0.0647583,-0.06726074,-0.06738281,0.08300781,0.038085938,4.098828,-0.8443483,-57.29258,-18.358826,-0.3508911,-0.57196045,0.79473877,-0.15136719,-0.10644531,-0.1171875,5.0896587,-0.56682426,-129.31036,-18.36447,0,0,0,0,0,0,0,-20.506468,-129.32663,-19.917845,0,0,0,0,0,0,0,-0.06644353,0.018410143,0.99784774,-0.9359741,0.11199951,-0.13500977,-0.19238281,0.103515625,0.048828125,0.8522572,-1.3755866,0.38114703,20.658543,-0.9909668,-0.10394287,-0.08294678,-0.18457031,0.15625,0.017578125,4.5137095,-5.63731,-56.462494,21.006403,-0.16137695,0.56500244,0.81689453,0.07714844,0.09863281,0.25097656,1.2352724,-6.472028,-128.4686,20.11877,0,0,0,0,0,0,0,-26.473106,-128.2038,19.895016,0,0,0,0,0,0,0,3.96707,44.83151,-0.5629802
1.898437443,81,0.003234863,-0.9227905,0.49938965,0.0703125,-0.265625,0.08886719,0,0,0,0,0,0,0,0,0,0,0,0.07157186,-0.018148564,-0.99749166,-0.9533081,-0.04650879,0.001342773,-0.16699219,0.0546875,0.008789063,3.296575,1.4817605,-0.37573147,-20.651169,-0.97662354,0.014160156,-0.08502197,-0.22167969,0.09765625,-0.002929688,4.2190475,-0.78636026,-57.28777,-18.322302,-0.28814697,-0.571167,0.76641846,-0.11425781,-0.107421875,-0.022460938,5.09543,-0.5027256,-129.3067,-18.449139,0,0,0,0,0,0,0,-20.442175,-129.29079,-20.019693,0,0,0,0,0,0,0,-0.07157186,0.018148564,0.99749166,-0.9651489,0.10668945,-0.1385498,-0.2861328,0.06738281,0.01171875,0.957362,-1.4817605,0.37573147,20.651169,-0.9657593,-0.1373291,-0.076416016,-0.22265625,0.13671875,0.036132812,4.722151,-5.7091184,-56.470535,20.926382,-0.16467285,0.5430298,0.7753906,0.041015625,0.022460938,0.23144531,1.5226426,-6.2305346,-128.47946,19.94585,0,0,0,0,0,0,0,-26.227161,-128.15414,19.602737,0,0,0,0,0,0,0,4.0206943,44.826897,-0.5270971
1.921874943,82,0.008178711,-0.9176636,0.48443604,0.16503906,-0.22753906,0.125,0,0,0,0,0,0,0,0,0,0,0,0.07640484,-0.016859785,-0.99717814,-0.95440674,-0.09765625,0.029174805,-0.24316406,0.055664062,-0.009765625,3.2762012,1.581816,-0.3490497,-20.644678,-0.989624,0.017700195,-0.10797119,-0.125,0.119140625,0.017578125,4.4049997,-0.683131,-57.25508,-18.22884,-0.34576416,-0.5805054,0.77111816,-0.018554688,-0.08886719,-0.022460938,5.3814287,-0.22186646,-129.2646,-18.406082,0,0,0,0,0,0,0,-20.159832,-129.19872,-19.990295,0,0,0,0,0,0,0,-0.07640484,0.016859785,0.99717814,-0.95233154,0.08862305,-0.12310791,-0.34277344,0.068359375,0.01171875,0.76744837,-1.581816,0.3490497,20.644678,-0.97784424,-0.11669922,-0.08312988,-0.18457031,0.13671875,0.036132812,4.998183,-5.855812,-56.491676,20.884398,-0.1696167,0.53582764,0.810791,0.0390625,0.060546875,0.1953125,1.7959135,-6.0864735,-128.50266,19.825748,0,0,0,0,0,0,0,-26.080145,-128.13788,19.374222,0,0,0,0,0,0,0,3.9127064,44.83821,-0.4583063
1.945312442,83,-0.01373291,-0.9104614,0.49798584,0.10839844,-0.28515625,0.10644531,0,0,0,0,0,0,0,0,0,0,0,0.08203402,-0.016856205,-0.9968042,-1.0045776,-0.07678223,-0.005249023,-0.07128906,0.03515625,0.045898438,3.2903333,1.6983584,-0.3489756,-20.636936,-0.996521,0.04071045,-0.08917236,-0.08691406,0.13867188,0.037109375,4.548078,-0.48794854,-57.254414,-18.120262,-0.27001953,-0.58636475,0.76348877,0.037109375,-0.12792969,-0.00390625,5.5276523,0.15438622,-129.26593,-18.358118,0,0,0,0,0,0,0,-19.7808,-129.16806,-19.978476,0,0,0,0,0,0,0,-0.08203402,0.016856205,0.9968042,-0.97631836,0.0970459,-0.13549805,-0.2861328,0.10449219,0.06738281,0.67839694,-1.6983584,0.3489756,20.636936,-0.99694824,-0.09020996,-0.09075928,-0.2607422,0.15527344,0.07421875,5.223635,-5.9430695,-56.498684,20.837973,-0.19049072,0.5742798,0.80511475,0.060546875,0.002929688,0.19433594,2.1234772,-5.8718534,-128.50162,19.596601,0,0,0,0,0,0,0,-25.859158,-128.08604,19.05952,0,0,0,0,0,0,0,3.7992902,44.85139,-0.44577777
1.968749941,84,-0.026367188,-0.930603,0.47924805,0.0703125,-0.265625,0.12597656,0,0,0,0,0,0,0,0,0,0,0,0.08515671,-0.018458363,-0.99631804,-0.96118164,-0.03729248,-0.002563477,-0.091796875,-0.002929688,0.008789063,3.3305485,1.7630084,-0.3821454,-20.626873,-0.963501,0.042114258,-0.08972168,-0.10644531,0.15722656,0.017578125,4.7011547,-0.39570117,-57.291718,-18.113346,-0.27001953,-0.58636475,0.76348877,0.037109375,-0.12792969,-0.00390625,5.553721,0.38198113,-129.29999,-18.535135,0,0,0,0,0,0,0,-19.553205,-129.20212,-20.155493,0,0,0,0,0,0,0,-0.08515671,0.018458363,0.99631804,-0.94921875,0.09649658,-0.13293457,-0.26757812,0.140625,0.06738281,0.9052542,-1.7630084,0.3821454,20.626873,-0.97772217,-0.10217285,-0.08001709,-0.2607422,0.19335938,0.07421875,5.3465776,-5.9101095,-56.468624,20.74859,-0.19488525,0.53460693,0.7694702,9.77E-04,0.060546875,0.1953125,2.505147,-5.561942,-128.4734,19.375648,0,0,0,0,0,0,0,-25.547005,-127.9823,18.771626,0,0,0,0,0,0,0,3.8566728,44.837097,-0.5010426
1.992187441,85,-0.003601074,-0.90167236,0.49279785,0.10839844,-0.3232422,0.087890625,0,0,0,0,0,0,0,0,0,0,0,0.0909538,-0.018672671,-0.9958837,-0.97906494,-0.03314209,0.012573242,-0.1484375,-0.002929688,0.045898438,3.2495005,1.8830261,-0.38658217,-20.61788,-0.97753906,0.03265381,-0.10876465,-0.10644531,0.19335938,0.036132812,4.9168134,-0.31859398,-57.295166,-18.127583,-0.296875,-0.58654785,0.7889404,0.0390625,-0.05078125,-0.002929688,5.702792,0.6238003,-129.30582,-18.73991,0,0,0,0,0,0,0,-19.312727,-129.16406,-20.340034,0,0,0,0,0,0,0,-0.0909538,0.018672671,0.9958837,-0.96136475,0.08996582,-0.15057373,-0.24902344,0.123046875,0.10449219,0.987149,-1.8830261,0.38658217,20.61788,-0.9768677,-0.11968994,-0.07318115,-0.20410156,0.15625,0.055664062,5.466262,-5.9169216,-56.475517,20.680483,-0.17858887,0.5576782,0.7902832,0.021484375,0.002929688,0.13867188,2.832343,-5.2838173,-128.47409,19.166302,0,0,0,0,0,0,0,-25.263512,-127.94065,18.480286,0,0,0,0,0,0,0,3.819861,44.84404,-0.49195242
2.01562494,86,-2.44E-04,-0.94525146,0.48638916,0.18359375,-0.32421875,0.10546875,0,0,0,0,0,0,0,0,0,0,0,0.09621912,-0.01794026,-0.9954662,-0.994751,-0.04711914,-0.010314941,-0.109375,0.03515625,0.045898438,3.2450995,1.992033,-0.37141892,-20.609236,-0.97558594,0.033447266,-0.16522217,-0.08691406,0.15722656,0.018554688,5.0822244,-0.1536057,-57.283234,-18.130795,-0.2965088,-0.55010986,0.7202759,9.77E-04,-0.03125,0.03515625,5.914899,0.9967234,-129.28256,-18.921326,0,0,0,0,0,0,0,-18.941406,-129.12158,-20.512321,0,0,0,0,0,0,0,-0.09621912,0.01794026,0.9954662,-0.93499756,0.11401367,-0.13793945,-0.2109375,0.15917969,0.123046875,1.0706406,-1.992033,0.37141892,20.609236,-0.98065186,-0.089416504,-0.093811035,-0.16699219,0.13769531,0.11328125,5.560632,-5.9299855,-56.49491,20.48051,-0.15551758,0.5656128,0.7509155,9.77E-04,0.022460938,0.12109375,3.1521287,-5.042839,-128.48975,18.769693,0,0,0,0,0,0,0,-25.02029,-127.905914,18.055859,0,0,0,0,0,0,0,3.745666,44.85365,-0.4463048
2.039062439,87,0.019226074,-0.91882324,0.47912598,0.22167969,-0.3046875,0.08691406,0,0,0,0,0,0,0,0,0,0,0,0.09942564,-0.016402733,-0.9950969,-0.9545288,-0.085754395,-0.017700195,-0.107421875,0.09277344,0.044921875,3.263988,2.0584185,-0.33958742,-20.601591,-0.95062256,0.018615723,-0.123291016,-0.12597656,0.17382812,0.055664062,5.2722483,0.006127596,-57.253902,-18.126911,-0.2869873,-0.53240967,0.7262573,0.09765625,0.043945312,0.07421875,6.310592,1.4269989,-129.24829,-19.114258,0,0,0,0,0,0,0,-18.509987,-129.06847,-20.689705,0,0,0,0,0,0,0,-0.09942564,0.016402733,0.9950969,-0.9738159,0.13745117,-0.1459961,-0.23046875,0.14160156,0.16015625,1.1628112,-2.0584185,0.33958742,20.601591,-0.9794922,-0.06317139,-0.097595215,-0.2421875,0.17480469,0.11328125,5.6756115,-5.9492292,-56.527508,20.172268,-0.1585083,0.5584717,0.7872925,0,0.060546875,0.12109375,3.450598,-4.8578687,-128.50616,18.061432,0,0,0,0,0,0,0,-24.833008,-127.866196,17.319948,0,0,0,0,0,0,0,3.6393127,44.85943,-0.37581897
2.062499939,88,0.03656006,-0.9307251,0.5093994,0.12695312,-0.24609375,0.06933594,0,0,0,0,0,0,0,0,0,0,0,0.10190201,-0.012988735,-0.9949344,-0.98742676,-0.1138916,-0.007446289,0.006835938,0.072265625,0.044921875,3.399609,2.1096878,-0.26890704,-20.598227,-0.9736328,0.008117676,-0.11175537,-0.06738281,0.17480469,0.09472656,5.449279,0.15575576,-57.182888,-18.058245,-0.29595947,-0.59820557,0.7751465,0.15722656,0.13964844,0.09375,6.618084,1.791466,-129.17166,-19.198425,0,0,0,0,0,0,0,-18.152136,-129.00415,-20.695911,0,0,0,0,0,0,0,-0.10190201,0.012988735,0.9949344,-0.96484375,0.13226318,-0.1373291,-0.30566406,0.12402344,0.16113281,1.192882,-2.1096878,0.26890704,20.598227,-0.9755249,-0.09710693,-0.11584473,-0.35546875,0.2109375,0.11230469,5.8188787,-5.9603915,-56.600403,19.87156,-0.1281128,0.6063843,0.75213623,0.076171875,0.099609375,0.083984375,3.6955457,-4.6420937,-128.56345,17.335985,0,0,0,0,0,0,0,-24.61568,-127.89029,16.570124,0,0,0,0,0,0,0,3.530857,44.870792,-0.22414881
2.085937438,89,0.034484863,-0.92852783,0.49951172,0.22167969,-0.24609375,0.032226562,0,0,0,0,0,0,0,0,0,0,0,0.10275003,-0.009157632,-0.9949238,-0.9925537,-0.096069336,0.04748535,0.1015625,0.07128906,0.044921875,3.5629888,2.1272442,-0.18959138,-20.598007,-0.9817505,-0.015380859,-0.058410645,0.107421875,0.18066406,0.09765625,5.656414,0.18362916,-57.096664,-17.898432,-0.3164673,-0.5922241,0.78790283,0.1953125,0.13964844,0.09375,6.449838,1.9269148,-129.07935,-19.11791,0,0,0,0,0,0,0,-18.017706,-128.97581,-20.615131,0,0,0,0,0,0,0,-0.10275003,0.009157632,0.9949238,-0.9579468,0.12335205,-0.14837646,-0.32421875,0.17871094,0.14257812,1.2594321,-2.1272442,0.18959138,20.598007,-0.9946289,-0.06866455,-0.12646484,-0.31835938,0.15429688,0.13183594,5.943727,-5.8852654,-56.68096,19.55821,-0.2798462,0.4295044,0.822937,0.036132812,0.15625,0.15917969,3.7872899,-4.298522,-128.62173,16.569626,0,0,0,0,0,0,0,-24.262241,-127.98018,15.6181755,0,0,0,0,0,0,0,3.4160438,44.881725,-0.060317814
2.109374937,90,0.007141113,-0.91967773,0.48638916,0.25976562,-0.20800781,0.032226562,0,0,0,0,0,0,0,0,0,0,0,0.10331237,-0.006216381,-0.99485815,-0.963562,-0.0680542,0.04827881,0.16113281,0.10839844,0.10058594,3.566998,2.1388855,-0.12869823,-20.596647,-0.9714966,0.043945312,-0.056152344,0.14550781,0.23730469,0.078125,5.9079022,0.16496062,-57.03417,-17.821934,-0.31158447,-0.5648804,0.767334,0.23242188,0.12011719,0.055664062,6.1085577,1.9833019,-129.01248,-19.279894,0,0,0,0,0,0,0,-17.965141,-128.93103,-20.741201,0,0,0,0,0,0,0,-0.10331237,0.006216381,0.99485815,-0.9557495,0.14129639,-0.1986084,-0.3623047,0.25195312,0.19824219,1.4965868,-2.1388855,0.12869823,20.596647,-0.9572754,-0.12231445,-0.15301514,-0.33691406,0.19238281,0.15136719,6.0519414,-5.7226276,-56.740868,19.127974,-0.1772461,0.6084595,0.7925415,-0.040039062,0.080078125,0.029296875,4.0127845,-3.745922,-128.65073,15.741783,0,0,0,0,0,0,0,-23.709105,-128.02774,14.702735,0,0,0,0,0,0,0,3.2329283,44.893944,0.05520749
2.132812436,91,0.02508545,-0.90301514,0.5258179,0.29785156,-0.15039062,-0.004882813,0,0,0,0,0,0,0,0,0,0,0,0.1049445,-0.003784239,-0.9947287,-0.9528198,-0.028198242,0.11907959,0.083984375,0.09082031,0.10058594,3.450144,2.1726763,-0.07834542,-20.593967,-0.93536377,0.056152344,0.009765625,0.06738281,0.328125,0.076171875,6.196662,0.04032302,-56.973526,-17.80356,-0.35229492,-0.5812378,0.8104248,0.23144531,0.08105469,0.07421875,5.509613,1.879716,-128.94171,-19.524927,0,0,0,0,0,0,0,-18.065973,-128.89197,-21.000427,0,0,0,0,0,0,0,-0.1049445,0.003784239,0.9947287,-0.9686279,0.07647705,-0.17626953,-0.3623047,0.30664062,0.16113281,1.7247632,-2.1726763,0.07834542,20.593967,-0.98553467,-0.09277344,-0.16253662,-0.31835938,0.19238281,0.15136719,5.9787803,-5.3651085,-56.808216,18.815208,-0.18591309,0.5216675,0.7821655,-9.77E-04,0.080078125,0.046875,4.2939553,-2.970591,-128.69073,15.102449,0,0,0,0,0,0,0,-22.930382,-128.0925,13.9945,0,0,0,0,0,0,0,3.0296087,44.909218,0.14877784
2.156249936,92,0.04309082,-0.90722656,0.517395,0.39257812,-0.11230469,-0.005859375,0,0,0,0,0,0,0,0,0,0,0,0.103256345,1.33E-04,-0.9949117,-0.9631958,-0.089904785,0.27667236,0.0625,0.013671875,0.12011719,3.641047,2.1377277,0.002763353,-20.597755,-0.9484253,0.028259277,0.1383667,0.0859375,0.4951172,0.09375,6.7242956,-0.3334689,-56.854984,-17.488691,-0.37945557,-0.55322266,0.82421875,0.23144531,0.0625,0.036132812,4.905564,1.5359976,-128.81087,-19.276453,0,0,0,0,0,0,0,-18.409855,-128.76083,-20.743061,0,0,0,0,0,0,0,-0.103256345,-1.33E-04,0.9949117,-0.9468994,0.052490234,-0.18579102,-0.2109375,0.3232422,0.19824219,1.7434965,-2.1377277,-0.002763353,20.597755,-0.9755249,-0.111450195,-0.14685059,-0.31835938,0.15429688,0.18945312,5.8975086,-4.9708796,-56.900974,18.61959,-0.17242432,0.5760498,0.8041382,-0.040039062,0.080078125,-0.06347656,4.5371685,-2.2403526,-128.75072,14.5530815,0,0,0,0,0,0,0,-22.197357,-128.18077,13.382074,0,0,0,0,0,0,0,2.7483056,44.92658,0.2912588
2.179687435,93,0.09197998,-0.8727417,0.51538086,0.4873047,0.021484375,0.0859375,0,0,0,0,0,0,0,0,0,0,0,0.10028225,0.005159189,-0.99513805,-0.9432373,-0.029968262,0.4192505,0.13671875,-0.08203125,0.17675781,4.303932,2.0761552,0.1068112,-20.602442,-0.8902588,0.031982422,0.38781738,0.06542969,0.86621094,0.08886719,7.553878,-1.0249238,-56.668518,-16.920721,-0.3100586,-0.52941895,0.78723145,0.32617188,0.11816406,0.13183594,3.8951087,0.80559564,-128.60648,-18.682695,0,0,0,0,0,0,0,-19.142736,-128.5711,-20.144733,0,0,0,0,0,0,0,-0.10028225,-0.005159189,0.99513805,-0.9470825,0.109375,-0.14672852,-0.0234375,0.359375,0.3466797,1.8061278,-2.0761552,-0.1068112,20.602442,-1.0006104,-0.03845215,-0.123168945,-0.2626953,0.17382812,0.20898438,5.6392365,-4.5028334,-57.011932,18.293522,-0.18121338,0.6204834,0.7728882,-0.15722656,0.099609375,-0.099609375,4.649663,-1.588793,-128.83063,13.801486,0,0,0,0,0,0,0,-21.546503,-128.29651,12.635225,0,0,0,0,0,0,0,2.338018,44.945404,0.46862194
2.203124934,94,0.084350586,-0.81951904,0.49121094,0.50683594,0.21386719,0.16113281,0,0,0,0,0,0,0,0,0,0,0,0.0975526,0.007660319,-0.9954537,-0.97442627,-0.027160645,0.6489258,0.24414062,-0.3701172,0.29101562,4.9113116,2.019642,0.15859234,-20.608976,-0.93603516,0.095947266,0.50634766,0.005859375,1.3125,-0.0703125,8.377518,-1.7164695,-56.583256,-16.60942,-0.37719727,-0.60595703,0.9066162,0.68066406,0.017578125,0.37597656,3.1319413,0.32741022,-128.4974,-18.399347,0,0,0,0,0,0,0,-19.62051,-128.48376,-19.866747,0,0,0,0,0,0,0,-0.0975526,-0.007660319,0.9954537,-0.9663696,0.16796875,-0.17053223,-0.0234375,0.359375,0.36523438,2.186775,-2.019642,-0.15859234,20.608976,-0.9743042,-0.036010742,-0.09637451,-0.41308594,0.171875,0.20898438,5.3761826,-4.1494646,-57.056187,17.777317,-0.15734863,0.5888672,0.7727051,-0.2734375,0.119140625,-0.07910156,4.4488897,-1.187052,-128.83435,12.684206,0,0,0,0,0,0,0,-21.144762,-128.38794,11.4984255,0,0,0,0,0,0,0,1.8125799,44.971764,0.5237007
2.226562434,95,0.14605713,-0.7670288,0.5198364,0.5078125,0.3095703,0.29101562,0,0,0,0,0,0,0,0,0,0,0,0.093295574,0.007610021,-0.995858,-0.99798584,-0.023925781,0.7119751,0.044921875,-0.6171875,0.25683594,5.7429996,1.9315085,0.15755099,-20.617346,-0.98773193,0.19458008,0.39593506,-0.38378906,1.6572266,-0.23242188,10.074447,-2.578137,-56.51137,-16.337784,-0.19696045,-0.84594727,0.81951904,1.0019531,0.032226562,0.50878906,3.3528702,0.3946271,-128.38039,-18.82765,0,0,0,0,0,0,0,-19.551338,-128.3422,-20.317612,0,0,0,0,0,0,0,-0.093295574,-0.007610021,0.995858,-0.93200684,0.18902588,-0.1817627,-0.09863281,0.39746094,0.40234375,2.9090564,-1.9315085,-0.15755099,20.617346,-0.9286499,-0.05493164,-0.107788086,-0.39453125,0.19140625,0.22753906,5.1366,-3.7670596,-57.029194,17.16457,-0.16656494,0.5465088,0.8138428,-0.32910156,0.041992188,-0.1171875,4.249989,-0.69210315,-128.75969,11.553629,0,0,0,0,0,0,0,-20.65106,-128.4459,10.333964,0,0,0,0,0,0,0,1.2012151,44.992794,0.45635438
2.249999933,96,0.16815186,-0.7633667,0.5053711,0.41308594,0.40527344,0.47753906,0,0,0,0,0,0,0,0,0,0,0,0.08569902,0.004784305,-0.99661386,-1.145813,-0.02178955,0.74316406,-0.4482422,-1.0703125,0.1328125,7.0048513,1.7742348,0.09904994,-20.632998,-1.2773438,0.10015869,0.24334717,-0.578125,1.6894531,-0.3125,13.280912,-3.6550074,-56.435696,-15.738505,-0.0357666,-1.1181641,0.8482666,1.3007812,0.5107422,0.43945312,5.013642,1.4585695,-128.16144,-19.763916,0,0,0,0,0,0,0,-18.492088,-128.17271,-21.186207,0,0,0,0,0,0,0,-0.08569902,-0.004784305,0.99661386,-0.95410156,0.18237305,-0.14886475,-0.19335938,0.2890625,0.38378906,3.8519359,-1.7742348,-0.09904994,20.632998,-0.9894409,-0.06561279,-0.15533447,-0.4140625,0.22949219,0.24707031,5.08392,-3.4090781,-56.932568,16.53444,-0.19482422,0.53326416,0.80389404,-0.25097656,0.022460938,-0.08105469,4.2386374,-0.110678434,-128.61217,10.36743,0,0,0,0,0,0,0,-20.069952,-128.42294,9.109897,0,0,0,0,0,0,0,0.68487287,45.00759,0.274954
2.273437432,97,0.13671875,-0.82666016,0.48480225,-0.24902344,0.5048828,0.55859375,0,0,0,0,0,0,0,0,0,0,0,0.07197386,-0.003739512,-0.9976315,-1.4171143,0.14923096,0.54522705,-0.8203125,-1.4111328,0.2841797,8.481584,1.4900827,-0.077419475,-20.654064,-1.638977,0.01965332,0.15435791,0.19726562,1.75,-0.37597656,17.35638,-5.388977,-56.362114,-14.764029,-0.13226318,-1.1860962,1.0532227,1.0195312,1.1318359,0.06933594,6.632529,2.1981936,-127.76414,-20.290367,0,0,0,0,0,0,0,-17.771301,-128.05313,-21.38707,0,0,0,0,0,0,0,-0.07197386,0.003739512,0.9976315,-0.9335327,0.1506958,-0.19396973,-0.17382812,0.2861328,0.19824219,4.728121,-1.4900827,0.077419475,20.654064,-0.96307373,-0.11987305,-0.22570801,-0.091796875,0.27148438,0.22753906,5.3837953,-2.972684,-56.730873,16.175617,-0.1928711,0.49243164,0.8745117,0.061523438,-0.11035156,-0.19628906,4.5929494,0.90394545,-128.33942,9.590439,0,0,0,0,0,0,0,-19.050953,-128.2531,8.287569,0,0,0,0,0,0,0,0.5806141,45.00649,-0.12681359
2.296874932,98,-0.003479004,-0.9838867,0.4354248,-0.70410156,0.4501953,0.41503906,0,0,0,0,0,0,0,0,0,0,0,0.05575338,-0.022981085,-0.99841064,-1.4958496,0.037719727,0.28936768,-0.13183594,-1.359375,0.17285156,9.107376,1.1542689,-0.47577968,-20.670195,-1.4872437,0.20806885,0.028930664,0.74121094,1.5839844,-0.6503906,21.62863,-7.309509,-56.427536,-13.809647,0.6010132,-1.3562012,1.0283203,0.41308594,1.1572266,0.12597656,7.738676,3.0911813,-127.37418,-20.513025,0,0,0,0,0,0,0,-16.882195,-128.04756,-21.328959,0,0,0,0,0,0,0,-0.05575338,0.022981085,0.99841064,-0.9158325,0.2019043,-0.25109863,0.09082031,0.41015625,0.123046875,6.1415567,-1.1542689,0.47577968,20.670195,-1.0230103,0.011474609,-0.29089355,0.4189453,0.3544922,0.22753906,5.456071,-2.0941143,-56.31096,15.817557,-0.18572998,0.5420532,0.7941284,0.25683594,-0.16796875,-0.16210938,5.4509683,2.559332,-127.82441,8.759783,0,0,0,0,0,0,0,-17.404463,-127.69725,7.533143,0,0,0,0,0,0,0,1.1452982,44.985294,-0.97150075
2.320312431,99,-0.12408447,-1.2086182,0.41583252,-0.25,0.4111328,0.15136719,0,0,0,0,0,0,0,0,0,0,0,0.050554127,-0.036928363,-0.9982276,-1.2854614,-0.068725586,0.23352051,0.85546875,-1.3837891,-0.2890625,10.139427,1.0466269,-0.7645316,-20.666409,-1.4082031,0.21118164,-0.07110596,0.453125,0.9453125,-0.68652344,25.218401,-8.57515,-56.34055,-12.392039,0.98535156,-1.2731323,1.1903687,-0.30273438,0.625,0.099609375,8.461369,4.2052345,-126.85663,-19.52873,0,0,0,0,0,0,0,-15.7568035,-127.91381,-20.192823,0,0,0,0,0,0,0,-0.050554127,0.036928363,0.9982276,-0.8661499,0.24523926,-0.2564087,0.5058594,0.57128906,0.23339844,7.575979,-1.0466269,0.7645316,20.666409,-0.9608154,0.0892334,-0.25476074,0.40039062,0.3154297,0.17089844,5.160727,-1.0979203,-55.993896,15.366745,-0.19421387,0.63427734,0.7769165,0.37402344,-0.22558594,-0.18261719,6.3111515,4.2673984,-127.37691,7.484335,0,0,0,0,0,0,0,-15.702812,-127.14744,6.39482,0,0,0,0,0,0,0,1.4587137,44.956776,-1.5892528
2.34374993,100,-0.020263672,-1.1212769,0.38208008,0.24121094,0.18066406,-0.27929688,0,0,0,0,0,0,0,0,0,0,0,0.044058114,-0.037449,-0.9985382,-1.227478,0.09857178,0.13659668,1.0166016,-1.7675781,-0.17285156,12.342052,0.9121392,-0.77531034,-20.672838,-1.2958374,0.28814697,-0.121032715,-0.31933594,0.047851562,-0.49902344,27.964214,-9.901952,-55.83269,-10.592947,1.281189,-0.9537964,1.1397705,-0.63183594,-0.27539062,0.087890625,8.949992,4.0196753,-126.1537,-17.508884,0,0,0,0,0,0,0,-15.933587,-127.3209,-18.255783,0,0,0,0,0,0,0,-0.044058114,0.037449,0.9985382,-0.9197998,0.2744751,-0.18713379,0.5439453,0.7529297,0.234375,8.404712,-0.9121392,0.77531034,20.672838,-0.99713135,0.009338379,-0.1605835,0.28710938,0.31445312,0.13183594,4.563213,-0.13621306,-55.91373,14.769411,-0.20587158,0.53948975,0.7842407,0.39160156,-0.16796875,-0.107421875,6.7306795,5.53137,-127.20511,6.280135,0,0,0,0,0,0,0,-14.444031,-126.865,5.3223724,0,0,0,0,0,0,0,1.3746789,44.95912,-1.6254845
2.367187429,101,0.109802246,-1.0549316,0.37329102,0.44921875,0.123046875,-0.4296875,0,0,0,0,0,0,0,0,0,0,0,0.036615163,-0.029350992,-0.99916285,-1.227478,0.09857178,0.13659668,1.0166016,-1.7675781,-0.17285156,12.918605,0.75804687,-0.6076565,-20.68577,-1.1791992,0.18109131,-0.12976074,-0.9160156,-0.9189453,-0.32617188,27.309679,-10.056044,-55.66504,-10.605879,1.2644653,-0.96624756,1.0333862,-0.84277344,-1.1376953,-0.22460938,9.368421,3.597952,-126.12904,-16.48788,0,0,0,0,0,0,0,-16.353888,-127.07514,-17.508041,0,0,0,0,0,0,0,-0.036615163,0.029350992,0.99916285,-0.9371338,0.17810059,-0.14819336,0.41210938,0.73535156,0.19726562,8.40296,-0.75804687,0.6076565,20.68577,-0.9466553,-0.026367188,-0.1362915,0.43847656,0.3359375,0.15136719,4.0991144,0.61173165,-56.03253,14.422461,-0.16082764,0.53167725,0.7340088,0.37597656,-0.28320312,-0.21972656,7.055217,6.454421,-127.27228,5.6311283,0,0,0,0,0,0,0,-13.525527,-126.8069,4.852975,0,0,0,0,0,0,0,1.0747813,44.980793,-1.2819507
2.390624929,102,0.14294434,-0.91674805,0.3656006,0.5439453,0.2578125,-0.5029297,0,0,0,0,0,0,0,0,0,0,0,0.003164411,-0.018385861,-0.9999739,-0.93743896,0.112854004,0.18499756,-0.18554688,-1.7578125,-0.099609375,18.115808,0.06551278,-0.3806443,-20.702559,-1.0797119,0.016967773,-0.119018555,-0.75683594,-1.734375,-0.14257812,30.076086,-13.767301,-53.97551,-7.157668,1.1964111,-0.8330078,0.82128906,-0.94140625,-1.4609375,-0.6816406,9.69337,-1.7795458,-124.86447,-11.235753,0,0,0,0,0,0,0,-21.734772,-125.2707,-12.537216,0,0,0,0,0,0,0,-0.003164411,0.018385861,0.9999739,-0.8925171,0.21356201,-0.13677979,0.7324219,0.86035156,0.2529297,8.461996,-0.06551278,0.3806443,20.702559,-0.9685669,0.06512451,-0.11846924,0.58984375,0.39453125,0.13183594,3.395287,2.0078726,-56.196167,14.100918,-0.19665527,0.5888672,0.7284546,0.25878906,-0.28222656,-0.3857422,7.418149,7.8349733,-127.3761,4.8768377,0,0,0,0,0,0,0,-12.150796,-126.771194,4.475586,0,0,0,0,0,0,0,1.1138227,44.985332,-0.823591
2.414062428,103,0.06506348,-0.8148804,0.32177734,0.6201172,0.3935547,-0.61328125,0,0,0,0,0,0,0,0,0,0,0,-0.027497739,-0.006846139,-0.99977064,-0.79522705,-0.04626465,0.2154541,-0.3154297,-1.6035156,-0.15722656,20.859528,-0.56928873,-0.14173631,-20.698353,-0.95440674,0.06542969,-0.105407715,-0.21191406,-2.3720703,0.064453125,29.061983,-15.664385,-52.998165,-5.611904,0.83032227,-0.84381104,0.95184326,-1.1757812,-1.2441406,-1.2451172,8.981636,-6.7536964,-124.42914,-7.407708,0,0,0,0,0,0,0,-26.703758,-124.23954,-8.823568,0,0,0,0,0,0,0,0.027497739,0.006846139,0.99977064,-0.8635864,0.28125,-0.1899414,0.7138672,1.0234375,0.234375,8.767169,0.56928873,0.14173631,20.698353,-0.95336914,0.04949951,-0.13757324,0.6279297,0.3955078,0.13183594,2.5715396,3.4814765,-56.32218,13.44178,-0.2687378,0.7554321,0.7805786,0.048828125,-0.3779297,-0.45898438,7.7084885,9.360355,-127.428795,3.690261,0,0,0,0,0,0,0,-10.626854,-126.74607,3.6906567,0,0,0,0,0,0,0,0.9259907,44.996986,-0.3335948
2.437499927,104,0.036071777,-0.6986084,0.29071045,0.41210938,0.4140625,-0.6298828,0,0,0,0,0,0,0,0,0,0,0,-0.04327604,0.004439442,-0.9992353,-0.7244873,-0.07910156,0.2267456,0.14160156,-1.6455078,-0.19335938,23.885448,-0.89594865,0.09191021,-20.687267,-0.8843384,0.06854248,-0.0836792,-0.07421875,-2.7607422,0.2421875,27.509802,-17.189531,-51.911076,-3.9568558,0.36602783,-0.7215576,1.0344849,-1.2109375,-1.375,-1.7568359,7.9949994,-12.110037,-123.74025,-3.17485,0,0,0,0,0,0,0,-32.047035,-122.8693,-4.524284,0,0,0,0,0,0,0,0.04327604,-0.004439442,0.9992353,-0.899292,0.3116455,-0.22070312,0.5439453,1.0791016,0.1796875,9.080669,0.89594865,-0.09191021,20.687267,-1.0048218,0.08630371,-0.17285156,0.36328125,0.39160156,0.11230469,1.5909007,4.7772512,-56.395428,12.6996155,-0.16082764,0.66522217,0.7711792,-0.18359375,-0.30273438,-0.23339844,7.939934,10.659855,-127.40141,2.2174692,0,0,0,0,0,0,0,-9.320742,-126.654526,2.5977564,0,0,0,0,0,0,0,0.52693003,45.00475,0.17712799
2.460937427,105,0.05517578,-0.70098877,0.288208,0.052734375,0.4345703,-0.515625,0,0,0,0,0,0,0,0,0,0,0,-0.059036136,0.011079014,-0.998454,-0.64886475,-0.07696533,0.22210693,0.9785156,-1.7470703,-0.24707031,26.508226,-1.2222308,0.22936995,-20.671093,-0.79541016,0.049865723,-0.14801025,0.10058594,-2.9628906,0.40039062,25.817991,-18.631905,-50.80267,-2.1602173,0.14239502,-0.5701294,0.95477295,-1.2109375,-1.3935547,-1.8320312,7.411983,-17.547958,-122.71619,1.49614,0,0,0,0,0,0,0,-37.442055,-121.0785,0.23863459,0,0,0,0,0,0,0,0.059036136,-0.011079014,0.998454,-0.84155273,0.20953369,-0.28778076,0.33691406,1.3173828,0.16308594,10.1693735,1.2222308,-0.22936995,20.671093,-0.9785156,0.021240234,-0.22930908,0.13574219,0.40820312,0.13183594,0.556375,6.4272375,-56.30853,11.854197,-0.17913818,0.6100464,0.82891846,-0.37695312,-0.26464844,-0.119140625,8.376369,12.690815,-127.19316,0.77659607,0,0,0,0,0,0,0,-7.2845516,-126.42881,1.3607731,0,0,0,0,0,0,0,0.4732577,45.006706,0.47141945
2.484374926,106,0.08880615,-0.7696533,0.30859375,-0.17382812,0.56933594,-0.25390625,0,0,0,0,0,0,0,0,0,0,0,-0.0739578,0.010544777,-0.9974135,-0.5205078,0.043151855,0.24920654,1.1875,-1.8066406,-0.20996094,28.869284,-1.5311579,0.21830957,-20.649551,-0.6831665,0.10107422,-0.22772217,0.1015625,-3.0947266,0.55371094,24.11627,-20.030043,-49.67711,-0.21116638,0.029968262,-0.5126953,0.7215576,-0.9951172,-1.0888672,-1.6962891,7.428775,-23.270914,-121.32456,6.3209524,0,0,0,0,0,0,0,-43.088615,-118.79359,5.5006676,0,0,0,0,0,0,0,0.0739578,-0.010544777,0.9974135,-0.9029541,0.20123291,-0.35601807,0.41308594,1.625,0.10839844,12.010156,1.5311579,-0.21830957,20.649551,-1.0169067,-0.111572266,-0.21331787,0.09863281,0.4267578,0.11230469,1.0281247,8.626856,-55.977036,11.160059,-0.20611572,0.48120117,0.8439331,-0.18554688,-0.2265625,-0.12109375,8.583641,15.53696,-126.75151,-0.22908783,0,0,0,0,0,0,0,-4.442685,-126.07484,0.28556538,0,0,0,0,0,0,0,0.55489635,45.00381,0.43464035
2.507812425,107,0.11065674,-0.9199829,0.3684082,-0.15429688,0.7988281,-0.03125,0,0,0,0,0,0,0,0,0,0,0,-0.101591736,0.002204072,-0.99495226,-0.4963379,0.1593628,0.12249756,0.7529297,-1.7089844,-0.026367188,30.69514,-2.1032636,0.045631107,-20.598595,-0.69525146,0.08544922,-0.33294678,0.024414062,-3.321289,0.63183594,22.2406,-21.761038,-48.630142,1.616108,0.08935547,-0.60369873,0.7409668,-1.390625,-0.2783203,-1.4980469,6.4870644,-29.621887,-119.585144,11.106014,0,0,0,0,0,0,0,-49.37844,-116.56038,10.506286,0,0,0,0,0,0,0,0.101591736,-0.002204072,0.99495226,-1.010376,0.10900879,-0.21679688,0.2998047,1.6083984,0.10839844,14.277102,2.1032636,-0.045631107,20.598595,-0.99212646,-0.08111572,-0.00402832,0.041015625,0.54003906,0.13085938,2.657265,11.016842,-55.451565,10.615607,-0.1885376,0.5454712,0.8482666,0.19824219,-0.13085938,-0.012695313,8.726252,18.23998,-126.174194,-0.86519146,0,0,0,0,0,0,0,-1.7421494,-125.47994,-0.44620514,0,0,0,0,0,0,0,0.815667,44.99836,0.016397297
2.531249925,108,0.12023926,-0.93927,0.43060303,0.07324219,0.9511719,0.059570312,0,0,0,0,0,0,0,0,0,0,0,-0.13745517,-0.009959426,-0.99064153,-0.5046997,0.21655273,0.14764404,0.061523438,-1.2265625,0.0234375,31.91746,-2.8457482,-0.206191,-20.509348,-0.6743164,0.0546875,-0.2574463,0.16113281,-3.3730469,0.6152344,19.777939,-23.46264,-47.867115,3.006855,-0.29711914,-0.8085327,0.7672119,-1.5683594,-0.0234375,-1.890625,6.4502945,-36.05551,-117.66727,15.496429,0,0,0,0,0,0,0,-55.777367,-114.33731,15.277245,0,0,0,0,0,0,0,0.13745517,0.009959426,0.99064153,-1.086731,0.015380859,-0.11859131,0.22460938,1.3359375,0.033203125,15.892614,2.8457482,0.206191,20.509348,-0.96221924,-0.08428955,0.13616943,-0.20410156,0.76660156,0.12988281,3.8856459,13.042443,-54.97544,10.518145,-0.15930176,0.5706177,0.8356323,0.5800781,-0.014648438,-0.034179688,8.950102,20.2663,-125.67493,-1.0414104,0,0,0,0,0,0,0,0.28297234,-124.89287,-0.685235,0,0,0,0,0,0,0,0.95046496,44.99435,-0.5842318
2.554687424,109,0.1262207,-0.98986816,0.47772217,0.07324219,1.1054688,0.005859375,0,0,0,0,0,0,0,0,0,0,0,-0.16595015,-0.021612994,-0.98616266,-0.58984375,0.017456055,0.23376465,-0.5341797,-0.6855469,-0.056640625,32.740513,-3.4356825,-0.447456,-20.416624,-0.8274536,0.044921875,-0.22277832,-0.052734375,-3.3623047,0.70703125,16.594234,-24.674347,-47.445763,3.863531,-0.49542236,-0.47991943,0.7819214,-1.671875,0.53222656,-1.375,5.9997272,-42.058,-115.60736,19.311352,0,0,0,0,0,0,0,-61.74943,-112.59159,18.55436,0,0,0,0,0,0,0,0.16595015,0.021612994,0.98616266,-1.0932617,-0.01574707,-0.16326904,0.5449219,1.1875,0.08691406,17.17097,3.4356825,0.447456,20.416624,-1.0523682,-0.12237549,0.019836426,0.13574219,1.0185547,0.18652344,4.7356963,14.821491,-54.491997,10.324404,-0.29040527,0.79803467,0.83984375,0.5283203,0.3310547,-0.3642578,9.584743,22.470932,-125.129944,-1.3971195,0,0,0,0,0,0,0,2.4918022,-124.28313,-0.9663849,0,0,0,0,0,0,0,0.78023744,44.991142,-1.1173346
2.578124923,110,0.05999756,-1.0830078,0.4578247,0.31933594,1.2216797,-0.18066406,0,0,0,0,0,0,0,0,0,0,0,-0.19004422,-0.032358117,-0.98145497,-0.8279419,-0.057922363,0.1977539,-0.6748047,-0.20605469,-0.22851562,33.3874,-3.9345052,-0.66991335,-20.31916,-0.94018555,0.15240479,-0.22784424,-0.4794922,-3.1679688,0.60253906,15.545903,-25.374582,-47.334137,4.4449253,-0.7727051,-0.5687256,0.77368164,-1.7822266,0.953125,-0.6904297,11.445889,-46.259354,-114.19966,19.928492,0,0,0,0,0,0,0,-66.07313,-111.5723,19.240643,0,0,0,0,0,0,0,0.19004422,0.032358117,0.98145497,-1.0379639,0.07873535,-0.3411255,1.46875,1.3261719,0.32617188,18.028917,3.9345052,0.66991335,20.31916,-1.1610718,-0.029968262,-0.10418701,0.66503906,1.1777344,0.18652344,4.8951297,16.476118,-53.98709,10.09328,-0.27026367,0.670105,0.8016968,0.5859375,0.8691406,-0.6376953,10.486911,25.302898,-124.34791,-2.496169,0,0,0,0,0,0,0,5.3290195,-123.5829,-1.9221439,0,0,0,0,0,0,0,0.26040727,44.98251,-1.5334767
2.601562422,111,-0.046020508,-1.1547852,0.4580078,0.45214844,1.2607422,-0.31054688,0,0,0,0,0,0,0,0,0,0,0,-0.21752769,-0.039345205,-0.9754804,-0.8272705,0.030944824,0.3555298,-0.19238281,0.59277344,-0.33007812,33.256927,-4.503498,-0.81456774,-20.195467,-0.94781494,0.24450684,-0.20593262,-1.1210938,-2.8876953,0.4736328,15.3373995,-25.388573,-47.755684,4.505018,-1.2525024,-0.7963867,0.7591553,-1.7832031,1.0654297,-0.29296875,18.591736,-49.54225,-113.768936,18.460041,0,0,0,0,0,0,0,-69.428345,-111.664185,18.077345,0,0,0,0,0,0,0,0.21752769,0.039345205,0.9754804,-1.0179443,0.15551758,-0.40301514,2.0146484,1.2324219,0.546875,19.372192,4.503498,0.81456774,20.195467,-1.1433716,0.007141113,-0.16473389,0.79785156,1.2939453,0.16699219,5.2401886,18.620567,-53.304916,9.176801,-0.21612549,0.62786865,0.85266113,0.54296875,1.5029297,-0.94628906,10.954452,29.045012,-123.25535,-4.437886,0,0,0,0,0,0,0,9.062517,-122.877205,-3.7404385,0,0,0,0,0,0,0,-0.39242753,44.9748,-1.7265122
2.624999922,112,-0.05029297,-1.1785889,0.4638672,0.5644531,1.0097656,-0.4248047,0,0,0,0,0,0,0,0,0,0,0,-0.24350005,-0.042492922,-0.9692108,-0.8742676,0.099121094,0.6542969,-0.07324219,0.7441406,-0.31347656,32.905773,-5.0412064,-0.87973523,-20.065668,-0.9472656,-0.16357422,-0.04547119,-1.2783203,-2.2929688,0.17871094,15.207295,-24.964436,-48.291042,4.44042,-1.9081421,-0.86883545,0.8303833,-1.0380859,0.36914062,-0.9042969,24.705801,-51.932377,-113.63527,17.612936,0,0,0,0,0,0,0,-71.84956,-111.81879,17.519878,0,0,0,0,0,0,0,0.24350005,0.042492922,0.9692108,-1.0696411,0.26470947,-0.37841797,2.0527344,1.140625,0.453125,20.605133,5.0412064,0.87973523,20.065668,-1.1453857,0.018676758,-0.14672852,0.8935547,1.3330078,0.09082031,5.4864087,20.74741,-52.613224,8.185051,-0.20703125,0.6456909,0.82128906,0.7919922,2.0605469,-1.2773438,10.937328,32.933315,-122.06743,-6.436145,0,0,0,0,0,0,0,12.94734,-122.336624,-5.6902227,0,0,0,0,0,0,0,-1.0519334,44.965828,-1.7071453
2.648437421,113,-0.051513672,-1.1483765,0.49395752,0.5644531,0.87597656,-0.5732422,0,0,0,0,0,0,0,0,0,0,0,-0.26714572,-0.04088073,-0.9629936,-1.1924438,-0.29248047,0.8378296,-0.21582031,0.47851562,-0.36621094,32.742676,-5.5307446,-0.8463578,-19.936954,-0.88397217,-0.41156006,0.26483154,0.0546875,-1.1748047,-0.021484375,13.807852,-24.723059,-48.74608,4.2715836,-2,-0.08166504,0.15307617,-0.22167969,-0.48242188,-1.4990234,27.1716,-53.34411,-113.175865,18.7709,0,0,0,0,0,0,0,-73.218895,-110.93329,18.917128,0,0,0,0,0,0,0,0.26714572,0.04088073,0.9629936,-1.0944824,0.3503418,-0.29815674,1.8457031,0.8310547,0.24804688,21.344969,5.5307446,0.8463578,19.936954,-1.1471558,-0.058532715,-0.07366943,0.9316406,1.5820312,0.032226562,5.2065396,22.54538,-52.107845,7.4414577,-0.23010254,0.6557617,0.8183594,1.2949219,2.5605469,-1.5751953,10.868683,36.7612,-120.96005,-8.172647,0,0,0,0,0,0,0,16.804274,-122.01519,-7.3789062,0,0,0,0,0,0,0,-1.613262,44.956226,-1.4609311
2.67187492,114,-0.057861328,-1.12146,0.4416504,0.35546875,0.53125,-0.7763672,0,0,0,0,0,0,0,0,0,0,0,-0.28884578,-0.03336955,-0.95696414,-1.2521973,-0.3897705,0.8651123,0.39746094,0.6269531,-0.58984375,32.70861,-5.9800034,-0.690853,-19.812124,-0.8347168,-0.35736084,0.25567627,1.4433594,0.36914062,-0.053710938,13.148898,-24.285467,-48.935986,4.4025745,-2,0.4953003,-0.5534668,0.7324219,0.119140625,-0.56640625,26.709314,-52.867805,-113.161545,19.901293,0,0,0,0,0,0,0,-72.67961,-110.41464,20.231462,0,0,0,0,0,0,0,0.28884578,0.03336955,0.95696414,-1.210144,0.4703369,-0.22210693,1.1660156,0.41796875,0.119140625,21.628702,5.9800034,0.690853,19.812124,-1.1160889,-0.040283203,0.06378174,0.9140625,1.8115234,-0.083984375,4.2588277,23.887024,-51.89551,7.013853,-0.31384277,0.6289673,0.76898193,1.8134766,3.1572266,-1.9267578,10.8118105,40.424774,-119.95796,-9.736147,0,0,0,0,0,0,0,20.535498,-121.98981,-9.047507,0,0,0,0,0,0,0,-1.8846942,44.95676,-0.99878424
2.69531242,115,-0.06274414,-1.1080322,0.36437988,-0.005859375,0.16796875,-0.8857422,0,0,0,0,0,0,0,0,0,0,0,-0.30587804,-0.022019783,-0.9520436,-0.7944336,-0.2522583,0.4734497,1.0185547,1.4609375,-0.3955078,31.674221,-6.3326235,-0.45587778,-19.710255,-0.76763916,-0.2758789,-0.24066162,2.0195312,1.7695312,-0.6503906,12.731725,-23.297085,-49.350403,4.162689,-2,-0.18615723,-0.091430664,1.8369141,1.3330078,0.43164062,25.079578,-49.65726,-114.547615,19.692013,0,0,0,0,0,0,0,-69.46417,-111.845695,20.438892,0,0,0,0,0,0,0,0.30587804,0.022019783,0.9520436,-1.2393188,0.3753662,-0.0446167,0.5058594,0.20507812,0.009765625,21.90317,6.3326235,0.45587778,19.710255,-1.1698608,-0.044189453,0.3100586,0.6328125,2.131836,-0.21972656,2.8672373,24.716682,-51.946106,6.8270626,-0.36480713,0.67370605,0.75549316,1.8427734,3.9257812,-2.3652344,10.773073,43.979984,-118.95221,-11.227976,0,0,0,0,0,0,0,24.235895,-122.095245,-10.652859,0,0,0,0,0,0,0,-1.6535712,44.976482,-0.5089905
2.718749919,116,0.014465332,-1.138916,0.43170166,0.012695313,-0.004882813,-1.0341797,0,0,0,0,0,0,0,0,0,0,0,-0.31962943,-0.006062159,-0.94772625,-0.4126587,-0.37634277,0.016113281,0.9355469,2.5703125,-0.6123047,29.10807,-6.617321,-0.1255055,-19.620872,-0.80078125,-0.54364014,-0.5678711,2.2109375,2.3945312,-1.0927734,11.329746,-21.580008,-50.38198,2.743599,-1.8235474,-0.76190186,1.232544,2.2041016,1.2197266,-0.4560547,24.289661,-42.740105,-117.45507,17.786407,0,0,0,0,0,0,0,-62.51242,-114.777794,19.213997,0,0,0,0,0,0,0,0.31962943,0.006062159,0.94772625,-1.3425903,0.21783447,0.12652588,0.22265625,-0.19238281,-0.046875,21.889141,6.617321,0.1255055,19.620872,-1.2194824,-0.39898682,0.56622314,0.5576172,2.5898438,-0.3173828,2.8795683,25.010065,-52.28537,6.8115387,-0.35650635,0.76794434,0.62316895,2.0175781,4.90625,-2.9882812,10.713605,47.58011,-117.83165,-12.711571,0,0,0,0,0,0,0,28.08906,-122.26847,-12.35473,0,0,0,0,0,0,0,-1.151803,44.993805,0.10065204
2.742187418,117,-0.050109863,-1.5083618,0.9213257,-2.9414062,-0.2734375,-1.4492188,0,0,0,0,0,0,0,0,0,0,0,-0.33773163,-3.25E-04,-0.94148403,-2,-0.02758789,-1.5508423,2.7304688,2.866211,-1.4472656,23.001501,-6.9920917,-0.006735364,-19.491638,-0.80078125,-0.54364014,-0.5678711,2.2109375,2.3945312,-1.0927734,10.156794,-18.487226,-51.893394,0.9614296,0.48760986,-2,1.7263184,4.966797,2.2705078,-3.9677734,25.074648,-39.647324,-118.966484,16.004238,0,0,0,0,0,0,0,-59.545277,-117.444786,17.423622,0,0,0,0,0,0,0,0.33773163,3.25E-04,0.94148403,-1.881897,0.15209961,0.36193848,0.16601562,-0.703125,-0.2529297,24.308361,6.9920917,0.006735364,19.491638,-1.9229736,-0.46148682,0.93829346,1.0693359,2.9394531,-0.39453125,6.3463764,25.07604,-52.632298,7.1625547,-0.107299805,0.62628174,0.6046753,2.0185547,7.0185547,-3.8388672,12.153217,51.376694,-116.21681,-14.089116,0,0,0,0,0,0,0,32.39128,-122.49782,-14.764577,0,0,0,0,0,0,0,1.3110757,44.988514,-0.48585832
2.765624918,118,-0.28430176,-1.1638184,0.7762451,-0.33007812,-0.7734375,-1.2578125,0,0,0,0,0,0,0,0,0,0,0,-0.34029874,0.022078719,-0.94025743,-2,0.18084717,1.112854,4.7265625,-2.4111328,9.77E-04,20.251999,-7.045239,0.45709786,-19.466244,0.58636475,0.21484375,0.18115234,4.0546875,1.6484375,-2.1757812,8.596628,-16.216833,-52.453167,-0.32278252,0.368042,-0.04333496,1.550293,2.125,4.4804688,-1.8310547,19.000477,-34.170578,-120.44847,15.218297,0,0,0,0,0,0,0,-53.867203,-119.13076,18.458641,0,0,0,0,0,0,0,0.34029874,-0.022078719,0.94025743,-1.6139526,-0.2515869,0.8330078,-0.28808594,-1.9912109,-0.40429688,24.260199,7.045239,-0.45709786,19.466244,-1.4465332,-1.0528564,1.1066284,1.2011719,3.227539,-0.31835938,12.253594,23.841759,-53.805656,8.46277,-0.2841797,0.5795288,0.697876,3.3613281,9.344727,-5.1289062,15.37624,54.22518,-114.83288,-14.766518,0,0,0,0,0,0,0,36.17953,-123.12685,-17.028751,0,0,0,0,0,0,0,3.2463045,44.891045,-0.120793104
