TOTAL_TIME,0m6s
TOTAL_FRAMES,269
SELECTED_FRAMES,269
NO_OF_JOINTS,12
FREQUENCY,42.666668
DESCRIPTION,Capture 14
TIME_STAMP,Jul 9, 2010

Time,Frame,Pelvis_accelX_Pelvis,Pelvis_accelY_Pelvis,Pelvis_accelZ_Pelvis,Pelvis_gyroX_Pelvis,Pelvis_gyroY_Pelvis,Pelvis_gyroZ_Pelvis,Pelvis_Joint angle_Pelvis,Pelvis_Relative pos X_Pelvis,Pelvis_Relative pos Y_Pelvis,Pelvis_Relative pos Z_Pelvis,RightPelvis_accelX_RightPelvis,RightPelvis_accelY_RightPelvis,RightPelvis_accelZ_RightPelvis,RightPelvis_gyroX_RightPelvis,RightPelvis_gyroY_RightPelvis,RightPelvis_gyroZ_RightPelvis,RightPelvis_Joint angle_RightPelvis,RightPelvis_Relative pos X_RightPelvis,RightPelvis_Relative pos Y_RightPelvis,RightPelvis_Relative pos Z_RightPelvis,RightUpLeg_accelX_RightUpLeg,RightUpLeg_accelY_RightUpLeg,RightUpLeg_accelZ_RightUpLeg,RightUpLeg_gyroX_RightUpLeg,RightUpLeg_gyroY_RightUpLeg,RightUpLeg_gyroZ_RightUpLeg,RightUpLeg_Joint angle_RightUpLeg,RightUpLeg_Relative pos X_RightUpLeg,RightUpLeg_Relative pos Y_RightUpLeg,RightUpLeg_Relative pos Z_RightUpLeg,RightLeg_accelX_RightLeg,RightLeg_accelY_RightLeg,RightLeg_accelZ_RightLeg,RightLeg_gyroX_RightLeg,RightLeg_gyroY_RightLeg,RightLeg_gyroZ_RightLeg,RightLeg_Joint angle_RightLeg,RightLeg_Relative pos X_RightLeg,RightLeg_Relative pos Y_RightLeg,RightLeg_Relative pos Z_RightLeg,RightFoot_accelX_RightFoot,RightFoot_accelY_RightFoot,RightFoot_accelZ_RightFoot,RightFoot_gyroX_RightFoot,RightFoot_gyroY_RightFoot,RightFoot_gyroZ_RightFoot,RightFoot_Joint angle_RightFoot,RightFoot_Relative pos X_RightFoot,RightFoot_Relative pos Y_RightFoot,RightFoot_Relative pos Z_RightFoot,RightFootEnd_accelX_RightFootEnd,RightFootEnd_accelY_RightFootEnd,RightFootEnd_accelZ_RightFootEnd,RightFootEnd_gyroX_RightFootEnd,RightFootEnd_gyroY_RightFootEnd,RightFootEnd_gyroZ_RightFootEnd,RightFootEnd_Joint angle_RightFootEnd,RightFootEnd_Relative pos X_RightFootEnd,RightFootEnd_Relative pos Y_RightFootEnd,RightFootEnd_Relative pos Z_RightFootEnd,LeftPelvis_accelX_LeftPelvis,LeftPelvis_accelY_LeftPelvis,LeftPelvis_accelZ_LeftPelvis,LeftPelvis_gyroX_LeftPelvis,LeftPelvis_gyroY_LeftPelvis,LeftPelvis_gyroZ_LeftPelvis,LeftPelvis_Joint angle_LeftPelvis,LeftPelvis_Relative pos X_LeftPelvis,LeftPelvis_Relative pos Y_LeftPelvis,LeftPelvis_Relative pos Z_LeftPelvis,LeftUpLeg_accelX_LeftUpLeg,LeftUpLeg_accelY_LeftUpLeg,LeftUpLeg_accelZ_LeftUpLeg,LeftUpLeg_gyroX_LeftUpLeg,LeftUpLeg_gyroY_LeftUpLeg,LeftUpLeg_gyroZ_LeftUpLeg,LeftUpLeg_Joint angle_LeftUpLeg,LeftUpLeg_Relative pos X_LeftUpLeg,LeftUpLeg_Relative pos Y_LeftUpLeg,LeftUpLeg_Relative pos Z_LeftUpLeg,LeftLeg_accelX_LeftLeg,LeftLeg_accelY_LeftLeg,LeftLeg_accelZ_LeftLeg,LeftLeg_gyroX_LeftLeg,LeftLeg_gyroY_LeftLeg,LeftLeg_gyroZ_LeftLeg,LeftLeg_Joint angle_LeftLeg,LeftLeg_Relative pos X_LeftLeg,LeftLeg_Relative pos Y_LeftLeg,LeftLeg_Relative pos Z_LeftLeg,LeftFoot_accelX_LeftFoot,LeftFoot_accelY_LeftFoot,LeftFoot_accelZ_LeftFoot,LeftFoot_gyroX_LeftFoot,LeftFoot_gyroY_LeftFoot,LeftFoot_gyroZ_LeftFoot,LeftFoot_Joint angle_LeftFoot,LeftFoot_Relative pos X_LeftFoot,LeftFoot_Relative pos Y_LeftFoot,LeftFoot_Relative pos Z_LeftFoot,LeftFootEnd_accelX_LeftFootEnd,LeftFootEnd_accelY_LeftFootEnd,LeftFootEnd_accelZ_LeftFootEnd,LeftFootEnd_gyroX_LeftFootEnd,LeftFootEnd_gyroY_LeftFootEnd,LeftFootEnd_gyroZ_LeftFootEnd,LeftFootEnd_Joint angle_LeftFootEnd,LeftFootEnd_Relative pos X_LeftFootEnd,LeftFootEnd_Relative pos Y_LeftFootEnd,LeftFootEnd_Relative pos Z_LeftFootEnd,Spine_accelX_Spine,Spine_accelY_Spine,Spine_accelZ_Spine,Spine_gyroX_Spine,Spine_gyroY_Spine,Spine_gyroZ_Spine,Spine_Joint angle_Spine,Spine_Relative pos X_Spine,Spine_Relative pos Y_Spine,Spine_Relative pos Z_Spine,
0.0,0,0.0,0.0,0.0,0.0,0.0,0.0,0.0,0.0,0.0,0.0,0.0,0.0,0.0,0.0,0.0,0.0,0.0,0.0,0.0,0.0,0.0,0.0,0.0,0.0,0.0,0.0,NaN,0.0,0.0,0.0,0.0,0.0,0.0,0.0,0.0,0.0,NaN,0.0,0.0,0.0,0.0,0.0,0.0,0.0,0.0,0.0,NaN,0.0,0.0,0.0,0.0,0.0,0.0,0.0,0.0,0.0,0.0,0.0,0.0,0.0,0.0,0.0,0.0,0.0,0.0,0.0,0.0,0.0,0.0,0.0,0.0,0.0,0.0,0.0,0.0,0.0,NaN,0.0,0.0,0.0,0.0,0.0,0.0,0.0,0.0,0.0,NaN,0.0,0.0,0.0,0.0,0.0,0.0,0.0,0.0,0.0,NaN,0.0,0.0,0.0,0.0,0.0,0.0,0.0,0.0,0.0,0.0,0.0,0.0,0.0,0.0,0.0,0.0,0.0,0.0,0.0,0.0,0.0,0.0,0.0,
0.02343749930150809,1,0.0,0.0,0.0,0.0,0.0,0.0,0.0,0.0,0.0,0.0,0.0,0.0,0.0,0.0,0.0,0.0,0.0,0.0,0.0,0.0,0.0,0.0,0.0,0.0,0.0,0.0,NaN,0.0,0.0,0.0,0.0,0.0,0.0,0.0,0.0,0.0,NaN,0.0,0.0,0.0,0.0,0.0,0.0,0.0,0.0,0.0,NaN,0.0,0.0,0.0,0.0,0.0,0.0,0.0,0.0,0.0,0.0,0.0,0.0,0.0,0.0,0.0,0.0,0.0,0.0,0.0,0.0,0.0,0.0,0.0,0.0,0.0,0.0,0.0,0.0,0.0,NaN,0.0,0.0,0.0,0.0,0.0,0.0,0.0,0.0,0.0,NaN,0.0,0.0,0.0,0.0,0.0,0.0,0.0,0.0,0.0,NaN,0.0,0.0,0.0,0.0,0.0,0.0,0.0,0.0,0.0,0.0,0.0,0.0,0.0,0.0,0.0,0.0,0.0,0.0,0.0,0.0,0.0,0.0,0.0,
0.04687499860301618,2,0.0,0.0,0.0,0.0,0.0,0.0,0.0,0.0,0.0,0.0,0.0,0.0,0.0,0.0,0.0,0.0,0.0,0.0,0.0,0.0,0.0,0.0,0.0,0.0,0.0,0.0,NaN,0.0,0.0,0.0,0.0,0.0,0.0,0.0,0.0,0.0,NaN,0.0,0.0,0.0,0.0,0.0,0.0,0.0,0.0,0.0,NaN,0.0,0.0,0.0,0.0,0.0,0.0,0.0,0.0,0.0,0.0,0.0,0.0,0.0,0.0,0.0,0.0,0.0,0.0,0.0,0.0,0.0,0.0,0.0,0.0,0.0,0.0,0.0,0.0,0.0,NaN,0.0,0.0,0.0,0.0,0.0,0.0,0.0,0.0,0.0,NaN,0.0,0.0,0.0,0.0,0.0,0.0,0.0,0.0,0.0,NaN,0.0,0.0,0.0,0.0,0.0,0.0,0.0,0.0,0.0,0.0,0.0,0.0,0.0,0.0,0.0,0.0,0.0,0.0,0.0,0.0,0.0,0.0,0.0,
0.07031249790452426,3,0.05480957,-0.7954712,0.6750488,-0.74121094,0.7402344,0.3984375,0.0,0.0,0.0,0.0,0.0,0.0,0.0,0.0,0.0,0.0,0.0,-0.29939416,0.07061776,0.95168626,0.0,0.0,0.0,0.0,0.0,0.0,NaN,-6.1983867,1.4620066,19.702856,-0.98864746,0.009155273,-0.11987305,0.030273438,-0.04296875,-0.015625,NaN,-6.1983867,1.4620066,19.702856,-0.31396484,-0.5119629,0.8109131,-0.0703125,0.5029297,0.9472656,7.6533995,-7.9589057,-70.532425,18.855413,0.0,0.0,0.0,0.0,0.0,0.0,0.0,6.6191955,-70.12291,32.538254,0.0,0.0,0.0,0.0,0.0,0.0,0.0,0.29939416,-0.07061776,-0.95168626,-0.9580078,0.120666504,-0.18988037,0.052734375,-0.044921875,-0.02734375,7.5226655,6.1983867,-1.4620066,-19.702856,-0.9959717,-0.094177246,-0.08282471,-0.013671875,-0.013671875,-0.0390625,2.3605742,7.275997,-58.440567,-18.521875,-0.16864014,0.53881836,0.8059082,0.0390625,0.00390625,-0.028320312,1.1514808,6.5058413,-130.42728,-16.678886,0.0,0.0,0.0,0.0,0.0,0.0,0.0,21.494843,-130.28209,-3.436819,0.0,0.0,0.0,0.0,0.0,0.0,0.0,4.990349,44.695805,-1.7466228,
0.09374999720603236,4,0.020385742,-0.80255127,0.6759033,-0.57128906,0.6044922,0.32226562,0.0,0.0,0.0,0.0,0.0,0.0,0.0,0.0,0.0,0.0,0.0,-0.29121622,0.050081648,0.95555913,0.0,0.0,0.0,0.0,0.0,0.0,NaN,-6.0290794,1.0368453,19.783035,-0.9946289,0.020996094,-0.12188721,-0.02734375,-0.0625,-0.07324219,NaN,-6.0290794,1.0368453,19.783035,-0.34277344,-0.5251465,0.79400635,-0.03125,0.33203125,0.4921875,7.5661035,-7.727068,-70.9536,18.938091,0.0,0.0,0.0,0.0,0.0,0.0,0.0,6.7715054,-70.88087,32.71321,0.0,0.0,0.0,0.0,0.0,0.0,0.0,0.29121622,-0.050081648,-0.95555913,-0.9589844,0.12249756,-0.1661377,0.015625,-0.044921875,-0.02734375,6.7288733,6.0290794,-1.0368453,-19.783035,-0.9890747,-0.121520996,-0.06817627,-0.0703125,-0.033203125,-0.020507812,2.3544304,7.136242,-58.021805,-18.595684,-0.1796875,0.5390625,0.7970581,0.040039062,-0.015625,-0.028320312,1.0147144,6.4139895,-130.01518,-16.783504,0.0,0.0,0.0,0.0,0.0,0.0,0.0,21.424318,-129.87996,-3.5636568,0.0,0.0,0.0,0.0,0.0,0.0,0.0,4.4041986,44.781918,-1.0048339,
0.11718749650754046,5,0.049560547,-0.8183594,0.6859741,-0.28808594,0.29589844,0.20703125,0.0,0.0,0.0,0.0,0.0,0.0,0.0,0.0,0.0,0.0,0.0,-0.28676316,0.037444673,0.9574327,-0.9781494,-0.049316406,-0.06726074,0.0029296875,-0.0029296875,-0.064453125,5.277226,-5.936887,0.7752208,19.821823,-0.9887085,-0.006286621,-0.100097656,-0.02734375,-0.08203125,-0.016601562,1.7163461,-6.0745316,-56.223618,19.013634,-0.31829834,-0.529541,0.79797363,-0.072265625,0.02734375,-0.001953125,7.3627124,-7.593833,-128.21805,18.121008,0.0,0.0,0.0,0.0,0.0,0.0,0.0,6.9071646,-128.25302,31.891579,0.0,0.0,0.0,0.0,0.0,0.0,0.0,0.28676316,-0.037444673,-0.9574327,-0.9577637,0.13635254,-0.18182373,-0.060546875,-0.043945312,-0.0078125,6.4034314,5.936887,-0.7752208,-19.821823,-0.99609375,-0.101135254,-0.06097412,-0.0703125,-0.051757812,-0.0390625,2.3702555,7.1091294,-57.75502,-18.596558,-0.20776367,0.53308105,0.8373413,0.018554688,0.041992188,-0.045898438,0.7974581,6.4549527,-129.74373,-16.802666,0.0,0.0,0.0,0.0,0.0,0.0,0.0,21.489756,-129.63037,-3.6122217,0.0,0.0,0.0,0.0,0.0,0.0,0.0,4.0800567,44.818577,-0.5308016,
0.14062499580904855,6,0.05090332,-0.80773926,0.6989136,0.0146484375,-0.013671875,0.016601562,0.0,0.0,0.0,0.0,0.0,0.0,0.0,0.0,0.0,0.0,0.0,-0.28753313,0.03708245,0.95736563,-0.98999023,-0.07458496,-0.078186035,0.0234375,0.03515625,-0.046875,5.2689023,-5.9528284,0.76772165,19.820435,-0.99975586,-0.009155273,-0.10620117,-0.0078125,-0.08105469,-0.015625,1.5856025,-6.1410728,-56.232674,18.981955,-0.34277344,-0.5108032,0.8236084,-0.0546875,0.0078125,-0.001953125,7.2497377,-7.537203,-128.22574,17.996964,0.0,0.0,0.0,0.0,0.0,0.0,0.0,6.9871635,-128.256,31.745483,0.0,0.0,0.0,0.0,0.0,0.0,0.0,0.28753313,-0.03708245,-0.95736563,-0.97106934,0.11590576,-0.17492676,-0.060546875,-0.080078125,-0.0078125,6.5404696,5.9528284,-0.76772165,-19.820435,-0.98498535,-0.11578369,-0.06414795,-0.051757812,-0.033203125,-0.0390625,2.4096472,7.209597,-57.742878,-18.549957,-0.19152832,0.5734253,0.7943115,0.018554688,0.041992188,-0.02734375,0.6471007,6.623018,-129.74123,-16.795628,0.0,0.0,0.0,0.0,0.0,0.0,0.0,21.677414,-129.63774,-3.6258402,0.0,0.0,0.0,0.0,0.0,0.0,0.0,4.1157045,44.822144,-0.5000317,
0.16406249511055665,7,0.05505371,-0.7907715,0.6880493,-0.0048828125,0.005859375,0.017578125,0.0,0.0,0.0,0.0,0.0,0.0,0.0,0.0,0.0,0.0,0.0,-0.286939,0.038356148,0.95744276,-0.9761963,-0.08166504,-0.08728027,0.09863281,0.0146484375,-0.045898438,5.3675737,-5.9405274,0.7940911,19.822035,-0.9897461,-0.0068969727,-0.112976074,-0.0078125,-0.0625,-0.015625,1.4963251,-6.1457453,-56.20526,18.933094,-0.3135376,-0.50231934,0.78240967,-0.034179688,0.045898438,-0.040039062,7.121939,-7.4523125,-128.20357,17.90822,0.0,0.0,0.0,0.0,0.0,0.0,0.0,7.098571,-128.23125,31.633457,0.0,0.0,0.0,0.0,0.0,0.0,0.0,0.286939,-0.038356148,-0.95744276,-0.9749756,0.12585449,-0.1796875,-0.041015625,-0.061523438,0.029296875,6.7665997,5.9405274,-0.7940911,-19.822035,-0.9840698,-0.12554932,-0.061279297,0.0048828125,-0.12792969,-0.0390625,2.4371881,7.3379045,-57.769215,-18.534851,-0.18188477,0.51171875,0.7949219,0.038085938,0.061523438,-0.0087890625,0.41918123,6.9035916,-129.7663,-16.82459,0.0,0.0,0.0,0.0,0.0,0.0,0.0,21.975592,-129.68695,-3.6745243,0.0,0.0,0.0,0.0,0.0,0.0,0.0,4.1852565,44.813023,-0.54096353,
0.18749999441206475,8,0.057434082,-0.8182373,0.6708374,-0.080078125,0.044921875,0.055664062,0.0,0.0,0.0,0.0,0.0,0.0,0.0,0.0,0.0,0.0,0.0,-0.2873081,0.039227523,0.9572521,-0.9891968,-0.04925537,-0.05822754,0.099609375,0.0146484375,-0.009765625,5.387288,-5.9481697,0.81213146,19.818087,-0.9847412,-0.009033203,-0.10498047,0.030273438,-0.061523438,-0.034179688,1.333982,-6.2113485,-56.184475,18.878696,-0.33050537,-0.5253906,0.79797363,0.001953125,-0.01171875,-0.0029296875,7.0705204,-7.3710947,-128.18863,17.77957,0.0,0.0,0.0,0.0,0.0,0.0,0.0,7.1885805,-128.2119,31.491333,0.0,0.0,0.0,0.0,0.0,0.0,0.0,0.2873081,-0.039227523,-0.9572521,-0.96502686,0.11956787,-0.14727783,0.034179688,-0.0625,0.009765625,6.9546866,5.9481697,-0.81213146,-19.818087,-0.98083496,-0.10699463,-0.08300781,0.04296875,-0.03125,-0.0390625,2.5402946,7.485138,-57.77884,-18.541018,-0.18890381,0.5136719,0.8027954,-0.021484375,0.099609375,-0.0078125,0.3333784,7.099916,-129.77469,-16.870588,0.0,0.0,0.0,0.0,0.0,0.0,0.0,22.174637,-129.71558,-3.723446,0.0,0.0,0.0,0.0,0.0,0.0,0.0,4.225726,44.806965,-0.5678553,
0.21093749371357284,9,0.0087890625,-0.7706909,0.68341064,0.0146484375,0.043945312,0.017578125,0.0,0.0,0.0,0.0,0.0,0.0,0.0,0.0,0.0,0.0,0.0,-0.28669828,0.03963943,0.95758104,-0.9760742,-0.07879639,-0.08331299,0.10058594,0.052734375,-0.028320312,5.432603,-5.9355426,0.8206591,19.824896,-0.96765137,0.013366699,-0.08886719,0.049804688,-0.060546875,-0.0146484375,1.1638204,-6.2301383,-56.1755,18.851454,-0.31884766,-0.50842285,0.79119873,-0.015625,0.045898438,-0.001953125,6.786425,-7.177131,-128.17557,17.66264,0.0,0.0,0.0,0.0,0.0,0.0,0.0,7.405435,-128.1974,31.347359,0.0,0.0,0.0,0.0,0.0,0.0,0.0,0.28669828,-0.03963943,-0.95758104,-0.9480591,0.111450195,-0.16546631,-0.022460938,-0.0625,-0.0078125,7.016463,5.9355426,-0.8206591,-19.824896,-0.99420166,-0.11773682,-0.046203613,0.024414062,-0.032226562,-0.0390625,2.5053034,7.4695606,-57.792274,-18.543486,-0.1586914,0.526001,0.80682373,0.038085938,0.041992188,-0.02734375,0.24066272,7.1295686,-129.7881,-16.89498,0.0,0.0,0.0,0.0,0.0,0.0,0.0,22.213406,-129.75243,-3.7578773,0.0,0.0,0.0,0.0,0.0,0.0,0.0,4.2775564,44.80902,-0.57419276,
0.23437499301508094,10,0.037353516,-0.77282715,0.7045288,-0.0048828125,-0.013671875,0.017578125,0.0,0.0,0.0,0.0,0.0,0.0,0.0,0.0,0.0,0.0,0.0,-0.28608528,0.040686935,0.9576151,-0.9838257,-0.066589355,-0.08721924,0.080078125,0.0146484375,-0.028320312,5.5535088,-5.9228516,0.8423457,19.8256,-0.9986572,0.009277344,-0.06347656,0.01171875,-0.08105469,0.00390625,1.0214416,-6.2061043,-56.15356,18.829185,-0.36773682,-0.5314331,0.8234253,0.0029296875,0.026367188,0.016601562,6.5786157,-6.9169846,-128.15213,17.576723,0.0,0.0,0.0,0.0,0.0,0.0,0.0,7.6832733,-128.17206,31.245327,0.0,0.0,0.0,0.0,0.0,0.0,0.0,0.28608528,-0.040686935,-0.9576151,-0.96881104,0.13348389,-0.15795898,0.052734375,-0.099609375,-0.0087890625,7.270735,5.9228516,-0.8423457,-19.8256,-0.98706055,-0.11291504,-0.05316162,0.04296875,-0.0126953125,-0.020507812,2.6233854,7.615713,-57.80838,-18.516157,-0.1807251,0.53411865,0.8019409,0.038085938,0.041992188,-0.0087890625,0.26687863,7.3401,-129.80954,-16.912178,0.0,0.0,0.0,0.0,0.0,0.0,0.0,22.433697,-129.7769,-3.78541,0.0,0.0,0.0,0.0,0.0,0.0,0.0,4.3521905,44.79689,-0.60311353,
0.25781249231658904,11,0.04248047,-0.81518555,0.6831665,-0.041992188,0.044921875,0.036132812,0.0,0.0,0.0,0.0,0.0,0.0,0.0,0.0,0.0,0.0,0.0,-0.2868349,0.04147914,0.95735383,-0.9761963,-0.04284668,-0.09320068,0.041015625,-0.022460938,-0.02734375,5.618729,-5.9383707,0.8587469,19.820192,-0.9916992,-0.0041503906,-0.07336426,0.0107421875,-0.0625,0.0029296875,0.9466738,-6.2066145,-56.13726,18.829386,-0.32928467,-0.56140137,0.8017578,0.0029296875,0.026367188,-0.001953125,6.4131002,-6.7503843,-128.13849,17.529615,0.0,0.0,0.0,0.0,0.0,0.0,0.0,7.859872,-128.15524,31.18791,0.0,0.0,0.0,0.0,0.0,0.0,0.0,0.2868349,-0.04147914,-0.95735383,-0.9613037,0.09686279,-0.15447998,0.072265625,-0.099609375,-0.0087890625,7.445001,5.9383707,-0.8587469,-19.820192,-0.98724365,-0.14215088,-0.04248047,0.061523438,-0.0126953125,-0.0390625,2.6835797,7.759981,-57.81569,-18.490448,-0.17852783,0.55041504,0.8276367,0.09667969,0.022460938,-0.028320312,0.38562953,7.5908313,-129.81555,-16.964178,0.0,0.0,0.0,0.0,0.0,0.0,0.0,22.696636,-129.78552,-3.8546057,0.0,0.0,0.0,0.0,0.0,0.0,0.0,4.3879633,44.79296,-0.6260514,
0.2812499916180971,12,0.046691895,-0.79522705,0.67230225,-0.0048828125,-0.013671875,0.017578125,0.0,0.0,0.0,0.0,0.0,0.0,0.0,0.0,0.0,0.0,0.0,-0.28726733,0.042021878,0.9571411,-0.9810791,-0.05267334,-0.046325684,0.0029296875,-0.0029296875,-0.02734375,5.6697726,-5.947324,0.8699832,19.815788,-0.9776001,0.015808105,-0.07513428,0.0107421875,-0.0625,0.0029296875,0.9168525,-6.189146,-56.126953,18.829998,-0.30993652,-0.5178833,0.80596924,0.0029296875,0.026367188,-0.020507812,6.319162,-6.6190224,-128.13028,17.49537,0.0,0.0,0.0,0.0,0.0,0.0,0.0,7.998707,-128.13481,31.14959,0.0,0.0,0.0,0.0,0.0,0.0,0.0,0.28726733,-0.042021878,-0.9571411,-0.96954346,0.1531372,-0.14990234,0.015625,-0.08105469,-0.0087890625,7.629257,5.947324,-0.8699832,-19.815788,-0.97784424,-0.107177734,-0.05517578,0.061523438,0.0068359375,-0.0390625,2.7713518,7.928658,-57.826077,-18.418642,-0.1696167,0.54681396,0.788208,0.040039062,0.00390625,-0.009765625,0.37377697,7.8722796,-129.82759,-16.91232,0.0,0.0,0.0,0.0,0.0,0.0,0.0,22.988127,-129.79298,-3.8107672,0.0,0.0,0.0,0.0,0.0,0.0,0.0,4.404189,44.788532,-0.6445431,
0.3046874909196052,13,0.028930664,-0.77923584,0.68878174,-0.0048828125,0.025390625,-9.765625E-4,0.0,0.0,0.0,0.0,0.0,0.0,0.0,0.0,0.0,0.0,0.0,-0.28578007,0.042671442,0.95757896,-0.97216797,-0.08166504,-0.09234619,0.022460938,-0.00390625,-0.0087890625,5.717243,-5.9165335,0.88343114,19.824854,-0.982605,0.020690918,-0.10784912,0.0107421875,-0.0625,-0.015625,0.8822656,-6.160774,-56.11068,18.82835,-0.3250122,-0.50738525,0.79119873,-0.017578125,-0.01171875,0.016601562,6.173872,-6.529046,-128.11194,17.472752,0.0,0.0,0.0,0.0,0.0,0.0,0.0,8.107432,-128.11731,31.102985,0.0,0.0,0.0,0.0,0.0,0.0,0.0,0.28578007,-0.042671442,-0.95757896,-0.9467163,0.13684082,-0.13360596,0.034179688,-0.0625,-0.0087890625,7.803007,5.9165335,-0.88343114,-19.824854,-0.987854,-0.07977295,-0.06878662,0.0234375,-0.0703125,-9.765625E-4,2.888663,8.0331955,-57.831287,-18.371918,-0.2006836,0.55792236,0.7902832,-0.001953125,0.080078125,-0.02734375,0.42474586,8.015256,-129.8327,-16.872173,0.0,0.0,0.0,0.0,0.0,0.0,0.0,23.141544,-129.81757,-3.782919,0.0,0.0,0.0,0.0,0.0,0.0,0.0,4.432864,44.786217,-0.67280984,
0.32812499022111324,14,0.05291748,-0.79156494,0.6810913,0.0146484375,-0.013671875,-9.765625E-4,0.0,0.0,0.0,0.0,0.0,0.0,0.0,0.0,0.0,0.0,0.0,-0.2857973,0.04350186,0.9573965,-1.0001831,-0.04272461,-0.07208252,0.00390625,0.015625,-0.028320312,5.7864513,-5.91689,0.9006233,19.821075,-0.9706421,0.0,-0.07208252,0.0107421875,0.030273438,-0.016601562,0.8235324,-6.1746597,-56.096645,18.79129,-0.2994995,-0.5041504,0.8119507,-0.0146484375,0.06542969,-0.001953125,6.024638,-6.4841485,-128.09729,17.42092,0.0,0.0,0.0,0.0,0.0,0.0,0.0,8.167473,-128.09567,31.03068,0.0,0.0,0.0,0.0,0.0,0.0,0.0,0.2857973,-0.04350186,-0.9573965,-0.96813965,0.110839844,-0.16809082,0.034179688,-0.08105469,0.009765625,8.019932,5.91689,-0.9006233,-19.821075,-0.9901123,-0.12927246,-0.07720947,0.04296875,-0.0126953125,-0.0390625,3.0344782,8.18463,-57.838142,-18.330795,-0.18377686,0.5332031,0.79992676,0.022460938,-0.07324219,-0.009765625,0.51014066,8.200648,-129.84253,-16.904451,0.0,0.0,0.0,0.0,0.0,0.0,0.0,23.33643,-129.83485,-3.8294706,0.0,0.0,0.0,0.0,0.0,0.0,0.0,4.4829555,44.774815,-0.69623315,
0.3515624895226213,15,0.04888916,-0.79156494,0.6842041,-0.0048828125,0.005859375,-9.765625E-4,0.0,0.0,0.0,0.0,0.0,0.0,0.0,0.0,0.0,0.0,0.0,-0.28449142,0.044171013,0.9577209,-0.99432373,-0.07373047,-0.111083984,0.040039062,-0.041992188,-0.045898438,5.859496,-5.8898535,0.9144769,19.827793,-0.9837036,-0.0044555664,-0.09307861,0.0107421875,-0.043945312,-0.015625,0.8086666,-6.148302,-56.078568,18.77311,-0.29870605,-0.5084839,0.8256836,-0.016601562,0.0078125,-0.001953125,5.9536457,-6.397508,-128.07654,17.33999,0.0,0.0,0.0,0.0,0.0,0.0,0.0,8.27092,-128.06096,30.934053,0.0,0.0,0.0,0.0,0.0,0.0,0.0,0.28449142,-0.044171013,-0.9577209,-0.9561157,0.10870361,-0.17126465,0.015625,-0.08105469,-0.02734375,8.221129,5.8898535,-0.9144769,-19.827793,-0.97180176,-0.12939453,-0.088256836,0.08105469,0.0068359375,-0.0390625,3.1673083,8.301037,-57.845802,-18.324697,-0.18878174,0.5272827,0.81170654,0.017578125,0.080078125,0.009765625,0.55672663,8.343453,-129.85101,-16.94834,0.0,0.0,0.0,0.0,0.0,0.0,0.0,23.49366,-129.86768,-3.8891716,0.0,0.0,0.0,0.0,0.0,0.0,0.0,4.5286636,44.76838,-0.7195196,
0.3749999888241294,16,0.05255127,-0.80322266,0.66711426,-0.061523438,-0.0126953125,-9.765625E-4,0.0,0.0,0.0,0.0,0.0,0.0,0.0,0.0,0.0,0.0,0.0,-0.2839134,0.044403113,0.95791364,-0.9784546,-0.053894043,-0.084228516,0.07910156,-0.0234375,-0.02734375,5.8329754,-5.8778872,0.919282,19.831781,-0.9897461,-0.017028809,-0.10308838,0.049804688,-0.061523438,0.00390625,0.73754424,-6.196913,-56.076366,18.741917,-0.33013916,-0.50738525,0.7941284,-0.016601562,0.0078125,-0.001953125,5.905546,-6.436968,-128.08267,17.30762,0.0,0.0,0.0,0.0,0.0,0.0,0.0,8.24194,-128.07082,30.89,0.0,0.0,0.0,0.0,0.0,0.0,0.0,0.2839134,-0.044403113,-0.95791364,-0.98724365,0.10809326,-0.13916016,0.034179688,-0.099609375,-0.02734375,8.341508,5.8778872,-0.919282,-19.831781,-0.98291016,-0.11279297,-0.08105469,0.061523438,0.0068359375,-0.0390625,3.2578642,8.395729,-57.849583,-18.340654,-0.2088623,0.53149414,0.8019409,0.040039062,-0.015625,-0.028320312,0.4821389,8.463051,-129.85716,-17.008976,0.0,0.0,0.0,0.0,0.0,0.0,0.0,23.618925,-129.88608,-3.954976,0.0,0.0,0.0,0.0,0.0,0.0,0.0,4.54072,44.768383,-0.7293812,
0.39843748812563745,17,0.05279541,-0.8066406,0.6899414,-0.080078125,0.06347656,0.055664062,0.0,0.0,0.0,0.0,0.0,0.0,0.0,0.0,0.0,0.0,0.0,-0.28295872,0.04462681,0.9581719,-0.9814453,-0.047424316,-0.105163574,0.07910156,-0.00390625,-0.045898438,5.8178005,-5.8581223,0.92391324,19.837132,-0.9816284,0.017456055,-0.09893799,0.01171875,-0.080078125,-0.034179688,0.5602303,-6.244046,-56.06877,18.646944,-0.32226562,-0.52349854,0.7960205,-0.016601562,0.0068359375,0.016601562,5.862305,-6.3775144,-128.07053,17.219023,0.0,0.0,0.0,0.0,0.0,0.0,0.0,8.3100605,-128.05243,30.794027,0.0,0.0,0.0,0.0,0.0,0.0,0.0,0.28295872,-0.04462681,-0.9581719,-0.96551514,0.0791626,-0.14074707,0.09082031,-0.11816406,-0.02734375,8.537113,5.8581223,-0.92391324,-19.837132,-0.97998047,-0.12554932,-0.06524658,0.061523438,0.026367188,-0.040039062,3.438662,8.567469,-57.842808,-18.368467,-0.17663574,0.53881836,0.8128052,0.020507812,0.00390625,-0.028320312,0.49889323,8.652112,-129.84926,-17.104942,0.0,0.0,0.0,0.0,0.0,0.0,0.0,23.808002,-129.87086,-4.050934,0.0,0.0,0.0,0.0,0.0,0.0,0.0,4.5451884,44.767117,-0.74278194,
0.4218749874271455,18,0.045288086,-0.7819214,0.70526123,0.0146484375,-0.013671875,-9.765625E-4,0.0,0.0,0.0,0.0,0.0,0.0,0.0,0.0,0.0,0.0,0.0,-0.2835148,0.045086175,0.9579761,-0.97576904,-0.061523438,-0.101257324,0.07910156,-0.00390625,-0.064453125,5.813082,-5.8696356,0.9334235,19.833075,-1.001709,-0.0057373047,-0.09033203,0.049804688,-0.07910156,-0.0146484375,0.45756808,-6.3200617,-56.05644,18.552837,-0.33172607,-0.4862671,0.7883301,-0.03515625,0.0078125,-0.001953125,5.815408,-6.288386,-128.05501,17.033154,0.0,0.0,0.0,0.0,0.0,0.0,0.0,8.418999,-128.0389,30.58484,0.0,0.0,0.0,0.0,0.0,0.0,0.0,0.2835148,-0.045086175,-0.9579761,-0.9720459,0.11566162,-0.13439941,0.052734375,-0.08105469,-0.0087890625,8.726071,5.8696356,-0.9334235,-19.833075,-0.98010254,-0.14019775,-0.050476074,0.099609375,-0.01171875,-0.05859375,3.5641425,8.753326,-57.846893,-18.359734,-0.18463135,0.5418091,0.8206787,0.059570312,-0.015625,-0.028320312,0.5200178,8.917911,-129.85275,-17.172405,0.0,0.0,0.0,0.0,0.0,0.0,0.0,24.072796,-129.87196,-4.1170864,0.0,0.0,0.0,0.0,0.0,0.0,0.0,4.5567646,44.76525,-0.7582483,
0.4453124867286536,19,0.0107421875,-0.7888794,0.6981201,0.0146484375,0.005859375,-0.01953125,0.0,0.0,0.0,0.0,0.0,0.0,0.0,0.0,0.0,0.0,0.0,-0.2837043,0.04524777,0.95792335,-0.9946289,-0.055480957,-0.08508301,0.09765625,-0.00390625,-0.1015625,5.7747197,-5.8735585,0.9367691,19.831984,-0.9977417,-0.016845703,-0.113098145,0.08886719,-0.09667969,-0.013671875,0.42704305,-6.433486,-56.047287,18.496738,-0.3378296,-0.49084473,0.77349854,-0.072265625,0.02734375,-0.020507812,5.879566,-6.3252625,-128.04544,16.922836,0.0,0.0,0.0,0.0,0.0,0.0,0.0,8.405241,-128.03175,30.451187,0.0,0.0,0.0,0.0,0.0,0.0,0.0,0.2837043,-0.04524777,-0.95792335,-0.9690552,0.11352539,-0.118652344,0.09082031,-0.15429688,0.009765625,8.98192,5.8735585,-0.9367691,-19.831984,-0.9800415,-0.1295166,-0.053344727,0.13769531,0.026367188,-0.0390625,3.7123034,8.964583,-57.840904,-18.354206,-0.19055176,0.57141113,0.80114746,0.05859375,0.022460938,-0.009765625,0.49337167,9.214254,-129.84482,-17.219542,0.0,0.0,0.0,0.0,0.0,0.0,0.0,24.376959,-129.85622,-4.1751976,0.0,0.0,0.0,0.0,0.0,0.0,0.0,4.5936346,44.76203,-0.75386864,
0.46874998603016166,20,0.049621582,-0.8083496,0.6800537,-0.041992188,0.044921875,0.036132812,0.0,0.0,0.0,0.0,0.0,0.0,0.0,0.0,0.0,0.0,0.0,-0.2834263,0.04550413,0.95802504,-0.97613525,-0.06903076,-0.123168945,0.1171875,-0.00390625,-0.08300781,5.782284,-5.8678045,0.9420765,19.83409,-0.9957886,-0.017150879,-0.103149414,0.049804688,-0.13574219,-0.0146484375,0.41918123,-6.512036,-56.038517,18.398468,-0.3458252,-0.5184326,0.80877686,-0.07421875,-0.049804688,-0.041015625,5.9676223,-6.266947,-128.03432,16.787617,0.0,0.0,0.0,0.0,0.0,0.0,0.0,8.471084,-128.00824,30.304554,0.0,0.0,0.0,0.0,0.0,0.0,0.0,0.2834263,-0.04550413,-0.95802504,-0.95428467,0.09466553,-0.14178467,0.09082031,-0.099609375,-0.0087890625,9.214926,5.8678045,-0.9420765,-19.83409,-0.98809814,-0.1274414,-0.061279297,0.099609375,0.026367188,-0.020507812,3.8599598,9.145548,-57.83397,-18.382078,-0.19683838,0.5202637,0.8343506,0.05859375,0.00390625,-0.028320312,0.44543338,9.448423,-129.84386,-17.313898,0.0,0.0,0.0,0.0,0.0,0.0,0.0,24.619518,-129.85857,-4.2775707,0.0,0.0,0.0,0.0,0.0,0.0,0.0,4.6303787,44.75957,-0.756112,
0.4921874853316697,21,0.036865234,-0.79937744,0.6963501,0.013671875,-0.032226562,-0.001953125,0.0,0.0,0.0,0.0,0.0,0.0,0.0,0.0,0.0,0.0,0.0,-0.28267938,0.045683064,0.95829237,-0.9725342,-0.08508301,-0.119262695,0.13671875,0.0146484375,-0.064453125,5.832875,-5.852339,0.94578105,19.839622,-0.994751,-0.012939453,-0.11010742,0.08886719,-0.11621094,0.0048828125,0.51320004,-6.5528984,-56.03718,18.294207,-0.31774902,-0.5149536,0.76953125,-0.07324219,0.0078125,-0.001953125,6.1237507,-6.120792,-128.03568,16.636627,0.0,0.0,0.0,0.0,0.0,0.0,0.0,8.621941,-128.00574,30.15176,0.0,0.0,0.0,0.0,0.0,0.0,0.0,0.28267938,-0.045683064,-0.95829237,-0.96099854,0.12054443,-0.15924072,0.07128906,-0.0625,0.028320312,9.38833,5.852339,-0.94578105,-19.839622,-0.99005127,-0.12335205,-0.08709717,0.08105469,0.0068359375,-0.05859375,3.9442186,9.240302,-57.829914,-18.394264,-0.20385742,0.5394287,0.7911377,0.040039062,0.00390625,-0.009765625,0.30901045,9.576116,-129.84238,-17.344606,0.0,0.0,0.0,0.0,0.0,0.0,0.0,24.746536,-129.86287,-4.307932,0.0,0.0,0.0,0.0,0.0,0.0,0.0,4.6796713,44.756886,-0.7531996,
0.5156249846331779,22,0.0048217773,-0.7798462,0.69836426,0.08984375,-0.013671875,-0.020507812,0.0,0.0,0.0,0.0,0.0,0.0,0.0,0.0,0.0,0.0,0.0,-0.28205988,0.046036392,0.95846224,-0.98358154,-0.07952881,-0.13110352,0.080078125,0.015625,-0.064453125,5.90103,-5.8395133,0.95309603,19.84314,-0.99157715,0.02130127,-0.06732178,0.049804688,-0.09863281,0.00390625,0.66617244,-6.589265,-56.02365,18.213715,-0.31695557,-0.50787354,0.80895996,-0.053710938,0.02734375,-0.001953125,6.0239544,-5.957444,-128.01743,16.564552,0.0,0.0,0.0,0.0,0.0,0.0,0.0,8.803013,-127.98849,30.05828,0.0,0.0,0.0,0.0,0.0,0.0,0.0,0.28205988,-0.046036392,-0.95846224,-0.9590454,0.115600586,-0.16522217,0.034179688,-0.06347656,-0.02734375,9.543592,5.8395133,-0.95309603,-19.84314,-0.9920654,-0.117614746,-0.07409668,0.024414062,0.005859375,-0.0390625,4.040215,9.296326,-57.833042,-18.369495,-0.20367432,0.5559082,0.80010986,9.765625E-4,0.00390625,0.009765625,0.3000144,9.610572,-129.84387,-17.341866,0.0,0.0,0.0,0.0,0.0,0.0,0.0,24.783363,-129.86626,-4.3087463,0.0,0.0,0.0,0.0,0.0,0.0,0.0,4.7458,44.750114,-0.75280386,
0.5390624839346859,23,0.037475586,-0.77197266,0.713501,-0.0234375,-0.013671875,0.017578125,0.0,0.0,0.0,0.0,0.0,0.0,0.0,0.0,0.0,0.0,0.0,-0.28173608,0.046617195,0.958459,-0.99853516,-0.058776855,-0.06512451,0.041015625,-0.00390625,-0.064453125,6.02659,-5.832811,0.9651206,19.843075,-0.9816284,0.0029296875,-0.04345703,0.049804688,-0.13574219,0.0048828125,0.8529457,-6.559041,-56.008038,18.11714,-0.321167,-0.50427246,0.82958984,-0.07324219,0.0078125,-0.001953125,5.9951186,-5.652928,-127.99924,16.35211,0.0,0.0,0.0,0.0,0.0,0.0,0.0,9.115753,-127.96263,29.839947,0.0,0.0,0.0,0.0,0.0,0.0,0.0,0.28173608,-0.046617195,-0.958459,-0.9530029,0.11328125,-0.12286377,0.0146484375,-0.0625,0.028320312,9.670342,5.832811,-0.9651206,-19.843075,-0.98913574,-0.12261963,-0.05621338,0.061523438,0.0068359375,-0.0390625,4.0983024,9.357316,-57.84061,-18.353033,-0.17755127,0.5545654,0.8049927,0.01953125,0.041992188,0.009765625,0.3471792,9.713146,-129.84723,-17.412235,0.0,0.0,0.0,0.0,0.0,0.0,0.0,24.891676,-129.87137,-4.3858757,0.0,0.0,0.0,0.0,0.0,0.0,0.0,4.7915,44.74194,-0.7676962,
0.562499983236194,24,0.01361084,-0.80285645,0.6989136,0.013671875,-0.051757812,0.03515625,0.0,0.0,0.0,0.0,0.0,0.0,0.0,0.0,0.0,0.0,0.0,-0.2814507,0.046959028,0.95856756,-0.97888184,-0.07501221,-0.0703125,0.041015625,-0.0029296875,-0.08300781,6.115197,-5.826903,0.9721974,19.845318,-0.9717407,-0.018493652,-0.050354004,0.03125,-0.13671875,0.0234375,1.131423,-6.535508,-56.00381,18.08523,-0.34588623,-0.5251465,0.79693604,-0.111328125,0.0087890625,-0.001953125,5.743716,-5.2577276,-127.98595,16.239119,0.0,0.0,0.0,0.0,0.0,0.0,0.0,9.530093,-127.967224,29.701164,0.0,0.0,0.0,0.0,0.0,0.0,0.0,0.2814507,-0.046959028,-0.95856756,-0.97576904,0.13745117,-0.14202881,-0.041015625,-0.061523438,0.0107421875,9.785788,5.826903,-0.9721974,-19.845318,-0.9828491,-0.09832764,-0.06402588,0.04296875,0.0068359375,-0.05859375,4.135312,9.403116,-57.8474,-18.328287,-0.18463135,0.5559082,0.7813721,0.0,0.041992188,0.009765625,0.3789758,9.788199,-129.85529,-17.39503,0.0,0.0,0.0,0.0,0.0,0.0,0.0,24.965446,-129.86943,-4.3680305,0.0,0.0,0.0,0.0,0.0,0.0,0.0,4.8404727,44.738415,-0.77043915,
0.5859374825377021,25,0.045959473,-0.791626,0.69122314,-0.0048828125,-0.051757812,0.016601562,0.0,0.0,0.0,0.0,0.0,0.0,0.0,0.0,0.0,0.0,0.0,-0.2812265,0.047920376,0.95851266,-0.982666,-0.07879639,-0.030395508,0.041015625,-0.00390625,-0.045898438,6.302354,-5.8222604,0.99210024,19.844185,-0.9766846,-0.015686035,0.016967773,-0.0078125,-0.099609375,-0.015625,1.3461026,-6.403448,-55.982185,18.052584,-0.31939697,-0.5315552,0.7989502,-0.091796875,0.02734375,-0.020507812,5.564438,-4.703703,-127.95423,16.113121,0.0,0.0,0.0,0.0,0.0,0.0,0.0,10.072985,-127.94757,29.58807,0.0,0.0,0.0,0.0,0.0,0.0,0.0,0.2812265,-0.047920376,-0.95851266,-0.96990967,0.12451172,-0.13336182,-0.07910156,-0.043945312,-0.0078125,9.860013,5.8222604,-0.99210024,-19.844185,-0.9789429,-0.128479,-0.0692749,-0.08984375,-0.013671875,-0.040039062,4.201837,9.431797,-57.863335,-18.309475,-0.19958496,0.5644531,0.82177734,0.0,0.022460938,-0.0087890625,0.38613662,9.780009,-129.86755,-17.381025,0.0,0.0,0.0,0.0,0.0,0.0,0.0,24.95325,-129.87589,-4.3488045,0.0,0.0,0.0,0.0,0.0,0.0,0.0,4.8731217,44.731064,-0.8065395,
0.6093749818392101,26,0.03656006,-0.7989502,0.67352295,0.051757812,-0.052734375,0.053710938,0.0,0.0,0.0,0.0,0.0,0.0,0.0,0.0,0.0,0.0,0.0,-0.28120467,0.048008796,0.9585421,-0.97369385,-0.084106445,-0.025512695,0.001953125,-0.022460938,-0.045898438,6.467356,-5.8218083,0.9939309,19.844791,-0.9847412,-0.019470215,-0.023742676,-0.0078125,-0.0625,-0.015625,1.4950169,-6.284282,-55.977642,18.036608,-0.3435669,-0.52838135,0.7595825,-0.07324219,0.0078125,-0.001953125,5.332412,-4.263935,-127.93594,15.996765,0.0,0.0,0.0,0.0,0.0,0.0,0.0,10.5115185,-127.940094,29.476803,0.0,0.0,0.0,0.0,0.0,0.0,0.0,0.28120467,-0.048008796,-0.9585421,-0.9760132,0.12384033,-0.17376709,-0.09765625,-0.025390625,-0.026367188,9.919942,5.8218083,-0.9939309,-19.844791,-0.9951172,-0.1262207,-0.082092285,-0.051757812,-0.013671875,-0.0390625,4.235171,9.4265,-57.864285,-18.290604,-0.18048096,0.56622314,0.81884766,9.765625E-4,0.00390625,-0.0087890625,0.44323152,9.762766,-129.87851,-17.455057,0.0,0.0,0.0,0.0,0.0,0.0,0.0,24.938354,-129.89162,-4.4247227,0.0,0.0,0.0,0.0,0.0,0.0,0.0,4.922503,44.727036,-0.79606295,
0.6328124811407182,27,0.030822754,-0.7850952,0.6817627,-0.0048828125,-0.052734375,0.072265625,0.0,0.0,0.0,0.0,0.0,0.0,0.0,0.0,0.0,0.0,0.0,-0.28128058,0.04773571,0.9584904,-0.99261475,-0.08306885,-0.0033569336,-0.037109375,-0.060546875,-0.045898438,6.625044,-5.8233795,0.9882772,19.843721,-0.9685669,0.018432617,0.002319336,-0.0087890625,-0.0068359375,-0.016601562,1.6320684,-6.1540723,-55.982937,18.028393,-0.31921387,-0.52545166,0.7930908,-0.20800781,-0.048828125,0.015625,5.0651555,-3.8088853,-127.93503,15.916469,0.0,0.0,0.0,0.0,0.0,0.0,0.0,10.96687,-127.969185,29.392744,0.0,0.0,0.0,0.0,0.0,0.0,0.0,0.28128058,-0.04773571,-0.9584904,-0.97839355,0.09222412,-0.14929199,-0.07910156,-0.025390625,-0.026367188,9.989028,5.8233795,-0.9882772,-19.843721,-0.9901123,-0.12731934,-0.076171875,0.0048828125,0.005859375,-0.040039062,4.279655,9.439965,-57.854164,-18.279133,-0.1977539,0.55511475,0.77648926,0.037109375,0.080078125,0.046875,0.5322902,9.766189,-129.87137,-17.529308,0.0,0.0,0.0,0.0,0.0,0.0,0.0,24.960941,-129.8984,-4.5218945,0.0,0.0,0.0,0.0,0.0,0.0,0.0,4.964858,44.720932,-0.77024025,
0.6562499804422263,28,0.06573486,-0.7904663,0.65893555,-0.061523438,-0.013671875,0.07324219,0.0,0.0,0.0,0.0,0.0,0.0,0.0,0.0,0.0,0.0,0.0,-0.28228474,0.047449417,0.9582249,-0.9909668,-0.055114746,-0.013305664,9.765625E-4,-0.080078125,-0.0087890625,6.8111763,-5.8441687,0.98235005,19.838226,-0.99468994,-0.004760742,0.0068969727,-0.0087890625,-0.025390625,0.0029296875,1.6194291,-5.961775,-55.991302,18.04018,-0.29882812,-0.54589844,0.7576294,-0.18652344,0.0087890625,-0.0029296875,4.9179683,-3.3800242,-127.931915,15.906245,0.0,0.0,0.0,0.0,0.0,0.0,0.0,11.373934,-127.98447,29.407997,0.0,0.0,0.0,0.0,0.0,0.0,0.0,0.28228474,-0.047449417,-0.9582249,-0.9591675,0.10559082,-0.13763428,-0.060546875,-0.025390625,-0.026367188,10.042889,5.8441687,-0.98235005,-19.838226,-0.9992676,-0.13116455,-0.06817627,0.024414062,0.0068359375,-0.05859375,4.3034773,9.504789,-57.849747,-18.306421,-0.1965332,0.5744629,0.79333496,0.037109375,0.099609375,0.046875,0.5781073,9.858357,-129.8617,-17.609667,0.0,0.0,0.0,0.0,0.0,0.0,0.0,25.058487,-129.90453,-4.609583,0.0,0.0,0.0,0.0,0.0,0.0,0.0,4.972903,44.721066,-0.7495256,
0.6796874797437343,29,0.05255127,-0.7961426,0.6592407,-0.04296875,-0.033203125,0.091796875,0.0,0.0,0.0,0.0,0.0,0.0,0.0,0.0,0.0,0.0,0.0,-0.28487536,0.04638557,0.9576941,-0.9486084,-0.08331299,-0.043640137,-0.056640625,-0.07910156,-0.026367188,6.8588686,-5.897804,0.9603252,19.827236,-0.9795532,0.026550293,-0.041381836,0.0107421875,-0.0068359375,-0.016601562,1.5472486,-5.8278728,-56.018818,18.06537,-0.31500244,-0.51190186,0.8088989,-0.111328125,0.0078125,0.016601562,4.8036695,-3.1178691,-127.95549,15.93615,0.0,0.0,0.0,0.0,0.0,0.0,0.0,11.638072,-128.01808,29.43523,0.0,0.0,0.0,0.0,0.0,0.0,0.0,0.28487536,-0.04638557,-0.9576941,-0.9482422,0.09643555,-0.119140625,-0.022460938,-0.026367188,-0.0078125,9.989559,5.897804,-0.9603252,-19.827236,-0.9942627,-0.13513184,-0.06329346,0.024414062,-0.0126953125,-0.0390625,4.3227763,9.604833,-57.82626,-18.365475,-0.19085693,0.52648926,0.7949829,0.057617188,0.060546875,0.046875,0.66675967,9.991727,-129.83952,-17.758537,0.0,0.0,0.0,0.0,0.0,0.0,0.0,25.195856,-129.89073,-4.761917,0.0,0.0,0.0,0.0,0.0,0.0,0.0,4.896429,44.73812,-0.71038485,
0.7031249790452424,30,0.047058105,-0.75634766,0.65966797,-0.0234375,-0.033203125,0.0546875,0.0,0.0,0.0,0.0,0.0,0.0,0.0,0.0,0.0,0.0,0.0,-0.2867518,0.045696773,0.9570034,-0.9746094,-0.10925293,-0.05444336,-0.055664062,-0.060546875,-0.02734375,6.9235363,-5.9366517,0.9460649,19.812937,-0.9576416,0.0099487305,-0.069885254,0.0107421875,0.049804688,-0.016601562,1.4362683,-5.7275867,-56.03272,18.049942,-0.2888794,-0.54577637,0.7911377,-0.12988281,0.0087890625,-0.021484375,4.83047,-2.9836032,-127.96924,15.941403,0.0,0.0,0.0,0.0,0.0,0.0,0.0,11.759606,-128.04729,29.452236,0.0,0.0,0.0,0.0,0.0,0.0,0.0,0.2867518,-0.045696773,-0.9570034,-0.9779663,0.12365723,-0.13323975,-0.00390625,-0.0078125,-0.026367188,10.011074,5.9366517,-0.9460649,-19.812937,-0.973999,-0.14129639,-0.04949951,0.061523438,0.0068359375,-0.0390625,4.354691,9.719113,-57.808952,-18.371979,-0.20074463,0.5472412,0.78723145,0.038085938,0.060546875,0.06542969,0.7689767,10.16966,-129.82181,-17.823349,0.0,0.0,0.0,0.0,0.0,0.0,0.0,25.37948,-129.88211,-4.8334618,0.0,0.0,0.0,0.0,0.0,0.0,0.0,4.852574,44.73625,-0.68214804,
0.7265624783467505,31,0.044677734,-0.7810669,0.65856934,-0.061523438,0.025390625,0.07324219,0.0,0.0,0.0,0.0,0.0,0.0,0.0,0.0,0.0,0.0,0.0,-0.28950322,0.045024008,0.9562832,-0.96533203,-0.09838867,-0.061523438,0.0029296875,-0.022460938,0.009765625,6.8475347,-5.9936137,0.93213665,19.798027,-0.9636841,-0.008850098,-0.072021484,-0.0087890625,0.030273438,-0.017578125,1.4214772,-5.7809105,-56.044067,17.969051,-0.31530762,-0.5297241,0.8029175,-0.07324219,0.0078125,-0.001953125,4.826047,-3.037174,-127.97895,15.826973,0.0,0.0,0.0,0.0,0.0,0.0,0.0,11.715347,-128.06358,29.329483,0.0,0.0,0.0,0.0,0.0,0.0,0.0,0.28950322,-0.045024008,-0.9562832,-0.9661255,0.109558105,-0.114746094,-0.022460938,0.046875,-0.026367188,9.995877,5.9936137,-0.93213665,-19.798027,-0.9768677,-0.10626221,-0.044189453,0.0048828125,-0.032226562,-0.0390625,4.4045997,9.860241,-57.78974,-18.331629,-0.1828003,0.5284424,0.78515625,0.018554688,0.060546875,0.06542969,0.7654059,10.351134,-129.80347,-17.752586,0.0,0.0,0.0,0.0,0.0,0.0,0.0,25.54982,-129.87857,-4.74992,0.0,0.0,0.0,0.0,0.0,0.0,0.0,4.772432,44.748486,-0.6620651,
0.7499999776482585,32,0.04260254,-0.8152466,0.68914795,-0.13671875,0.025390625,0.037109375,0.0,0.0,0.0,0.0,0.0,0.0,0.0,0.0,0.0,0.0,0.0,-0.2917736,0.04455644,0.95565087,-0.9901123,-0.09020996,-0.04333496,0.0029296875,-0.041992188,0.028320312,6.7500873,-6.040618,0.92245644,19.784937,-0.9887085,-0.012817383,-0.017822266,0.06933594,0.033203125,-0.03515625,1.436677,-5.8205137,-56.053066,17.919012,-0.31158447,-0.49969482,0.7962036,-0.14941406,0.0087890625,-0.001953125,4.7742577,-3.0510032,-127.98622,15.718529,0.0,0.0,0.0,0.0,0.0,0.0,0.0,11.708215,-128.07182,29.211676,0.0,0.0,0.0,0.0,0.0,0.0,0.0,0.2917736,-0.04455644,-0.95565087,-0.9680786,0.111450195,-0.0949707,-0.00390625,0.009765625,-0.0078125,9.959907,6.040618,-0.92245644,-19.784937,-0.97302246,-0.12976074,-0.026489258,0.0048828125,0.025390625,-0.020507812,4.423813,9.999821,-57.773342,-18.330393,-0.1987915,0.5372925,0.7969971,0.037109375,0.080078125,0.009765625,0.8355625,10.586717,-129.78664,-17.78062,0.0,0.0,0.0,0.0,0.0,0.0,0.0,25.77219,-129.87585,-4.762697,0.0,0.0,0.0,0.0,0.0,0.0,0.0,4.6720114,44.760666,-0.66049886,
0.7734374769497666,33,0.052978516,-0.83477783,0.6569214,-0.099609375,0.005859375,0.055664062,0.0,0.0,0.0,0.0,0.0,0.0,0.0,0.0,0.0,0.0,0.0,-0.2933106,0.043969788,0.9551295,-0.98547363,-0.06756592,-0.0413208,0.059570312,-0.061523438,0.009765625,6.568025,-6.072439,0.91031086,19.774143,-0.99957275,0.026489258,-0.045654297,0.06933594,0.032226562,0.0029296875,1.4652692,-5.866274,-56.062046,17.875086,-0.33862305,-0.51452637,0.8078613,-0.20605469,0.009765625,-0.021484375,4.8230424,-3.0659685,-127.9884,15.676312,0.0,0.0,0.0,0.0,0.0,0.0,0.0,11.68234,-128.09013,29.182934,0.0,0.0,0.0,0.0,0.0,0.0,0.0,0.2933106,-0.043969788,-0.9551295,-1.005188,0.10900879,-0.06274414,0.052734375,-0.099609375,-0.0087890625,9.930463,6.072439,-0.91031086,-19.774143,-0.98828125,-0.13439941,-0.030456543,0.04296875,0.044921875,-0.020507812,4.4790773,10.212078,-57.744656,-18.315763,-0.2166748,0.56481934,0.8050537,0.07714844,0.060546875,0.1015625,1.075018,10.957885,-129.75635,-17.77397,0.0,0.0,0.0,0.0,0.0,0.0,0.0,26.15377,-129.85344,-4.766528,0.0,0.0,0.0,0.0,0.0,0.0,0.0,4.5071335,44.773956,-0.6770928,
0.7968749762512747,34,0.034301758,-0.79455566,0.6517334,-0.061523438,-0.032226562,0.036132812,0.0,0.0,0.0,0.0,0.0,0.0,0.0,0.0,0.0,0.0,0.0,-0.29454288,0.043073118,0.9548015,-1.0098267,-0.073913574,-0.038146973,0.07714844,-0.099609375,0.0107421875,6.5744414,-6.0979505,0.8917471,19.767351,-0.97662354,0.0056152344,-0.064208984,0.068359375,0.06933594,-0.016601562,1.3618562,-5.702189,-56.082245,17.921318,-0.31921387,-0.52160645,0.79901123,-0.3173828,0.048828125,-0.05859375,4.778974,-2.8124962,-128.00562,15.743206,0.0,0.0,0.0,0.0,0.0,0.0,0.0,11.928804,-128.16182,29.257286,0.0,0.0,0.0,0.0,0.0,0.0,0.0,0.29454288,-0.043073118,-0.9548015,-0.96936035,0.091796875,-0.103027344,0.072265625,-0.044921875,-0.02734375,10.037325,6.0979505,-0.8917471,-19.767351,-0.9902954,-0.13922119,-0.03741455,0.04296875,0.044921875,-0.020507812,4.6936903,10.495522,-57.70796,-18.316877,-0.19067383,0.5498657,0.8010254,0.095703125,0.09863281,0.13964844,1.0477319,11.297386,-129.71803,-17.830282,0.0,0.0,0.0,0.0,0.0,0.0,0.0,26.45211,-129.78549,-4.7746906,0.0,0.0,0.0,0.0,0.0,0.0,0.0,4.387435,44.786446,-0.6669493,
0.8203124755527827,35,0.03338623,-0.80682373,0.67352295,-0.099609375,-0.032226562,0.036132812,0.0,0.0,0.0,0.0,0.0,0.0,0.0,0.0,0.0,0.0,0.0,-0.29634866,0.04256826,0.9545046,-0.96868896,-0.07977295,-0.046447754,0.057617188,-0.080078125,-0.044921875,6.5722632,-6.135334,0.88129485,19.761204,-0.9636841,-0.011413574,-0.05218506,0.107421875,0.0703125,-0.015625,1.2690288,-5.6048717,-56.092316,17.928827,-0.31921387,-0.52160645,0.79901123,-0.3173828,0.048828125,-0.05859375,4.8843923,-2.6683896,-128.02164,15.767652,0.0,0.0,0.0,0.0,0.0,0.0,0.0,12.072911,-128.17784,29.28173,0.0,0.0,0.0,0.0,0.0,0.0,0.0,0.29634866,-0.04256826,-0.9545046,-0.97998047,0.11529541,-0.04534912,0.052734375,-0.13574219,0.028320312,10.140765,6.135334,-0.88129485,-19.761204,-0.98413086,-0.103515625,-0.0053100586,0.0048828125,0.08203125,-0.020507812,4.9435563,10.764828,-57.681236,-18.27629,-0.20257568,0.57958984,0.77856445,0.13476562,0.09863281,0.19433594,0.93083197,11.55084,-129.6901,-17.813446,0.0,0.0,0.0,0.0,0.0,0.0,0.0,26.652119,-129.71906,-4.6982813,0.0,0.0,0.0,0.0,0.0,0.0,0.0,4.285162,44.806656,-0.6678221,
0.8437499748542908,36,0.023925781,-0.7928467,0.6281738,-0.23144531,-0.0126953125,0.111328125,0.0,0.0,0.0,0.0,0.0,0.0,0.0,0.0,0.0,0.0,0.0,-0.2988821,0.04058689,0.9536891,-0.98498535,-0.05505371,-0.023376465,0.13476562,-0.10058594,0.029296875,6.491476,-6.1877875,0.84027445,19.744324,-0.9916992,-0.0075683594,-0.028747559,0.22363281,0.111328125,-0.0146484375,1.1398662,-5.490223,-56.13527,17.954348,-0.33721924,-0.59924316,0.80352783,-0.4482422,0.0703125,-0.171875,5.1840997,-2.5867226,-128.05928,15.685186,0.0,0.0,0.0,0.0,0.0,0.0,0.0,12.140277,-128.28337,29.221756,0.0,0.0,0.0,0.0,0.0,0.0,0.0,0.2988821,-0.04058689,-0.9536891,-0.9794922,0.15063477,-0.02130127,0.0146484375,-0.19042969,-0.0087890625,10.32773,6.1877875,-0.84027445,-19.744324,-0.99108887,-0.09454346,-0.03503418,-0.051757812,0.13867188,-0.020507812,5.3853235,11.191353,-57.60048,-18.08846,-0.21130371,0.6246338,0.7827759,0.2109375,0.13671875,0.32421875,0.87334895,11.913801,-129.61151,-17.55312,0.0,0.0,0.0,0.0,0.0,0.0,0.0,26.964703,-129.56879,-4.3787384,0.0,0.0,0.0,0.0,0.0,0.0,0.0,4.1219482,44.817905,-0.61554927,
0.8671874741557989,37,-0.0061035156,-0.80163574,0.6586914,-0.17480469,-0.08984375,0.07421875,0.0,0.0,0.0,0.0,0.0,0.0,0.0,0.0,0.0,0.0,0.0,-0.3017873,0.038281716,0.95274174,-1.0070801,-0.04296875,-0.051086426,0.001953125,-0.060546875,-0.0087890625,6.328928,-6.247935,0.7925502,19.724707,-0.9996338,0.0056152344,-0.041748047,0.087890625,0.14453125,-0.036132812,0.9033066,-5.411461,-56.178448,18.006495,-0.35614014,-0.63812256,0.76782227,-0.33398438,0.06933594,-0.20898438,5.302378,-2.692841,-128.11484,15.8111515,0.0,0.0,0.0,0.0,0.0,0.0,0.0,12.048561,-128.37767,29.32828,0.0,0.0,0.0,0.0,0.0,0.0,0.0,0.3017873,-0.038281716,-0.95274174,-0.9602051,0.09643555,-0.08337402,-0.1171875,-0.11621094,-0.0078125,10.396273,6.247935,-0.7925502,-19.724707,-0.98413086,-0.14111328,-0.055419922,-0.08984375,0.15722656,0.017578125,5.8620043,11.555954,-57.52285,-17.964437,-0.17840576,0.5751343,0.8060913,0.17480469,0.07910156,0.30566406,0.7996634,12.098007,-129.53949,-17.49315,0.0,0.0,0.0,0.0,0.0,0.0,0.0,27.048143,-129.40019,-4.2050962,0.0,0.0,0.0,0.0,0.0,0.0,0.0,3.9218464,44.831116,-0.55906916,
0.890624973457307,38,0.0017089844,-0.8095093,0.6464844,-0.15625,-0.18652344,0.0546875,0.0,0.0,0.0,0.0,0.0,0.0,0.0,0.0,0.0,0.0,0.0,-0.30744702,0.036391005,0.9510447,-0.9606323,-0.115600586,-0.052612305,-0.076171875,-0.09863281,-0.026367188,6.1025534,-6.3651056,0.75340664,19.689573,-0.96777344,-0.03704834,-0.056274414,0.029296875,0.125,-0.055664062,0.74808127,-5.464816,-56.216103,17.924625,-0.28985596,-0.614563,0.74261475,-0.18457031,0.029296875,-0.13378906,5.2392535,-2.9320724,-128.1518,15.669136,0.0,0.0,0.0,0.0,0.0,0.0,0.0,11.80715,-128.39432,29.186443,0.0,0.0,0.0,0.0,0.0,0.0,0.0,0.30744702,-0.036391005,-0.9510447,-0.96032715,0.09051514,-0.08343506,-0.022460938,-0.0625,0.0107421875,10.227623,6.3651056,-0.75340664,-19.689573,-0.9699707,-0.15386963,-0.06359863,-0.032226562,0.19628906,-0.059570312,6.1835494,11.811951,-57.47084,-17.936165,-0.23181152,0.557312,0.7961426,0.16113281,-0.09375,0.32226562,1.1715292,12.159271,-129.48306,-17.641176,0.0,0.0,0.0,0.0,0.0,0.0,0.0,27.04874,-129.2377,-4.2872086,0.0,0.0,0.0,0.0,0.0,0.0,0.0,3.6767688,44.853973,-0.5277036,
0.914062472758815,39,-0.0065307617,-0.80908203,0.63378906,-0.19433594,-0.12890625,0.11035156,0.0,0.0,0.0,0.0,0.0,0.0,0.0,0.0,0.0,0.0,0.0,-0.31264248,0.032372963,0.9493747,-0.9995117,-0.105041504,-0.03326416,-0.018554688,-0.07910156,-0.044921875,5.965717,-6.4726686,0.6702206,19.654999,-0.96173096,-0.016235352,-0.056152344,0.068359375,0.16308594,-0.036132812,0.5654452,-5.3654327,-56.292805,17.841022,-0.35766602,-0.6123047,0.7728882,-0.18457031,0.0107421875,-0.20996094,5.047797,-3.0080154,-128.23508,15.533346,0.0,0.0,0.0,0.0,0.0,0.0,0.0,11.760879,-128.48735,29.016788,0.0,0.0,0.0,0.0,0.0,0.0,0.0,0.31264248,-0.032372963,-0.9493747,-0.97302246,0.111328125,-0.05633545,-0.022460938,-0.080078125,0.029296875,10.173938,6.4726686,-0.6702206,-19.654999,-0.98217773,-0.1383667,-0.029541016,-0.013671875,0.21582031,-0.001953125,6.6372576,12.149748,-57.36224,-17.890347,-0.19354248,0.5665283,0.80407715,0.10449219,-0.13183594,0.32226562,1.7244227,12.2600155,-129.3836,-17.796732,0.0,0.0,0.0,0.0,0.0,0.0,0.0,27.103542,-129.02382,-4.3930416,0.0,0.0,0.0,0.0,0.0,0.0,0.0,3.435613,44.86927,-0.3986125,
0.9374999720603231,40,0.011413574,-0.84155273,0.6499634,-0.17578125,-0.16699219,0.07324219,0.0,0.0,0.0,0.0,0.0,0.0,0.0,0.0,0.0,0.0,0.0,-0.31914306,0.028945182,0.9473276,-0.95043945,-0.06359863,-0.08148193,-0.0546875,-0.021484375,-0.045898438,5.663651,-6.607252,0.59925497,19.612617,-0.989563,0.031066895,-0.030639648,0.009765625,0.16113281,-0.056640625,0.46771875,-5.4376993,-56.363426,17.801792,-0.28833008,-0.5906372,0.7437134,-0.091796875,-0.048828125,-0.13476562,4.8839912,-3.3007658,-128.31906,15.597446,0.0,0.0,0.0,0.0,0.0,0.0,0.0,11.491959,-128.54753,29.060095,0.0,0.0,0.0,0.0,0.0,0.0,0.0,0.31914306,-0.028945182,-0.9473276,-0.9700928,0.10534668,-0.06237793,-0.13574219,-0.061523438,-0.026367188,10.102093,6.607252,-0.59925497,-19.612617,-0.9851074,-0.11407471,-0.029296875,-0.08984375,0.2529297,-0.001953125,7.091105,12.517975,-57.267174,-17.756136,-0.09429932,0.55407715,0.7597656,0.0087890625,-0.16992188,0.23046875,2.2721057,12.376345,-129.28256,-17.710033,0.0,0.0,0.0,0.0,0.0,0.0,0.0,27.152514,-128.78833,-4.2376785,0.0,0.0,0.0,0.0,0.0,0.0,0.0,3.1709857,44.889812,-0.30332232,
0.9609374713618312,41,-0.001953125,-0.8540039,0.64624023,-0.17480469,-0.1484375,0.11035156,0.0,0.0,0.0,0.0,0.0,0.0,0.0,0.0,0.0,0.0,0.0,-0.32541728,0.026295874,0.9452189,-0.99316406,-0.08581543,-0.05822754,-0.13476562,-0.13574219,-0.044921875,5.440281,-6.7371454,0.5444061,19.568964,-0.9887085,-0.016479492,-0.057495117,0.0107421875,0.14257812,-0.037109375,0.5804718,-5.478096,-56.42055,17.7938,-0.3638916,-0.61224365,0.7758179,-0.1328125,-0.125,-0.13574219,4.741649,-3.6052403,-128.38545,15.654063,0.0,0.0,0.0,0.0,0.0,0.0,0.0,11.224394,-128.60063,29.069588,0.0,0.0,0.0,0.0,0.0,0.0,0.0,0.32541728,-0.026295874,-0.9452189,-0.9994507,0.08508301,-0.028503418,-0.07910156,-0.09765625,0.0107421875,10.131625,6.7371454,-0.5444061,-19.568964,-0.961792,-0.099975586,0.005554199,-0.16503906,0.3095703,-0.021484375,7.573441,12.929581,-57.180534,-17.645784,-0.18127441,0.440979,0.8250122,0.046875,-0.18847656,0.17382812,2.7786174,12.546476,-129.19711,-17.64206,0.0,0.0,0.0,0.0,0.0,0.0,0.0,27.28381,-128.59006,-4.1343155,0.0,0.0,0.0,0.0,0.0,0.0,0.0,2.9517865,44.903084,-0.23296541,
0.9843749706633392,42,0.005126953,-0.84106445,0.6342163,-0.13769531,-0.16796875,0.07324219,0.0,0.0,0.0,0.0,0.0,0.0,0.0,0.0,0.0,0.0,0.0,-0.3300988,0.024693038,0.9437165,-0.9725952,-0.097595215,-0.08935547,-0.09277344,-0.021484375,-0.02734375,5.282162,-6.83407,0.5112224,19.537859,-0.98773193,-0.005126953,-0.105041504,0.029296875,0.18066406,-0.07519531,0.87088084,-5.4919143,-56.449963,17.737206,-0.3071289,-0.59399414,0.7731323,-0.1328125,-0.14453125,-0.13671875,4.8524013,-4.0119257,-128.41637,15.60416,0.0,0.0,0.0,0.0,0.0,0.0,0.0,10.82393,-128.55684,29.017853,0.0,0.0,0.0,0.0,0.0,0.0,0.0,0.3300988,-0.024693038,-0.9437165,-0.9879761,0.113220215,0.006164551,0.033203125,-0.26171875,0.10253906,10.354214,6.83407,-0.5112224,-19.537859,-0.9588623,-0.11657715,0.011413574,-0.22167969,0.3466797,-0.0029296875,8.29233,13.479682,-57.091377,-17.51124,-0.1359253,0.48602295,0.7701416,-0.09472656,0.041015625,0.2705078,3.3174138,12.772975,-129.1046,-17.535875,0.0,0.0,0.0,0.0,0.0,0.0,0.0,27.440502,-128.38857,-3.9557657,0.0,0.0,0.0,0.0,0.0,0.0,0.0,2.752027,44.91923,-0.21272421,
1.0078124699648474,43,3.0517578E-4,-0.8260498,0.6325073,-0.11816406,-0.16699219,0.036132812,0.0,0.0,0.0,0.0,0.0,0.0,0.0,0.0,0.0,0.0,0.0,-0.33647063,0.023994125,0.9414596,-0.96850586,-0.06121826,-0.07836914,-0.13085938,-0.021484375,-0.02734375,5.0199294,-6.965985,0.49675283,19.491133,-0.96850586,0.034423828,-0.0670166,-0.06738281,0.15917969,-0.057617188,0.9867525,-5.715189,-56.466736,17.66273,-0.29193115,-0.59643555,0.7839966,-0.076171875,-0.12597656,-0.07910156,4.928832,-4.5626035,-128.44843,15.615303,0.0,0.0,0.0,0.0,0.0,0.0,0.0,10.272854,-128.51701,29.032154,0.0,0.0,0.0,0.0,0.0,0.0,0.0,0.33647063,-0.023994125,-0.9414596,-0.9413452,0.14666748,0.02746582,-0.080078125,-0.25976562,0.15820312,10.741731,6.965985,-0.49675283,-19.491133,-0.9480591,-0.15576172,0.04284668,-0.22167969,0.42285156,-0.022460938,9.194025,14.133352,-56.99553,-17.049665,-0.19555664,0.57244873,0.80114746,-0.13183594,-0.016601562,0.21484375,3.7171528,13.139548,-129.00424,-17.2692,0.0,0.0,0.0,0.0,0.0,0.0,0.0,27.747189,-128.27036,-3.6239243,0.0,0.0,0.0,0.0,0.0,0.0,0.0,2.5853307,44.928158,-0.22106534,
1.0312499692663555,44,0.029968262,-0.80810547,0.64178467,-0.21289062,-0.08886719,0.0,0.0,0.0,0.0,0.0,0.0,0.0,0.0,0.0,0.0,0.0,0.0,-0.3409798,0.02439858,0.9398058,-0.989624,-0.10058594,-0.070251465,-0.15039062,-0.021484375,-0.02734375,4.8492913,-7.0593395,0.50512624,19.456894,-0.9807129,-0.012023926,-0.070251465,-0.06738281,0.15917969,-0.057617188,1.1735319,-5.8288336,-56.45661,17.613058,-0.288208,-0.57128906,0.77038574,-0.115234375,-0.18359375,-0.09863281,4.9323287,-4.963585,-128.44234,15.597889,0.0,0.0,0.0,0.0,0.0,0.0,0.0,9.880027,-128.44371,29.002117,0.0,0.0,0.0,0.0,0.0,0.0,0.0,0.3409798,-0.02439858,-0.9398058,-1.0281372,0.09631348,0.16967773,-0.28710938,-0.38671875,0.046875,11.268007,7.0593395,-0.50512624,-19.456894,-0.94744873,-0.12011719,-0.062438965,-0.16503906,0.5,-0.022460938,10.318926,14.902018,-56.885746,-16.595406,-0.12219238,0.5997925,0.7206421,-0.17089844,0.0029296875,0.17773438,4.162925,13.539799,-128.88821,-17.032377,0.0,0.0,0.0,0.0,0.0,0.0,0.0,28.110106,-128.16519,-3.348484,0.0,0.0,0.0,0.0,0.0,0.0,0.0,2.411548,44.936584,-0.2916557,
1.0546874685678636,45,0.0052490234,-0.79467773,0.5918579,-0.04296875,-0.24414062,-0.09472656,0.0,0.0,0.0,0.0,0.0,0.0,0.0,0.0,0.0,0.0,0.0,-0.34616473,0.02568531,0.93793833,-0.98809814,-0.053710938,-0.03527832,-0.07421875,-0.041015625,-0.0087890625,4.7779903,-7.1666827,0.53176564,19.418232,-0.982666,0.007080078,-0.11383057,-0.10644531,0.1953125,-0.05859375,1.4782995,-5.9132915,-56.43004,17.5843,-0.3293457,-0.5383301,0.7496948,-0.13671875,-0.2607422,-0.0625,5.1631565,-5.427438,-128.42389,15.669281,0.0,0.0,0.0,0.0,0.0,0.0,0.0,9.392261,-128.34492,29.098698,0.0,0.0,0.0,0.0,0.0,0.0,0.0,0.34616473,-0.02568531,-0.93793833,-0.9356079,-0.010314941,-0.09265137,-0.34277344,-0.1875,-0.10058594,11.706576,7.1666827,-0.53176564,-19.418232,-0.986084,-0.16784668,-0.12335205,-0.20410156,0.4609375,0.0546875,11.57842,15.638351,-56.828712,-16.54294,-0.020812988,0.58374023,0.73431396,-0.044921875,0.23339844,0.048828125,4.7871656,13.541426,-128.81152,-17.380554,0.0,0.0,0.0,0.0,0.0,0.0,0.0,28.037216,-128.07704,-3.619151,0.0,0.0,0.0,0.0,0.0,0.0,0.0,2.2821412,44.945324,-0.38855207,
1.0781249678693716,46,-0.0154418945,-0.842041,0.60595703,-0.15722656,-0.2626953,-0.09375,0.0,0.0,0.0,0.0,0.0,0.0,0.0,0.0,0.0,0.0,0.0,-0.35164958,0.027408833,0.9358882,-0.97906494,-0.057128906,-0.027404785,-0.16796875,-0.001953125,0.0087890625,4.664385,-7.2802343,0.5674477,19.375786,-0.9926758,0.010681152,-0.13775635,-0.203125,0.17382812,-0.07910156,1.7824597,-6.030628,-56.395042,17.597551,-0.31115723,-0.5272827,0.9190674,-0.02734375,-0.3017578,0.20117188,5.3448915,-5.941144,-128.38756,15.796141,0.0,0.0,0.0,0.0,0.0,0.0,0.0,8.8466215,-128.23482,29.25927,0.0,0.0,0.0,0.0,0.0,0.0,0.0,0.35164958,-0.027408833,-0.9358882,-0.96655273,-0.0059814453,-0.052612305,0.109375,-0.4453125,0.0087890625,11.761405,7.2802343,-0.5674477,-19.375786,-0.9279175,-0.1430664,-0.15136719,-0.12792969,0.53808594,0.07324219,12.505915,16.07983,-56.832294,-16.79708,-0.27392578,0.5422363,0.87677,-0.043945312,0.21386719,0.10449219,5.1476884,13.176628,-128.78185,-18.054398,0.0,0.0,0.0,0.0,0.0,0.0,0.0,27.665562,-128.1641,-4.2766685,0.0,0.0,0.0,0.0,0.0,0.0,0.0,2.1334634,44.9531,-0.51489115,
1.1015624671708797,47,0.0068969727,-0.84069824,0.6123047,-0.2705078,-0.30078125,-0.09277344,0.0,0.0,0.0,0.0,0.0,0.0,0.0,0.0,0.0,0.0,0.0,-0.35799488,0.030171424,0.9333359,-1.0078125,-0.097839355,-0.08306885,-0.22753906,-0.05859375,-0.02734375,4.5953794,-7.411606,0.624642,19.322947,-0.987854,-0.034729004,-0.13781738,-0.2421875,0.19140625,-0.061523438,2.102265,-6.1794314,-56.334225,17.477118,-0.2783203,-0.62176514,0.6993408,-0.009765625,-0.3779297,0.125,5.9254613,-6.5257616,-128.32826,15.710212,0.0,0.0,0.0,0.0,0.0,0.0,0.0,8.134406,-128.03728,29.306976,0.0,0.0,0.0,0.0,0.0,0.0,0.0,0.35799488,-0.030171424,-0.9333359,-0.967041,0.10284424,0.023498535,0.12792969,-0.390625,0.045898438,12.056367,7.411606,-0.624642,-19.322947,-0.9385376,-0.17443848,-0.08782959,-0.12792969,0.6152344,0.07324219,13.902503,16.831196,-56.78812,-16.724276,-0.19915771,0.48345947,0.8065796,-0.060546875,0.11816406,0.047851562,5.5797725,13.041725,-128.68909,-18.458426,0.0,0.0,0.0,0.0,0.0,0.0,0.0,27.548779,-128.21103,-4.695944,0.0,0.0,0.0,0.0,0.0,0.0,0.0,1.9019158,44.958164,-0.72382903,
1.1249999664723878,48,0.004760742,-0.8566284,0.61920166,-0.29003906,-0.31933594,-0.111328125,0.0,0.0,0.0,0.0,0.0,0.0,0.0,0.0,0.0,0.0,0.0,-0.36281827,0.03218822,0.93141323,-0.9576416,-0.13311768,-0.11645508,-0.11230469,-0.021484375,-0.045898438,4.4997144,-7.511463,0.6663959,19.28314,-1.0079956,-0.07519531,-0.14709473,-0.22265625,0.15429688,-0.060546875,2.3162973,-6.4209046,-56.289925,17.222614,-0.32128906,-0.69226074,0.756897,-0.059570312,-0.18457031,-0.0048828125,6.5276246,-7.215934,-128.27869,15.381488,0.0,0.0,0.0,0.0,0.0,0.0,0.0,7.325841,-127.8877,29.10709,0.0,0.0,0.0,0.0,0.0,0.0,0.0,0.36281827,-0.03218822,-0.93141323,-0.9373169,0.075683594,0.01977539,-0.22949219,-0.3154297,-0.1015625,12.198021,7.511463,-0.6663959,-19.28314,-0.9579468,-0.18890381,-0.06994629,-0.09082031,0.6152344,0.111328125,15.200498,17.51443,-56.718018,-16.546892,-0.033081055,0.548584,0.74298096,-0.00390625,0.15722656,-0.044921875,6.2671328,12.977721,-128.55219,-18.76464,0.0,0.0,0.0,0.0,0.0,0.0,0.0,27.389027,-128.0634,-4.9018097,0.0,0.0,0.0,0.0,0.0,0.0,0.0,1.5613747,44.96755,-0.94579935,
1.1484374657738958,49,0.048461914,-0.8890991,0.59991455,-0.005859375,-0.3203125,-0.16894531,0.0,0.0,0.0,0.0,0.0,0.0,0.0,0.0,0.0,0.0,0.0,-0.3701621,0.036497332,0.9283438,-1.0159302,-0.10699463,-0.062072754,0.0234375,0.034179688,0.0087890625,4.623893,-7.663502,0.7556079,19.219593,-0.96881104,-0.035705566,-0.16235352,-0.009765625,0.19726562,0.0,2.5748866,-6.6389275,-56.201122,17.07098,-0.27697754,-0.50354004,0.81500244,-0.13574219,-0.22167969,-0.061523438,6.8568954,-7.840494,-128.17708,15.146478,0.0,0.0,0.0,0.0,0.0,0.0,0.0,6.699665,-127.72691,28.870285,0.0,0.0,0.0,0.0,0.0,0.0,0.0,0.3701621,-0.036497332,-0.9283438,-0.8859253,0.03564453,-0.20965576,-0.2109375,-0.20605469,-0.044921875,12.224403,7.663502,-0.7556079,-19.219593,-1.0025024,-0.099853516,-0.24719238,0.00390625,0.40625,0.11230469,16.364569,18.035059,-56.74009,-16.64753,0.047180176,0.54907227,0.70166016,0.0703125,0.2529297,-0.026367188,7.1678753,12.460704,-128.49854,-19.160418,0.0,0.0,0.0,0.0,0.0,0.0,0.0,26.713928,-127.882576,-5.1447983,0.0,0.0,0.0,0.0,0.0,0.0,0.0,1.3308662,44.967216,-1.2372004,
1.171874965075404,50,0.024658203,-0.88916016,0.6333008,0.107421875,-0.3408203,-0.15234375,0.0,0.0,0.0,0.0,0.0,0.0,0.0,0.0,0.0,0.0,0.0,-0.375536,0.042462647,0.9260487,-0.97387695,-0.07293701,-0.082336426,0.024414062,0.034179688,0.02734375,4.9602127,-7.77476,0.8791084,19.172077,-0.9786377,0.020874023,-0.11175537,-0.14453125,0.17480469,-0.021484375,2.8326886,-6.75515,-56.078503,16.978428,-0.24517822,-0.5447998,0.7175293,-0.1953125,-0.2607422,0.0126953125,7.177202,-8.27882,-128.0613,15.160735,0.0,0.0,0.0,0.0,0.0,0.0,0.0,6.215049,-127.51976,28.928078,0.0,0.0,0.0,0.0,0.0,0.0,0.0,0.375536,-0.042462647,-0.9260487,-1.0087891,-0.07952881,-0.13360596,0.25976562,-0.3544922,0.12011719,12.098559,7.77476,-0.8791084,-19.172077,-0.9299927,-0.08746338,-0.33514404,-0.12890625,0.42382812,0.15039062,17.061443,18.048586,-56.90575,-17.067955,-0.37121582,0.57177734,0.8808594,0.06933594,0.27246094,0.01171875,7.526525,11.266403,-128.5546,-19.608828,0.0,0.0,0.0,0.0,0.0,0.0,0.0,25.497166,-128.04433,-5.563389,0.0,0.0,0.0,0.0,0.0,0.0,0.0,1.3451712,44.963253,-1.5162255,
1.195312464376912,51,0.025024414,-0.92871094,0.6279907,0.16503906,-0.32226562,-0.13378906,0.0,0.0,0.0,0.0,0.0,0.0,0.0,0.0,0.0,0.0,0.0,-0.37943134,0.049827855,0.92408735,-0.97003174,-0.120910645,-0.07147217,-0.16503906,0.09277344,0.026367188,5.356025,-7.8554034,1.031591,19.131472,-0.9798584,-0.04498291,-0.09112549,-0.3779297,0.16796875,0.0126953125,2.9524724,-6.9070344,-55.922157,16.917585,-0.2064209,-0.64538574,0.7319336,-0.24707031,-0.10546875,-0.022460938,7.209711,-8.657534,-127.894295,15.216035,0.0,0.0,0.0,0.0,0.0,0.0,0.0,5.7503433,-127.30737,29.071548,0.0,0.0,0.0,0.0,0.0,0.0,0.0,0.37943134,-0.049827855,-0.92408735,-0.8954468,0.14477539,-0.15118408,0.5986328,-0.17480469,0.21191406,12.398756,7.8554034,-1.031591,-19.131472,-0.94451904,-0.15722656,-0.34466553,-0.16699219,0.4423828,0.13085938,18.305397,18.238962,-57.045685,-17.118483,-0.24822998,0.5036011,0.8086548,0.0546875,0.13769531,0.06542969,7.986131,10.005849,-128.5359,-19.81757,0.0,0.0,0.0,0.0,0.0,0.0,0.0,24.28273,-128.18793,-5.8140783,0.0,0.0,0.0,0.0,0.0,0.0,0.0,1.4930286,44.947514,-1.8105828,
1.21874996367842,52,0.015380859,-0.960022,0.618042,0.203125,-0.26464844,-0.115234375,0.0,0.0,0.0,0.0,0.0,0.0,0.0,0.0,0.0,0.0,0.0,-0.38297507,0.056092888,0.9222937,-0.9638672,-0.19458008,-0.06768799,-0.14453125,0.15039062,0.044921875,5.8901916,-7.9287715,1.1612966,19.09434,-0.98010254,-0.120910645,-0.095336914,-0.22265625,0.171875,0.03515625,3.0800054,-7.0951705,-55.782906,16.616465,-0.29345703,-0.69415283,0.73535156,-0.22558594,-0.047851562,-0.09765625,7.108871,-9.148443,-127.74758,14.667093,0.0,0.0,0.0,0.0,0.0,0.0,0.0,5.232607,-127.19265,28.552586,0.0,0.0,0.0,0.0,0.0,0.0,0.0,0.38297507,-0.056092888,-0.9222937,-0.951416,0.23242188,-0.13659668,0.16601562,0.13769531,0.15917969,12.179534,7.9287715,-1.1612966,-19.09434,-0.9534912,-0.12695312,-0.34631348,0.060546875,0.3310547,0.11230469,18.860165,17.872538,-57.238205,-16.793882,-0.140625,0.5501709,0.7183838,0.07421875,0.13769531,0.028320312,8.632218,8.548737,-128.58667,-19.781187,0.0,0.0,0.0,0.0,0.0,0.0,0.0,22.80724,-128.29582,-5.755822,0.0,0.0,0.0,0.0,0.0,0.0,0.0,1.6728381,44.932648,-2.0381212,
1.242187462979928,53,0.041748047,-0.86920166,0.604187,0.4296875,-0.24707031,-0.08105469,0.0,0.0,0.0,0.0,0.0,0.0,0.0,0.0,0.0,0.0,0.0,-0.3881169,0.062059935,0.9197152,-0.98217773,-0.15112305,0.012390137,-0.0078125,0.20605469,0.08105469,6.4667497,-8.035225,1.284833,19.040958,-0.9748535,-0.058654785,-0.029663086,-0.06738281,0.23046875,0.11328125,3.1863503,-7.270987,-55.64757,16.290894,-0.30596924,-0.64172363,0.76501465,-0.09277344,-0.068359375,-0.11621094,6.981935,-9.535683,-127.59755,14.126294,0.0,0.0,0.0,0.0,0.0,0.0,0.0,4.864126,-127.05269,27.991547,0.0,0.0,0.0,0.0,0.0,0.0,0.0,0.3881169,-0.062059935,-0.9197152,-0.9526367,0.07647705,-0.2368164,-0.32421875,0.14160156,0.12402344,11.938801,8.035225,-1.284833,-19.040958,-0.94384766,-0.053100586,-0.3696289,-0.11035156,0.1953125,0.13183594,19.015648,17.324928,-57.464947,-16.627789,-0.18682861,0.5435791,0.74591064,0.14746094,0.2529297,-0.0078125,9.102952,6.9794655,-128.67128,-19.488403,0.0,0.0,0.0,0.0,0.0,0.0,0.0,21.195084,-128.42455,-5.4201174,0.0,0.0,0.0,0.0,0.0,0.0,0.0,2.0053751,44.910374,-2.1841702,
1.2656249622814362,54,0.04888916,-0.8847046,0.62872314,0.4111328,-0.24707031,-0.025390625,0.0,0.0,0.0,0.0,0.0,0.0,0.0,0.0,0.0,0.0,0.0,-0.39851886,0.066637434,0.9146892,-0.97680664,-0.17132568,0.11401367,0.0078125,0.12988281,0.026367188,6.9504266,-8.250574,1.3796014,18.936903,-0.9748535,-0.058654785,-0.029663086,-0.06738281,0.23046875,0.11328125,3.3717363,-7.308058,-55.532787,16.078552,-0.2774048,-0.6218872,0.7062378,0.07519531,-0.109375,-0.00390625,7.0267997,-9.572753,-127.48277,13.913953,0.0,0.0,0.0,0.0,0.0,0.0,0.0,4.826459,-126.91683,27.780598,0.0,0.0,0.0,0.0,0.0,0.0,0.0,0.39851886,-0.066637434,-0.9146892,-0.9544678,0.085998535,-0.16851807,-0.15527344,0.068359375,0.2529297,11.8089075,8.250574,-1.3796014,-18.936903,-0.91241455,-0.080444336,-0.4029541,-0.35546875,0.17285156,0.07421875,19.261002,17.027275,-57.651676,-16.585993,-0.34851074,0.5360718,0.80981445,0.15136719,0.15625,0.12109375,9.323797,5.647603,-128.71,-19.274256,0.0,0.0,0.0,0.0,0.0,0.0,0.0,19.897486,-128.57565,-5.2385635,0.0,0.0,0.0,0.0,0.0,0.0,0.0,2.3089452,44.881733,-2.2637691,
1.2890624615829442,55,0.057678223,-0.8201904,0.61413574,0.3544922,-0.22851562,0.0859375,0.0,0.0,0.0,0.0,0.0,0.0,0.0,0.0,0.0,0.0,0.0,-0.40596926,0.07138289,0.91131735,-0.9725952,-0.13110352,0.35845947,0.13574219,-0.0625,0.028320312,7.643572,-8.404822,1.477847,18.867094,-0.9194946,-0.00970459,0.2892456,-0.14648438,0.5810547,0.12597656,3.7232587,-6.723727,-55.40849,16.152098,-0.25891113,-0.60113525,0.74768066,0.20703125,-0.072265625,0.11035156,5.5538616,-8.550964,-127.34772,13.957852,0.0,0.0,0.0,0.0,0.0,0.0,0.0,5.8447685,-126.7489,27.826265,0.0,0.0,0.0,0.0,0.0,0.0,0.0,0.40596926,-0.07138289,-0.91131735,-0.9486084,0.1404419,-0.07128906,-0.11816406,0.28808594,0.36523438,11.833414,8.404822,-1.477847,-18.867094,-0.9768677,-0.14697266,-0.3692627,-0.35546875,0.13476562,0.09375,19.579857,16.753391,-57.80055,-16.117893,-0.1907959,0.51934814,0.8244629,0.13671875,0.00390625,0.044921875,9.669103,4.5960093,-128.72359,-18.920647,0.0,0.0,0.0,0.0,0.0,0.0,0.0,18.853216,-128.64699,-4.8899736,0.0,0.0,0.0,0.0,0.0,0.0,0.0,2.6777194,44.86938,-2.3217316,
1.3124999608844523,56,0.10223389,-0.78204346,0.58251953,0.39257812,-0.09472656,0.234375,0.0,0.0,0.0,0.0,0.0,0.0,0.0,0.0,0.0,0.0,0.0,-0.41286594,0.072138846,0.90801084,-0.9690552,-0.012756348,0.5261841,0.16992188,-0.2548828,0.17871094,8.012929,-8.547604,1.4934978,18.79864,-0.87768555,0.18151855,0.41314697,-0.39941406,0.8339844,0.10058594,4.178936,-6.207875,-55.4187,16.524426,-0.21850586,-0.5050659,0.80236816,0.18652344,-0.0546875,0.35546875,4.3543315,-7.7417054,-127.37989,15.227704,0.0,0.0,0.0,0.0,0.0,0.0,0.0,6.641434,-126.75046,29.106686,0.0,0.0,0.0,0.0,0.0,0.0,0.0,0.41286594,-0.072138846,-0.90801084,-1.0647583,0.23779297,-0.17321777,-0.62597656,0.6923828,0.2939453,11.435818,8.547604,-1.4934978,-18.79864,-1.0793457,-0.12738037,-0.36853027,-0.35546875,-0.017578125,0.11328125,19.144005,16.071379,-57.90513,-15.574528,-0.09814453,0.5835571,0.7490845,0.12011719,-0.111328125,-0.14160156,10.103962,3.614069,-128.78165,-18.350363,0.0,0.0,0.0,0.0,0.0,0.0,0.0,17.813055,-128.59457,-4.26571,0.0,0.0,0.0,0.0,0.0,0.0,0.0,3.0150352,44.84863,-2.1921797,
1.3359374601859604,57,0.03967285,-0.7161865,0.58862305,0.48828125,0.05859375,0.34472656,0.0,0.0,0.0,0.0,0.0,0.0,0.0,0.0,0.0,0.0,0.0,-0.4201204,0.0696348,0.90503114,-0.89282227,0.07946777,0.66638184,-0.10546875,-0.578125,0.31152344,8.479361,-8.697796,1.4416565,18.736952,-0.838501,0.20593262,0.5633545,-0.84765625,1.3242188,-0.0078125,5.1739225,-5.418765,-55.45386,17.461924,-0.20709229,-0.6109009,0.65930176,0.01953125,0.08203125,0.31933594,3.540884,-7.0422153,-127.41911,17.39678,0.0,0.0,0.0,0.0,0.0,0.0,0.0,7.2300205,-126.81892,31.39131,0.0,0.0,0.0,0.0,0.0,0.0,0.0,0.4201204,-0.0696348,-0.90503114,-1.0270386,0.13671875,-0.18566895,-1.0410156,0.8222656,0.24023438,10.865241,8.697796,-1.4416565,-18.736952,-0.99468994,-0.092041016,-0.41949463,-0.41308594,-0.09472656,0.17089844,18.249186,15.099649,-57.97657,-15.184374,-0.30969238,0.63446045,0.798584,0.0625,-0.13085938,-0.06738281,10.060265,2.457672,-128.82817,-17.727516,0.0,0.0,0.0,0.0,0.0,0.0,0.0,16.702175,-128.62598,-3.6860666,0.0,0.0,0.0,0.0,0.0,0.0,0.0,3.4136326,44.84128,-1.865546,
1.3593749594874684,58,0.07281494,-0.70202637,0.6365967,0.62109375,0.17089844,0.62109375,0.0,0.0,0.0,0.0,0.0,0.0,0.0,0.0,0.0,0.0,0.0,-0.42228463,0.06484954,0.9043052,-0.8312378,0.045532227,0.7874756,-0.5917969,-0.89941406,0.46289062,9.542336,-8.742601,1.3425865,18.72192,-0.8706665,0.14477539,0.70648193,-1.1015625,1.8955078,-0.20996094,7.089694,-4.65945,-55.51491,18.31963,-0.18365479,-0.69122314,0.7160034,0.19726562,0.34960938,0.4169922,4.3698225,-7.7215834,-127.45851,18.958187,0.0,0.0,0.0,0.0,0.0,0.0,0.0,6.4167395,-126.98638,33.09053,0.0,0.0,0.0,0.0,0.0,0.0,0.0,0.42228463,-0.06484954,-0.9043052,-0.91882324,0.046875,-0.15960693,-0.9658203,1.1142578,0.40820312,10.473637,8.742601,-1.3425865,-18.72192,-0.92596436,-0.06536865,-0.29815674,-0.6591797,-0.15527344,0.1328125,17.188683,13.75681,-58.004047,-14.949298,-0.24243164,0.6470337,0.7385864,0.15917969,-0.09277344,0.13671875,10.178789,0.7693491,-128.8046,-17.219614,0.0,0.0,0.0,0.0,0.0,0.0,0.0,15.089805,-128.56725,-3.25733,0.0,0.0,0.0,0.0,0.0,0.0,0.0,4.084688,44.801945,-1.3054047,
1.3828124587889765,59,0.10229492,-0.65649414,0.6034546,0.5839844,0.34179688,0.99121094,0.0,0.0,0.0,0.0,0.0,0.0,0.0,0.0,0.0,0.0,0.0,-0.42639884,0.05324401,0.9030689,-0.8163452,-0.07373047,0.77716064,-0.9628906,-1.1630859,0.484375,11.222124,-8.827778,1.102316,18.696325,-0.9324341,0.26861572,0.38690186,-1.4140625,2.2607422,-0.390625,10.14284,-3.6819239,-55.6696,19.388517,0.017456055,-0.90838623,0.75701904,0.63964844,0.6894531,0.6669922,6.180093,-9.240618,-127.442276,20.411745,0.0,0.0,0.0,0.0,0.0,0.0,0.0,4.732813,-127.123985,34.701057,0.0,0.0,0.0,0.0,0.0,0.0,0.0,0.42639884,-0.05324401,-0.9030689,-1.0344849,0.08959961,-0.013061523,-0.8535156,1.0625,0.7236328,10.292774,8.827778,-1.102316,-18.696325,-0.97320557,-0.034973145,-0.10632324,-1.2822266,-0.20117188,0.07519531,15.705204,12.286535,-57.835567,-14.298439,-0.18945312,0.77001953,0.6950073,-0.076171875,0.09765625,0.40039062,10.284878,-0.5399351,-128.67628,-16.100046,0.0,0.0,0.0,0.0,0.0,0.0,0.0,13.731719,-128.27443,-2.0930367,0.0,0.0,0.0,0.0,0.0,0.0,0.0,4.736888,44.75236,-0.40195322,
1.4062499580904846,60,0.17773438,-0.5380249,0.53186035,0.09277344,0.59277344,1.2939453,0.0,0.0,0.0,0.0,0.0,0.0,0.0,0.0,0.0,0.0,0.0,-0.43400708,0.028934523,0.90048635,-1.1806641,0.10430908,0.87335205,-1.4462891,-2.0390625,0.6611328,13.608692,-8.9852915,0.59903425,18.642857,-1.4871216,-0.022521973,-0.051940918,-1.4316406,1.9824219,-0.42578125,14.580272,-2.212514,-55.95909,20.856976,-0.13153076,-1.2828369,1.0970459,1.2392578,0.68066406,1.2529297,8.678241,-11.049767,-127.43075,21.39389,0.0,0.0,0.0,0.0,0.0,0.0,0.0,2.9197636,-127.47215,35.704323,0.0,0.0,0.0,0.0,0.0,0.0,0.0,0.43400708,-0.028934523,-0.90048635,-1.0161743,-0.20214844,0.14794922,-0.7207031,0.65625,0.2939453,10.816179,8.9852915,-0.59903425,-18.642857,-0.91833496,-0.31524658,0.005432129,-1.3037109,-0.068359375,0.32421875,14.640547,11.528366,-57.3062,-13.746357,-0.15356445,0.3388672,0.9277344,-0.05859375,0.080078125,0.15917969,10.219254,-0.75946903,-128.22757,-15.387582,0.0,0.0,0.0,0.0,0.0,0.0,0.0,13.324765,-127.8082,-1.2008181,0.0,0.0,0.0,0.0,0.0,0.0,0.0,4.967781,44.716396,0.9574877,
1.4296874573919927,61,0.23815918,-0.5696411,0.5529175,-1.15625,0.6386719,1.34375,0.0,0.0,0.0,0.0,0.0,0.0,0.0,0.0,0.0,0.0,0.0,-0.44224343,-0.008264594,0.89710486,-1.7689209,0.3567505,0.36309814,-2.163086,-1.8046875,0.84375,16.066055,-9.15581,-0.17110276,18.572851,-2.0,-0.20349121,0.014404297,-0.037109375,2.1367188,-0.5751953,19.681692,-0.4762497,-56.34355,22.944527,-0.12628174,-1.6166382,1.3502808,1.0068359,1.1064453,1.1259766,9.9722,-12.607435,-127.3298,22.553581,0.0,0.0,0.0,0.0,0.0,0.0,0.0,1.3373337,-127.85335,36.881355,0.0,0.0,0.0,0.0,0.0,0.0,0.0,0.44224343,0.008264594,-0.89710486,-0.8265381,0.56347656,-0.07434082,-1.1923828,0.44335938,0.3876953,11.636282,9.15581,0.17110276,-18.572851,-0.9246216,-0.13598633,-0.20611572,-0.3564453,0.115234375,0.20898438,14.610317,11.232578,-56.497814,-12.880842,-0.12683105,0.6312866,0.798584,0.19921875,-0.16894531,-0.049804688,10.462397,-1.2317123,-127.41217,-14.212281,0.0,0.0,0.0,0.0,0.0,0.0,0.0,12.7578335,-126.95169,0.07545376,0.0,0.0,0.0,0.0,0.0,0.0,0.0,4.2254896,44.7417,2.4952123,
1.4531249566935007,62,0.027526855,-1.1325073,0.6560669,-1.7626953,0.50878906,1.0712891,0.0,0.0,0.0,0.0,0.0,0.0,0.0,0.0,0.0,0.0,0.0,-0.44959408,-0.04831782,0.89213824,-1.8539429,-0.21777344,0.32788086,-1.7548828,-1.7431641,-0.22949219,17.000296,-9.307993,-1.0003287,18.470028,-1.7202148,0.0016479492,-0.0914917,0.64160156,2.0458984,-0.6582031,24.78112,1.0189056,-56.74954,24.390594,0.5350342,-1.5529175,1.0793457,0.42089844,1.5966797,0.60253906,10.880611,-14.587877,-127.02864,22.549683,0.0,0.0,0.0,0.0,0.0,0.0,0.0,-0.5398159,-128.13463,36.74691,0.0,0.0,0.0,0.0,0.0,0.0,0.0,0.44959408,0.04831782,-0.89213824,-1.0131226,-0.039733887,-0.024475098,-0.30566406,0.7246094,0.23730469,11.207901,9.307993,1.0003287,-18.470028,-1.0040283,0.13085938,-0.30792236,0.0390625,0.1015625,0.30566406,13.7451105,10.070868,-55.673615,-12.463343,-0.2062378,0.63238525,0.78186035,0.119140625,-0.07324219,0.0078125,10.674184,-2.7671318,-126.5291,-13.439077,0.0,0.0,0.0,0.0,0.0,0.0,0.0,11.243356,-125.996124,0.8251848,0.0,0.0,0.0,0.0,0.0,0.0,0.0,2.2622182,44.809917,3.5669334,
1.4765624559950088,63,-0.15655518,-1.6804199,0.61151123,0.12890625,0.29296875,0.18359375,0.0,0.0,0.0,0.0,0.0,0.0,0.0,0.0,0.0,0.0,0.0,-0.4493368,-0.07176812,0.8906053,-1.4106445,-0.57458496,0.2387085,0.16894531,-1.6005859,-1.0996094,18.632044,-9.302666,-1.4858227,18.43829,-1.5968018,0.114990234,-0.25708008,0.6064453,1.3759766,-0.6503906,29.679064,3.5422945,-56.716385,24.300808,0.98602295,-1.2306519,1.2102661,-0.068359375,1.0058594,0.44433594,11.323973,-14.753081,-126.29264,21.014336,0.0,0.0,0.0,0.0,0.0,0.0,0.0,-0.60776615,-128.01093,35.050514,0.0,0.0,0.0,0.0,0.0,0.0,0.0,0.4493368,0.07176812,-0.8906053,-0.73205566,0.52893066,-0.38446045,0.60058594,1.0429688,0.23535156,11.408623,9.302666,1.4858227,-18.43829,-1.0265503,0.05859375,-0.3671875,0.3046875,0.18066406,0.22851562,13.150595,9.31385,-55.21894,-12.655106,-0.1895752,0.57073975,0.77160645,0.078125,-0.015625,-0.08496094,10.651925,-4.0077333,-125.98778,-13.2406,0.0,0.0,0.0,0.0,0.0,0.0,0.0,10.010824,-125.44105,1.016901,0.0,0.0,0.0,0.0,0.0,0.0,0.0,1.329742,44.78155,4.2795496,
1.4999999552965169,64,0.027038574,-1.2786865,0.46600342,0.8652344,0.06347656,-0.5810547,0.0,0.0,0.0,0.0,0.0,0.0,0.0,0.0,0.0,0.0,0.0,-0.442643,-0.062398486,0.89461744,-1.2938843,-0.25482178,0.17938232,1.7685547,-2.1357422,-0.29882812,21.86874,-9.164083,-1.291842,18.521353,-1.3352661,0.2041626,-0.32684326,0.029296875,0.22265625,-0.38085938,33.511337,6.281292,-55.81478,24.707914,1.5245972,-1.0718994,1.1419678,-0.3125,-0.20410156,0.44726562,11.188276,-13.150496,-125.03004,20.477125,0.0,0.0,0.0,0.0,0.0,0.0,0.0,0.87288857,-127.00678,34.601913,0.0,0.0,0.0,0.0,0.0,0.0,0.0,0.442643,0.062398486,-0.89461744,-0.9468994,0.20855713,-0.2791748,0.6376953,0.9345703,0.34570312,11.287007,9.164083,1.291842,-18.521353,-0.95318604,0.04284668,-0.4593506,0.059570312,0.08300781,0.17089844,12.080133,7.3333893,-55.37805,-12.658168,-0.13195801,0.50024414,0.7151489,-0.25,-0.034179688,-0.2109375,10.648285,-6.9582653,-125.9538,-12.75944,0.0,0.0,0.0,0.0,0.0,0.0,0.0,7.0452023,-125.391205,1.511713,0.0,0.0,0.0,0.0,0.0,0.0,0.0,2.1649299,44.75568,4.1928287,
1.523437454598025,65,0.19104004,-1.1391602,0.42608643,0.46777344,-0.0107421875,-0.6328125,0.0,0.0,0.0,0.0,0.0,0.0,0.0,0.0,0.0,0.0,0.0,-0.43426463,-0.04593666,0.8998359,-1.2434082,0.1437378,0.1328125,1.6650391,-2.5195312,0.0390625,25.710115,-8.990624,-0.9510312,18.629393,-1.2353516,0.15130615,-0.24151611,-0.625,-0.9121094,-0.26464844,36.416798,9.448998,-54.391922,25.97496,1.6276855,-0.8664551,0.85113525,-0.51953125,-1.1025391,-0.24316406,11.253561,-9.174251,-123.8031,21.29692,0.0,0.0,0.0,0.0,0.0,0.0,0.0,4.6573105,-125.536026,35.640892,0.0,0.0,0.0,0.0,0.0,0.0,0.0,0.43426463,0.04593666,-0.8998359,-0.8305054,0.21234131,-0.29785156,0.50683594,1.6269531,0.31152344,10.300378,8.990624,0.9510312,-18.629393,-1.0028076,-0.064941406,-0.38336182,0.041015625,-0.0703125,0.11425781,10.1528425,4.971986,-55.637993,-13.065163,-0.26623535,0.50549316,0.83032227,-0.23046875,-0.052734375,-0.3046875,10.271575,-9.586181,-126.16903,-12.913277,0.0,0.0,0.0,0.0,0.0,0.0,0.0,4.456237,-125.75136,1.3250504,0.0,0.0,0.0,0.0,0.0,0.0,0.0,2.894189,44.76469,3.6819873,
1.546874953899533,66,0.10144043,-0.97076416,0.49645996,0.71484375,0.21875,-0.5048828,0.0,0.0,0.0,0.0,0.0,0.0,0.0,0.0,0.0,0.0,0.0,-0.42711055,-0.03296101,0.90367293,-0.83740234,0.128479,0.16821289,0.8535156,-2.1484375,-0.0390625,29.100277,-8.842512,-0.68239516,18.708834,-0.9609375,-0.056274414,-0.22766113,-0.5234375,-1.9541016,0.09277344,37.278233,12.126062,-52.999084,27.228634,1.4169922,-0.78796387,0.7672119,-0.6074219,-1.2685547,-1.2070312,11.731193,-3.748209,-123.10107,22.690243,0.0,0.0,0.0,0.0,0.0,0.0,0.0,10.044146,-124.27122,37.132584,0.0,0.0,0.0,0.0,0.0,0.0,0.0,0.42711055,0.03296101,-0.90367293,-0.9802246,0.11859131,-0.27453613,0.5263672,1.6796875,0.20019531,9.392684,8.842512,0.68239516,-18.708834,-0.9529419,-0.14404297,-0.2588501,0.3251953,0.009765625,0.1328125,8.19853,2.6166644,-55.760876,-13.693024,-0.21624756,0.4968872,0.7554321,-0.030273438,-0.28320312,-0.29003906,10.256337,-11.968746,-126.283875,-13.736355,0.0,0.0,0.0,0.0,0.0,0.0,0.0,2.167818,-125.95378,0.4110508,0.0,0.0,0.0,0.0,0.0,0.0,0.0,3.4386125,44.753067,3.2575655,
1.570312453201041,67,0.029785156,-0.7765503,0.43927002,1.3769531,0.25390625,-0.6035156,0.0,0.0,0.0,0.0,0.0,0.0,0.0,0.0,0.0,0.0,0.0,-0.4268595,-0.01690792,0.90367514,-0.63946533,-0.03253174,0.12738037,0.7910156,-1.6318359,-0.23046875,32.25038,-8.837316,-0.35004634,18.708878,-0.7371826,-0.16137695,-0.29052734,0.46777344,-2.6728516,0.36523438,36.499622,14.311612,-51.64903,27.825079,1.0726318,-0.75024414,0.7632446,-0.63378906,-1.2060547,-2.0371094,11.84974,2.493909,-122.57912,23.946463,0.0,0.0,0.0,0.0,0.0,0.0,0.0,16.44521,-122.98542,38.277027,0.0,0.0,0.0,0.0,0.0,0.0,0.0,0.4268595,0.01690792,-0.90367514,-0.8397217,0.2713623,-0.26159668,0.45117188,1.7519531,0.052734375,8.509116,8.837316,0.35004634,-18.708878,-0.96746826,0.046020508,-0.17340088,0.5136719,-0.026367188,0.19140625,5.951571,0.47364712,-55.87283,-14.404623,-0.20831299,0.64489746,0.71691895,-0.3564453,-0.359375,-0.4736328,10.13508,-13.964895,-126.42441,-14.1647415,0.0,0.0,0.0,0.0,0.0,0.0,0.0,0.29461098,-126.08353,-0.1421547,0.0,0.0,0.0,0.0,0.0,0.0,0.0,4.2299767,44.691162,2.834249,
1.5937499525025491,68,0.0060424805,-0.5265503,0.35455322,1.4150391,0.37109375,-0.75097656,0.0,0.0,0.0,0.0,0.0,0.0,0.0,0.0,0.0,0.0,0.0,-0.41156805,0.0014485791,0.9114425,-0.4975586,-0.045959473,0.028381348,1.1796875,-1.4052734,-0.26953125,35.941044,-8.520734,0.029990084,18.869686,-0.49804688,0.09844971,-0.29473877,1.3427734,-3.2841797,0.69140625,34.45989,16.456306,-50.35648,28.189686,0.50128174,-0.67614746,0.7872925,-0.6875,-1.3554688,-2.6796875,11.136058,9.609274,-121.99402,25.46274,0.0,0.0,0.0,0.0,0.0,0.0,0.0,23.847008,-121.45233,39.50355,0.0,0.0,0.0,0.0,0.0,0.0,0.0,0.41156805,-0.0014485791,-0.9114425,-0.83251953,0.49072266,-0.0758667,-0.076171875,1.8105469,-0.07519531,8.157598,8.520734,-0.029990084,-18.869686,-0.96746826,0.046020508,-0.17340088,0.5136719,-0.026367188,0.19140625,4.784587,-2.031579,-55.88561,-14.671726,-0.14019775,0.61157227,0.73547363,-0.6279297,-0.359375,-0.65625,10.155923,-16.470121,-126.437195,-14.431845,0.0,0.0,0.0,0.0,0.0,0.0,0.0,-2.0541525,-126.18767,-0.5669489,0.0,0.0,0.0,0.0,0.0,0.0,0.0,5.7828283,44.557194,2.5404592,
1.6171874518040572,69,0.113586426,-0.42877197,0.28692627,0.46875,0.41503906,-0.74121094,0.0,0.0,0.0,0.0,0.0,0.0,0.0,0.0,0.0,0.0,0.0,-0.3941802,0.014516227,0.9191851,-0.30615234,0.098083496,-0.07171631,1.2939453,-1.484375,-0.10253906,38.947216,-8.16075,0.30053085,19.029982,-0.4378662,0.15515137,-0.34832764,1.0732422,-3.7050781,0.9580078,31.63983,18.55669,-49.13524,28.609814,0.28741455,-0.47479248,0.6517334,-0.81347656,-1.1230469,-2.7333984,10.440219,17.604929,-121.13022,27.340015,0.0,0.0,0.0,0.0,0.0,0.0,0.0,31.938126,-119.155235,41.128315,0.0,0.0,0.0,0.0,0.0,0.0,0.0,0.3941802,-0.014516227,-0.9191851,-0.9135132,0.22424316,-0.2074585,-0.32128906,1.8476562,-0.16699219,7.7450647,8.16075,-0.30053085,-19.029982,-0.9812622,-0.0010375977,-0.08807373,0.060546875,0.025390625,0.11425781,3.273451,-4.165042,-55.81375,-15.1407385,-0.20056152,0.5703125,0.8198242,-0.296875,-0.37890625,-0.25097656,9.396805,-18.277,-126.41394,-13.588954,0.0,0.0,0.0,0.0,0.0,0.0,0.0,-3.6997814,-126.25601,0.10675526,0.0,0.0,0.0,0.0,0.0,0.0,0.0,6.7618237,44.44592,2.197806,
1.6406249511055653,70,0.15948486,-0.572876,0.4038086,-0.32617188,0.6113281,-0.5654297,0.0,0.0,0.0,0.0,0.0,0.0,0.0,0.0,0.0,0.0,0.0,-0.3763024,0.016567774,0.92652696,-0.20306396,0.28222656,-0.13110352,1.125,-1.484375,0.119140625,40.931927,-7.790628,0.3430043,19.181982,-0.43371582,0.18847656,-0.3065796,0.7060547,-3.9228516,1.1640625,28.499008,20.684338,-47.997883,29.269535,-0.22613525,-0.80578613,0.9642334,-0.92285156,-1.0058594,-2.8271484,9.3400135,26.17427,-119.80664,29.765293,0.0,0.0,0.0,0.0,0.0,0.0,0.0,40.653538,-116.71395,43.20636,0.0,0.0,0.0,0.0,0.0,0.0,0.0,0.3763024,-0.016567774,-0.92652696,-0.99157715,-0.072387695,-0.06365967,-0.20800781,1.8125,-9.765625E-4,7.7343893,7.790628,-0.3430043,-19.181982,-0.9649048,-0.2163086,0.117126465,0.022460938,0.2919922,0.09375,3.5049813,-6.160706,-55.519585,-16.316715,-0.1932373,0.44470215,0.8545532,0.14746094,-0.36035156,-0.08886719,9.898827,-19.801268,-126.198074,-14.8171215,0.0,0.0,0.0,0.0,0.0,0.0,0.0,-5.0438166,-126.13373,-1.3162327,0.0,0.0,0.0,0.0,0.0,0.0,0.0,6.7234354,44.460293,1.9356561,
1.6640624504070733,71,0.17559814,-0.71698,0.5602417,-0.13574219,1.0527344,-0.3984375,0.0,0.0,0.0,0.0,0.0,0.0,0.0,0.0,0.0,0.0,0.0,-0.35704008,0.009817503,0.93405753,-0.23864746,0.2894287,0.03778076,0.66015625,-1.1572266,0.2998047,42.39306,-7.391836,0.20325276,19.337887,-0.45690918,0.12554932,-0.26141357,0.20117188,-3.8632812,1.1738281,24.889376,22.45394,-47.160526,30.091877,-0.60076904,-0.38220215,0.9906006,-0.9238281,-1.5087891,-2.3613281,8.521847,34.51003,-118.12332,32.459957,0.0,0.0,0.0,0.0,0.0,0.0,0.0,49.07489,-114.02039,45.539673,0.0,0.0,0.0,0.0,0.0,0.0,0.0,0.35704008,-0.009817503,-0.93405753,-1.1033325,-0.26190186,0.047058105,0.31835938,1.5,0.23828125,8.696532,7.391836,-0.20325276,-19.337887,-0.9157715,-0.15911865,0.35638428,0.060546875,0.6171875,0.13085938,4.986292,-8.047409,-55.051277,-17.493729,-0.16552734,0.5372925,0.85217285,0.4560547,-0.32226562,0.01953125,10.937222,-20.963352,-125.84717,-16.05234,0.0,0.0,0.0,0.0,0.0,0.0,0.0,-6.135806,-125.6325,-2.6274652,0.0,0.0,0.0,0.0,0.0,0.0,0.0,6.41851,44.496468,1.9857674,
1.6874999497085814,72,0.21868896,-0.8112793,0.56134033,0.22558594,1.4345703,-0.21484375,0.0,0.0,0.0,0.0,0.0,0.0,0.0,0.0,0.0,0.0,0.0,-0.34195215,0.004017189,0.93910617,-0.3902588,0.0791626,0.40075684,0.2626953,-0.92285156,0.07519531,43.69983,-7.0794706,0.08316828,19.442408,-0.64019775,0.09460449,-0.35205078,-0.34179688,-3.7480469,1.125,21.02257,23.835388,-46.46408,30.718086,-0.6298828,-0.4033203,0.87628174,-0.7998047,-1.5146484,-1.6445312,7.8261895,42.214443,-115.97275,34.956837,0.0,0.0,0.0,0.0,0.0,0.0,0.0,56.60737,-110.98558,47.91874,0.0,0.0,0.0,0.0,0.0,0.0,0.0,0.34195215,-0.004017189,-0.93910617,-1.0148315,-0.018371582,0.03503418,0.9589844,1.5136719,0.328125,9.529638,7.0794706,-0.08316828,-19.442408,-0.90600586,-0.12640381,0.2390747,0.021484375,0.90234375,0.22558594,6.074864,-9.383155,-54.619076,-18.407192,-0.16436768,0.572876,0.8179321,0.6464844,-0.24511719,0.037109375,12.240006,-22.09658,-125.45795,-16.766537,0.0,0.0,0.0,0.0,0.0,0.0,0.0,-7.20611,-125.01577,-3.4188366,0.0,0.0,0.0,0.0,0.0,0.0,0.0,6.2643375,44.48701,2.0907013,
1.7109374490100895,73,0.18920898,-0.8897095,0.5545044,0.1875,1.5322266,-0.3251953,0.0,0.0,0.0,0.0,0.0,0.0,0.0,0.0,0.0,0.0,0.0,-0.32524064,-0.004698068,0.94442874,-0.55218506,-0.01586914,0.49371338,0.017578125,-0.1171875,-0.119140625,44.289825,-6.7334905,-0.09726468,19.552603,-0.83758545,0.0368042,-0.34777832,-0.671875,-3.5341797,1.0791016,16.837225,24.715729,-46.27577,30.854141,-0.5097656,-0.34106445,0.41558838,-0.8154297,-0.44140625,-0.8769531,8.742375,48.633667,-113.8905,36.81616,0.0,0.0,0.0,0.0,0.0,0.0,0.0,63.10834,-108.471535,49.50231,0.0,0.0,0.0,0.0,0.0,0.0,0.0,0.32524064,0.004698068,-0.94442874,-0.9016113,0.14135742,-0.21728516,1.6015625,1.7978516,0.30859375,10.759581,6.7334905,0.09726468,-19.552603,-0.99505615,0.06719971,-0.095336914,0.39941406,1.1552734,0.26367188,6.7414527,-11.066299,-54.05246,-19.536417,-0.14923096,0.5856323,0.793396,0.65625,0.0234375,-0.10839844,13.418246,-24.7074,-124.747246,-18.095034,0.0,0.0,0.0,0.0,0.0,0.0,0.0,-9.767317,-124.10396,-4.8123703,0.0,0.0,0.0,0.0,0.0,0.0,0.0,6.1362934,44.467278,2.3344083,
1.7343749483115976,74,-0.059936523,-0.9916992,0.6088257,-0.22949219,1.4404297,-0.54296875,0.0,0.0,0.0,0.0,0.0,0.0,0.0,0.0,0.0,0.0,0.0,-0.30436498,-0.019146435,0.9515868,-0.8607788,0.17303467,0.47576904,-0.12597656,0.68359375,0.20410156,43.530117,-6.301298,-0.3963905,19.700796,-0.9364624,0.049194336,-0.08538818,-0.09277344,-3.015625,1.0253906,13.218525,24.73907,-46.83042,31.090324,-1.6016235,-1.7266235,1.1352539,-1.3623047,0.5136719,-1.9785156,9.443336,52.487907,-112.89475,37.921963,0.0,0.0,0.0,0.0,0.0,0.0,0.0,67.31082,-107.58323,50.252384,0.0,0.0,0.0,0.0,0.0,0.0,0.0,0.30436498,0.019146435,-0.9515868,-0.9611206,0.12957764,-0.36663818,2.3740234,1.7373047,0.49121094,13.007969,6.301298,0.3963905,-19.700796,-1.1474609,0.034118652,-0.118652344,0.60839844,1.2724609,0.24414062,7.3533263,-13.323006,-53.103977,-20.879261,0.058288574,0.8529053,0.7113037,0.44433594,0.48535156,-0.5654297,14.032769,-28.743444,-123.44757,-19.83146,0.0,0.0,0.0,0.0,0.0,0.0,0.0,-13.761045,-122.79837,-6.596896,0.0,0.0,0.0,0.0,0.0,0.0,0.0,5.72443,44.517445,2.7266731,
1.7578124476131056,75,-0.24212646,-1.1246338,0.6402588,-0.3251953,1.1708984,-0.6171875,0.0,0.0,0.0,0.0,0.0,0.0,0.0,0.0,0.0,0.0,0.0,-0.27414995,-0.030702122,0.9610585,-1.2904053,0.092285156,0.91815186,-0.61816406,0.78222656,0.31445312,42.196968,-5.675753,-0.6356291,19.89689,-1.0841675,-0.42962646,0.22955322,0.38867188,-2.2519531,0.58691406,9.843646,24.345266,-47.683315,31.518291,-1.9349365,-0.49493408,0.6756592,0.11230469,0.07910156,-2.6796875,11.002278,55.76161,-112.10242,38.33528,0.0,0.0,0.0,0.0,0.0,0.0,0.0,70.88087,-106.17942,50.01448,0.0,0.0,0.0,0.0,0.0,0.0,0.0,0.27414995,0.030702122,-0.9610585,-1.0413818,0.13659668,-0.4541626,2.5048828,1.2109375,0.6191406,15.278489,5.675753,0.6356291,-19.89689,-1.0744629,0.03112793,-0.086242676,1.2324219,1.4521484,0.2626953,7.930682,-15.764612,-52.140404,-21.906607,-0.061706543,0.60705566,0.79351807,0.4404297,1.1005859,-0.9863281,13.885422,-32.92282,-122.07706,-21.527763,0.0,0.0,0.0,0.0,0.0,0.0,0.0,-17.946259,-121.6814,-8.280646,0.0,0.0,0.0,0.0,0.0,0.0,0.0,5.403306,44.569878,2.965174,
1.7812499469146137,76,-0.20947266,-1.1988525,0.7491455,-0.07910156,0.7636719,-0.5488281,0.0,0.0,0.0,0.0,0.0,0.0,0.0,0.0,0.0,0.0,0.0,-0.24970025,-0.035350427,0.96774435,-1.3722534,-0.5380249,1.0733032,0.6748047,0.22167969,-0.32617188,41.591915,-5.169569,-0.7318635,20.03531,-1.1366577,-0.022949219,0.41027832,2.2626953,-0.7138672,0.6386719,7.8837132,24.503881,-48.037113,31.495453,-2.0,0.08129883,0.09088135,0.6894531,1.0078125,-1.1396484,11.536693,58.02101,-111.35745,38.815914,0.0,0.0,0.0,0.0,0.0,0.0,0.0,73.46504,-104.92273,49.777138,0.0,0.0,0.0,0.0,0.0,0.0,0.0,0.24970025,0.035350427,-0.96774435,-1.0830688,0.607605,-0.381958,1.9960938,0.7763672,0.359375,16.91387,5.169569,0.7318635,-20.03531,-1.1100464,0.17089844,-0.15252686,0.70410156,1.6367188,0.08886719,7.662164,-17.65736,-51.444542,-22.443077,-0.12475586,0.6218262,0.8536377,0.6455078,1.8876953,-1.0546875,13.17871,-36.91585,-120.838455,-22.83827,0.0,0.0,0.0,0.0,0.0,0.0,0.0,-22.012012,-120.99232,-9.50093,0.0,0.0,0.0,0.0,0.0,0.0,0.0,5.275382,44.5925,2.990075,
1.8046874462161218,77,-0.18249512,-1.281189,0.6622925,0.12695312,0.08691406,-0.59277344,0.0,0.0,0.0,0.0,0.0,0.0,0.0,0.0,0.0,0.0,0.0,-0.23526376,-0.030994136,0.9716256,-1.001648,-0.24731445,1.088623,2.5605469,-0.5761719,-0.4091797,41.84813,-4.8706894,-0.6416746,20.115662,-0.6932373,0.2791748,0.32855225,1.7324219,0.9316406,0.15429688,7.736596,25.378246,-47.719704,30.997612,-2.0,0.09954834,0.07720947,1.5068359,1.8925781,0.8339844,11.463103,58.504436,-111.17691,38.88784,0.0,0.0,0.0,0.0,0.0,0.0,0.0,74.39453,-104.98989,49.340332,0.0,0.0,0.0,0.0,0.0,0.0,0.0,0.23526376,0.030994136,-0.9716256,-1.1386719,0.730896,-0.40167236,0.92089844,0.54785156,0.12109375,17.766426,4.8706894,0.6416746,-20.115662,-1.2767944,0.005126953,-0.0713501,0.1953125,1.7832031,-0.083984375,6.426722,-18.767673,-51.166515,-22.777246,-0.16351318,0.6760254,0.8618164,0.9628906,2.694336,-1.4960938,12.533328,-40.445267,-119.8239,-24.368862,0.0,0.0,0.0,0.0,0.0,0.0,0.0,-25.712065,-120.781685,-10.8731785,0.0,0.0,0.0,0.0,0.0,0.0,0.0,5.2806587,44.615643,2.7018337,
1.8281249455176298,78,-0.101257324,-1.2297974,0.56414795,0.46679688,-0.28222656,-0.52441406,0.0,0.0,0.0,0.0,0.0,0.0,0.0,0.0,0.0,0.0,0.0,-0.22937053,-0.016783308,0.9733293,-1.0789795,0.14105225,0.97924805,2.258789,-0.67285156,0.09082031,42.631084,-4.7486806,-0.34746653,20.150934,-0.8329468,-0.103637695,-0.024047852,0.21386719,2.4267578,-0.86035156,10.426698,26.23471,-47.00524,30.771282,-2.0,0.37683105,0.22015381,0.98339844,1.3701172,2.1660156,11.254245,56.54342,-111.88618,38.43482,0.0,0.0,0.0,0.0,0.0,0.0,0.0,72.76265,-106.451256,48.799667,0.0,0.0,0.0,0.0,0.0,0.0,0.0,0.22937053,0.016783308,-0.9733293,-1.2930298,0.43408203,-0.31396484,0.18652344,0.51660156,-0.08105469,18.17082,4.7486806,0.34746653,-20.150934,-1.2716064,-0.23596191,0.083862305,0.49902344,2.1113281,-0.10449219,4.817759,-19.56039,-51.125122,-23.125856,-0.23742676,0.63378906,0.77789307,1.6855469,3.4453125,-2.2753906,11.515243,-43.948784,-118.82154,-26.185505,0.0,0.0,0.0,0.0,0.0,0.0,0.0,-29.442131,-120.87854,-12.56701,0.0,0.0,0.0,0.0,0.0,0.0,0.0,5.5493426,44.614147,2.0770242,
1.851562444819138,79,-0.19604492,-1.3566284,0.79022217,-2.8271484,-0.0859375,-0.859375,0.0,0.0,0.0,0.0,0.0,0.0,0.0,0.0,0.0,0.0,0.0,-0.22647,-0.007831689,0.9742766,-1.458435,0.7597046,1.999939,1.2255859,-3.1259766,0.02734375,43.62963,-4.688631,-0.16214022,20.170547,-2.0,0.7314453,-0.7272949,1.3603516,1.921875,0.26953125,15.729836,28.238134,-45.424667,30.981026,1.9477539,-2.0,-1.9421997,0.16503906,1.6240234,6.28125,10.498519,55.20173,-111.88618,37.51387,0.0,0.0,0.0,0.0,0.0,0.0,0.0,71.42708,-107.96481,48.53443,0.0,0.0,0.0,0.0,0.0,0.0,0.0,0.22647,0.007831689,-0.9742766,-1.52771,0.26141357,0.018310547,0.31835938,0.4248047,-0.10058594,20.052307,4.688631,0.16214022,-20.170547,-1.4503174,0.04534912,0.47784424,1.3310547,2.446289,-0.10449219,3.0011358,-20.201578,-51.018307,-23.438713,-0.14422607,0.79125977,1.0337524,1.9042969,4.8291016,-2.9873047,9.79886,-47.611618,-117.45462,-28.11994,0.0,0.0,0.0,0.0,0.0,0.0,0.0,-33.49894,-120.88622,-14.364132,0.0,0.0,0.0,0.0,0.0,0.0,0.0,4.6360598,44.750248,1.4373726,
1.874999944120646,80,-0.21875,-1.1052246,0.6308594,0.6171875,-0.9765625,-0.64160156,0.0,0.0,0.0,0.0,0.0,0.0,0.0,0.0,0.0,0.0,0.0,-0.2310335,0.0060303174,0.9732999,-0.92840576,0.6966553,-0.4414673,-1.3134766,2.703125,-0.4658203,41.850147,-4.78311,0.12484619,20.150324,-0.39257812,-0.3267212,-0.27471924,-0.48632812,3.0058594,-2.3066406,20.003944,28.38381,-45.035763,30.627945,-2.0,-2.0,-0.5751953,0.6425781,1.4208984,0.60058594,8.324188,50.41992,-113.34761,36.27171,0.0,0.0,0.0,0.0,0.0,0.0,0.0,66.69676,-109.875206,47.365852,0.0,0.0,0.0,0.0,0.0,0.0,0.0,0.2310335,-0.0060303174,-0.9732999,-1.7522583,0.17340088,0.32940674,-0.07910156,-0.15332031,-0.064453125,22.117186,4.78311,-0.12484619,-20.150324,-1.411499,-0.7602539,0.86694336,-0.19433594,2.9433594,-0.68359375,2.485222,-20.330187,-51.182873,-23.649822,-0.31219482,0.859375,0.7998657,1.9951172,6.6152344,-3.694336,7.1489654,-51.271095,-115.84532,-30.60564,0.0,0.0,0.0,0.0,0.0,0.0,0.0,-38.17616,-121.197586,-16.461086,0.0,0.0,0.0,0.0,0.0,0.0,0.0,3.330434,44.890034,0.5124226,
1.898437443422154,81,0.079833984,-0.75476074,0.6916504,0.9189453,-1.6015625,0.015625,0.0,0.0,0.0,0.0,0.0,0.0,0.0,0.0,0.0,0.0,0.0,-0.2552487,0.040589012,0.9661389,-0.61920166,0.15100098,-0.3093872,-2.1152344,3.4091797,-2.0634766,36.042385,-5.28444,0.84031826,20.00207,0.52459717,-0.16693115,-0.4915161,0.43066406,1.5341797,-1.5507812,18.245161,23.035027,-47.949257,28.133774,1.0304565,-0.26141357,1.2061768,0.21972656,2.6171875,0.8798828,8.215611,39.857616,-117.83964,31.241772,0.0,0.0,0.0,0.0,0.0,0.0,0.0,56.56592,-115.34152,41.949017,0.0,0.0,0.0,0.0,0.0,0.0,0.0,0.2552487,-0.040589012,-0.9661389,-1.7771606,-0.13580322,0.59472656,-0.4560547,-1.0429688,-0.34472656,20.498388,5.28444,-0.84031826,-20.00207,-1.5440063,-1.1362915,1.2489014,0.9746094,3.5107422,-0.3203125,6.5895467,-19.075119,-52.268364,-23.426863,-0.12414551,0.74902344,0.75494385,2.5449219,8.459961,-4.647461,6.037412,-54.199444,-114.42697,-32.884727,0.0,0.0,0.0,0.0,0.0,0.0,0.0,-42.845306,-121.94202,-18.243793,0.0,0.0,0.0,0.0,0.0,0.0,0.0,4.1745005,44.804234,-0.77941495,
1.921874942723662,82,0.40014648,-0.7373657,0.9299927,-0.10058594,-0.75,0.4375,0.0,0.0,0.0,0.0,0.0,0.0,0.0,0.0,0.0,0.0,0.0,-0.27848703,0.05434419,0.9590438,-0.0602417,-0.20739746,-0.41748047,-2.928711,0.58984375,-2.0302734,34.172268,-5.7655454,1.1250932,19.855179,-1.6555176,0.0072021484,-0.84576416,2.2158203,1.1835938,0.3310547,17.802574,21.194494,-48.850967,24.894592,-1.6295776,-0.47229004,1.2808228,0.12402344,1.59375,1.6025391,7.4978437,35.478657,-119.38207,27.614252,0.0,0.0,0.0,0.0,0.0,0.0,0.0,52.34647,-118.027626,38.276073,0.0,0.0,0.0,0.0,0.0,0.0,0.0,0.27848703,-0.05434419,-0.9590438,-2.0,-0.5791626,1.5723877,-1.6464844,-4.7333984,-1.3759766,16.20412,5.7655454,-1.1250932,-19.855179,-1.5523682,-0.62719727,0.977478,3.3955078,3.6738281,-0.2607422,14.492401,-14.700691,-54.2053,-23.405447,-0.9449463,1.9330444,1.2331543,1.9101562,11.015625,-6.0439453,13.656304,-54.105988,-113.37335,-34.95349,0.0,0.0,0.0,0.0,0.0,0.0,0.0,-45.68759,-123.05348,-19.600689,0.0,0.0,0.0,0.0,0.0,0.0,0.0,4.47781,44.765766,-1.2363849,
1.9453124420251702,83,0.17895508,-0.45465088,0.99975586,-1.1416016,-0.6855469,0.4296875,0.0,0.0,0.0,0.0,0.0,0.0,0.0,0.0,0.0,0.0,0.0,-0.29362732,0.05441478,0.95406926,-1.4788818,-0.56396484,0.01184082,-1.1005859,0.828125,-0.20410156,33.550053,-6.0789943,1.1265545,19.752192,-1.0532837,0.4296875,-0.4197998,1.0517578,1.3339844,-0.7001953,19.571335,21.017223,-48.87184,23.537632,-0.6140747,-1.432251,0.880249,0.12011719,0.6142578,1.2128906,6.6585565,32.979538,-119.84182,26.155508,0.0,0.0,0.0,0.0,0.0,0.0,0.0,49.761917,-119.19593,37.017075,0.0,0.0,0.0,0.0,0.0,0.0,0.0,0.29362732,-0.05441478,-0.95406926,-1.1115112,-0.5908203,0.26055908,0.4111328,-3.9902344,-1.4365234,10.162273,6.0789943,-1.1265545,-19.752192,-1.9083252,1.2423706,-0.2062378,2.6923828,3.053711,0.0087890625,25.381006,-7.46011,-56.387215,-23.300415,-2.0,-1.8947754,0.5031738,-2.743164,7.7402344,-2.5957031,28.367298,-50.52828,-112.49957,-36.846786,0.0,0.0,0.0,0.0,0.0,0.0,0.0,-46.41677,-123.641525,-20.749935,0.0,0.0,0.0,0.0,0.0,0.0,0.0,3.973989,44.791428,-1.3316057,
1.9687499413266782,84,-0.101379395,-0.47442627,0.89056396,-1.3125,-0.6435547,0.11816406,0.0,0.0,0.0,0.0,0.0,0.0,0.0,0.0,0.0,0.0,0.0,-0.27903107,0.057521828,0.954927,-1.50531,0.02545166,-0.41778564,2.625,1.2128906,0.27246094,30.329985,-5.776808,1.1908801,19.76995,-0.9591675,-0.072509766,-0.52996826,-0.6923828,1.3671875,-1.2626953,20.105576,19.656176,-49.70491,23.331776,-0.4613037,-0.3293457,1.0886841,0.001953125,0.17773438,0.45214844,4.997947,28.72298,-121.10719,24.800478,0.0,0.0,0.0,0.0,0.0,0.0,0.0,45.456696,-120.7503,35.749508,0.0,0.0,0.0,0.0,0.0,0.0,0.0,0.27903107,-0.057521828,-0.954927,-2.0,0.39001465,-0.20599365,2.4833984,-2.796875,-0.17675781,9.452469,5.776808,-1.1908801,-19.76995,-1.453064,0.3529663,-1.2685547,-4.506836,3.2333984,-0.6689453,32.499634,-4.4943657,-57.09065,-24.163883,-1.310669,1.9331055,1.6425171,-2.5166016,3.3652344,-1.8808594,33.556496,-51.442276,-109.78058,-38.513775,0.0,0.0,0.0,0.0,0.0,0.0,0.0,-50.51901,-121.36341,-22.231895,0.0,0.0,0.0,0.0,0.0,0.0,0.0,2.965359,44.707966,-1.8265862,
1.9921874406281863,85,-0.20074463,-0.8430176,0.7956543,-1.2753906,-0.93066406,-0.17871094,0.0,0.0,0.0,0.0,0.0,0.0,0.0,0.0,0.0,0.0,0.0,-0.274499,0.05741382,0.9576018,-0.94055176,0.2390747,-0.0960083,0.37402344,2.1904297,-0.25683594,25.034067,-5.68298,1.188644,19.825325,-0.85266113,-0.22229004,-0.5656738,-0.1484375,1.0214844,-0.6972656,20.559261,16.674969,-51.142353,22.605026,-0.42626953,-0.90075684,0.6846924,-0.40625,-0.31640625,0.087890625,1.9482275,20.923851,-122.99451,23.164095,0.0,0.0,0.0,0.0,0.0,0.0,0.0,37.55129,-122.67468,34.27648,0.0,0.0,0.0,0.0,0.0,0.0,0.0,0.274499,-0.05741382,-0.9576018,-1.5348511,0.85736084,-1.8918457,1.4384766,-3.4072266,1.4238281,7.2953577,5.68298,-1.188644,-19.825325,-1.6199951,-0.5238037,-1.085022,-4.286133,2.9677734,-0.09277344,42.187366,-0.23410463,-57.7987,-23.008598,-0.38208008,1.5766602,-2.0,-0.5263672,-1.1630859,-0.9248047,26.811563,-51.40444,-105.93585,-38.836052,0.0,0.0,0.0,0.0,0.0,0.0,0.0,-50.882946,-117.63498,-22.619913,0.0,0.0,0.0,0.0,0.0,0.0,0.0,1.5111079,44.819874,-2.2540505,
2.0156249399296944,86,-0.0026855469,-1.147522,0.7541504,-1.4091797,-1.1601562,-0.36328125,0.0,0.0,0.0,0.0,0.0,0.0,0.0,0.0,0.0,0.0,0.0,-0.2906322,0.063908756,0.9544044,-0.8977661,-0.08166504,-0.2276001,-1.9912109,1.9082031,-0.67871094,19.59927,-6.0169888,1.3231094,19.75913,-1.2791138,-0.284729,-0.4979248,-0.8847656,0.9472656,-0.8613281,18.717775,13.176319,-52.289345,21.312351,-0.29351807,-0.56781006,0.79888916,-0.62109375,0.0146484375,-0.17285156,1.1162747,15.337839,-124.273766,21.22685,0.0,0.0,0.0,0.0,0.0,0.0,0.0,31.915916,-124.0014,32.41338,0.0,0.0,0.0,0.0,0.0,0.0,0.0,0.2906322,-0.063908756,-0.9544044,-1.3970947,0.36468506,-1.0845337,-0.91503906,-3.3779297,0.29882812,5.816183,6.0169888,-1.3231094,-19.75913,-1.213501,-0.70166016,-0.88775635,0.0625,1.5332031,0.0126953125,49.63846,3.9867907,-58.275455,-21.217451,0.57562256,1.2519531,1.9350586,0.12792969,-3.9638672,-0.62597656,20.339655,-49.72417,-103.35701,-37.65483,0.0,0.0,0.0,0.0,0.0,0.0,0.0,-48.25491,-115.60278,-21.907337,0.0,0.0,0.0,0.0,0.0,0.0,0.0,-0.16752166,44.883118,-3.0564733,
2.0390624392312025,87,0.19128418,-1.1723633,0.71606445,-0.42382812,-1.0527344,-0.00390625,0.0,0.0,0.0,0.0,0.0,0.0,0.0,0.0,0.0,0.0,0.0,-0.30947945,0.07232119,0.9481946,-1.078125,-0.7989502,-0.24731445,-1.6259766,2.3789062,-0.1484375,15.550949,-6.407183,1.4972728,19.630568,-0.8430176,-0.3295288,-0.54504395,-0.4580078,0.7861328,-0.49023438,16.96707,9.646894,-53.201786,19.681343,-0.34796143,-0.7357788,0.663147,-0.859375,0.19140625,-0.41601562,1.5637296,9.696612,-125.17856,18.903503,0.0,0.0,0.0,0.0,0.0,0.0,0.0,26.279854,-125.04126,30.08479,0.0,0.0,0.0,0.0,0.0,0.0,0.0,0.30947945,-0.07232119,-0.9481946,-1.5610962,0.2617798,-0.26965332,-1.8388672,-5.341797,-0.61621094,6.0358205,6.407183,-1.4972728,-19.630568,-0.9972534,-0.018493652,-0.96765137,3.3916016,-0.23828125,-0.15039062,56.2278,10.610795,-58.34229,-20.17533,1.069458,0.8831177,1.124939,-1.5625,-5.3085938,-0.34375,17.942816,-43.17354,-103.093765,-37.24679,0.0,0.0,0.0,0.0,0.0,0.0,0.0,-40.10489,-115.84768,-22.147282,0.0,0.0,0.0,0.0,0.0,0.0,0.0,-1.2137067,44.8234,-3.8149326,
2.0624999385327105,88,0.28027344,-0.9906006,0.52941895,0.99902344,-0.43164062,0.88964844,0.0,0.0,0.0,0.0,0.0,0.0,0.0,0.0,0.0,0.0,0.0,-0.32967928,0.0725227,0.9414643,-0.94299316,-0.5360718,-0.2220459,0.33691406,2.7626953,-0.078125,13.040761,-6.825384,1.5014448,19.49123,-1.0997314,-0.215271,-0.47265625,0.0859375,0.53808594,-0.23046875,14.973988,5.8938837,-54.06529,18.836826,-0.29400635,-0.6288452,0.7130127,-1.0410156,0.38671875,-0.60253906,2.442002,4.053218,-126.05403,17.92331,0.0,0.0,0.0,0.0,0.0,0.0,0.0,20.708435,-126.08933,28.99865,0.0,0.0,0.0,0.0,0.0,0.0,0.0,0.32967928,-0.0725227,-0.9414643,-1.4335327,0.2835083,-0.36932373,-2.0644531,-4.4648438,-0.44433594,10.92775,6.825384,-1.5014448,-19.49123,-0.94573975,0.33691406,-1.1799927,3.618164,-2.2197266,-0.18164062,60.575916,17.815393,-57.437523,-18.945185,1.126648,0.85076904,0.7940674,-1.4736328,-6.192383,-0.09375,17.634897,-33.763535,-104.62945,-36.224064,0.0,0.0,0.0,0.0,0.0,0.0,0.0,-28.940784,-117.721535,-21.891026,0.0,0.0,0.0,0.0,0.0,0.0,0.0,-0.7968685,44.844612,-3.7335072,
2.0859374378342186,89,0.15429688,-0.6029663,0.42956543,1.5302734,0.22070312,1.0,0.0,0.0,0.0,0.0,0.0,0.0,0.0,0.0,0.0,0.0,0.0,-0.34758005,0.06662671,0.93532586,-0.8777466,-0.019897461,-0.08105469,0.7001953,2.8173828,-0.20898438,11.041612,-7.195983,1.3793794,19.364143,-0.9907837,-0.018737793,-0.20812988,0.009765625,0.36816406,-0.23046875,11.304791,1.0885887,-54.973747,17.073107,-0.16418457,-0.6107178,0.6712036,-0.7607422,0.34375,-0.31933594,3.0231674,-1.7667658,-126.92108,15.993085,0.0,0.0,0.0,0.0,0.0,0.0,0.0,14.882772,-127.04239,27.071545,0.0,0.0,0.0,0.0,0.0,0.0,0.0,0.34758005,-0.06662671,-0.93532586,-1.1838989,0.21899414,-0.6062012,-0.95214844,-3.6513672,0.14941406,17.39469,7.195983,-1.3793794,-19.364143,-0.46569824,0.5022583,-1.1314697,1.6640625,-3.4472656,0.28125,61.773773,23.331974,-56.021183,-17.38119,1.1047974,0.92266846,0.3112793,-1.3046875,-6.2929688,1.4814453,16.25555,-24.477322,-107.14433,-34.30078,0.0,0.0,0.0,0.0,0.0,0.0,0.0,-17.550398,-119.8388,-20.477581,0.0,0.0,0.0,0.0,0.0,0.0,0.0,0.6867341,44.900322,-2.9432156,
2.1093749371357267,90,0.07348633,-0.49102783,0.3809204,1.359375,0.20507812,0.6142578,0.0,0.0,0.0,0.0,0.0,0.0,0.0,0.0,0.0,0.0,0.0,-0.35298264,0.06031999,0.9337812,-0.8099365,0.13250732,-0.051452637,0.30273438,2.8769531,-0.005859375,9.366575,-7.307834,1.2488108,19.332165,-0.9985962,0.013305664,-0.0040283203,-0.18359375,0.25097656,-0.21289062,8.184748,-2.5400457,-55.48023,16.369915,-0.19830322,-0.69140625,0.64123535,-0.18554688,0.12402344,0.16894531,3.0341556,-5.8079066,-127.413025,15.150603,0.0,0.0,0.0,0.0,0.0,0.0,0.0,10.773764,-127.62195,26.327644,0.0,0.0,0.0,0.0,0.0,0.0,0.0,0.35298264,-0.06031999,-0.9337812,-0.8360596,0.12792969,-0.6739502,-0.123046875,-3.1660156,0.40820312,23.03496,7.307834,-1.2488108,-19.332165,-0.17456055,0.17443848,-0.98864746,-0.17382812,-4.5390625,0.5908203,61.12117,27.121195,-54.51746,-15.908981,0.727417,0.8442383,0.3048706,-0.41503906,-5.529297,2.6308594,14.014645,-16.733519,-109.7919,-30.272165,0.0,0.0,0.0,0.0,0.0,0.0,0.0,-7.9242306,-121.29304,-16.478493,0.0,0.0,0.0,0.0,0.0,0.0,0.0,2.081235,44.90622,-2.114096,
2.1328124364372347,91,0.041503906,-0.36053467,0.33709717,1.5292969,0.0126953125,0.5,0.0,0.0,0.0,0.0,0.0,0.0,0.0,0.0,0.0,0.0,0.0,-0.3578308,0.061172184,0.9318654,-0.90411377,0.17651367,0.23071289,-0.059570312,3.015625,-0.24804688,7.7223005,-7.4082065,1.2664539,19.292503,-0.9475708,-0.008544922,0.17889404,0.14550781,0.22558594,-0.359375,4.1744347,-6.479355,-55.621178,15.934436,-0.22454834,-0.77282715,0.6378174,0.3408203,0.040039062,0.35742188,2.614042,-9.390306,-127.54618,14.1893425,0.0,0.0,0.0,0.0,0.0,0.0,0.0,7.072296,-127.85272,25.537228,0.0,0.0,0.0,0.0,0.0,0.0,0.0,0.3578308,-0.061172184,-0.9318654,-0.45062256,-0.010803223,-0.61431885,0.12207031,-2.6210938,0.59472656,27.005507,7.4082065,-1.2664539,-19.292503,-0.030273438,-0.07305908,-0.83032227,-0.60839844,-5.4404297,0.4970703,57.30334,28.990295,-53.82781,-15.241556,0.13879395,1.1918335,0.6532593,0.044921875,-5.1875,3.78125,12.479029,-9.663967,-113.56739,-26.340492,0.0,0.0,0.0,0.0,0.0,0.0,0.0,0.70009327,-123.21214,-12.205574,0.0,0.0,0.0,0.0,0.0,0.0,0.0,3.6378915,44.82963,-1.5459068,
2.156249935738743,92,-0.061767578,-0.16259766,0.33148193,1.2265625,-0.21777344,0.5390625,0.0,0.0,0.0,0.0,0.0,0.0,0.0,0.0,0.0,0.0,0.0,-0.36649245,0.064711854,0.92826366,-0.99279785,0.027038574,0.4576416,-0.12695312,3.3027344,-0.28808594,6.371014,-7.58753,1.3397359,19.217937,-0.9472046,0.05609131,0.41687012,0.18359375,0.39746094,-0.58984375,1.3694508,-10.108113,-55.47091,15.654976,-0.2593994,-0.7305908,0.7382202,1.1982422,-0.27929688,0.8251953,2.658296,-12.52742,-127.388,13.483051,0.0,0.0,0.0,0.0,0.0,0.0,0.0,3.7334385,-127.64806,25.12136,0.0,0.0,0.0,0.0,0.0,0.0,0.0,0.36649245,-0.064711854,-0.92826366,-0.09875488,0.05682373,-0.7251587,-0.32910156,-2.0175781,0.5058594,31.921244,7.58753,-1.3397359,-19.217937,-0.083496094,0.009399414,-0.8701172,-0.6074219,-6.2226562,0.36621094,52.545246,31.80938,-52.683784,-14.060538,-0.2664795,1.0546265,0.8688965,0.46679688,-4.998047,4.279297,11.48362,1.3381157,-117.37142,-22.65149,0.0,0.0,0.0,0.0,0.0,0.0,0.0,12.865965,-124.63838,-8.003648,0.0,0.0,0.0,0.0,0.0,0.0,0.0,5.0932436,44.7012,-1.105356,
2.179687435040251,93,-0.12011719,-0.1340332,0.3133545,-0.44140625,-0.59277344,0.38671875,0.0,0.0,0.0,0.0,0.0,0.0,0.0,0.0,0.0,0.0,0.0,-0.3800273,0.065613985,0.9230212,-1.0587769,-0.3413086,0.59521484,0.020507812,2.5185547,-0.31640625,5.882033,-7.867742,1.3584129,19.1094,-0.9248047,-0.15411377,0.7683716,0.47265625,0.7421875,-0.74121094,3.6260126,-14.061983,-55.12519,14.489706,-0.4993286,-0.8121948,0.6937256,1.4033203,-0.37695312,0.80566406,3.8437428,-17.164528,-127.01052,11.518478,0.0,0.0,0.0,0.0,0.0,0.0,0.0,-1.0933228,-127.13247,23.423298,0.0,0.0,0.0,0.0,0.0,0.0,0.0,0.3800273,-0.065613985,-0.9230212,0.0892334,0.014221191,-0.79681396,-1.3457031,-1.1728516,0.4013672,34.52664,7.867742,-1.3584129,-19.1094,-0.050048828,-0.038269043,-0.9145508,-2.1582031,-6.604492,0.328125,48.98064,33.84392,-51.706932,-12.774113,-0.65045166,1.227417,1.1473999,0.6279297,-4.576172,4.486328,11.906252,9.070198,-119.16808,-16.251379,0.0,0.0,0.0,0.0,0.0,0.0,0.0,21.323818,-123.82536,-1.1396818,0.0,0.0,0.0,0.0,0.0,0.0,0.0,5.433017,44.67668,-0.9390038,
2.203124934341759,94,-0.13110352,-0.34960938,0.40429688,-1.6914062,-0.81640625,0.2685547,0.0,0.0,0.0,0.0,0.0,0.0,0.0,0.0,0.0,0.0,0.0,-0.397202,0.058512166,0.9161995,-1.161499,-0.5593872,0.57073975,1.0400391,1.5175781,-0.3408203,7.7196574,-8.223312,1.2113831,18.96817,-0.7808838,-0.17449951,0.58880615,1.2265625,1.1923828,-0.8095703,4.7782364,-16.706684,-54.893692,13.509881,-0.20214844,-0.74487305,0.7166748,1.4804688,-0.35839844,0.80566406,5.823828,-21.12976,-126.60944,9.50143,0.0,0.0,0.0,0.0,0.0,0.0,0.0,-5.243247,-126.55852,21.646702,0.0,0.0,0.0,0.0,0.0,0.0,0.0,0.397202,-0.058512166,-0.9161995,0.10449219,-0.12322998,-0.7498779,-1.8339844,-0.29882812,0.053710938,33.787033,8.223312,-1.2113831,-18.96817,-0.2758789,-0.5566406,-0.7574463,-0.9814453,-7.008789,-0.12988281,43.85281,34.97558,-51.03387,-11.71778,-0.52893066,1.1275024,1.3899536,0.6660156,-4.0195312,4.2685547,13.945349,17.026142,-120.623245,-11.387085,0.0,0.0,0.0,0.0,0.0,0.0,0.0,29.513933,-122.64713,4.1103163,0.0,0.0,0.0,0.0,0.0,0.0,0.0,4.0395026,44.818443,-1.1110301,
2.226562433643267,95,-0.03918457,-0.69433594,0.47857666,-1.4648438,-0.9316406,0.043945312,0.0,0.0,0.0,0.0,0.0,0.0,0.0,0.0,0.0,0.0,0.0,-0.41455987,0.054148257,0.90883756,-0.8360596,0.089904785,0.20806885,1.34375,2.0097656,-0.19921875,11.100443,-8.582676,1.1210368,18.815758,-0.8685913,-0.01965332,0.0579834,1.2646484,1.5302734,-0.96484375,4.5626116,-18.733192,-54.622337,12.550748,-0.5817261,-0.42858887,0.81726074,0.95703125,-0.17871094,0.5810547,8.282449,-25.498037,-126.12897,7.304329,0.0,0.0,0.0,0.0,0.0,0.0,0.0,-9.653475,-126.05121,19.491817,0.0,0.0,0.0,0.0,0.0,0.0,0.0,0.41455987,-0.054148257,-0.90883756,-0.10205078,-0.21972656,-0.3937378,-2.171875,-0.24609375,-0.42871094,32.04162,8.582676,-1.1210368,-18.815758,-0.6586304,-0.4249878,-0.60565186,1.3623047,-6.9990234,0.025390625,36.611687,35.690857,-50.692726,-11.174173,-0.8183594,1.3952637,1.4593506,1.8007812,-3.921875,4.1660156,18.044502,26.973164,-122.024445,-8.532858,0.0,0.0,0.0,0.0,0.0,0.0,0.0,39.452126,-121.351425,7.0898285,0.0,0.0,0.0,0.0,0.0,0.0,0.0,2.3516414,44.927402,-1.6040758,
2.249999932944775,96,-0.009094238,-1.0244141,0.5942993,-0.95410156,-1.1835938,-0.18359375,0.0,0.0,0.0,0.0,0.0,0.0,0.0,0.0,0.0,0.0,0.0,-0.43896458,0.05649154,0.8965154,-0.7890625,0.46118164,-0.27044678,-1.0087891,2.6035156,-0.26171875,15.327804,-9.087927,1.1695501,18.560648,-1.0340576,0.45898438,-0.14892578,-0.09375,1.8046875,-0.8574219,5.2460556,-22.32914,-53.910736,12.255782,-0.3260498,-0.4741211,0.87005615,0.22851562,0.061523438,0.24414062,10.455455,-32.05168,-125.042595,6.6170197,0.0,0.0,0.0,0.0,0.0,0.0,0.0,-16.172297,-124.92795,18.775211,0.0,0.0,0.0,0.0,0.0,0.0,0.0,0.43896458,-0.05649154,-0.8965154,-0.49157715,-0.27471924,0.041931152,-2.3232422,-1.1552734,-0.56152344,31.555235,9.087927,-1.1695501,-18.560648,-0.65875244,-0.2052002,-0.7839966,1.8164062,-6.7841797,0.044921875,30.663748,37.303406,-50.071278,-10.62,-1.8936157,1.6998901,1.8035278,0.9003906,-3.133789,3.3847656,23.571522,37.540096,-121.887665,-6.4164925,0.0,0.0,0.0,0.0,0.0,0.0,0.0,49.685856,-118.8468,9.186792,0.0,0.0,0.0,0.0,0.0,0.0,0.0,1.0367267,44.91951,-2.322867,
2.273437432246283,97,-0.034851074,-1.3227539,0.57159424,0.2763672,-1.3447266,-0.234375,0.0,0.0,0.0,0.0,0.0,0.0,0.0,0.0,0.0,0.0,0.0,-0.45792416,0.07268997,0.88611573,-1.036499,0.27520752,-0.23077393,-2.4550781,2.2539062,-0.40527344,19.01135,-9.48045,1.5049078,18.345345,-1.0148926,-0.04071045,-0.11340332,-1.0253906,2.0058594,-1.1230469,6.1485114,-26.026636,-52.726288,12.453648,-0.30981445,-0.53704834,0.8619385,-0.39941406,0.62597656,0.21289062,11.711608,-38.735504,-123.363014,6.53581,0.0,0.0,0.0,0.0,0.0,0.0,0.0,-22.883549,-123.402176,18.731487,0.0,0.0,0.0,0.0,0.0,0.0,0.0,0.45792416,-0.07268997,-0.88611573,-1.0958252,-0.3468628,0.5866089,-0.96777344,-2.4921875,-0.31152344,33.794193,9.48045,-1.5049078,-18.345345,-1.2870483,0.37384033,-0.57507324,2.321289,-6.1875,0.57910156,24.940317,39.988155,-48.801586,-9.491528,-2.0,0.9716797,1.175293,0.8046875,-2.7470703,2.5908203,25.579418,51.035545,-119.77374,-4.2288322,0.0,0.0,0.0,0.0,0.0,0.0,0.0,62.845963,-114.93811,11.173876,0.0,0.0,0.0,0.0,0.0,0.0,0.0,0.6901518,44.875767,-3.3246005,
2.296874931547791,98,-0.0028686523,-1.1560059,0.51849365,1.5644531,-1.1826172,0.32617188,0.0,0.0,0.0,0.0,0.0,0.0,0.0,0.0,0.0,0.0,0.0,-0.47997916,0.09632468,0.8720988,-1.1613159,-0.2849121,-0.012268066,-2.3046875,2.0595703,-0.14453125,20.465818,-9.9370575,1.9942195,18.05515,-1.1228638,-0.30895996,0.0847168,-0.4248047,2.1142578,-1.0195312,6.112087,-29.044731,-51.32555,11.604747,-0.15301514,-0.26361084,0.9001465,-0.703125,1.453125,0.7128906,12.955215,-45.153008,-121.184006,4.807332,0.0,0.0,0.0,0.0,0.0,0.0,0.0,-29.347887,-121.6792,17.03501,0.0,0.0,0.0,0.0,0.0,0.0,0.0,0.47997916,-0.09632468,-0.8720988,-1.5344238,0.3684082,0.7890625,2.3115234,-1.4042969,0.7402344,37.935486,9.9370575,-1.9942195,-18.05515,-1.1240234,0.27807617,-0.32385254,1.0048828,-4.923828,-0.05859375,20.11114,42.384056,-47.841545,-8.312354,-2.0,0.9916382,0.9530029,0.6699219,-1.0966797,2.1074219,26.406818,62.68376,-116.697754,-2.4417605,0.0,0.0,0.0,0.0,0.0,0.0,0.0,74.0396,-110.54598,12.833054,0.0,0.0,0.0,0.0,0.0,0.0,0.0,2.0762591,44.7956,-3.8050287,
2.3203124308492993,99,0.18951416,-1.0674438,0.62158203,-0.08105469,-0.79003906,0.6220703,0.0,0.0,0.0,0.0,0.0,0.0,0.0,0.0,0.0,0.0,0.0,-0.5020151,0.10244339,0.85904557,-1.2277832,-0.5388794,0.06762695,-1.6757812,1.5419922,-0.5078125,22.226881,-10.39327,2.1208959,17.784906,-1.1401367,0.14990234,0.1560669,-0.19335938,2.3925781,-0.6191406,5.332485,-31.632042,-50.274204,10.487967,-0.29644775,-0.64868164,0.94018555,-0.99316406,2.5908203,0.7832031,12.902969,-51.618183,-119.07622,3.1652894,0.0,0.0,0.0,0.0,0.0,0.0,0.0,-35.732525,-120.58742,15.222464,0.0,0.0,0.0,0.0,0.0,0.0,0.0,0.5020151,-0.10244339,-0.85904557,-1.2940674,0.078552246,1.2418823,1.9550781,0.08984375,0.7841797,38.861267,10.39327,-2.1208959,-17.784906,-0.62701416,-0.24914551,0.40570068,0.6269531,-2.5625,0.028320312,15.910738,42.959103,-47.866547,-7.950021,-2.0,0.65289307,-0.46228027,-1.3183594,-3.5322266,1.5839844,27.356789,68.94421,-114.799545,-2.404304,0.0,0.0,0.0,0.0,0.0,0.0,0.0,79.899765,-107.74259,12.773661,0.0,0.0,0.0,0.0,0.0,0.0,0.0,2.6779642,44.77211,-3.7742214,
2.3437499301508073,100,0.3996582,-1.3261108,0.60601807,-0.74316406,-0.6328125,0.79589844,0.0,0.0,0.0,0.0,0.0,0.0,0.0,0.0,0.0,0.0,0.0,-0.521255,0.09283889,0.8485071,-1.5914917,-0.30303955,0.05718994,-1.0332031,0.6191406,-0.3857422,24.477861,-10.791595,1.9220529,17.566727,-1.3201904,0.15222168,0.33013916,-0.5048828,2.8886719,-0.8769531,3.4784026,-33.302795,-49.810215,9.406885,-0.24639893,-0.6083374,0.9356079,-1.6298828,3.7871094,1.4394531,11.3473425,-57.65509,-117.17145,1.8984919,0.0,0.0,0.0,0.0,0.0,0.0,0.0,-41.75066,-120.38906,13.597795,0.0,0.0,0.0,0.0,0.0,0.0,0.0,0.521255,-0.09283889,-0.8485071,-1.3533325,-0.013671875,1.3892212,0.7841797,-0.49609375,1.046875,37.97824,10.791595,-1.9220529,-17.566727,-0.45843506,0.16064453,0.45513916,0.2265625,0.69433594,0.4951172,14.900175,43.01922,-47.645546,-6.588708,-2.0,-0.99554443,-2.0,0.9472656,-2.5810547,-1.1396484,24.56584,70.34213,-113.9919,-0.48770046,0.0,0.0,0.0,0.0,0.0,0.0,0.0,81.72095,-105.7917,13.7746105,0.0,0.0,0.0,0.0,0.0,0.0,0.0,2.0631528,44.811977,-3.6356387,
2.3671874294523154,101,0.28485107,-1.3692627,0.51916504,0.5830078,-0.21972656,1.2089844,0.0,0.0,0.0,0.0,0.0,0.0,0.0,0.0,0.0,0.0,0.0,-0.53974867,0.078178115,0.8383556,-1.7278442,-0.55352783,1.0244141,-0.91015625,-0.7529297,-0.8876953,24.336676,-11.174471,1.6185293,17.356562,-1.4865723,0.65008545,0.07867432,-0.71972656,3.2714844,-0.79003906,2.730795,-33.30659,-50.165325,8.513121,-0.26757812,-0.6838379,0.84069824,-2.4082031,5.4628906,2.383789,9.0818815,-62.645004,-115.47841,0.79548454,0.0,0.0,0.0,0.0,0.0,0.0,0.0,-46.99903,-121.16236,11.890911,0.0,0.0,0.0,0.0,0.0,0.0,0.0,0.53974867,-0.078178115,-0.8383556,-0.8409424,-0.09460449,1.237854,1.4863281,-0.6972656,-0.2763672,38.1675,11.174471,-1.6185293,-17.356562,-0.72143555,0.10870361,-0.6832886,0.24316406,3.022461,0.85058594,17.631199,43.61689,-47.16264,-6.269515,-2.0,0.3857422,-0.53570557,-0.8515625,2.0429688,-1.8740234,24.27116,67.16576,-114.72745,1.2903233,0.0,0.0,0.0,0.0,0.0,0.0,0.0,79.247406,-107.13522,15.309532,0.0,0.0,0.0,0.0,0.0,0.0,0.0,1.8383871,44.868538,-3.0004816,
2.3906249287538235,102,-0.09100342,-0.9223633,1.999939,-0.6279297,-0.057617188,1.0751953,0.0,0.0,0.0,0.0,0.0,0.0,0.0,0.0,0.0,0.0,0.0,-0.5542744,0.06327378,0.8301898,-0.8897705,0.94628906,0.58807373,0.82714844,-1.3701172,0.4873047,20.84148,-11.475198,1.3099635,17.187506,-1.4649048,0.80615234,0.21313477,-1.3623047,3.8320312,-0.9794922,8.955172,-31.487572,-51.394894,8.739601,-0.29766846,-0.61968994,0.80059814,-4.0820312,7.107422,3.6845703,8.45431,-66.26858,-113.97345,0.99042416,0.0,0.0,0.0,0.0,0.0,0.0,0.0,-51.652565,-122.83837,11.366488,0.0,0.0,0.0,0.0,0.0,0.0,0.0,0.5542744,-0.06327378,-0.8301898,0.38909912,0.5280762,-0.7574463,1.390625,1.5332031,0.8847656,39.286457,11.475198,-1.3099635,-17.187506,-0.87420654,0.3017578,-1.8789062,1.1113281,2.631836,1.0058594,21.611212,43.86046,-46.55978,-5.9576416,0.26062012,1.364563,-2.0,-0.625,5.8759766,-1.0390625,27.645924,62.24905,-115.63399,2.8811245,0.0,0.0,0.0,0.0,0.0,0.0,0.0,74.370766,-109.55412,17.587315,0.0,0.0,0.0,0.0,0.0,0.0,0.0,2.3329368,44.910652,-1.865332,
2.4140624280553316,103,0.18847656,-0.84020996,1.4604492,-1.9521484,0.56640625,1.2402344,0.0,0.0,0.0,0.0,0.0,0.0,0.0,0.0,0.0,0.0,0.0,-0.5623299,0.010141068,0.8273854,-2.0,0.53515625,1.0645752,-2.038086,-1.4433594,0.8027344,24.094648,-11.641973,0.20995156,17.129442,-2.0,1.4951782,0.8503418,-2.1757812,3.796875,-0.25,14.3803215,-31.207504,-52.862293,10.049526,-0.309021,-1.0826416,0.90167236,-4.4648438,10.428711,5.763672,17.343897,-71.40235,-112.15079,2.5807276,0.0,0.0,0.0,0.0,0.0,0.0,0.0,-58.876274,-125.30758,10.979561,0.0,0.0,0.0,0.0,0.0,0.0,0.0,0.5623299,-0.010141068,-0.8273854,-2.0,1.8870239,0.7602539,-4.171875,8.2265625,3.0488281,27.118044,11.641973,-0.20995156,-17.129442,-1.8808594,0.4996338,-0.20794678,-6.1289062,2.3564453,-1.1269531,16.33448,36.845398,-49.63585,-3.9808197,-2.0,-1.31427,-2.0,-2.6796875,2.6044922,-3.9658203,21.644642,52.509445,-119.41232,4.592819,0.0,0.0,0.0,0.0,0.0,0.0,0.0,65.92726,-116.16666,19.073118,0.0,0.0,0.0,0.0,0.0,0.0,0.0,-1.619559,44.960423,-1.6517975,
2.4374999273568396,104,0.43878174,-0.7446289,1.2698975,-0.13183594,1.4033203,1.5039062,0.0,0.0,0.0,0.0,0.0,0.0,0.0,0.0,0.0,0.0,0.0,-0.5589807,-0.03758972,0.82873297,-1.1259155,0.62750244,0.2423706,-2.4248047,-1.7285156,1.1386719,22.921646,-11.572635,-0.77822375,17.157343,-1.7089844,0.289917,0.17297363,-4.557617,3.0332031,-0.890625,20.770718,-29.504566,-54.657864,12.141532,-0.9911499,-1.9876099,-1.9519653,-0.90625,11.708984,7.7265625,34.294884,-74.284,-110.56743,4.7208853,0.0,0.0,0.0,0.0,0.0,0.0,0.0,-65.57864,-127.857895,9.797772,0.0,0.0,0.0,0.0,0.0,0.0,0.0,0.5589807,0.03758972,-0.82873297,-0.20935059,-0.55999756,-1.6429443,-5.901367,0.013671875,-1.7148438,30.609049,11.572635,0.77822375,-17.157343,0.8049927,-1.5151978,-0.6187134,-5.4365234,2.1113281,1.2900391,23.841822,39.645298,-46.44144,-1.910532,1.999939,-1.9161987,-2.0,-5.348633,1.7851562,-0.43847656,17.281296,50.076897,-117.003235,8.053782,0.0,0.0,0.0,0.0,0.0,0.0,0.0,62.877644,-115.60717,23.362297,0.0,0.0,0.0,0.0,0.0,0.0,0.0,-3.1102328,44.907475,-0.060937643,
2.4609374266583477,105,0.14300537,-0.36114502,1.0839844,0.24511719,0.9814453,0.90722656,0.0,0.0,0.0,0.0,0.0,0.0,0.0,0.0,0.0,0.0,0.0,-0.5512334,-0.070383206,0.8318185,-1.8251953,-0.43859863,0.13574219,-4.5664062,-1.7089844,0.9716797,21.26497,-11.412239,-1.4571505,17.221222,-1.7907715,-1.9176025,-1.0082397,-1.6679688,2.7509766,-1.2763672,25.709345,-28.327679,-55.839813,14.742107,-2.0,-1.9738159,-1.9553223,-1.0390625,2.9199219,0.5986328,45.361393,-76.26091,-108.88229,6.0907288,0.0,0.0,0.0,0.0,0.0,0.0,0.0,-70.19115,-127.726105,8.944048,0.0,0.0,0.0,0.0,0.0,0.0,0.0,0.5512334,0.070383206,-0.8318185,-0.7781372,0.016296387,-0.4625244,-6.803711,3.5,-1.1777344,24.179523,11.412239,1.4571505,-17.221222,-1.9418945,-0.052856445,-1.227417,-1.2929688,2.2617188,-0.60546875,19.99442,34.101547,-49.25376,-5.9978,-0.5809326,1.999939,0.791687,-1.1181641,-0.87402344,-1.4355469,14.356622,40.115623,-120.37277,3.6331434,0.0,0.0,0.0,0.0,0.0,0.0,0.0,53.417763,-120.0856,18.5696,0.0,0.0,0.0,0.0,0.0,0.0,0.0,-3.1400013,44.874065,1.7161282,
2.4843749259598558,106,0.107299805,-0.7541504,0.94244385,-0.8544922,0.66308594,0.546875,0.0,0.0,0.0,0.0,0.0,0.0,0.0,0.0,0.0,0.0,0.0,-0.54343355,-0.096063375,0.83422446,-2.0,-0.5228882,-0.71380615,-2.3300781,-3.569336,-0.46679688,19.880787,-11.250759,-1.9888096,17.27103,-2.0,0.3423462,-1.0791016,4.1103516,2.3095703,-0.46875,32.46974,-25.812563,-57.105545,16.778019,0.9359741,-0.35473633,1.7061768,-2.8427734,-3.3125,3.2929688,37.865665,-76.97135,-106.73956,6.4918413,0.0,0.0,0.0,0.0,0.0,0.0,0.0,-71.126785,-125.48789,10.285368,0.0,0.0,0.0,0.0,0.0,0.0,0.0,0.54343355,0.096063375,-0.83422446,-1.31781,-1.6514282,-1.9353027,0.203125,1.1425781,0.71972656,23.54041,11.250759,1.9888096,-17.27103,-0.8642578,-0.12792969,-1.112793,0.16894531,2.0488281,0.6816406,21.863422,32.83748,-49.41709,-5.3962383,-0.5877075,0.27807617,1.0681152,0.14160156,-0.20703125,-0.16113281,11.467519,35.18014,-120.88201,3.2140884,0.0,0.0,0.0,0.0,0.0,0.0,0.0,48.67075,-120.74591,17.982624,0.0,0.0,0.0,0.0,0.0,0.0,0.0,-3.8244238,44.76881,2.663939,
2.507812425261364,107,0.077941895,-1.4030151,0.791626,-0.26757812,0.8544922,0.265625,0.0,0.0,0.0,0.0,0.0,0.0,0.0,0.0,0.0,0.0,0.0,-0.5341067,-0.118968025,0.83721733,-1.6109619,-0.1942749,-0.7763672,1.328125,-3.430664,-0.19042969,17.063969,-11.057664,-2.463007,17.332994,-1.4142456,0.3166504,-0.9538574,-1.1943359,0.7832031,-0.48339844,40.072186,-20.810516,-58.59912,19.147913,0.23181152,-2.0,1.1627197,-1.2753906,-4.857422,1.6152344,29.609976,-73.71592,-106.20026,8.143737,0.0,0.0,0.0,0.0,0.0,0.0,0.0,-69.10049,-124.59187,14.520096,0.0,0.0,0.0,0.0,0.0,0.0,0.0,0.5341067,0.118968025,-0.83721733,-1.006958,0.0037841797,-0.42138672,4.161133,1.7509766,1.6748047,18.995241,11.057664,2.463007,-17.332994,-1.576416,-0.20953369,-0.6243286,0.96191406,1.6005859,0.78027344,19.481903,28.716152,-50.64798,-7.1026363,-0.34838867,0.51153564,0.91101074,0.70410156,-0.2265625,0.09277344,12.377759,28.10498,-122.05166,2.2893667,0.0,0.0,0.0,0.0,0.0,0.0,0.0,41.54593,-121.71118,17.09675,0.0,0.0,0.0,0.0,0.0,0.0,0.0,-4.7889915,44.631634,3.2869658,
2.531249924562872,108,-0.111694336,-1.0248413,0.7003174,1.0,0.7558594,-0.33789062,0.0,0.0,0.0,0.0,0.0,0.0,0.0,0.0,0.0,0.0,0.0,-0.51977664,-0.120270014,0.8460571,-1.6850586,-0.2730713,-0.48364258,1.1962891,-4.0615234,9.765625E-4,14.07295,-10.760989,-2.4899623,17.516006,-0.8532715,-0.071899414,-0.95373535,-3.3759766,-1.2001953,0.07324219,44.223877,-16.231537,-59.082027,21.679321,0.51361084,-1.9185181,0.9279785,1.2089844,-4.4453125,-0.7167969,26.274393,-68.58043,-107.339355,10.859852,0.0,0.0,0.0,0.0,0.0,0.0,0.0,-63.40749,-124.808556,19.11175,0.0,0.0,0.0,0.0,0.0,0.0,0.0,0.51977664,0.120270014,-0.8460571,-0.38964844,0.91656494,-0.29162598,3.6308594,2.3085938,2.4404297,18.833439,10.760989,2.4899623,-17.516006,-0.48944092,-0.3642578,-0.6798096,2.0810547,1.4238281,0.4560547,18.648563,24.691113,-51.503433,-6.088194,-0.35809326,0.6176758,0.77978516,0.97753906,-0.32226562,0.12597656,16.089104,20.551022,-122.58894,3.5895119,0.0,0.0,0.0,0.0,0.0,0.0,0.0,34.045067,-122.06265,18.338684,0.0,0.0,0.0,0.0,0.0,0.0,0.0,-4.109555,44.658623,3.8236694,
2.55468742386438,109,0.015197754,-0.92736816,0.5696411,1.8691406,0.6591797,-0.9746094,0.0,0.0,0.0,0.0,0.0,0.0,0.0,0.0,0.0,0.0,0.0,-0.5031525,-0.103482194,0.8583139,-1.2371826,-0.09301758,-0.39831543,-0.018554688,-4.3164062,-0.23632812,12.262586,-10.416817,-2.1424022,17.76976,-0.814209,-0.6069946,-0.94873047,-4.126953,-2.4873047,0.265625,47.06827,-10.659288,-58.750698,24.506487,0.072021484,-1.2425537,0.76641846,1.8085938,-5.366211,-2.3496094,25.238783,-60.68569,-109.64797,14.885047,0.0,0.0,0.0,0.0,0.0,0.0,0.0,-53.97502,-125.73299,24.699276,0.0,0.0,0.0,0.0,0.0,0.0,0.0,0.5031525,0.103482194,-0.8583139,-1.1394653,0.661438,-0.30444336,1.9599609,2.3779297,0.4580078,17.880789,10.416817,2.1424022,-17.76976,-1.0582275,0.5779419,-0.3734131,0.8378906,1.0087891,-0.00390625,16.216463,20.441483,-52.815132,-6.4149075,-0.14440918,0.55303955,0.8187866,1.171875,-0.32226562,0.25390625,19.05121,14.353181,-123.9266,3.188672,0.0,0.0,0.0,0.0,0.0,0.0,0.0,27.835949,-123.016525,17.928532,0.0,0.0,0.0,0.0,0.0,0.0,0.0,-2.5713289,44.770695,3.890417,
2.578124923165888,110,0.27423096,-0.58081055,0.4644165,2.2675781,0.7548828,-1.1630859,0.0,0.0,0.0,0.0,0.0,0.0,0.0,0.0,0.0,0.0,0.0,-0.48435682,-0.07068997,0.8721615,-1.0042725,-0.20690918,-0.5042114,-0.6982422,-3.4326172,-0.26464844,14.051671,-10.027688,-1.4635015,18.056448,-0.60339355,-0.98205566,-0.91033936,-1.7207031,-3.0273438,0.0087890625,48.10818,-5.696674,-57.606327,26.943546,-0.21838379,-0.48260498,0.5004883,1.8242188,-6.154297,-2.397461,23.021978,-52.245296,-111.92955,18.62469,0.0,0.0,0.0,0.0,0.0,0.0,0.0,-43.70066,-125.91607,30.084824,0.0,0.0,0.0,0.0,0.0,0.0,0.0,0.48435682,0.07068997,-0.8721615,-0.84924316,0.22259521,-0.13537598,1.4335938,2.7988281,0.23828125,16.185446,10.027688,1.4635015,-18.056448,-1.3331299,0.068481445,0.1496582,-0.46972656,0.7441406,0.14941406,13.613437,16.631144,-54.222088,-7.7865133,-0.16485596,0.69329834,0.7093506,1.0322266,-0.20800781,0.25683594,19.550129,9.16387,-125.20465,1.834857,0.0,0.0,0.0,0.0,0.0,0.0,0.0,22.621778,-123.842125,16.570637,0.0,0.0,0.0,0.0,0.0,0.0,0.0,-0.23149437,44.868416,3.5080903,
