TOTAL_TIME,0m7s,,,,,,,,,,,,,,,,,,,,,,,,,,,,,,,,,,,,,,,,,,,,,,,,,,,,,,,,,,,,,,,,,,,,,,,,,,,,,,,,,,,,,,,,,,,,,,,,,,,,,,,,,,,,,,,,,,,,,,,,
TOTAL_FRAMES,295,,,,,,,,,,,,,,,,,,,,,,,,,,,,,,,,,,,,,,,,,,,,,,,,,,,,,,,,,,,,,,,,,,,,,,,,,,,,,,,,,,,,,,,,,,,,,,,,,,,,,,,,,,,,,,,,,,,,,,,,
SELECTED_FRAMES,295,,,,,,,,,,,,,,,,,,,,,,,,,,,,,,,,,,,,,,,,,,,,,,,,,,,,,,,,,,,,,,,,,,,,,,,,,,,,,,,,,,,,,,,,,,,,,,,,,,,,,,,,,,,,,,,,,,,,,,,,
NO_OF_JOINTS,12,,,,,,,,,,,,,,,,,,,,,,,,,,,,,,,,,,,,,,,,,,,,,,,,,,,,,,,,,,,,,,,,,,,,,,,,,,,,,,,,,,,,,,,,,,,,,,,,,,,,,,,,,,,,,,,,,,,,,,,,
FREQUENCY,42.666668,,,,,,,,,,,,,,,,,,,,,,,,,,,,,,,,,,,,,,,,,,,,,,,,,,,,,,,,,,,,,,,,,,,,,,,,,,,,,,,,,,,,,,,,,,,,,,,,,,,,,,,,,,,,,,,,,,,,,,,,
DESCRIPTION,Capture 7,,,,,,,,,,,,,,,,,,,,,,,,,,,,,,,,,,,,,,,,,,,,,,,,,,,,,,,,,,,,,,,,,,,,,,,,,,,,,,,,,,,,,,,,,,,,,,,,,,,,,,,,,,,,,,,,,,,,,,,,
TIME_STAMP,Jul-09,2010,,,,,,,,,,,,,,,,,,,,,,,,,,,,,,,,,,,,,,,,,,,,,,,,,,,,,,,,,,,,,,,,,,,,,,,,,,,,,,,,,,,,,,,,,,,,,,,,,,,,,,,,,,,,,,,,,,,,,,,
Time,Frame,Pelvis_accelX_Pelvis,Pelvis_accelY_Pelvis,Pelvis_accelZ_Pelvis,Pelvis_gyroX_Pelvis,Pelvis_gyroY_Pelvis,Pelvis_gyroZ_Pelvis,Pelvis_Joint angle_Pelvis,Pelvis_Relative pos X_Pelvis,Pelvis_Relative pos Y_Pelvis,Pelvis_Relative pos Z_Pelvis,RightPelvis_accelX_RightPelvis,RightPelvis_accelY_RightPelvis,RightPelvis_accelZ_RightPelvis,RightPelvis_gyroX_RightPelvis,RightPelvis_gyroY_RightPelvis,RightPelvis_gyroZ_RightPelvis,RightPelvis_Joint angle_RightPelvis,RightPelvis_Relative pos X_RightPelvis,RightPelvis_Relative pos Y_RightPelvis,RightPelvis_Relative pos Z_RightPelvis,RightUpLeg_accelX_RightUpLeg,RightUpLeg_accelY_RightUpLeg,RightUpLeg_accelZ_RightUpLeg,RightUpLeg_gyroX_RightUpLeg,RightUpLeg_gyroY_RightUpLeg,RightUpLeg_gyroZ_RightUpLeg,RightUpLeg_Joint angle_RightUpLeg,RightUpLeg_Relative pos X_RightUpLeg,RightUpLeg_Relative pos Y_RightUpLeg,RightUpLeg_Relative pos Z_RightUpLeg,RightLeg_accelX_RightLeg,RightLeg_accelY_RightLeg,RightLeg_accelZ_RightLeg,RightLeg_gyroX_RightLeg,RightLeg_gyroY_RightLeg,RightLeg_gyroZ_RightLeg,RightLeg_Joint angle_RightLeg,RightLeg_Relative pos X_RightLeg,RightLeg_Relative pos Y_RightLeg,RightLeg_Relative pos Z_RightLeg,RightFoot_accelX_RightFoot,RightFoot_accelY_RightFoot,RightFoot_accelZ_RightFoot,RightFoot_gyroX_RightFoot,RightFoot_gyroY_RightFoot,RightFoot_gyroZ_RightFoot,RightFoot_Joint angle_RightFoot,RightFoot_Relative pos X_RightFoot,RightFoot_Relative pos Y_RightFoot,RightFoot_Relative pos Z_RightFoot,RightFootEnd_accelX_RightFootEnd,RightFootEnd_accelY_RightFootEnd,RightFootEnd_accelZ_RightFootEnd,RightFootEnd_gyroX_RightFootEnd,RightFootEnd_gyroY_RightFootEnd,RightFootEnd_gyroZ_RightFootEnd,RightFootEnd_Joint angle_RightFootEnd,RightFootEnd_Relative pos X_RightFootEnd,RightFootEnd_Relative pos Y_RightFootEnd,RightFootEnd_Relative pos Z_RightFootEnd,LeftPelvis_accelX_LeftPelvis,LeftPelvis_accelY_LeftPelvis,LeftPelvis_accelZ_LeftPelvis,LeftPelvis_gyroX_LeftPelvis,LeftPelvis_gyroY_LeftPelvis,LeftPelvis_gyroZ_LeftPelvis,LeftPelvis_Joint angle_LeftPelvis,LeftPelvis_Relative pos X_LeftPelvis,LeftPelvis_Relative pos Y_LeftPelvis,LeftPelvis_Relative pos Z_LeftPelvis,LeftUpLeg_accelX_LeftUpLeg,LeftUpLeg_accelY_LeftUpLeg,LeftUpLeg_accelZ_LeftUpLeg,LeftUpLeg_gyroX_LeftUpLeg,LeftUpLeg_gyroY_LeftUpLeg,LeftUpLeg_gyroZ_LeftUpLeg,LeftUpLeg_Joint angle_LeftUpLeg,LeftUpLeg_Relative pos X_LeftUpLeg,LeftUpLeg_Relative pos Y_LeftUpLeg,LeftUpLeg_Relative pos Z_LeftUpLeg,LeftLeg_accelX_LeftLeg,LeftLeg_accelY_LeftLeg,LeftLeg_accelZ_LeftLeg,LeftLeg_gyroX_LeftLeg,LeftLeg_gyroY_LeftLeg,LeftLeg_gyroZ_LeftLeg,LeftLeg_Joint angle_LeftLeg,LeftLeg_Relative pos X_LeftLeg,LeftLeg_Relative pos Y_LeftLeg,LeftLeg_Relative pos Z_LeftLeg,LeftFoot_accelX_LeftFoot,LeftFoot_accelY_LeftFoot,LeftFoot_accelZ_LeftFoot,LeftFoot_gyroX_LeftFoot,LeftFoot_gyroY_LeftFoot,LeftFoot_gyroZ_LeftFoot,LeftFoot_Joint angle_LeftFoot,LeftFoot_Relative pos X_LeftFoot,LeftFoot_Relative pos Y_LeftFoot,LeftFoot_Relative pos Z_LeftFoot,LeftFootEnd_accelX_LeftFootEnd,LeftFootEnd_accelY_LeftFootEnd,LeftFootEnd_accelZ_LeftFootEnd,LeftFootEnd_gyroX_LeftFootEnd,LeftFootEnd_gyroY_LeftFootEnd,LeftFootEnd_gyroZ_LeftFootEnd,LeftFootEnd_Joint angle_LeftFootEnd,LeftFootEnd_Relative pos X_LeftFootEnd,LeftFootEnd_Relative pos Y_LeftFootEnd,LeftFootEnd_Relative pos Z_LeftFootEnd,Spine_accelX_Spine,Spine_accelY_Spine,Spine_accelZ_Spine,Spine_gyroX_Spine,Spine_gyroY_Spine,Spine_gyroZ_Spine,Spine_Joint angle_Spine,Spine_Relative pos X_Spine,Spine_Relative pos Y_Spine,Spine_Relative pos Z_Spine
0,0,0,0,0,0,0,0,0,0,0,0,0,0,0,0,0,0,0,0,0,0,0,0,0,0,0,0,NaN,0,0,0,0,0,0,0,0,0,NaN,0,0,0,0,0,0,0,0,0,NaN,0,0,0,0,0,0,0,0,0,0,0,0,0,0,0,0,0,0,0,0,0,0,0,0,0,0,0,0,0,NaN,0,0,0,0,0,0,0,0,0,NaN,0,0,0,0,0,0,0,0,0,NaN,0,0,0,0,0,0,0,0,0,0,0,0,0,0,0,0,0,0,0,0,0,0,0
0.023437499,1,0,0,0,0,0,0,0,0,0,0,0,0,0,0,0,0,0,0,0,0,0,0,0,0,0,0,NaN,0,0,0,0,0,0,0,0,0,NaN,0,0,0,0,0,0,0,0,0,NaN,0,0,0,0,0,0,0,0,0,0,0,0,0,0,0,0,0,0,0,0,0,0,0,0,0,0,0,0,0,NaN,0,0,0,0,0,0,0,0,0,NaN,0,0,0,0,0,0,0,0,0,NaN,0,0,0,0,0,0,0,0,0,0,0,0,0,0,0,0,0,0,0,0,0,0,0
0.046874999,2,0,0,0,0,0,0,0,0,0,0,0,0,0,0,0,0,0,0,0,0,0,0,0,0,0,0,NaN,0,0,0,0,0,0,0,0,0,NaN,0,0,0,0,0,0,0,0,0,NaN,0,0,0,0,0,0,0,0,0,0,0,0,0,0,0,0,0,0,0,0,0,0,0,0,0,0,0,0,0,NaN,0,0,0,0,0,0,0,0,0,NaN,0,0,0,0,0,0,0,0,0,NaN,0,0,0,0,0,0,0,0,0,0,0,0,0,0,0,0,0,0,0,0,0,0,0
0.070312498,3,0.015441895,-0.87109375,0.52734375,-0.74121094,0.7792969,0.4169922,0,0,0,0,0,0,0,0,0,0,0,-0.035543293,-0.020263262,-0.9993474,0,0,0,0,0,0,NaN,-0.7358569,-0.41951233,-20.689589,-0.97784424,-0.050598145,-0.00592041,0.010742188,0.03125,-0.0546875,NaN,-0.7358569,-0.41951233,-20.689589,-0.30700684,-0.5247803,0.80200195,-0.05078125,0.5410156,0.98535156,2.1899052,-1.0366172,-71.9012,-11.974836,0,0,0,0,0,0,0,-21.031952,-71.45999,-11.988559,0,0,0,0,0,0,0,0.035543293,0.020263262,0.9993474,-0.88446045,0.067993164,-0.1906128,-0.3798828,0.75878906,-0.078125,1.74417,0.7358569,0.41951233,20.689589,-0.8591919,-0.15136719,-0.3411255,-0.41015625,-0.07519531,-0.11621094,18.4704,0.0929544,-56.56561,22.328411,-0.16259766,0.59198,0.6723633,-0.020507812,0.15527344,0.38183594,29.815838,21.174517,-125.40643,20.765432,0,0,0,0,0,0,0,1.5039005,-124.031944,24.106903,0,0,0,0,0,0,0,1.8401895,44.960052,-0.9770814
0.093749997,4,0.035827637,-0.85565186,0.52593994,-0.60839844,0.6435547,0.359375,0,0,0,0,0,0,0,0,0,0,0,-0.046030223,-0.03929947,-0.9983999,0,0,0,0,0,0,NaN,-0.9529678,-0.8136209,-20.669973,-0.9727783,-0.031921387,-0.032592773,-0.008789063,0.08691406,-0.055664062,NaN,-0.9529678,-0.8136209,-20.669973,-0.31774902,-0.548584,0.80181885,-0.03125,0.38867188,0.625,1.098783,-1.2018981,-72.31249,-12.045015,0,0,0,0,0,0,0,-21.200966,-72.21328,-12.304598,0,0,0,0,0,0,0,0.046030223,0.03929947,0.9983999,-0.9909668,0.046813965,-0.08331299,-0.51171875,0.63183594,-0.115234375,2.9005656,0.9529678,0.8136209,20.669973,-0.9069214,-0.15374756,-0.34381104,-0.44726562,-0.28515625,-0.15429688,17.58992,0.99517727,-56.15888,22.513182,-0.16870117,0.58947754,0.6378784,-0.022460938,0.21289062,0.41992188,29.774643,21.835266,-125.088,21.185858,0,0,0,0,0,0,0,2.1332092,-123.64193,24.321218,0,0,0,0,0,0,0,2.2059336,44.917484,-1.8697649
0.117187497,5,0.06427002,-0.8464966,0.5272827,-0.21191406,0.31445312,0.24316406,0,0,0,0,0,0,0,0,0,0,0,-0.051434606,-0.049490012,-0.9976766,-0.97766113,-0.05328369,-0.11517334,0.0390625,-0.041015625,-0.13769531,7.456852,-1.0648547,-1.0245967,-20.654999,-0.987854,-0.049987793,-0.027832031,-0.008789063,0.08691406,-0.07519531,8.4928055,1.6727608,-57.938107,-22.389107,-0.31835938,-0.54107666,0.7782593,0.002929688,0.044921875,0.0546875,0.7858408,1.5380212,-129.4518,-13.895193,0,0,0,0,0,0,0,-18.459167,-129.48785,-14.281194,0,0,0,0,0,0,0,0.051434606,0.049490012,0.9976766,-0.940979,0.036132812,-0.10498047,-0.58691406,0.6152344,-0.09667969,3.5756605,1.0648547,1.0245967,20.654999,-0.9133301,-0.16668701,-0.28814697,-0.5234375,-0.34375,-0.13476562,16.797766,1.4876674,-55.94213,22.63059,-0.17480469,0.59576416,0.609375,0.030273438,0.36621094,0.42089844,29.375603,21.825912,-125.023544,21.522243,0,0,0,0,0,0,0,2.0908775,-123.535034,24.4328,0,0,0,0,0,0,0,2.3600461,44.886898,-2.3482976
0.140624996,6,0.07318115,-0.8185425,0.55908203,-0.0234375,-0.013671875,0.017578125,0,0,0,0,0,0,0,0,0,0,0,-0.04912123,-0.04753569,-0.99787587,-0.99920654,-0.06225586,-0.13195801,9.77E-04,-0.041015625,-0.13769531,7.2861805,-1.0169615,-0.98413616,-20.659122,-0.9798584,-0.057861328,-0.026794434,0.010742188,0.12402344,-0.055664062,8.20808,1.8624369,-57.897568,-22.222588,-0.33117676,-0.51690674,0.7753906,0.07714844,-0.032226562,0.016601562,0.9547011,1.8825065,-129.4318,-13.89015,0,0,0,0,0,0,0,-18.113178,-129.45502,-14.347318,0,0,0,0,0,0,0,0.04912123,0.04753569,0.99787587,-0.977478,0.005065918,-0.05432129,-0.53027344,0.8144531,-0.095703125,4.0035014,1.0169615,0.98413616,20.659122,-0.95928955,-0.1762085,-0.23718262,-0.4296875,-0.34277344,-0.09667969,15.62234,2.0806355,-55.961555,22.866749,-0.21307373,0.61968994,0.5199585,0.09863281,0.6542969,0.42285156,28.491606,21.731857,-125.24057,21.891193,0,0,0,0,0,0,0,1.9669094,-123.74135,24.551003,0,0,0,0,0,0,0,2.2624774,44.896397,-2.2500963
0.164062495,7,0.0748291,-0.8413696,0.55688477,-0.11816406,0.06542969,-0.0546875,0,0,0,0,0,0,0,0,0,0,0,-0.043822378,-0.04425609,-0.99832064,-0.9793701,-0.14263916,-0.1552124,0.020507812,-0.002929688,-0.13867188,7.257933,-0.90725815,-0.91623825,-20.668333,-0.99798584,-0.08520508,-0.042907715,0.087890625,0.1640625,-0.07421875,7.937041,2.2635283,-57.814873,-22.028189,-0.28070068,-0.5430908,0.8010254,0.059570312,0.006835938,-0.021484375,1.193046,2.489534,-129.36337,-13.84359,0,0,0,0,0,0,0,-17.504333,-129.3697,-14.361153,0,0,0,0,0,0,0,0.043822378,0.04425609,0.99832064,-1.0839233,-0.009155273,0.034240723,-0.36132812,0.41308594,-0.060546875,4.246393,0.90725815,0.91623825,20.668333,-0.98327637,-0.12042236,-0.25842285,-0.31640625,-0.30273438,-0.057617188,14.788644,2.2963154,-56.0027,23.172075,-0.14483643,0.3824463,0.3168335,0.033203125,1.3652344,-0.033203125,26.629713,21.197187,-125.483185,21.985344,0,0,0,0,0,0,0,1.3711834,-124.194466,24.295074,0,0,0,0,0,0,0,2.2359252,44.907642,-2.0889282
0.187499994,8,0.057250977,-0.8236084,0.58532715,-0.11816406,0.10449219,-0.12890625,0,0,0,0,0,0,0,0,0,0,0,-0.039767534,-0.04020586,-0.99858665,-1.0101318,-0.1531372,-0.18487549,0.1328125,-0.099609375,-0.119140625,7.256825,-0.82331204,-0.8323859,-20.67384,-0.99798584,-0.09283447,-0.051879883,0.107421875,0.14550781,-0.03515625,7.5927978,2.6429212,-57.718784,-21.731956,-0.31304932,-0.52264404,0.79803467,0.059570312,0.006835938,0.016601562,1.4686042,3.1197014,-129.28194,-13.663868,0,0,0,0,0,0,0,-16.873203,-129.27122,-14.228049,0,0,0,0,0,0,0,0.039767534,0.04020586,0.99858665,-0.9956665,-0.005371094,-0.064941406,-0.19140625,0.32128906,-0.005859375,4.230961,0.82331204,0.8323859,20.67384,-0.97772217,-0.13867188,-0.1430664,-0.31640625,-0.30273438,-0.01953125,14.215515,2.1620202,-56.092392,23.299126,-0.5465088,1.7761841,-2,-1.6738281,-0.24511719,-0.6074219,23.998804,20.170965,-125.79392,21.816936,0,0,0,0,0,0,0,0.29120445,-125.051994,23.88324,0,0,0,0,0,0,0,2.2610087,44.911472,-1.8983021
0.210937494,9,0.07458496,-0.8895874,0.5932617,-0.25097656,0.16308594,-0.18164062,0,0,0,0,0,0,0,0,0,0,0,-0.038443834,-0.037207425,-0.99882925,-0.9411011,-0.14050293,-0.16351318,0.32421875,-0.1015625,-0.08203125,7.501899,-0.79590726,-0.77030903,-20.678862,-0.99017334,-0.13183594,-0.0647583,0.14648438,0.12792969,-0.053710938,7.2356787,2.997926,-57.63615,-21.440243,-0.32183838,-0.5533447,0.79296875,0.09765625,0.025390625,-0.020507812,1.8955816,3.8363576,-129.20456,-13.4949,0,0,0,0,0,0,0,-16.15561,-129.17181,-14.100045,0,0,0,0,0,0,0,0.038443834,0.037207425,0.99882925,-1.0621338,0.05102539,-0.06237793,0.24121094,0.46484375,0.234375,4.643761,0.79590726,0.77030903,20.678862,-1.0761108,-0.3143921,-0.14807129,-0.35351562,-0.3984375,-0.115234375,13.378129,2.352067,-56.142223,23.412743,0.26501465,0.049438477,0.72436523,-0.15625,-1.1835938,-0.5390625,23.539246,19.52858,-126.06299,21.954115,0,0,0,0,0,0,0,-0.3187256,-125.24661,23.970406,0,0,0,0,0,0,0,2.3968325,44.913204,-1.7653149
0.234374993,10,0.057250977,-0.9061279,0.59851074,-0.080078125,0.23925781,-0.16503906,0,0,0,0,0,0,0,0,0,0,0,-0.03831896,-0.034361795,-0.9988971,-0.9500122,-0.12475586,-0.19335938,0.30664062,-0.06347656,-0.045898438,7.731851,-0.793321,-0.71139574,-20.680267,-0.9881592,-0.12976074,-0.09942627,0.16503906,0.12890625,-0.053710938,7.0246496,3.2808433,-57.561394,-21.33914,-0.29815674,-0.5315552,0.83148193,0.09765625,0.025390625,0.016601562,2.3208559,4.4791355,-129.14201,-13.547584,0,0,0,0,0,0,0,-15.511641,-129.09325,-14.189429,0,0,0,0,0,0,0,0.03831896,0.034361795,0.9988971,-1.0795898,-0.05609131,-0.039367676,0.31640625,0.064453125,0.25097656,5.0434866,0.793321,0.71139574,20.680267,-0.9475708,-0.32995605,-0.070251465,0.23144531,-0.3154297,0,12.174595,2.6766963,-56.201717,23.241463,-0.5933838,0.9223633,0.713562,-0.36914062,-0.5136719,-0.15917969,23.671913,18.968012,-126.33539,22.552666,0,0,0,0,0,0,0,-0.86094475,-125.442696,24.962044,0,0,0,0,0,0,0,2.4549308,44.913097,-1.6391729
0.257812492,11,0.026611328,-0.8729248,0.61151123,0.033203125,0.3154297,-0.14746094,0,0,0,0,0,0,0,0,0,0,0,-0.03935483,-0.032643262,-0.99895436,-0.99993896,-0.14196777,-0.20690918,0.19238281,-0.0625,-0.02734375,7.8319063,-0.8147664,-0.67581683,-20.681452,-0.99902344,-0.08843994,-0.097473145,0.16601562,0.09082031,-0.034179688,6.8430076,3.58572,-57.4973,-21.305538,-0.29486084,-0.5368042,0.7941284,0.07910156,0.025390625,-0.001953125,2.6762755,5.092889,-129.09763,-13.762089,0,0,0,0,0,0,0,-14.896575,-129.03247,-14.441741,0,0,0,0,0,0,0,0.03935483,0.032643262,0.99895436,-1.0088501,-0.16668701,-0.0513916,0.27929688,0.044921875,0.083984375,4.6777205,0.8147664,0.67581683,20.681452,-0.99157715,-0.22241211,-0.09490967,0.5136719,-0.17871094,0.115234375,11.773511,2.4232078,-56.222736,23.644339,-0.41680908,0.53289795,0.81762695,-0.23632812,-0.49414062,-0.4013672,21.427383,17.82548,-126.56697,23.331234,0,0,0,0,0,0,0,-2.018139,-125.794266,25.526737,0,0,0,0,0,0,0,2.319815,44.924915,-1.5594225
0.281249992,12,0.00592041,-0.8918457,0.592041,0.12792969,0.33496094,-0.18457031,0,0,0,0,0,0,0,0,0,0,0,-0.04108891,-0.032683358,-0.9987818,-0.9702759,-0.093688965,-0.1821289,0.18847656,-0.1953125,-0.043945312,7.6366878,-0.85066783,-0.6766468,-20.677877,-0.993042,-0.093688965,-0.14990234,0.107421875,0.08886719,-0.015625,6.5711894,3.638503,-57.502625,-21.222145,-0.32733154,-0.5598755,0.82244873,0.07910156,0.025390625,-0.020507812,3.1497676,5.469659,-129.10822,-13.867731,0,0,0,0,0,0,0,-14.518464,-129.02615,-14.57244,0,0,0,0,0,0,0,0.04108891,0.032683358,0.9987818,-1.0958862,-0.0881958,0.120666504,0.4482422,-0.42871094,0.15625,4.0071683,0.85066783,0.6766468,20.677877,-0.9883423,-0.24627686,-0.16687012,0.34375,-0.12402344,0.13378906,11.907858,1.8903779,-56.212467,24.098793,-0.14526367,0.58465576,0.7874756,-0.20214844,-0.32226562,-0.21484375,20.292992,16.604605,-126.71292,23.836956,0,0,0,0,0,0,0,-3.2433224,-125.94782,26.147148,0,0,0,0,0,0,0,2.1108391,44.930733,-1.5571163
0.304687491,13,-0.03857422,-0.8967285,0.59313965,0.052734375,0.37304688,-0.11035156,0,0,0,0,0,0,0,0,0,0,0,-0.042139858,-0.03264223,-0.99875975,-0.92944336,-0.1083374,-0.1954956,0.17285156,-0.08105469,0.009765625,7.385463,-0.8724259,-0.6757953,-20.677423,-1.0021973,-0.12023926,-0.15704346,0.107421875,0.0703125,-0.015625,6.360018,3.7615333,-57.48458,-21.112223,-0.32806396,-0.5054321,0.79711914,0.041992188,0.044921875,-0.020507812,3.7423525,5.8759384,-129.09306,-13.873221,0,0,0,0,0,0,0,-14.111858,-128.99329,-14.599748,0,0,0,0,0,0,0,0.042139858,0.03264223,0.99875975,-0.9495239,-0.00201416,-0.115112305,0.84375,-0.0859375,0.2861328,3.0839438,0.8724259,0.6757953,20.677423,-0.9707031,-0.33319092,-0.12792969,0.4013672,-0.123046875,0.057617188,12.182609,1.1965716,-56.21395,24.212727,-0.20007324,0.46307373,0.88616943,-0.109375,-0.20703125,-0.21484375,19.11662,15.424301,-126.81186,24.376354,0,0,0,0,0,0,0,-4.430229,-126.130295,26.667429,0,0,0,0,0,0,0,1.8213658,44.94471,-1.5457647
0.32812499,14,-0.02520752,-0.8701172,0.58410645,0.052734375,0.296875,-0.16601562,0,0,0,0,0,0,0,0,0,0,0,-0.043014884,-0.033285413,-0.99870604,-0.92944336,-0.1083374,-0.1954956,0.17285156,-0.08105469,0.009765625,7.1775846,-0.8905395,-0.6891113,-20.676311,-1.0020142,-0.07458496,-0.1628418,0.12695312,0.015625,0.00390625,6.1408224,3.7434196,-57.497894,-21.11111,-0.31500244,-0.5175171,0.7941284,0.022460938,0.026367188,-0.040039062,4.1836667,6.1424584,-129.12161,-14.061703,0,0,0,0,0,0,0,-13.842779,-129.01749,-14.854675,0,0,0,0,0,0,0,0.043014884,0.033285413,0.99870604,-0.9944458,-0.0592041,-0.12872314,0.84472656,0.40429688,0.23144531,3.3107386,0.8905395,0.6891113,20.676311,-0.963562,-0.31011963,-0.10284424,0.36328125,-0.06640625,0.038085938,11.329659,1.6425246,-56.190647,24.347687,-0.29284668,0.58813477,0.8170166,0.059570312,-0.015625,-0.028320312,17.672499,15.393464,-126.88472,25.05918,0,0,0,0,0,0,0,-4.4775534,-126.27079,27.207348,0,0,0,0,0,0,0,1.6403458,44.951096,-1.568805
0.35156249,15,-0.026123047,-0.8701782,0.5890503,0.014648438,0.23925781,-0.14746094,0,0,0,0,0,0,0,0,0,0,0,-0.04563555,-0.033646304,-0.99862,-0.9711914,-0.12207031,-0.20013428,0.04296875,0.014648438,0.045898438,7.542985,-0.9447979,-0.69658285,-20.67453,-0.99694824,-0.06549072,-0.13604736,0.010742188,-0.025390625,0.021484375,6.284315,4.1607237,-57.46594,-21.255713,-0.29888916,-0.5202637,0.8187866,0.002929688,0.006835938,-0.021484375,4.6483145,6.7512884,-129.10254,-14.365451,0,0,0,0,0,0,0,-13.230824,-128.98506,-15.200068,0,0,0,0,0,0,0,0.04563555,0.033646304,0.99862,-1.0289917,-0.024597168,-0.038879395,0.39160156,-0.3203125,0.026367188,3.1710148,0.9447979,0.69658285,20.67453,-0.9450073,-0.26263428,-0.11450195,0.13671875,0.064453125,0.07519531,11.293601,1.510107,-56.160084,24.60786,-0.31274414,0.46899414,0.8251343,0.34765625,0.060546875,0.15527344,16.17943,14.976486,-126.901535,25.69742,0,0,0,0,0,0,0,-4.9232426,-126.34667,27.488615,0,0,0,0,0,0,0,1.5245712,44.956535,-1.5843825
0.374999989,16,-0.013549805,-0.88391113,0.5617676,-0.0234375,0.16210938,-0.14746094,0,0,0,0,0,0,0,0,0,0,0,-0.046370655,-0.03370782,-0.9985339,-1.0268555,-0.14202881,-0.17279053,0.07519531,-0.15722656,0.029296875,7.444026,-0.96001446,-0.69785637,-20.672747,-0.9951172,-0.10205078,-0.1361084,0.030273438,-0.061523438,0.00390625,6.1176972,4.200813,-57.46411,-21.156784,-0.28552246,-0.52893066,0.79418945,0.00390625,0.045898438,-0.020507812,5.1305695,6.9598374,-129.09854,-14.336046,0,0,0,0,0,0,0,-13.023132,-128.96599,-15.183662,0,0,0,0,0,0,0,0.046370655,0.03370782,0.9985339,-1.0026855,0.06225586,0.013854981,-0.041992188,-0.4814453,-0.083984375,2.6294966,0.96001446,0.69785637,20.672747,-0.9470215,-0.28479004,-0.14056396,0.0234375,0.1015625,0.017578125,12.157126,0.62327313,-56.139137,24.840023,-0.20489502,0.5255127,0.81073,0.4638672,0.080078125,0.2841797,15.517936,14.032514,-126.88701,26.146069,0,0,0,0,0,0,0,-5.8970766,-126.27185,27.651325,0,0,0,0,0,0,0,1.4261861,44.957523,-1.5838753
0.398437488,17,-0.024902344,-0.8903198,0.5491333,0.051757812,0.103515625,-0.1484375,0,0,0,0,0,0,0,0,0,0,0,-0.047685236,-0.03288736,-0.99854285,-0.961853,-0.15222168,-0.19329834,0.24414062,-0.25390625,0.012695313,7.273271,-0.9872309,-0.6808703,-20.672932,-0.9819946,-0.0869751,-0.107177734,0.12792969,-0.059570312,0.024414062,5.8548107,4.1802506,-57.441395,-20.870724,-0.30163574,-0.5109863,0.80407715,-0.016601562,-0.01171875,-0.040039062,5.3245053,7.0734377,-129.07036,-14.000761,0,0,0,0,0,0,0,-12.907058,-128.93521,-14.900937,0,0,0,0,0,0,0,0.047685236,0.03288736,0.99854285,-0.94641113,0.076171875,-0.028442383,-0.09765625,-0.29882812,-0.1015625,2.4687862,0.9872309,0.6808703,20.672932,-0.9688721,-0.19519043,-0.13568115,0.041992188,0.08300781,0.017578125,12.907281,-0.15699875,-56.13799,25.012318,-0.19610596,0.62890625,0.821167,0.54296875,0.022460938,0.28222656,15.481206,13.147852,-126.901794,26.365734,0,0,0,0,0,0,0,-6.7851467,-126.115204,27.799198,0,0,0,0,0,0,0,1.3675821,44.962612,-1.5461681
0.421874987,18,-0.003967285,-0.85858154,0.57366943,0.033203125,0.083984375,-0.16699219,0,0,0,0,0,0,0,0,0,0,0,-0.0473032,-0.03128912,-0.9985739,-0.9602051,-0.10455322,-0.14935303,0.28515625,-0.17773438,0.030273438,7.035253,-0.9793234,-0.6477818,-20.673574,-0.96990967,-0.06506348,-0.07623291,0.030273438,-0.08105469,0.022460938,5.6761293,4.1063066,-57.42532,-20.677143,-0.3277588,-0.53845215,0.79888916,-0.053710938,0.02734375,-0.040039062,5.38365,6.938517,-129.05547,-13.784758,0,0,0,0,0,0,0,-13.039999,-128.91626,-14.71788,0,0,0,0,0,0,0,0.0473032,0.03128912,0.9985739,-1.0432129,0.03326416,0.053710938,0.015625,-0.31835938,-0.083984375,2.824176,0.9793234,0.6477818,20.673574,-0.9540405,-0.1307373,-0.21191406,0.00390625,0.08203125,0.07519531,13.582003,-0.7597873,-56.12586,25.338797,-0.24346924,0.62109375,0.78375244,0.453125,-0.16992188,0.28125,15.446983,12.493924,-126.90352,26.468052,0,0,0,0,0,0,0,-7.4404917,-125.93862,27.762703,0,0,0,0,0,0,0,1.3056514,44.965256,-1.4707823
0.445312487,19,-0.02319336,-0.8387451,0.5465088,0.033203125,0.06542969,-0.1484375,0,0,0,0,0,0,0,0,0,0,0,-0.04657969,-0.029405653,-0.9986888,-1.001648,-0.12322998,-0.11010742,0.1875,-0.234375,0.030273438,6.6685925,-0.9643444,-0.6087882,-20.675955,-0.9819946,-0.0993042,-0.027893066,0.06933594,-0.09863281,0.061523438,5.482335,3.8920894,-57.406143,-20.396011,-0.2845459,-0.5157471,0.8296509,-0.033203125,0.06542969,-0.001953125,5.5249577,6.653582,-129.02084,-13.31731,0,0,0,0,0,0,0,-13.324305,-128.86894,-14.247337,0,0,0,0,0,0,0,0.04657969,0.029405653,0.9986888,-1.0189819,0.0491333,-0.04333496,-0.004882813,-0.8261719,-0.029296875,3.359229,0.9643444,0.6087882,20.675955,-0.95892334,-0.13323975,-0.26965332,0.022460938,0.005859375,0.07519531,14.758202,-1.8244158,-56.11108,25.544651,-0.09893799,0.65216064,0.6451416,0.21777344,-0.111328125,0.13574219,16.097849,11.4793215,-126.884445,26.406479,0,0,0,0,0,0,0,-8.431224,-125.71356,27.814537,0,0,0,0,0,0,0,1.2690157,44.970142,-1.3833005
0.468749986,20,-0.024475098,-0.87072754,0.56018066,0.051757812,-0.032226562,-0.11230469,0,0,0,0,0,0,0,0,0,0,0,-0.04717031,-0.027918212,-0.99875474,-0.9902344,-0.12554932,-0.062316895,0.15039062,-0.21484375,0.030273438,6.377351,-0.9765717,-0.5779936,-20.67732,-0.9890747,-0.122680664,-0.011230469,0.08886719,-0.07910156,0.04296875,5.324689,3.6743522,-57.387203,-20.05771,-0.32513428,-0.5058594,0.8138428,-0.03515625,0.026367188,-0.001953125,5.358951,6.332587,-128.97801,-12.703363,0,0,0,0,0,0,0,-13.643328,-128.81876,-13.66899,0,0,0,0,0,0,0,0.04717031,0.027918212,0.99875474,-0.8991089,0.030212402,-0.2401123,0.014648438,-0.17089844,0.10253906,3.6278481,0.9765717,0.5779936,20.67732,-0.92510986,-0.12640381,-0.3305664,0.041992188,-0.10839844,0.056640625,15.403072,-2.3494015,-56.120697,25.50462,-0.11376953,0.53778076,0.6602173,0.004882813,-0.09277344,0.045898438,16.865734,11.078199,-126.871315,26.186327,0,0,0,0,0,0,0,-8.820475,-125.56718,27.720112,0,0,0,0,0,0,0,1.2646763,44.97455,-1.3169041
0.492187485,21,-0.02960205,-0.8745117,0.557312,-0.004882813,-0.109375,-0.0390625,0,0,0,0,0,0,0,0,0,0,0,-0.045480818,-0.028464602,-0.998759,-0.998291,-0.09503174,-0.039245605,0.13183594,-0.1953125,0.01171875,6.084376,-0.9415933,-0.5893055,-20.677408,-0.9830322,-0.1048584,-0.009094238,-0.008789063,-0.02734375,0.07910156,4.9837365,3.453466,-57.41333,-19.681433,-0.309021,-0.52667236,0.79803467,-0.052734375,0.045898438,-0.001953125,5.156093,5.9706016,-128.99838,-12.239344,0,0,0,0,0,0,0,-14.005716,-128.8283,-13.223997,0,0,0,0,0,0,0,0.045480818,0.028464602,0.998759,-0.901001,-0.034423828,-0.2960205,0.203125,0.17480469,0.3076172,3.1422381,0.9415933,0.5893055,20.677408,-0.9334717,-0.17193604,-0.33685303,0.080078125,-0.203125,0.038085938,14.831836,-1.8514079,-56.157944,25.26118,-0.2199707,0.5588989,0.7223511,-0.2685547,-0.072265625,-0.24902344,17.021414,11.6176815,-126.89869,26.003443,0,0,0,0,0,0,0,-8.287083,-125.683334,27.53645,0,0,0,0,0,0,0,1.2737961,44.970978,-1.3396769
0.515624985,22,-0.012145996,-0.91033936,0.5426636,-0.024414062,-0.16796875,0.03515625,0,0,0,0,0,0,0,0,0,0,0,-0.043812335,-0.028144784,-0.99887246,-0.98028564,-0.13391113,-0.053466797,-0.056640625,-0.09863281,-0.0078125,5.966407,-0.90705067,-0.5826842,-20.679758,-1.0001221,-0.12756348,-0.015319824,-0.0859375,0.0078125,0.095703125,4.7680993,3.3395572,-57.414867,-19.39336,-0.302063,-0.53863525,0.7911377,-0.014648438,0.045898438,-0.020507812,5.146432,5.7931314,-128.98868,-11.829351,0,0,0,0,0,0,0,-14.182882,-128.81213,-12.820524,0,0,0,0,0,0,0,0.043812335,0.028144784,0.99887246,-0.92700195,0.036132812,-0.15557861,0.46679688,-0.045898438,0.28710938,2.859786,0.90705067,0.5826842,20.679758,-0.9113159,-0.18408203,-0.30426025,0.19335938,-0.20117188,0.038085938,14.496918,-1.68729,-56.197247,25.043707,-0.3433838,0.5626221,0.78826904,-0.26171875,-0.24511719,-0.17578125,16.355972,11.713827,-126.954025,25.954817,0,0,0,0,0,0,0,-8.206949,-125.94426,27.260159,0,0,0,0,0,0,0,1.3206596,44.971405,-1.3250656
0.539062484,23,0.003295898,-0.888916,0.5444336,-0.024414062,-0.1875,0.07128906,0,0,0,0,0,0,0,0,0,0,0,-0.0411945,-0.027661094,-0.99900556,-0.9628906,-0.1817627,-0.11053467,-0.16894531,-0.040039062,0.028320312,6.069989,-0.85285336,-0.5726704,-20.682512,-0.9961548,-0.13067627,-0.042053223,-0.008789063,0.028320312,0.11621094,4.701405,3.4413934,-57.393764,-19.200682,-0.31793213,-0.51916504,0.7774048,0.041015625,0.026367188,0.016601562,5.1987815,5.914747,-128.95244,-11.499834,0,0,0,0,0,0,0,-14.058067,-128.78168,-12.532742,0,0,0,0,0,0,0,0.0411945,0.027661094,0.99900556,-0.9647217,0.13903809,-0.11254883,0.24121094,0.010742188,0.25097656,2.5180058,0.85285336,0.5726704,20.682512,-0.95513916,-0.18572998,-0.26715088,0.19433594,-0.23925781,-0.01953125,14.267863,-1.793046,-56.2248,24.66061,-0.22259521,0.57543945,0.82281494,-0.3173828,-0.3408203,-0.1953125,15.800516,11.39737,-127.01781,25.780962,0,0,0,0,0,0,0,-8.543841,-126.13077,26.967161,0,0,0,0,0,0,0,1.3724458,44.9709,-1.3017762
0.562499983,24,0.04333496,-0.9147339,0.5461426,-0.08105469,-0.12988281,0.12792969,0,0,0,0,0,0,0,0,0,0,0,-0.037713736,-0.027640272,-0.99909085,-0.9769287,-0.18151855,-0.10443115,-0.09375,-0.060546875,0.028320312,6.234859,-0.7807901,-0.57223934,-20.684275,-0.9970093,-0.0927124,-0.055847168,0.030273438,-0.0078125,0.1171875,4.575644,3.6211355,-57.38381,-19.07638,-0.31671143,-0.54193115,0.8166504,0.041992188,0.044921875,-0.020507812,5.2401137,6.0506434,-128.95407,-11.4603615,0,0,0,0,0,0,0,-13.920637,-128.78442,-12.53729,0,0,0,0,0,0,0,0.037713736,0.027640272,0.99909085,-1.0230713,0.11602783,-0.020935059,-0.041992188,0.19433594,0.14160156,2.124675,0.7807901,0.57223934,20.684275,-1.0092773,-0.17120361,-0.1730957,-0.10839844,-0.28125,-0.01953125,13.753588,-1.8630867,-56.252098,24.259682,-0.21850586,0.5930786,0.8140869,-0.23632812,-0.41796875,-0.140625,15.247135,10.773441,-127.14686,25.397802,0,0,0,0,0,0,0,-9.172329,-126.2954,26.634407,0,0,0,0,0,0,0,1.4184213,44.967224,-1.2975799
0.585937483,25,0.07501221,-0.9119873,0.56921387,-0.061523438,-0.072265625,0.16503906,0,0,0,0,0,0,0,0,0,0,0,-0.035832405,-0.02856645,-0.9992227,-0.98986816,-0.09881592,-0.10418701,-0.072265625,-0.022460938,0.064453125,6.4041047,-0.74184227,-0.5914141,-20.687008,-0.9918823,-0.053466797,-0.07647705,-0.008789063,0.028320312,0.09667969,4.4849334,3.72923,-57.39768,-19.051947,-0.33380127,-0.52386475,0.8225708,0.07910156,0.044921875,0.036132812,5.2516556,6.060172,-128.98828,-11.60853,0,0,0,0,0,0,0,-13.909747,-128.81694,-12.705911,0,0,0,0,0,0,0,0.035832405,0.02856645,0.9992227,-1.0335693,0.07647705,0.038146973,-0.4375,0.06933594,0.049804688,2.0007606,0.74184227,0.5914141,20.687008,-1.038208,-0.22369385,-0.1116333,-0.3359375,-0.32226562,0,13.323407,-2.0516908,-56.226307,24.154364,-0.15594482,0.63342285,0.8133545,-0.26171875,-0.24511719,-0.13867188,14.937741,9.887236,-127.23088,25.380192,0,0,0,0,0,0,0,-10.040531,-126.36903,26.820084,0,0,0,0,0,0,0,1.4966178,44.967457,-1.339229
0.609374982,26,0.05218506,-0.8887329,0.57696533,0.033203125,-0.091796875,0.12695312,0,0,0,0,0,0,0,0,0,0,0,-0.035692662,-0.028813904,-0.9991441,-0.9707031,-0.0803833,-0.1552124,-0.09277344,-0.022460938,0.028320312,6.400522,-0.7389493,-0.5965371,-20.685379,-0.9918823,-0.047973633,-0.0635376,-0.046875,0.008789063,0.11621094,4.427663,3.7206874,-57.403637,-19.095486,-0.32366943,-0.50964355,0.7567749,0.059570312,0.025390625,0.036132812,5.1245704,5.9300566,-129.0208,-11.841614,0,0,0,0,0,0,0,-14.039968,-128.85323,-12.946088,0,0,0,0,0,0,0,0.035692662,0.028813904,0.9991441,-1.0025635,-0.002868652,0.039916992,-0.87109375,0.2548828,-0.00390625,2.0859094,0.7389493,0.5965371,20.685379,-0.9857178,-0.2421875,-0.051330566,-0.27929688,-0.2841797,0.018554688,12.893851,-2.2442179,-56.214916,24.161774,-0.2041626,0.64105225,0.79467773,-0.18847656,-0.111328125,-0.12011719,14.313629,8.957479,-127.332825,25.647154,0,0,0,0,0,0,0,-10.967025,-126.5139,27.172138,0,0,0,0,0,0,0,1.502042,44.963505,-1.3503418
0.632812481,27,0.06555176,-0.9071655,0.53570557,0.08984375,-0.015625,0.20117188,0,0,0,0,0,0,0,0,0,0,0,-0.034802854,-0.029583916,-0.99913377,-0.9736328,-0.07940674,-0.15014648,-0.055664062,-0.080078125,0.028320312,6.276573,-0.7205271,-0.6124788,-20.685167,-0.9828491,-0.045410156,-0.078308105,-0.046875,0.008789063,0.11621094,4.2755804,3.7068772,-57.423676,-19.128283,-0.3480835,-0.5206909,0.8215332,0.041992188,0.044921875,-0.001953125,5.143766,5.8058233,-129.07239,-12.168477,0,0,0,0,0,0,0,-14.163268,-128.90012,-13.282961,0,0,0,0,0,0,0,0.034802854,0.029583916,0.99913377,-1.0083008,-0.055908203,0.03656006,-0.87109375,0.07324219,-0.004882813,2.381377,0.7205271,0.6124788,20.685167,-0.9217529,-0.2678833,-0.09375,-0.22265625,-0.22558594,0.038085938,12.667287,-2.5584354,-56.179134,24.286106,-0.22668457,0.5807495,0.7894287,-0.11230469,-0.07324219,-0.045898438,13.505356,8.01999,-127.38641,26.119188,0,0,0,0,0,0,0,-11.912782,-126.64565,27.571848,0,0,0,0,0,0,0,1.4288454,44.96409,-1.3811381
0.65624998,28,0.007324219,-0.8647461,0.5177002,0.12792969,-0.13085938,0.12597656,0,0,0,0,0,0,0,0,0,0,0,-0.03127584,-0.030459661,-0.9992968,-0.9868164,-0.0927124,-0.11517334,-0.055664062,-0.080078125,0.046875,5.879466,-0.6475059,-0.63060945,-20.688541,-1.0028687,-0.04840088,-0.085510254,-0.0859375,-0.010742188,0.09667969,4.1587358,3.62607,-57.45653,-19.200285,-0.31506348,-0.52337646,0.788208,0.001953125,-0.01171875,-0.002929688,5.085037,5.6284385,-129.12387,-12.43861,0,0,0,0,0,0,0,-14.33943,-128.95062,-13.556392,0,0,0,0,0,0,0,0.03127584,0.030459661,0.9992968,-0.9624634,-0.07824707,-0.006896973,-0.47460938,0.14257812,0.049804688,2.8943498,0.6475059,0.63060945,20.688541,-0.9379883,-0.26098633,-0.08660889,-0.072265625,-0.18554688,0.076171875,12.513136,-2.852088,-56.12939,24.596664,-0.19073486,0.53808594,0.8088379,-0.03515625,-0.07324219,-0.028320312,12.72912,7.2499933,-127.40077,26.76773,0,0,0,0,0,0,0,-12.69317,-126.71691,28.108059,0,0,0,0,0,0,0,1.2353594,44.972214,-1.4094665
0.67968748,29,-0.006225586,-0.84698486,0.5390625,0.013671875,-0.20703125,0.10839844,0,0,0,0,0,0,0,0,0,0,0,-0.025491744,-0.030079268,-0.9994311,-0.98864746,-0.08666992,-0.117126465,-0.09375,-0.060546875,0.009765625,5.711344,-0.5277567,-0.62273407,-20.691322,-1.019043,-0.093566895,-0.099731445,-0.06640625,-0.028320312,0.078125,4.0077057,3.673121,-57.454132,-19.190048,-0.32763672,-0.5209961,0.82458496,0.002929688,0.026367188,-0.001953125,5.3061466,5.6783957,-129.13467,-12.5781765,0,0,0,0,0,0,0,-14.289045,-128.9595,-13.725931,0,0,0,0,0,0,0,0.025491744,0.030079268,0.9994311,-0.9827881,-0.09246826,-0.028442383,0.015625,0.19238281,0.06640625,3.2157066,0.5277567,0.62273407,20.691322,-0.9437866,-0.22094727,-0.103149414,0.0234375,-0.12695312,0.038085938,12.222145,-2.968235,-56.1134,24.910313,-0.2267456,0.5510254,0.82562256,0.0234375,-0.091796875,-0.047851562,12.056792,6.7425127,-127.42758,27.322878,0,0,0,0,0,0,0,-13.205451,-126.76835,28.581356,0,0,0,0,0,0,0,1.1624005,44.973103,-1.3831766
0.703124979,30,0.04748535,-0.8547363,0.56640625,-0.061523438,-0.24511719,0.10839844,0,0,0,0,0,0,0,0,0,0,0,-0.019550055,-0.027829204,-0.9996293,-0.9782715,-0.1116333,-0.12322998,-0.053710938,-0.002929688,0.02734375,5.7527175,-0.40474674,-0.57615083,-20.695427,-1.0008545,-0.050476074,-0.08050537,0.010742188,-0.026367188,0.07910156,3.9133155,3.8342774,-57.4013,-19.200626,-0.33184814,-0.536499,0.8048096,0.002929688,0.026367188,-0.001953125,5.511391,5.8369884,-129.10225,-12.763785,0,0,0,0,0,0,0,-14.128788,-128.92696,-13.918071,0,0,0,0,0,0,0,0.019550055,0.027829204,0.9996293,-0.99731445,0.021057129,-0.034057617,0.16601562,0.064453125,0.10253906,3.5153563,0.40474674,0.57615083,20.695427,-0.9608154,-0.18377686,-0.11273193,0.0234375,-0.10839844,0.037109375,12.011551,-3.1300516,-56.14304,25.128454,-0.19189453,0.52563477,0.7861328,0.08105469,-0.091796875,-0.029296875,11.490291,6.2262983,-127.50343,27.630018,0,0,0,0,0,0,0,-13.726104,-126.85407,28.850536,0,0,0,0,0,0,0,1.167834,44.976124,-1.2749535
0.726562478,31,0.037902832,-0.87701416,0.55255127,-0.08105469,-0.26464844,0.10839844,0,0,0,0,0,0,0,0,0,0,0,-0.014455974,-0.026149768,-0.9998214,-0.979126,-0.10772705,-0.117248535,-0.091796875,-0.002929688,0.02734375,5.918477,-0.29928416,-0.54138124,-20.699404,-0.9868164,-0.036621094,-0.109069824,-0.046875,-0.046875,0.078125,3.8023574,3.9581177,-57.3653,-19.22754,-0.32806396,-0.51678467,0.7675171,0.00390625,0.045898438,-0.020507812,5.6246905,5.9034166,-129.08517,-13.0285,0,0,0,0,0,0,0,-14.063024,-128.9067,-14.1854725,0,0,0,0,0,0,0,0.014455974,0.026149768,0.9998214,-0.9828491,0.12609863,-0.026428223,0.14648438,-0.0078125,0.12109375,3.5490582,0.29928416,0.54138124,20.699404,-0.96588135,-0.17889404,-0.10266113,0.060546875,-0.05078125,0.076171875,11.991055,-3.4407284,-56.165157,25.028675,-0.18341064,0.58813477,0.7805786,0.024414062,-0.111328125,-0.029296875,11.096452,5.641843,-127.558044,27.503487,0,0,0,0,0,0,0,-14.31066,-126.89221,28.705086,0,0,0,0,0,0,0,1.2843113,44.97785,-1.1949399
0.749999978,32,0.06689453,-0.89349365,0.54571533,0.013671875,-0.24609375,0.08886719,0,0,0,0,0,0,0,0,0,0,0,-0.010185003,-0.023208905,-0.9998971,-0.9577637,-0.1015625,-0.10845947,-0.111328125,-0.002929688,0.008789063,5.9644356,-0.21086097,-0.4804963,-20.70097,-0.9838257,-0.03765869,-0.07434082,-0.0078125,-0.045898438,0.07910156,3.7919922,4.020652,-57.309933,-19.271725,-0.30963135,-0.5133667,0.78234863,0.002929688,0.026367188,0.016601562,5.587985,5.8602676,-129.04573,-13.187542,0,0,0,0,0,0,0,-14.106129,-128.86537,-14.340973,0,0,0,0,0,0,0,0.010185003,0.023208905,0.9998971,-0.9494629,0.1482544,-0.055419922,0.09082031,0.046875,0.103515625,3.6193647,0.21086097,0.4804963,20.70097,-0.97979736,-0.14257812,-0.13415527,0.09863281,-0.049804688,0.037109375,12.007677,-3.7541099,-56.231354,24.82572,-0.18414307,0.6331787,0.7769165,-0.03515625,-0.07324219,-0.046875,10.765671,5.0788674,-127.665634,27.153072,0,0,0,0,0,0,0,-14.869619,-126.979324,28.410053,0,0,0,0,0,0,0,1.3405111,44.977425,-1.0576386
0.773437477,33,0.059448242,-0.90802,0.53582764,0.0703125,-0.30371094,0.0703125,0,0,0,0,0,0,0,0,0,0,0,-0.007693023,-0.018981151,-0.99999666,-1.0179443,-0.06707764,-0.06994629,-0.072265625,0.015625,0.02734375,6.0284114,-0.15927002,-0.39296865,-20.703032,-1.0026855,0.006286621,-0.064575195,-0.0078125,-0.064453125,0.09863281,3.7973585,4.0222173,-57.23148,-19.317387,-0.33831787,-0.5053711,0.79901123,0.022460938,0.026367188,-0.001953125,5.4091053,5.674948,-128.98065,-13.359877,0,0,0,0,0,0,0,-14.29068,-128.80249,-14.524115,0,0,0,0,0,0,0,0.007693023,0.018981151,0.99999666,-0.96398926,0.11206055,-0.042663574,-0.07910156,0.06640625,0.103515625,3.6423376,0.15927002,0.39296865,20.703032,-0.9612427,-0.09423828,-0.12982178,-0.033203125,-0.07128906,0.037109375,11.940716,-3.948686,-56.322666,24.584177,-0.21734619,0.6357422,0.75823975,-0.11328125,-0.03515625,-0.045898438,10.261822,4.6174946,-127.796844,26.630924,0,0,0,0,0,0,0,-15.334791,-127.12676,27.877262,0,0,0,0,0,0,0,1.4254622,44.978397,-0.8647107
0.796874976,34,0.03729248,-0.86242676,0.56658936,0.013671875,-0.2841797,0.107421875,0,0,0,0,0,0,0,0,0,0,0,-0.003733188,-0.015684128,-1.0000793,-0.98376465,-0.06359863,-0.09020996,-0.12988281,-0.021484375,0.046875,6.0677924,-0.07728818,-0.32471007,-20.704742,-0.9736328,0.004882813,-0.03942871,-0.125,-0.048828125,0.057617188,3.8053942,4.037962,-57.16669,-19.397194,-0.3206787,-0.49847412,0.79125977,-0.016601562,0.0078125,-0.001953125,5.262874,5.532874,-128.93518,-13.575262,0,0,0,0,0,0,0,-14.435082,-128.74893,-14.71326,0,0,0,0,0,0,0,0.003733188,0.015684128,1.0000793,-0.9819946,0.11529541,-0.032470703,-0.2109375,0.03125,0.0859375,3.6910923,0.07728818,0.32471007,20.704742,-0.96972656,-0.14086914,-0.11529541,-0.203125,-0.053710938,0.017578125,11.905491,-4.2095904,-56.39368,24.387474,-0.1897583,0.5461426,0.7822876,-0.19238281,0.00390625,-0.025390625,9.768714,4.0865693,-127.90166,26.207262,0,0,0,0,0,0,0,-15.865904,-127.29225,27.434378,0,0,0,0,0,0,0,1.5032942,44.978683,-0.7110071
0.820312476,35,0.032836914,-0.8829346,0.55462646,-0.04296875,-0.265625,0.18164062,0,0,0,0,0,0,0,0,0,0,0,0.002563894,-0.013871029,-1.0000879,-0.97839355,-0.047607422,-0.09918213,-0.1875,-0.001953125,0.045898438,5.993974,0.053080022,-0.28717327,-20.704918,-0.9807129,-0.016662598,-0.04949951,-0.14355469,-0.048828125,0.0390625,3.8671062,4.070811,-57.138695,-19.515553,-0.3206787,-0.49847412,0.79125977,-0.016601562,0.0078125,-0.001953125,5.285463,5.476136,-128.90433,-13.725775,0,0,0,0,0,0,0,-14.49182,-128.71808,-14.863772,0,0,0,0,0,0,0,-0.002563894,0.013871029,1.0000879,-0.9741211,0.10424805,-0.024780273,-0.38085938,0.05078125,0.030273438,3.8211591,-0.053080022,0.28717327,20.704918,-0.9769287,-0.18634033,-0.14251709,-0.25976562,-0.07324219,-9.77E-04,12.018622,-4.563429,-56.42026,24.26713,-0.18450928,0.5654297,0.8031006,-0.25097656,0.041992188,-0.024414062,9.46176,3.6078606,-127.948715,26.019138,0,0,0,0,0,0,0,-16.35262,-127.413246,27.206076,0,0,0,0,0,0,0,1.5225422,44.978394,-0.61993855
0.843749975,36,0.01928711,-0.8328247,0.5454712,-0.005859375,-0.38085938,0.12597656,0,0,0,0,0,0,0,0,0,0,0,0.013487905,-0.012033063,-1.0000519,-0.9937744,-0.033203125,-0.059143066,-0.2841797,-0.05859375,0.028320312,5.7749233,0.27924165,-0.24912168,-20.704174,-0.96154785,0.017578125,-0.031311035,-0.2607422,-0.033203125,0.036132812,3.8516312,4.1090183,-57.113598,-19.651802,-0.3118286,-0.5097656,0.802063,-0.07324219,0.0078125,0.03515625,5.3040037,5.3780975,-128.89665,-13.988735,0,0,0,0,0,0,0,-14.590168,-128.70454,-15.1262455,0,0,0,0,0,0,0,-0.013487905,0.012033063,1.0000519,-1.0549927,0.059692383,-0.048583984,-0.49414062,0.033203125,-0.005859375,4.085092,-0.27924165,0.24912168,20.704174,-0.9680786,-0.22924805,-0.13098145,-0.2607422,-0.03515625,0.017578125,12.216063,-5.0345736,-56.445698,24.241089,-0.24188232,0.5543823,0.8049927,-0.17382812,0.060546875,0.030273438,9.215033,3.0949259,-127.98013,26.056263,0,0,0,0,0,0,0,-16.868797,-127.52564,27.163057,0,0,0,0,0,0,0,1.4993205,44.98169,-0.5210178
0.867187474,37,0.015075684,-0.8607788,0.56225586,-0.04296875,-0.4580078,0.18066406,0,0,0,0,0,0,0,0,0,0,0,0.025570422,-0.010143654,-0.9998994,-0.9923096,-0.111450195,-0.11413574,-0.38183594,-0.095703125,-0.026367188,5.72502,0.52938795,-0.21000512,-20.701017,-0.9938965,-0.068115234,-0.05078125,-0.28027344,0.002929688,0.016601562,3.900585,4.3262057,-57.081966,-19.654966,-0.31384277,-0.51348877,0.79119873,-0.07519531,-0.049804688,0.015625,5.507621,5.4753265,-128.86446,-13.984095,0,0,0,0,0,0,0,-14.490917,-128.67456,-15.147365,0,0,0,0,0,0,0,-0.025570422,0.010143654,0.9998994,-0.97302246,-0.036315918,-0.06365967,-0.55078125,0.014648438,-0.061523438,4.379672,-0.52938795,0.21000512,20.701017,-0.9649048,-0.22424316,-0.15985107,-0.203125,-0.053710938,0.017578125,12.386582,-5.462477,-56.465324,24.317001,-0.18798828,0.5050049,0.79193115,-0.07714844,0.022460938,0.010742188,9.140521,2.6656947,-127.99277,26.26347,0,0,0,0,0,0,0,-17.302147,-127.586365,27.299885,0,0,0,0,0,0,0,1.4786376,44.98626,-0.4185578
0.890624973,38,0.043151855,-0.854187,0.5426636,-0.04296875,-0.41992188,0.19921875,0,0,0,0,0,0,0,0,0,0,0,0.036329836,-0.007998432,-0.9995085,-1.0053711,-0.13024902,-0.055236816,-0.34179688,-0.0390625,-0.008789063,5.8212023,0.7521416,-0.16559237,-20.692924,-0.987854,-0.055114746,-0.054626465,-0.18261719,0.005859375,0.037109375,3.9097612,4.5618,-57.030155,-19.579018,-0.32946777,-0.52911377,0.7832031,-0.055664062,-0.03125,0.015625,5.8018093,5.7327733,-128.80621,-13.813915,0,0,0,0,0,0,0,-14.230707,-128.6249,-15.019106,0,0,0,0,0,0,0,-0.036329836,0.007998432,0.9995085,-0.9840088,-0.030151367,-0.07232666,-0.38085938,0.10449219,-0.025390625,4.6068745,-0.7521416,0.16559237,20.692924,-0.9647217,-0.18737793,-0.15356445,-0.16601562,-0.053710938,0.037109375,12.413381,-5.7164893,-56.49269,24.499958,-0.19683838,0.522522,0.80773926,-0.01953125,0.041992188,0.009765625,8.975026,2.375543,-128.03104,26.485409,0,0,0,0,0,0,0,-17.59775,-127.6645,27.435825,0,0,0,0,0,0,0,1.5257592,44.982124,-0.30450547
0.914062473,39,0.048950195,-0.8701172,0.5383911,-0.08105469,-0.38085938,0.20019531,0,0,0,0,0,0,0,0,0,0,0,0.0440917,-0.006914825,-0.99917245,-0.99121094,-0.078308105,-0.0881958,-0.30566406,-0.095703125,-0.044921875,5.9188747,0.91283464,-0.14315832,-20.685968,-1.0046997,7.32E-04,-0.045776367,-0.24121094,0.041015625,0.0546875,3.8724701,4.6635594,-57.017467,-19.542229,-0.31103516,-0.5151367,0.8197632,-0.037109375,-0.03125,0.03515625,5.9817305,5.765629,-128.7969,-13.7975855,0,0,0,0,0,0,0,-14.197573,-128.61261,-14.995944,0,0,0,0,0,0,0,-0.0440917,0.006914825,0.99917245,-1.0102539,0.0335083,-0.09893799,-0.15429688,0.12109375,0.01171875,4.5872307,-0.91283464,0.14315832,20.685968,-0.98095703,-0.18621826,-0.15045166,-0.12792969,-0.034179688,0.037109375,12.303986,-5.792057,-56.517864,24.574572,-0.21160889,0.5725708,0.8041382,0,0.041992188,0.028320312,8.874646,2.2546005,-128.0566,26.578651,0,0,0,0,0,0,0,-17.720974,-127.71819,27.484428,0,0,0,0,0,0,0,1.6379418,44.977146,-0.2389872
0.937499972,40,0.039245605,-0.92163086,0.54919434,-0.024414062,-0.30371094,0.18164062,0,0,0,0,0,0,0,0,0,0,0,0.051279098,-0.005828533,-0.99889827,-0.954895,-0.10650635,-0.11248779,-0.36328125,-0.11425781,-0.044921875,5.8808,1.0616379,-0.12066874,-20.68029,-0.98791504,-0.066223145,-0.078430176,-0.29882812,0.001953125,0.0546875,3.7396832,4.707817,-56.99832,-19.429646,-0.3479004,-0.5241089,0.7949829,-0.055664062,-0.03125,0.03515625,6.4457326,5.7315555,-128.78,-13.724352,0,0,0,0,0,0,0,-14.232365,-128.59113,-14.926196,0,0,0,0,0,0,0,-0.051279098,0.005828533,0.99889827,-0.9747925,0.05316162,-0.037109375,-0.07910156,0.10253906,0.029296875,4.6508,-1.0616379,0.12066874,20.68029,-0.96875,-0.17468262,-0.15045166,-0.07128906,-0.013671875,0.037109375,12.191198,-5.890501,-56.538395,24.634863,-0.22253418,0.5963745,0.78948975,0.056640625,0.099609375,0.10253906,8.66771,2.0580254,-128.09235,26.627623,0,0,0,0,0,0,0,-17.919313,-127.78162,27.492271,0,0,0,0,0,0,0,1.6667488,44.979156,-0.17688802
0.960937471,41,0.046020508,-0.8904419,0.56811523,0.032226562,-0.32421875,0.18066406,0,0,0,0,0,0,0,0,0,0,0,0.05860412,-0.005884197,-0.9984242,-0.96661377,-0.17297363,-0.09954834,-0.2685547,-0.13476562,-0.0078125,5.873796,1.2132863,-0.12182109,-20.670479,-0.9949951,-0.091552734,-0.059753418,-0.14453125,0.005859375,0.076171875,3.537288,4.791611,-56.992546,-19.198957,-0.30316162,-0.5206299,0.8374634,-0.13085938,-0.010742188,0.053710938,6.9958563,5.8812995,-128.77046,-13.430275,0,0,0,0,0,0,0,-14.082867,-128.58827,-14.639976,0,0,0,0,0,0,0,-0.05860412,0.005884197,0.9984242,-0.9798584,0.05645752,-0.08935547,-0.060546875,0.13867188,0.0859375,4.596999,-1.2132863,0.12182109,20.670479,-0.96551514,-0.15997314,-0.17718506,-0.052734375,-0.033203125,0.037109375,12.100889,-5.9994936,-56.545082,24.587307,-0.20159912,0.5616455,0.8099365,-0.041992188,0.17578125,0.17871094,8.520487,1.8909168,-128.10126,26.556227,0,0,0,0,0,0,0,-18.090275,-127.798805,27.33266,0,0,0,0,0,0,0,1.6773827,44.97562,-0.1666064
0.984374971,42,0.003417969,-0.8901367,0.5553589,0.051757812,-0.3046875,0.18066406,0,0,0,0,0,0,0,0,0,0,0,0.06457034,-0.005656866,-0.99806464,-0.98779297,-0.13781738,-0.093322754,-0.11425781,-0.1171875,0.010742188,5.863943,1.3368062,-0.11711468,-20.66303,-0.994812,-0.037963867,-0.0368042,-0.046875,-0.028320312,0.078125,3.3123937,4.820203,-56.98605,-18.984356,-0.30114746,-0.5321655,0.8147583,-0.111328125,0.0078125,0.016601562,6.9620156,5.816534,-128.76955,-13.284577,0,0,0,0,0,0,0,-14.144968,-128.60846,-14.53545,0,0,0,0,0,0,0,-0.06457034,0.005656866,0.99806464,-0.9503784,0.08569336,-0.12908936,-0.13574219,0.17675781,0.14160156,4.310026,-1.3368062,0.11711468,20.66303,-0.97351074,-0.14819336,-0.18603516,-0.18457031,-0.072265625,0.037109375,11.882906,-5.9810467,-56.578594,24.324743,-0.21643066,0.5949707,0.8200073,-0.002929688,0.17578125,0.23339844,8.405295,1.856287,-128.14204,26.214546,0,0,0,0,0,0,0,-18.131287,-127.85153,26.858374,0,0,0,0,0,0,0,1.6992962,44.975197,-0.14497516
1.00781247,43,0.06427002,-0.8779297,0.56378174,0.013671875,-0.265625,0.18164062,0,0,0,0,0,0,0,0,0,0,0,0.07157773,-0.005832065,-0.99766964,-0.97821045,-0.12249756,-0.07940674,-0.05859375,-0.15625,0.029296875,5.796401,1.4818809,-0.12074183,-20.654852,-0.9907837,-0.037475586,-0.049682617,-0.046875,-0.046875,0.09765625,3.0492158,4.8159704,-56.997158,-18.768448,-0.33917236,-0.50201416,0.78430176,-0.1875,0.008789063,0.03515625,6.776621,5.6333895,-128.7976,-13.215544,0,0,0,0,0,0,0,-14.325431,-128.64949,-14.491457,0,0,0,0,0,0,0,-0.07157773,0.005832065,0.99766964,-0.9921875,0.10784912,-0.08074951,-0.2109375,0.123046875,0.123046875,3.9575021,-1.4818809,0.12074183,20.654852,-0.9716797,-0.16485596,-0.16625977,-0.37402344,-0.09375,0.017578125,11.640226,-6.025386,-56.608288,23.964447,-0.29266357,0.61035156,0.8407593,0.171875,0.19335938,0.4921875,8.202744,1.6851091,-128.18678,25.731209,0,0,0,0,0,0,0,-18.308147,-127.894646,26.05384,0,0,0,0,0,0,0,1.713891,44.978436,-0.1399669
1.031249969,44,0.05621338,-0.89086914,0.5778198,-0.04296875,-0.26464844,0.14550781,0,0,0,0,0,0,0,0,0,0,0,0.07643664,-0.005433464,-0.99732864,-0.9995117,-0.082214355,0.011657715,-0.04296875,-0.25097656,-0.005859375,5.6240983,1.5824753,-0.11248953,-20.647793,-0.9637451,-0.028808594,-7.32E-04,0.049804688,0.010742188,0.15527344,2.7771375,4.5833964,-56.997852,-18.548908,-0.3470459,-0.53881836,0.78308105,-0.33789062,0.010742188,-0.040039062,6.230769,5.123098,-128.80249,-13.047673,0,0,0,0,0,0,0,-14.82966,-128.70512,-14.413911,0,0,0,0,0,0,0,-0.07643664,0.005433464,0.99732864,-0.9901123,0.11273193,-0.077819824,-0.49414062,0.14257812,0.03125,3.7982354,-1.5824753,0.11248953,20.647793,-0.9918823,-0.14807129,-0.17095947,-0.46875,-0.056640625,0.017578125,11.687137,-6.1787715,-56.621376,23.729052,-0.25378418,0.55181885,0.87390137,0.31640625,-0.055664062,0.6923828,8.590845,1.543922,-128.20908,25.335741,0,0,0,0,0,0,0,-18.449408,-127.74312,25.321651,0,0,0,0,0,0,0,1.766443,44.97726,-0.10965425
1.054687469,45,0.07714844,-0.921875,0.5133667,-0.004882813,-0.20800781,0.18164062,0,0,0,0,0,0,0,0,0,0,0,0.07976964,-0.005335735,-0.9970117,-0.9956665,-0.07220459,-0.042236328,-0.006835938,-0.3466797,-0.004882813,5.401093,1.6514792,-0.11046623,-20.641233,-0.99768066,-1.83E-04,-0.013977051,0.010742188,0.029296875,0.078125,2.2740002,4.164785,-57.00818,-18.226028,-0.24993896,-0.6008301,0.774292,-0.2998047,0.030273438,-0.05859375,5.792884,4.474732,-128.8205,-12.822035,0,0,0,0,0,0,0,-15.476248,-128.76149,-14.232102,0,0,0,0,0,0,0,-0.07976964,0.005335735,0.9970117,-0.9855957,0.07531738,-0.08807373,-0.5126953,0.16015625,-0.080078125,3.6010332,-1.6514792,0.11046623,20.641233,-0.979126,-0.17883301,-0.09265137,-0.41210938,-0.018554688,0.037109375,11.599314,-6.2377076,-56.63268,23.542173,-0.084228516,0.539917,0.79211426,0.0859375,-0.13183594,0.4892578,9.20272,1.4122033,-128.22601,25.091038,0,0,0,0,0,0,0,-18.573107,-127.521324,24.902754,0,0,0,0,0,0,0,1.8489568,44.97145,-0.092742205
1.078124968,46,0.06567383,-0.87597656,0.5111084,-0.04296875,-0.16894531,0.20117188,0,0,0,0,0,0,0,0,0,0,0,0.081822485,-0.005805556,-0.99680215,-0.99523926,-0.028320312,-0.008239746,-0.022460938,-0.23242188,-0.006835938,5.2589636,1.6939794,-0.12019299,-20.636892,-0.9857178,-0.016906738,-0.04260254,0.049804688,0.0859375,0.078125,1.8955816,3.9081006,-57.020737,-18.001846,-0.37835693,-0.4954834,0.8294678,-0.5292969,-0.06347656,-0.09765625,5.2510586,4.048093,-128.84756,-12.775051,0,0,0,0,0,0,0,-15.895389,-128.8513,-14.281128,0,0,0,0,0,0,0,-0.081822485,0.005805556,0.99680215,-0.9857788,0.060302734,-0.048706055,-0.39941406,0.12402344,0.049804688,3.6139507,-1.6939794,0.12019299,20.636892,-1.0107422,-0.010437012,-0.08001709,-0.27929688,-0.036132812,0.037109375,11.436816,-6.364875,-56.61463,23.535255,-0.43914795,0.67767334,0.7456665,-0.09765625,0.21191406,0.625,9.1562,0.93479013,-128.23425,24.825314,0,0,0,0,0,0,0,-19.024128,-127.36941,24.292479,0,0,0,0,0,0,0,1.8795335,44.968334,-0.10762215
1.101562467,47,0.043151855,-0.8911743,0.50457764,0.051757812,-0.14941406,0.12695312,0,0,0,0,0,0,0,0,0,0,0,0.08201951,-0.006162243,-0.99680585,-0.96398926,-0.03503418,-0.103271484,-0.1171875,-0.19335938,0.030273438,4.982243,1.6980579,-0.12757754,-20.63697,-0.9904175,0.069885254,-0.072143555,-0.06738281,0.064453125,0.038085938,1.3677349,3.5065084,-57.04382,-17.93706,-0.30926514,-0.5442505,0.7792969,-0.6220703,-0.0625,-0.2109375,4.7639475,3.5849216,-128.89563,-13.110691,0,0,0,0,0,0,0,-16.353725,-128.95328,-14.689479,0,0,0,0,0,0,0,-0.08201951,0.006162243,0.99680585,-0.9622803,0.16101074,-0.003723145,-0.40039062,0.015625,0.19824219,3.630492,-1.6980579,0.12757754,20.63697,-0.9633179,-0.06732178,-0.087768555,-0.73339844,0.03515625,0.036132812,11.530509,-6.7152824,-56.58396,23.307487,-0.2033081,0.6105957,0.807312,-0.20703125,-0.017578125,0.47558594,9.110331,0.20688438,-128.26056,23.973127,0,0,0,0,0,0,0,-19.74454,-127.3043,23.039804,0,0,0,0,0,0,0,1.9275544,44.967255,-0.119383395
1.124999966,48,0.023742676,-0.86450195,0.5371094,0.08984375,-0.11035156,0.052734375,0,0,0,0,0,0,0,0,0,0,0,0.08335549,-0.005134285,-0.99675107,-0.96154785,-0.09564209,-0.10241699,-0.15332031,-0.11621094,-0.026367188,4.9279966,1.725718,-0.106295615,-20.635836,-0.98687744,-0.056152344,-0.11602783,-0.14453125,0.0625,0.018554688,1.1396946,3.5040975,-57.020702,-17.958351,-0.28588867,-0.60723877,0.7711792,-0.6201172,0.014648438,-0.20996094,5.249417,3.7650113,-128.88924,-13.350668,0,0,0,0,0,0,0,-16.172739,-128.9802,-14.9391985,0,0,0,0,0,0,0,-0.08335549,0.005134285,0.99675107,-1.0002441,0.023071289,-0.026123047,-0.5888672,0.053710938,0.10546875,3.819519,-1.725718,0.106295615,20.635836,-0.9301758,-0.29333496,-0.048095703,-0.65722656,0.09277344,0.016601562,11.749906,-7.0517526,-56.59388,23.123413,-0.11627197,0.59295654,0.7127075,-0.15136719,0.059570312,0.47558594,9.317218,-0.18446112,-128.2756,23.898403,0,0,0,0,0,0,0,-20.121159,-127.22982,22.760185,0,0,0,0,0,0,0,1.8844935,44.97143,-0.074053764
1.148437466,49,0.040405273,-0.88134766,0.51568604,0.013671875,-0.1484375,0.034179688,0,0,0,0,0,0,0,0,0,0,0,0.08531141,-0.003471205,-0.9966229,-0.98669434,-0.08441162,-0.13110352,-0.111328125,-0.041015625,0.083984375,4.9845233,1.766211,-0.0718647,-20.633183,-1.0148926,-0.043640137,-0.115356445,0.030273438,0.0859375,0.05859375,0.9697499,3.566352,-56.985714,-18.008625,-0.26922607,-0.5935669,0.7752075,-0.69628906,-0.022460938,-0.32421875,5.6107707,4.1206884,-128.8588,-13.525645,0,0,0,0,0,0,0,-15.8123865,-128.994,-15.169289,0,0,0,0,0,0,0,-0.08531141,0.003471205,0.9966229,-0.96398926,-0.03881836,-0.003540039,-0.40039062,-0.021484375,0.10449219,4.1497784,-1.766211,0.0718647,20.633183,-0.960022,-0.1928711,-0.0579834,-0.24121094,0.1171875,0.036132812,11.992419,-7.3376155,-56.594166,23.25335,-0.11175537,0.489563,0.7780762,-0.07714844,0.1171875,0.41992188,9.558186,-0.46670055,-128.27426,24.232649,0,0,0,0,0,0,0,-20.390064,-127.16372,22.876392,0,0,0,0,0,0,0,1.8958819,44.972366,0.005651176
1.171874965,50,0.036865234,-0.8607178,0.5298462,0.013671875,-0.109375,-0.020507812,0,0,0,0,0,0,0,0,0,0,0,0.08664662,-0.002602384,-0.9963991,-0.99053955,-0.10882568,-0.14709473,0.002929688,-0.041992188,0.046875,5.0756273,1.7938542,-0.0538774,-20.628551,-1.0217285,-0.003234863,-0.115356445,-0.06738281,0.08300781,0.076171875,0.8780415,3.7185397,-56.968365,-18.111734,-0.2727661,-0.6758423,0.75219727,-0.6191406,-0.00390625,-0.34277344,5.9152303,4.4637046,-128.85347,-13.892557,0,0,0,0,0,0,0,-15.469088,-129.01772,-15.536261,0,0,0,0,0,0,0,-0.08664662,0.002602384,0.9963991,-0.9981079,-0.046203613,0.026611328,-0.19238281,-0.1328125,0.103515625,4.5274014,-1.7938542,0.0538774,20.628551,-0.92248535,-0.20874023,-0.07330322,-0.35546875,0.19238281,0.07421875,12.316607,-7.615552,-56.577927,23.494894,-0.11077881,0.48156738,0.7908325,0.017578125,0.13671875,0.21484375,9.666946,-0.6938977,-128.25452,24.500263,0,0,0,0,0,0,0,-20.602116,-127.15452,22.918709,0,0,0,0,0,0,0,1.9069593,44.96688,0.048384756
1.195312464,51,0.03375244,-0.86968994,0.5368042,-0.04296875,-0.18652344,-0.076171875,0,0,0,0,0,0,0,0,0,0,0,0.08793765,-8.19E-04,-0.9963055,-0.98150635,-0.06323242,-0.061279297,0.001953125,-0.061523438,0.028320312,5.2019086,1.8205826,-0.016958252,-20.626614,-0.9537964,-0.037963867,-0.08483887,-0.10546875,0.026367188,0.057617188,0.87379694,3.781997,-56.932842,-18.164043,-0.22473145,-0.6364136,0.7437134,-0.58203125,-0.004882813,-0.24804688,6.3376894,4.5925827,-128.82394,-14.006229,0,0,0,0,0,0,0,-15.343002,-128.99974,-15.611738,0,0,0,0,0,0,0,-0.08793765,8.19E-04,0.9963055,-0.95947266,-0.003601074,0.014465332,0.08984375,-0.15332031,0.10253906,5.0301056,-1.8205826,0.016958252,20.626614,-0.93408203,-0.2699585,-0.049865723,-0.20410156,0.2705078,0.0546875,12.901822,-8.032005,-56.560055,23.77698,-0.13018799,0.44091797,0.770874,0.13085938,0.1953125,0.083984375,9.801387,-0.9018607,-128.21147,24.912937,0,0,0,0,0,0,0,-20.80227,-127.13886,23.226574,0,0,0,0,0,0,0,1.9663537,44.964878,0.13658974
1.218749964,52,0.042663574,-0.9090576,0.56311035,-0.04296875,-0.16601562,-0.11230469,0,0,0,0,0,0,0,0,0,0,0,0.08976284,0.002814792,-0.99619544,-0.98150635,-0.06323242,-0.061279297,0.001953125,-0.061523438,0.028320312,5.4661903,1.858368,0.058274888,-20.624332,-0.99468994,-0.003173828,-0.07537842,-0.0859375,0.08203125,0.076171875,0.829923,3.8197823,-56.85761,-18.161762,-0.2738037,-0.6402588,0.7218628,-0.5253906,-0.024414062,-0.3046875,6.384019,4.6610336,-128.75188,-14.050551,0,0,0,0,0,0,0,-15.273945,-128.94786,-15.655538,0,0,0,0,0,0,0,-0.08976284,-0.002814792,0.99619544,-1.0177612,-0.021728516,0.11010742,0.09082031,-0.26367188,-0.009765625,5.7403708,-1.858368,-0.058274888,20.624332,-0.96032715,-0.2097168,-0.008361816,0.060546875,0.40722656,0.11230469,13.584403,-8.531907,-56.55041,24.25814,-0.16247559,0.5494385,0.8138428,0.16503906,0.29101562,-0.0078125,9.908497,-1.2285633,-128.18564,25.434612,0,0,0,0,0,0,0,-21.121904,-127.19758,23.63115,0,0,0,0,0,0,0,2.1001253,44.960457,0.31627062
1.242187463,53,0.033325195,-0.89538574,0.53167725,0.16503906,-0.16796875,-0.11425781,0,0,0,0,0,0,0,0,0,0,0,0.09099212,0.00640168,-0.9960709,-0.9857788,-0.07098389,-0.06524658,0.018554688,-0.15625,0.029296875,5.4102283,1.8838187,0.13253465,-20.621758,-0.9655762,0.012268066,-0.05218506,-0.203125,0.07910156,0.036132812,0.69801545,3.692914,-56.790066,-18.159382,-0.25598145,-0.6177368,0.72991943,-0.3408203,-0.10449219,-0.1171875,6.5589123,4.47241,-128.68794,-14.154459,0,0,0,0,0,0,0,-15.470007,-128.8502,-15.686036,0,0,0,0,0,0,0,-0.09099212,-0.00640168,0.9960709,-1.0228271,-0.018188477,0.030212402,0.14648438,-0.3544922,-0.009765625,6.772075,-1.8838187,-0.13253465,20.621758,-0.9660034,-0.20605469,-0.114868164,0.19238281,0.42773438,0.13183594,14.593952,-9.1532345,-56.511456,24.847694,-0.057128906,0.5427246,0.7714844,0.08886719,0.234375,-0.21191406,10.148715,-1.5430765,-128.11858,25.745354,0,0,0,0,0,0,0,-21.443172,-127.17684,23.994297,0,0,0,0,0,0,0,2.0624573,44.960938,0.47736835
1.265624962,54,-0.004577637,-0.8505249,0.5151367,0.203125,-0.26367188,-0.15234375,0,0,0,0,0,0,0,0,0,0,0,0.09592584,0.011810153,-0.9955259,-0.97302246,-0.10449219,-6.10E-04,-0.0390625,-0.13671875,-0.026367188,5.3484464,1.9859614,0.24450679,-20.610472,-1.0050049,-0.09051514,-0.034118652,-0.203125,0.07910156,0.0546875,0.46182463,3.5674686,-56.676918,-17.944347,-0.31732178,-0.62420654,0.69818115,-0.30273438,-0.10449219,-0.13574219,6.646559,4.30495,-128.57332,-13.873838,0,0,0,0,0,0,0,-15.63023,-128.70508,-15.48555,0,0,0,0,0,0,0,-0.09592584,-0.011810153,0.9955259,-0.9816284,-0.006652832,-0.059265137,0.39160156,-0.19238281,0.1015625,7.5889974,-1.9859614,-0.24450679,20.610472,-0.94525146,-0.17572021,-0.18048096,0.30566406,0.390625,0.18945312,15.357554,-9.515823,-56.56369,25.168537,-0.13745117,0.5593872,0.7686157,0.06542969,0.31152344,-0.32226562,10.193485,-1.4514542,-128.12686,25.718466,0,0,0,0,0,0,0,-21.370506,-127.28296,24.127176,0,0,0,0,0,0,0,1.865331,44.96497,0.7131674
1.289062462,55,-0.002380371,-0.868042,0.54870605,0.18359375,-0.32226562,-0.09765625,0,0,0,0,0,0,0,0,0,0,0,0.100316495,0.016802752,-0.9949802,-1.0090332,-0.13867188,0.018615723,-0.014648438,0.015625,0.064453125,5.5725675,2.0768628,0.3478691,-20.599174,-0.98895264,-0.08618164,-0.008117676,-0.10546875,0.119140625,0.07519531,0.3566318,3.666432,-56.562267,-17.72303,-0.31585693,-0.6607666,0.682312,-0.28222656,-0.08496094,-0.17382812,6.6665626,4.456105,-128.45189,-13.515347,0,0,0,0,0,0,0,-15.475129,-128.56432,-15.171481,0,0,0,0,0,0,0,-0.100316495,-0.016802752,0.9949802,-0.9664917,0.08312988,-0.1486206,0.61816406,-0.35742188,0.19238281,8.115419,-2.0768628,-0.3478691,20.599174,-0.9586792,-0.12512207,-0.32434082,0.23046875,0.3330078,0.16992188,16.196507,-9.807215,-56.631023,25.237688,-0.1473999,0.5831909,0.7481079,0.123046875,0.36914062,-0.2109375,10.1978655,-1.1013117,-128.10794,25.22788,0,0,0,0,0,0,0,-21.023426,-127.44278,23.599604,0,0,0,0,0,0,0,1.7248046,44.96471,0.9332419
1.312499961,56,-0.025512695,-0.897522,0.5112915,0.08886719,-0.36035156,-0.059570312,0,0,0,0,0,0,0,0,0,0,0,0.104527116,0.018624092,-0.9945864,-1.0180664,-0.11834717,-0.038146973,-0.051757812,0.015625,0.08300781,5.6491327,2.1640353,0.3855764,-20.59102,-0.99591064,-0.071899414,-0.025024414,-0.14453125,0.09863281,0.07519531,0.25333777,3.7106345,-56.523975,-17.659004,-0.24584961,-0.6669922,0.74053955,-0.18847656,-0.08691406,-0.1171875,6.8501124,4.554185,-128.40973,-13.47257,0,0,0,0,0,0,0,-15.379745,-128.49278,-15.114623,0,0,0,0,0,0,0,-0.104527116,-0.018624092,0.9945864,-0.9290161,0.18695068,-0.1739502,0.39160156,-0.15527344,0.19433594,7.91423,-2.1640353,-0.3855764,20.59102,-0.95251465,-0.12414551,-0.3303833,0.11621094,0.23632812,0.18945312,16.783592,-9.88069,-56.698406,24.827114,-0.30303955,0.55358887,0.85913086,0.125,0.31152344,-0.17480469,10.207313,-0.3981247,-128.0802,24.291613,0,0,0,0,0,0,0,-20.310028,-127.586975,22.526594,0,0,0,0,0,0,0,1.7026485,44.966877,1.0209675
1.33593746,57,-0.014648438,-0.92071533,0.51678467,-0.005859375,-0.3798828,0.014648438,0,0,0,0,0,0,0,0,0,0,0,0.109417945,0.019213717,-0.99396664,-0.9835205,-0.08666992,0.01348877,-0.1484375,-0.002929688,0.045898438,5.7919703,2.2652903,0.39778343,-20.578192,-0.9907837,-0.034240723,-0.027832031,-0.203125,0.15234375,0.09277344,0.11364091,3.7704663,-56.506695,-17.567738,-0.29437256,-0.65441895,0.696167,-0.09375,-0.049804688,-0.041015625,6.908306,4.6244073,-128.39651,-13.444573,0,0,0,0,0,0,0,-15.309019,-128.47914,-15.089001,0,0,0,0,0,0,0,-0.109417945,-0.019213717,0.99396664,-0.9477539,0.20874023,-0.1348877,0.14648438,-0.026367188,0.15820312,7.363059,-2.2652903,-0.39778343,20.578192,-0.9429321,-0.08300781,-0.3988037,-0.12890625,0.23339844,0.09375,17.282019,-9.876337,-56.7742,24.190887,-0.24993896,0.57458496,0.7559204,0.07519531,0.099609375,-0.045898438,10.357575,0.44668198,-128.02344,23.08454,0,0,0,0,0,0,0,-19.44986,-127.63727,21.12244,0,0,0,0,0,0,0,1.7834858,44.959026,1.0654032
1.359374959,58,0.035095215,-0.9755249,0.52001953,0.013671875,-0.36132812,0.051757812,0,0,0,0,0,0,0,0,0,0,0,0.11471519,0.022011012,-0.99334866,-0.9882202,-0.14782715,0.004455566,-0.2421875,0.036132812,0.1015625,6.059969,2.3749604,0.45569623,-20.565397,-0.98876953,-0.026000977,-0.037719727,-0.203125,0.18945312,0.111328125,0.18974563,3.8100238,-56.44495,-17.469913,-0.25341797,-0.64837646,0.7140503,-0.09277344,-0.030273438,-0.059570312,6.8472776,4.636165,-128.35165,-13.6086445,0,0,0,0,0,0,0,-15.294916,-128.44019,-15.282774,0,0,0,0,0,0,0,-0.11471519,-0.022011012,0.99334866,-0.98547363,0.1673584,-0.17419434,-0.19238281,0.123046875,0.14160156,6.8858676,-2.3749604,-0.45569623,20.565397,-0.96051025,-0.10357666,-0.34210205,-0.20507812,0.17480469,0.13183594,17.66883,-9.833662,-56.887463,23.628101,-0.22625732,0.6404419,0.78582764,0.016601562,0.11816406,0.047851562,10.6211195,1.2423182,-128.02386,22.055399,0,0,0,0,0,0,0,-18.651718,-127.66506,20.041758,0,0,0,0,0,0,0,1.9068115,44.951817,1.2162652
1.382812459,59,0.032836914,-0.991333,0.51989746,0.18359375,-0.3623047,0.12402344,0,0,0,0,0,0,0,0,0,0,0,0.11932939,0.024312466,-0.9928216,-0.96728516,-0.11437988,-0.009643555,-0.22363281,0.016601562,0.12011719,6.098665,2.4704876,0.50334334,-20.554483,-0.9668579,-0.05895996,-0.017700195,-0.22265625,0.26367188,0.109375,0.4909863,3.7285743,-56.40357,-17.440166,-0.26361084,-0.66711426,0.6647339,-0.053710938,0.0078125,-0.05859375,6.9557867,4.655673,-128.32379,-13.846064,0,0,0,0,0,0,0,-15.27385,-128.42105,-15.541932,0,0,0,0,0,0,0,-0.11932939,-0.024312466,0.9928216,-0.97106934,0.114746094,-0.1482544,-0.5703125,0.29101562,0.21777344,6.2118297,-2.4704876,-0.50334334,20.554483,-0.9616089,-0.097961426,-0.30914307,-0.35546875,0.078125,0.11328125,17.519062,-9.530153,-57.0183,22.953241,-0.2388916,0.5574951,0.78338623,0.038085938,0.060546875,0.083984375,10.758447,1.9450207,-128.079,20.873724,0,0,0,0,0,0,0,-17.941559,-127.736786,18.78093,0,0,0,0,0,0,0,1.9313753,44.950603,1.3328981
1.406249958,60,0.020690918,-0.9337158,0.53167725,0.31640625,-0.3251953,0.17773438,0,0,0,0,0,0,0,0,0,0,0,0.12397176,0.02539654,-0.9921223,-0.98443604,-0.11706543,-0.002502441,-0.33789062,0.017578125,0.12011719,5.8788996,2.5665996,0.52578706,-20.540009,-1.0089111,-0.07324219,-0.018249512,-0.2421875,0.28125,0.14746094,0.72577685,3.6824243,-56.38175,-17.453028,-0.2607422,-0.6628418,0.696228,0.060546875,0.044921875,-0.0390625,7.2528224,4.709981,-128.31032,-14.056464,0,0,0,0,0,0,0,-15.219268,-128.40158,-15.742143,0,0,0,0,0,0,0,-0.12397176,-0.02539654,0.9921223,-0.9938965,0.12872314,-0.10229492,-0.7392578,0.23730469,0.18164062,5.870091,-2.5665996,-0.52578706,20.540009,-0.954895,-0.14398193,-0.2658081,-0.3935547,0.0390625,0.1328125,17.371496,-9.416753,-57.086563,22.309986,-0.16552734,0.5665283,0.76867676,-0.018554688,0.041992188,0.083984375,10.940064,2.2482195,-128.11751,19.91698,0,0,0,0,0,0,0,-17.638863,-127.74132,17.826553,0,0,0,0,0,0,0,1.7327299,44.953056,1.3672324
1.429687457,61,0.008789063,-0.91656494,0.52911377,0.4111328,-0.30664062,0.17675781,0,0,0,0,0,0,0,0,0,0,0,0.12788779,0.025713969,-0.9917058,-0.9506836,-0.12609863,-0.035705566,-0.35546875,0.07421875,0.15625,5.5841613,2.6476746,0.53235894,-20.531384,-0.97161865,0.005126953,-0.016601562,-0.28125,0.29785156,0.16601562,1.1132907,3.645756,-56.38321,-17.44565,-0.23791504,-0.6425171,0.7102051,0.15527344,0.08203125,0.055664062,7.644445,4.793355,-128.32913,-14.466498,0,0,0,0,0,0,0,-15.141822,-128.402,-16.08673,0,0,0,0,0,0,0,-0.12788779,-0.025713969,0.9917058,-0.9765625,0.074157715,-0.08728027,-0.8339844,0.32910156,0.18164062,5.78933,-2.6476746,-0.53235894,20.531384,-0.9803467,-0.14471436,-0.25665283,-0.39453125,9.77E-04,0.15136719,17.175217,-9.32677,-57.12615,21.863615,-0.16827393,0.5996704,0.78063965,9.77E-04,0.041992188,0.10253906,11.019747,2.375389,-128.14116,19.237246,0,0,0,0,0,0,0,-17.508778,-127.74267,17.128693,0,0,0,0,0,0,0,1.4242753,44.96839,1.3496578
1.453124957,62,0.043029785,-0.901062,0.50549316,0.3544922,-0.2685547,0.23339844,0,0,0,0,0,0,0,0,0,0,0,0.13085926,0.02644,-0.9912507,-0.9734497,-0.07513428,-0.026489258,-0.33691406,0.055664062,0.17480469,5.2310195,2.7091904,0.54739004,-20.521963,-0.96258545,0.010681152,-0.06402588,-0.3203125,0.3154297,0.18359375,1.4986775,3.5036483,-56.372513,-17.55384,-0.31359863,-0.68927,0.7067261,0.15527344,0.08203125,0.055664062,7.82175,4.6648397,-128.34027,-15.12912,0,0,0,0,0,0,0,-15.271388,-128.41992,-16.728195,0,0,0,0,0,0,0,-0.13085926,-0.02644,0.9912507,-0.9939575,0.05090332,-0.09313965,-0.8339844,0.45703125,0.27539062,5.5191727,-2.7091904,-0.54739004,20.521963,-0.9657593,-0.11254883,-0.30230713,-0.46972656,-0.01953125,0.15136719,16.878021,-9.030259,-57.197002,21.36471,-0.17858887,0.5637207,0.7735596,0.041015625,-0.03515625,0.045898438,11.121744,2.809019,-128.17458,18.40928,0,0,0,0,0,0,0,-17.06856,-127.77917,16.237709,0,0,0,0,0,0,0,1.1635005,44.973633,1.353197
1.476562456,63,0.03881836,-0.9088135,0.49957275,0.39257812,-0.22949219,0.19628906,0,0,0,0,0,0,0,0,0,0,0,0.13104126,0.0265289,-0.9912498,-0.94207764,-0.060913086,0.060058594,-0.43066406,0.09472656,0.17480469,4.7436323,2.712961,0.5492305,-20.521942,-0.9776001,0.009338379,-0.02557373,-0.33984375,0.38867188,0.18261719,1.8827358,3.2251432,-56.38469,-17.794233,-0.2633667,-0.6209717,0.74560547,0.04296875,0.083984375,-9.77E-04,7.9984856,4.493525,-128.3628,-15.913259,0,0,0,0,0,0,0,-15.443741,-128.46143,-17.493708,0,0,0,0,0,0,0,-0.13104126,-0.0265289,0.9912498,-0.9765625,0.005493164,-0.13134766,-0.68359375,0.54785156,0.42382812,5.097352,-2.712961,-0.5492305,20.521942,-0.98132324,-0.16290283,-0.2966919,-0.5654297,-0.05859375,0.20898438,16.5392,-8.5764065,-57.25154,20.744965,-0.22613525,0.5144043,0.7791748,0.061523438,-0.07324219,0.0078125,11.332145,3.495287,-128.1796,17.461668,0,0,0,0,0,0,0,-16.37326,-127.79798,15.226127,0,0,0,0,0,0,0,0.9251657,44.98111,1.3261384
1.499999955,64,0.062683105,-0.8972168,0.53881836,0.43066406,-0.07421875,0.123046875,0,0,0,0,0,0,0,0,0,0,0,0.13046855,0.027443083,-0.9913247,-0.9503784,-0.06500244,0.16687012,-0.46679688,0.15136719,0.24804688,4.3838735,2.7011044,0.5681569,-20.523497,-0.96240234,0.03881836,0.14215088,-0.359375,0.5546875,0.19921875,2.2964396,2.9200466,-56.373184,-17.956875,-0.34979248,-0.68585205,0.7558594,0.005859375,0.123046875,-0.01953125,7.5979657,4.178672,-128.35876,-16.651747,0,0,0,0,0,0,0,-15.755815,-128.50519,-18.257687,0,0,0,0,0,0,0,-0.13046855,-0.027443083,0.9913247,-0.93463135,0.1428833,-0.19696045,-0.47558594,0.87402344,0.5175781,4.3724213,-2.7011044,-0.5681569,20.523497,-0.9869995,-0.1159668,-0.335083,-0.47070312,-0.15332031,0.20996094,15.660227,-7.6789064,-57.348625,19.940998,-0.11578369,0.4977417,0.74560547,0.041992188,-0.091796875,-0.06640625,11.75668,4.5214987,-128.24182,16.433386,0,0,0,0,0,0,0,-15.350263,-127.82482,14.211311,0,0,0,0,0,0,0,0.6110428,44.987568,1.3258213
1.523437455,65,0.10430908,-0.9057007,0.5654907,0.58203125,0.040039062,0.103515625,0,0,0,0,0,0,0,0,0,0,0,0.12444872,0.030397959,-0.9919603,-0.99328613,-0.07342529,0.47143555,-0.71875,9.77E-04,0.26757812,4.4590926,2.5764742,0.629332,-20.536654,-0.92211914,0.06719971,0.4519043,-0.51660156,0.8847656,0.19238281,2.8916433,2.227178,-56.305344,-17.881594,-0.35791016,-0.652771,0.70874023,-0.047851562,0.16210938,-0.1328125,6.76515,3.3579433,-128.2641,-16.93331,0,0,0,0,0,0,0,-16.56983,-128.50528,-18.608738,0,0,0,0,0,0,0,-0.12444872,-0.030397959,0.9919603,-1.0197754,0.06915283,-0.10241699,-0.60839844,0.94921875,0.5546875,3.596463,-2.5764742,-0.629332,20.536654,-0.9621582,-0.1671753,-0.27288818,-0.6972656,-0.21289062,0.20996094,14.336927,-6.4105563,-57.48444,18.919584,-0.22772217,0.6052246,0.6989746,0.060546875,-0.053710938,-0.029296875,12.0169,5.6898694,-128.3809,15.200357,0,0,0,0,0,0,0,-14.1803875,-127.95952,12.97659,0,0,0,0,0,0,0,0.20700175,44.98653,1.404552
1.546874954,66,0.16174316,-0.89630127,0.6257324,0.734375,0.19335938,0.23242188,0,0,0,0,0,0,0,0,0,0,0,0.12156668,0.03186302,-0.992248,-0.99676514,-0.07598877,0.77770996,-0.95996094,-0.37890625,0.29101562,4.5078473,2.5168066,0.65966326,-20.54261,-0.9069214,0.09313965,0.732605,-0.8095703,1.4716797,0.10449219,4.305661,1.7228298,-56.281857,-18.033073,-0.41046143,-0.86987305,0.81378174,0.3466797,0.15722656,0.15136719,7.4779534,3.8628428,-128.2645,-18.201288,0,0,0,0,0,0,0,-16.069805,-128.56573,-19.83702,0,0,0,0,0,0,0,-0.12156668,-0.03186302,0.992248,-1.0063477,-0.19677734,-0.13671875,-0.5126953,1,0.2763672,3.419134,-2.5168066,-0.65966326,20.54261,-0.99713135,-0.39361572,-0.20996094,-0.6220703,-0.17382812,0.20996094,13.181241,-5.336098,-57.562187,18.662624,-0.24334717,0.43469238,0.9361572,0.2939453,-0.091796875,0.004882813,12.346414,6.6348033,-128.4878,15.147181,0,0,0,0,0,0,0,-13.230028,-128.05846,12.879567,0,0,0,0,0,0,0,-0.4571495,44.984123,1.3885196
1.570312453,67,0.17114258,-0.7324829,0.5463257,1,0.16894531,0.5800781,0,0,0,0,0,0,0,0,0,0,0,0.11748105,0.033657055,-0.9927029,-1.0197144,-0.13598633,0.87353516,-0.87890625,-0.8183594,0.22167969,5.618206,2.4322212,0.6968054,-20.552027,-0.98583984,0.12475586,0.7029419,-1.1796875,1.8554688,-0.13476562,7.375041,0.7143805,-56.22208,-17.903913,-0.15362549,-1.0022583,0.7766113,1.2607422,-0.16308594,0.58203125,9.300264,5.073372,-128.08174,-19.83553,0,0,0,0,0,0,0,-14.85775,-128.33432,-21.494509,0,0,0,0,0,0,0,-0.11748105,-0.033657055,0.9927029,-0.9692993,-0.20574951,-0.06726074,0.22265625,0.9941406,0.45898438,3.295684,-2.4322212,-0.6968054,20.552027,-0.9267578,-0.29089355,-0.13275146,0.095703125,-0.06933594,0.3251953,11.616879,-3.942123,-57.65279,19.010517,-0.17602539,0.6317749,0.80548096,0.6640625,-0.20703125,0.037109375,12.494508,7.708368,-128.64783,15.722752,0,0,0,0,0,0,0,-12.15164,-128.09242,13.440508,0,0,0,0,0,0,0,-1.3922963,44.966763,1.359803
1.593749953,68,0.20233154,-0.63238525,0.50756836,0.66015625,0.24609375,0.8798828,0,0,0,0,0,0,0,0,0,0,0,0.1217494,0.027322778,-0.99238753,-1.3707886,-0.17956543,1.1976318,-0.88964844,-1.7148438,0.06640625,7.809896,2.5205903,0.5656662,-20.545498,-0.98583984,0.12475586,0.7029419,-1.1796875,1.8554688,-0.13476562,8.978747,-0.6416383,-56.25162,-17.171406,-0.14239502,-1.3811646,0.7128906,1.6298828,0.2548828,0.88964844,9.154655,3.7173533,-128.11128,-19.103022,0,0,0,0,0,0,0,-16.208485,-128.33653,-20.825783,0,0,0,0,0,0,0,-0.1217494,-0.027322778,0.99238753,-0.89990234,0.25775146,-0.08483887,0.9199219,0.8798828,0.58691406,3.7924566,-2.5205903,-0.5656662,20.545498,-0.9559326,0.11199951,-0.17687988,0.3408203,-0.047851562,0.3828125,10.262761,-3.1034243,-57.52886,18.658714,-0.09753418,0.6643677,0.77905273,0.7597656,-0.16894531,0.07421875,12.445732,7.9817753,-128.5624,14.688005,0,0,0,0,0,0,0,-11.888958,-127.7509,12.58396,0,0,0,0,0,0,0,-2.4657273,44.931747,0.9345736
1.617187452,69,0.15679932,-0.64624023,0.51361084,-0.5136719,0.29101562,0.8544922,0,0,0,0,0,0,0,0,0,0,0,0.1293236,0.008995257,-0.9917931,-1.5812988,0.020385742,0.82769775,-0.6230469,-2.4248047,0.20410156,10.484546,2.6774,0.1862297,-20.53319,-1.8231201,-0.014892578,0.36791992,0.640625,2.415039,-0.5292969,17.520842,-3.0837712,-56.316483,-15.651728,-0.19885254,-1.4829102,0.6088867,1.2705078,1.4726562,0.60253906,12.649583,7.406593,-127.382965,-20.76987,0,0,0,0,0,0,0,-12.528652,-127.91593,-22.299397,0,0,0,0,0,0,0,-0.1293236,-0.008995257,0.9917931,-0.9061279,0.6956787,-0.20025635,0.27929688,1.046875,0.31054688,4.187784,-2.6774,-0.1862297,20.53319,-1.0061646,0.12207031,-0.29504395,-0.15039062,-0.015625,0.30566406,9.012514,-2.2871192,-57.110054,17.572268,-0.17089844,0.68151855,0.7230835,0.77246094,0.060546875,0.1875,12.787714,8.425415,-128.11636,12.1599455,0,0,0,0,0,0,0,-11.451166,-127.02354,10.251606,0,0,0,0,0,0,0,-2.6788888,44.9305,0.058195353
1.640624951,70,0.062561035,-0.8843994,0.43554688,-1.1767578,0.29785156,0.54785156,0,0,0,0,0,0,0,0,0,0,0,0.12587056,-0.014952075,-0.99217206,-1.4212036,0.020202637,0.2298584,0.4736328,-1.59375,0.25,11.436576,2.60591,-0.30955428,-20.541037,-1.4904785,0.14855957,-0.09020996,1.4931641,2.4277344,-0.9716797,23.640423,-5.5238867,-56.427704,-14.654818,0.66711426,-1.677002,0.92077637,0.33398438,2.3691406,0.19726562,13.538584,9.32936,-126.62144,-20.871115,0,0,0,0,0,0,0,-10.602855,-127.93397,-21.876719,0,0,0,0,0,0,0,-0.12587056,0.014952075,0.99217206,-0.84490967,0.48217773,-0.26049805,-0.60546875,1.0888672,-0.020507812,5.168694,-2.60591,0.30955428,20.541037,-0.9953613,0.08282471,-0.25360107,0.059570312,0.005859375,0.20996094,7.8331847,-1.0786633,-56.52767,16.571812,-0.14056396,0.7175293,0.70062256,0.74902344,0.21386719,0.28222656,13.35081,9.620306,-127.464516,10.262157,0,0,0,0,0,0,0,-10.240709,-126.13394,8.340494,0,0,0,0,0,0,0,-1.7003367,44.969624,-0.89340496
1.66406245,71,0.03125,-1.2285156,0.42755127,-0.875,0.3779297,-0.026367188,0,0,0,0,0,0,0,0,0,0,0,0.1155172,-0.034046546,-0.9928996,-1.2996216,-0.09991455,0.08795166,1.6162109,-1.4267578,-0.43554688,11.679632,2.391564,-0.70486903,-20.556099,-1.4475708,0.12774658,-0.19970703,1.3994141,1.7011719,-0.96484375,28.581095,-7.1801343,-56.427658,-13.26692,1.1328125,-1.0346069,1.279541,-0.4033203,1.7617188,0.15136719,13.937582,11.504063,-125.661575,-19.919264,0,0,0,0,0,0,0,-8.372335,-127.8367,-20.41961,0,0,0,0,0,0,0,-0.1155172,0.034046546,0.9928996,-0.93756104,0.14678955,-0.1850586,-0.47265625,1.2324219,-0.057617188,7.127942,-2.391564,0.70486903,20.556099,-0.9604492,0.018859863,-0.18963623,0.002929688,-0.08984375,0.171875,6.1447163,0.5206151,-56.030964,15.86268,-0.15631104,0.6088257,0.7364502,0.6347656,0.13769531,0.24511719,13.324519,10.856216,-126.9445,8.760229,0,0,0,0,0,0,0,-8.990299,-125.414474,6.806835,0,0,0,0,0,0,0,-0.549052,44.975925,-1.606104
1.68749995,72,0.18566895,-1.2362671,0.42840576,-0.060546875,0.45214844,-0.27441406,0,0,0,0,0,0,0,0,0,0,0,0.10460952,-0.037767895,-0.9940119,-1.1733398,-0.03314209,-0.078552246,1.4716797,-1.8271484,-0.35742188,13.370835,2.165741,-0.78191257,-20.579128,-1.1949463,0.25500488,-0.1921997,0.2998047,0.4951172,-0.68359375,32.248844,-8.742086,-55.987312,-11.462342,1.6537476,-0.732605,1.3348999,-0.47460938,0.0859375,0.5078125,13.735419,12.15163,-124.601875,-17.952415,0,0,0,0,0,0,0,-7.66873,-127.24297,-18.432795,0,0,0,0,0,0,0,-0.10460952,0.037767895,0.9940119,-0.927124,0.10101318,-0.1381836,-0.13378906,1.0839844,0.014648438,7.989596,-2.165741,0.78191257,20.579128,-0.96551514,-0.10992432,-0.100097656,0.24902344,0.008789063,0.1328125,4.7544394,1.8217361,-55.873127,15.756016,-0.19250488,0.5934448,0.75109863,0.63964844,-0.015625,0.1328125,13.276914,11.776308,-126.84032,8.605224,0,0,0,0,0,0,0,-8.054319,-125.151764,6.629448,0,0,0,0,0,0,0,-0.22072956,44.975773,-1.7321026
1.710937449,73,0.2163086,-1.0527954,0.4907837,0.46875,0.37402344,-0.44628906,0,0,0,0,0,0,0,0,0,0,0,0.092758596,-0.033426356,-0.995331,-1.0383301,0.117492676,0.04425049,0.82714844,-2.3574219,-0.14746094,16.489388,1.9203906,-0.6920292,-20.606438,-1.0831909,0.1652832,-0.124572754,-1.0712891,-0.8310547,-0.2919922,34.621616,-10.942951,-55.12843,-9.6532345,1.7467041,-0.91986084,0.9378662,-0.37890625,-1.2988281,0.18847656,13.744219,9.95232,-123.81258,-15.283621,0,0,0,0,0,0,0,-9.874022,-126.29292,-16.181469,0,0,0,0,0,0,0,-0.092758596,0.033426356,0.995331,-0.92852783,0.0715332,-0.14141846,0.24316406,1.1542969,0.14355469,8.179853,-1.9203906,0.6920292,20.606438,-0.97766113,-0.055786133,-0.040771484,0.58984375,0.14648438,0.15234375,3.3710394,3.0985594,-55.88042,15.786634,-0.1239624,0.6600342,0.6668701,0.52734375,-0.13085938,0.095703125,13.231214,12.572295,-126.8934,8.529484,0,0,0,0,0,0,0,-7.244588,-125.0063,6.5872383,0,0,0,0,0,0,0,-0.43848744,44.980236,-1.5514425
1.734374948,74,0.16046143,-0.82958984,0.45135498,0.9423828,0.4873047,-0.52441406,0,0,0,0,0,0,0,0,0,0,0,0.063903004,-0.021145044,-0.9979358,-0.8356323,0.034179688,0.07727051,0.032226562,-2.1220703,-0.07714844,20.057953,1.3229915,-0.43776798,-20.660364,-0.95391846,-0.057434082,-0.15722656,-1.3183594,-1.8828125,0.020507812,34.729107,-13.556082,-54.04788,-8.241056,1.4471436,-0.9232788,0.64068604,-0.54785156,-1.6376953,-0.7402344,13.05359,4.578417,-123.601135,-12.623961,0,0,0,0,0,0,0,-15.29372,-125.479004,-13.894207,0,0,0,0,0,0,0,-0.063903004,0.021145044,0.9979358,-0.9072876,0.16186523,-0.16265869,0.7519531,1.2236328,0.29101562,8.191821,-1.3229915,0.43776798,20.660364,-0.9736328,0.12689209,-0.04119873,0.6269531,0.14648438,0.19042969,1.7400135,4.8914647,-55.989826,15.544544,-0.105529785,0.7084961,0.6828613,0.10546875,-0.26464844,-0.10546875,13.140789,13.62709,-127.02374,7.7546463,0,0,0,0,0,0,0,-6.1944275,-124.94599,6.0930996,0,0,0,0,0,0,0,-0.956063,44.987556,-1.0144532
1.757812448,75,0.053649902,-0.64086914,0.4159546,0.98046875,0.58496094,-0.6347656,0,0,0,0,0,0,0,0,0,0,0,0.04280144,-0.009120924,-0.9993088,-0.72924805,-0.06854248,0.111083984,-0.055664062,-1.8349609,-0.15429688,23.99641,0.8861223,-0.18883143,-20.688791,-0.80041504,-0.22076416,-0.24591064,-0.25,-2.6152344,0.12402344,34.025436,-15.778554,-52.85679,-6.618552,1.0354004,-0.8555298,0.6730957,-0.7763672,-1.3798828,-1.6240234,13.379827,-0.9067087,-123.29264,-8.699989,0,0,0,0,0,0,0,-20.833675,-124.4095,-10.025166,0,0,0,0,0,0,0,-0.04280144,0.009120924,0.9993088,-0.8868408,0.33544922,-0.11993408,0.92089844,1.078125,0.4013672,8.197356,-0.8861223,0.18883143,20.688791,-0.9526367,0.06628418,-0.029846191,0.23046875,0.29492188,0.11328125,0.73007786,6.1661224,-56.04388,14.67791,-0.13220215,0.7965088,0.6253052,-0.25976562,-0.32128906,-0.25097656,12.778083,14.15048,-127.06735,5.9963245,0,0,0,0,0,0,0,-5.683466,-124.94199,4.59402,0,0,0,0,0,0,0,-1.8750188,44.970253,-0.49076307
1.781249947,76,0.083862305,-0.5696411,0.33026123,0.5449219,0.6845703,-0.75878906,0,0,0,0,0,0,0,0,0,0,0,0.020631015,9.73E-04,-1.0000206,-0.59924316,-0.1251831,0.05206299,0.4453125,-1.6660156,-0.26660156,27.39259,0.42712516,0.020145843,-20.703527,-0.7338867,-0.086364746,-0.25561523,0.9160156,-3.163086,0.43554688,32.302483,-17.686327,-51.70921,-5.0327244,0.4520874,-0.8865967,0.9985962,-0.9189453,-1.3359375,-2.359375,12.92424,-7.014929,-122.930435,-4.5452538,0,0,0,0,0,0,0,-26.98417,-123.18152,-5.6510696,0,0,0,0,0,0,0,-0.020631015,-9.73E-04,1.0000206,-0.9041748,0.31732178,-0.15338135,0.88378906,1.2958984,0.36523438,8.525049,-0.42712516,-0.020145843,20.703527,-0.9807739,0.117248535,-0.047180176,0.30566406,0.35253906,0.18945312,1.1136421,7.373041,-56.02956,13.621115,-0.16540527,0.756897,0.70581055,-0.6074219,-0.3408203,-0.3779297,12.480072,14.861876,-127.034256,4.359482,0,0,0,0,0,0,0,-5.0011272,-124.94294,3.360486,0,0,0,0,0,0,0,-2.5709553,44.93704,-0.009313822
1.804687446,77,0.11553955,-0.6272583,0.34887695,-0.19335938,0.9199219,-0.6386719,0,0,0,0,0,0,0,0,0,0,0,-0.004275918,0.003705835,-1.000224,-0.5013428,-0.081970215,0.046325684,0.84765625,-1.6123047,-0.3046875,29.837736,-0.08852351,0.0767223,-20.707737,-0.7001953,0.08734131,-0.20617676,0.89746094,-3.5029297,0.7626953,29.887022,-19.447771,-50.676647,-3.429535,6.10E-04,-0.65057373,0.9352417,-0.70996094,-1.4707031,-2.663086,12.237751,-13.763687,-122.40204,-0.21339893,0,0,0,0,0,0,0,-33.73436,-121.583145,-0.97975636,0,0,0,0,0,0,0,0.004275918,-0.003705835,1.000224,-0.87872314,0.27288818,-0.21942139,0.58203125,1.3525391,0.2734375,9.693836,0.08852351,-0.0767223,20.707737,-0.9691162,0.010314941,-0.058166504,0.07910156,0.4267578,0.16992188,2.2192907,8.765291,-55.81305,12.518808,-0.16088867,0.65545654,0.77111816,-0.41601562,-0.30273438,-0.36035156,12.136725,16.020994,-126.75915,2.5498981,0,0,0,0,0,0,0,-3.8659,-124.7963,1.7382612,0,0,0,0,0,0,0,-2.6725945,44.93103,0.17789495
1.828124946,78,0.11212158,-0.7809448,0.40631104,-0.5332031,1.1513672,-0.41210938,0,0,0,0,0,0,0,0,0,0,0,-0.031687498,-0.004329128,-0.9997103,-0.4854126,0.010864258,0.09320068,1.2431641,-1.8066406,-0.3388672,31.64501,-0.6560304,-0.08962637,-20.697102,-0.68341064,0.05041504,-0.3447876,0.35546875,-3.5576172,0.92578125,27.405397,-21.296759,-49.709927,-1.662468,-0.1126709,-0.40551758,0.6536865,-0.5546875,-1.1289062,-2.1298828,12.150103,-21.118742,-121.48961,4.179009,0,0,0,0,0,0,0,-41.026955,-119.58811,3.9087434,0,0,0,0,0,0,0,0.031687498,0.004329128,0.9997103,-0.95526123,0.18005371,-0.26049805,0.22460938,1.4453125,0.10839844,11.670012,0.6560304,0.08962637,20.697102,-0.95861816,-0.099731445,-0.038269043,-0.053710938,0.5390625,0.15039062,3.4858809,10.517991,-55.318974,11.671289,-0.18762207,0.5758667,0.7440796,-0.22753906,-0.16796875,-0.36132812,11.905574,17.830963,-126.21117,1.3431721,0,0,0,0,0,0,0,-2.0770493,-124.40222,0.627861,0,0,0,0,0,0,0,-2.3295984,44.94949,-0.120808005
1.851562445,79,0.10394287,-0.9649658,0.44873047,-0.36132812,1.4189453,-0.17285156,0,0,0,0,0,0,0,0,0,0,0,-0.08153021,-0.021367565,-0.9965904,-0.47052002,0.084228516,0.07824707,1.2871094,-1.6552734,-0.21191406,32.82612,-1.6879288,-0.44237483,-20.632511,-0.6112671,0.07788086,-0.4389038,0.045898438,-3.6230469,0.9785156,24.889668,-23.543226,-48.821144,0.1674118,-0.2255249,-0.5507202,0.5650635,-1.0859375,-0.28027344,-1.6103516,11.367303,-29.091778,-120.13135,8.600044,0,0,0,0,0,0,0,-48.943634,-117.68364,8.581426,0,0,0,0,0,0,0,0.08153021,0.021367565,0.9965904,-1.0343628,0.045837402,-0.28320312,0.017578125,1.4824219,0.015625,14.083004,1.6879288,0.44237483,20.632511,-0.99139404,-0.18945312,-0.0836792,-0.091796875,0.6533203,0.16894531,4.5454497,12.844743,-54.655506,11.192301,-0.16320801,0.6054077,0.78759766,0.07324219,0.08105469,-0.3251953,11.945403,20.576834,-125.49402,0.79206085,0,0,0,0,0,0,0,0.6579037,-123.84287,0.0733881,0,0,0,0,0,0,0,-1.6652015,44.968227,-0.8279202
1.874999944,80,0.12719727,-1.05719,0.47418213,-0.15332031,1.4560547,-0.13769531,0,0,0,0,0,0,0,0,0,0,0,-0.11863288,-0.040581003,-0.99227166,-0.43426514,0.11352539,0.10192871,0.5830078,-0.9814453,-0.1640625,33.88765,-2.4560676,-0.8401525,-20.543098,-0.6392822,0.08880615,-0.4194336,-0.12792969,-3.7578125,0.9765625,21.739376,-25.153297,-48.25689,1.525486,-0.463562,-0.90826416,0.82421875,-1.3144531,0.45214844,-1.3945312,10.998967,-36.508648,-118.51613,12.547651,0,0,0,0,0,0,0,-56.352364,-116.04191,12.601877,0,0,0,0,0,0,0,0.11863288,0.040581003,0.99227166,-1.0097656,-0.13232422,-0.37316895,0.33789062,1.4990234,0.0703125,16.034842,2.4560676,0.8401525,20.543098,-1.0371704,-0.20831299,-0.09057617,0.078125,0.76953125,0.2265625,5.600317,15.276335,-53.89273,11.100666,-0.15466309,0.55407715,0.736084,0.39453125,0.2548828,-0.4375,12.301101,23.750149,-124.62575,0.5431833,0,0,0,0,0,0,0,3.8212242,-123.09443,-0.12570667,0,0,0,0,0,0,0,-1.6451588,44.947235,-1.6415205
1.898437443,81,0.07385254,-1.133606,0.49279785,0.017578125,1.5322266,-0.21289062,0,0,0,0,0,0,0,0,0,0,0,-0.15023002,-0.058685593,-0.9871644,-0.51379395,0.20666504,0.29431152,0.0703125,-0.2705078,-0.080078125,34.327774,-3.110227,-1.2149737,-20.43736,-0.81256104,0.044311523,-0.3890381,0.006835938,-3.7158203,0.88378906,17.918045,-26.094875,-48.217754,2.1970348,-1.0836182,-1.302124,1.1094971,-1.6796875,-0.059570312,-2.211914,13.718999,-42.946556,-116.78874,15.527643,0,0,0,0,0,0,0,-62.764904,-114.13409,16.042871,0,0,0,0,0,0,0,0.15023002,0.058685593,0.9871644,-1.0073853,-0.1071167,-0.31567383,1.3173828,1.2919922,0.34472656,17.519924,3.110227,1.2149737,20.43736,-1.0959473,-0.16223145,-0.05493164,0.45703125,1.0419922,0.20605469,6.491929,17.579668,-53.1237,11.124683,-0.2477417,0.74157715,0.76867676,0.5751953,0.60058594,-0.6035156,12.867823,26.938381,-123.66333,0.043536186,0,0,0,0,0,0,0,6.996208,-122.278984,-0.569191,0,0,0,0,0,0,0,-1.969779,44.90579,-2.369821
1.921874943,82,-0.023498535,-1.1709595,0.49902344,0.5097656,1.53125,-0.36523438,0,0,0,0,0,0,0,0,0,0,0,-0.18306741,-0.0706945,-0.9807997,-1.007019,0.31488037,0.37750244,-0.15917969,0.24511719,0.09863281,34.480316,-3.7900639,-1.4635953,-20.305595,-0.96972656,0.017333984,-0.31085205,-0.38183594,-3.4082031,0.6826172,15.806009,-26.577179,-48.497746,2.2176666,-1.0914307,-0.53131104,0.7648926,-1.2636719,-0.6611328,-1.9550781,18.745466,-47.21942,-115.95723,15.476917,0,0,0,0,0,0,0,-66.93874,-112.69503,16.276485,0,0,0,0,0,0,0,0.18306741,0.0706945,0.9807997,-1.0841064,0.001586914,-0.2886963,2.0332031,1.1240234,0.5644531,18.821798,3.7900639,1.4635953,20.305595,-1.1032715,6.10E-05,-0.03753662,0.8359375,1.1992188,0.18652344,7.317699,19.720272,-52.361263,10.376453,-0.13549805,0.70129395,0.75372314,0.67578125,1.0039062,-0.8417969,13.612044,29.95533,-122.66884,-1.392004,0,0,0,0,0,0,0,9.998533,-121.47962,-1.8412008,0,0,0,0,0,0,0,-2.6217856,44.85054,-2.743397
1.945312442,83,-0.072631836,-1.1641846,0.5182495,0.7548828,1.4140625,-0.4609375,0,0,0,0,0,0,0,0,0,0,0,-0.21685362,-0.07736202,-0.9734179,-1.1473389,-0.116760254,0.2711792,-0.3359375,0.8798828,-0.2783203,34.580902,-4.4895425,-1.6016337,-20.152765,-1.0894165,0.094177246,-0.12786865,-0.7324219,-3.0449219,0.55859375,13.429912,-26.818594,-49.173145,1.9131145,-1.3273315,-0.32086182,0.59295654,-1.1728516,-0.18945312,-0.47753906,22.895643,-51.228943,-115.50955,15.26296,0,0,0,0,0,0,0,-70.903114,-111.98687,16.077503,0,0,0,0,0,0,0,0.21685362,0.07736202,0.9734179,-1.032898,0.22991943,-0.27557373,2.3535156,0.8486328,0.5996094,19.153187,4.4895425,1.6016337,20.152765,-1.0748901,-0.008056641,-0.032836914,1.1572266,1.3935547,0.16699219,7.2549586,21.185495,-51.848118,9.503698,-0.15057373,0.7183838,0.7272339,0.81347656,1.4658203,-1.1542969,14.287111,32.495567,-121.81096,-3.2059145,0,0,0,0,0,0,0,12.514072,-121.01806,-3.506894,0,0,0,0,0,0,0,-3.554332,44.786457,-2.7675686
1.968749941,84,-0.15692139,-1.0752563,0.53808594,0.4892578,1.0888672,-0.57128906,0,0,0,0,0,0,0,0,0,0,0,-0.24675965,-0.08063578,-0.96589315,-0.9784546,-0.04827881,0.94317627,-0.31054688,0.59472656,-0.5703125,34.251175,-5.1086893,-1.6694106,-19.996983,-1.0479126,0.17108154,0.33563232,-1.046875,-2.0283203,0.3125,11.176883,-26.355717,-49.803806,1.9179955,-2,-0.7927246,0.5067749,-0.203125,0.08691406,-0.0390625,25.07664,-54.58596,-114.44354,16.450586,0,0,0,0,0,0,0,-74.27756,-111.02079,17.233839,0,0,0,0,0,0,0,0.24675965,0.08063578,0.96589315,-1.0845947,0.49517822,-0.34246826,2.2021484,0.3935547,0.4873047,19.532251,5.1086893,1.6694106,19.996983,-1.1161499,0.051818848,-0.05493164,1.2148438,1.5859375,0.0703125,6.755664,22.701515,-51.38105,8.778765,-0.20477295,0.73394775,0.7046509,1.1035156,1.9462891,-1.5234375,14.998736,35.769608,-120.838554,-5.0589933,0,0,0,0,0,0,0,15.770348,-120.63841,-5.1852293,0,0,0,0,0,0,0,-4.2594905,44.727497,-2.645806
1.992187441,85,-0.24926758,-1.0858765,0.5930786,0.2421875,0.7441406,-0.71777344,0,0,0,0,0,0,0,0,0,0,0,-0.27235305,-0.07938692,-0.9591951,-1.4624634,-0.24127197,1.269104,-0.4375,0.11816406,-0.43554688,34.368763,-5.6385527,-1.6435554,-19.85831,-0.7220459,-0.517395,0.7085571,-0.45410156,-0.14648438,-0.21289062,10.802267,-26.312157,-49.906773,2.3315487,-2,0.30133057,-0.30352783,0.79296875,-0.30664062,-0.26953125,26.380459,-55.8959,-113.738335,17.659582,0,0,0,0,0,0,0,-75.537506,-110.05717,18.468601,0,0,0,0,0,0,0,0.27235305,0.07938692,0.9591951,-1.0496216,0.48492432,-0.3885498,1.6748047,0.30664062,0.33984375,19.689072,5.6385527,1.6435554,19.85831,-1.1380005,-0.059570312,-0.07574463,0.9892578,1.7548828,-0.026367188,5.492442,23.726368,-51.1687,8.310184,-0.2755127,0.6622925,0.72094727,1.3671875,2.6386719,-1.890625,15.457596,38.982487,-119.92267,-6.730529,0,0,0,0,0,0,0,18.990122,-120.54039,-6.7825785,0,0,0,0,0,0,0,-4.54188,44.717304,-2.41137
2.01562494,86,-0.2659912,-1.0831299,0.4663086,0.013671875,0.22460938,-0.73828125,0,0,0,0,0,0,0,0,0,0,0,-0.29060125,-0.07196897,-0.9543015,-0.97436523,-0.40252686,0.98339844,0.546875,0.33691406,-0.1796875,34.216286,-6.016348,-1.4899809,-19.757,-0.765625,-0.5970459,0.17468262,1.8457031,1.6708984,-0.5761719,10.511593,-26.214397,-49.882088,2.5892296,-2,0.30133057,-0.30352783,0.79296875,-0.30664062,-0.26953125,25.081778,-53.805935,-114.40964,18.449524,0,0,0,0,0,0,0,-73.44754,-110.72847,19.258541,0,0,0,0,0,0,0,0.29060125,0.07196897,0.9543015,-1.15979,0.265625,-0.23760986,1.1279297,0.328125,0.17480469,20.048264,6.016348,1.4899809,19.757,-1.1173706,-0.28216553,0.053649902,0.83984375,1.9824219,-0.19921875,4.121888,24.643694,-51.07292,7.9391212,-0.4510498,0.7133179,0.7163086,1.7646484,3.4072266,-2.2021484,15.922195,42.44359,-118.91396,-8.411476,0,0,0,0,0,0,0,22.517391,-120.61488,-8.718615,0,0,0,0,0,0,0,-4.4156885,44.74405,-2.029734
2.039062439,87,-0.14630127,-1.1325073,0.4071045,-0.0625,-0.3173828,-0.51953125,0,0,0,0,0,0,0,0,0,0,0,-0.29741782,-0.05987247,-0.9531023,-0.28240967,-0.32336426,0.34924316,0.47558594,1.2167969,-0.3935547,33.35212,-6.157472,-1.2395458,-19.732172,-0.7180786,-0.10601807,-0.505188,2.383789,2.7841797,-0.7705078,11.2421465,-25.476149,-50.04857,2.4848385,-2,-0.6641846,0.60772705,2.625,1.9951172,1.1191406,23.4485,-48.861694,-116.42719,17.765182,0,0,0,0,0,0,0,-68.56243,-113.29034,19.246979,0,0,0,0,0,0,0,0.29741782,0.05987247,0.9531023,-1.3549194,0.1281128,0.016235352,0.56347656,0.203125,-0.13964844,20.418444,6.157472,1.2395458,19.732172,-1.2358398,-0.34240723,0.4104004,0.7089844,2.34375,-0.296875,3.0606863,25.310452,-51.11541,7.834917,-0.31762695,0.6925659,0.6768799,2.4453125,4.3291016,-2.5341797,16.680103,46.123604,-117.72564,-9.965879,0,0,0,0,0,0,0,26.33756,-120.57296,-10.568877,0,0,0,0,0,0,0,-4.043317,44.801167,-1.5526159
2.062499939,88,-0.22619629,-1.5829468,0.7384033,-2.6376953,0.14550781,-0.96972656,0,0,0,0,0,0,0,0,0,0,0,-0.30388236,-0.057842735,-0.9512277,-2,-0.12133789,-1.9420166,0.55859375,2.2314453,-0.8486328,29.707062,-6.2913074,-1.1975238,-19.693363,-2,1.1377563,0.59173584,2.4716797,0.41992188,2.0957031,11.073147,-24.121946,-50.736984,2.1625671,1.9477539,-2,-1.9421997,2.640625,0.6376953,6.102539,21.288866,-46.712234,-117.51068,16.910328,0,0,0,0,0,0,0,-66.59392,-115.75997,18.269651,0,0,0,0,0,0,0,0.30388236,0.057842735,0.9512277,-1.8063354,0.25933838,0.29156494,0.16699219,-0.4501953,-0.40039062,22.289839,6.2913074,1.1975238,19.693363,-1.6345825,-0.175354,0.82159424,1.1445312,2.7109375,-0.35546875,4.427176,25.58239,-51.213116,8.266665,-0.14300537,0.8137207,0.673645,2.8222656,6.211914,-3.1689453,18.396698,49.893074,-116.140564,-11.229873,0,0,0,0,0,0,0,30.381935,-120.32828,-12.490134,0,0,0,0,0,0,0,-2.248762,44.910522,-2.0125446
2.085937438,89,-0.15924072,-1.1080933,0.70684814,-0.2734375,-0.8720703,-1.0009766,0,0,0,0,0,0,0,0,0,0,0,-0.3021842,-0.038556464,-0.9526806,-1.6834106,0.24969482,0.4399414,2.9267578,-2.2578125,-0.6113281,26.762672,-6.2561502,-0.79823834,-19.72344,0.1408081,-0.1048584,0.003173828,1.8242188,2.1289062,-1.4003906,10.750906,-21.653784,-51.28807,1.8136806,-2,-1.8067627,-0.07647705,2.836914,1.9755859,0.7988281,18.47944,-41.005478,-119.065346,16.586187,0,0,0,0,0,0,0,-60.914536,-117.72268,17.956848,0,0,0,0,0,0,0,0.3021842,0.038556464,0.9526806,-1.5357666,0.12347412,0.7542114,-0.796875,-1.96875,-0.4404297,21.577084,6.2561502,0.79823834,19.72344,-1.4384766,-0.99554443,0.94073486,0.61816406,3.2207031,-0.6064453,9.481081,24.53228,-52.25496,9.678299,-0.2921753,0.8965454,0.68395996,3.7070312,8.364258,-4.4560547,21.120955,53.007504,-114.846634,-11.727947,0,0,0,0,0,0,0,34.07453,-120.73611,-14.408284,0,0,0,0,0,0,0,-0.8476762,44.97432,-1.5513031
2.109374937,90,0.03289795,-0.6854248,0.81073,0.46484375,-1.4394531,-0.55078125,0,0,0,0,0,0,0,0,0,0,0,-0.28140125,-0.00402505,-0.95976114,-0.43719482,0.001098633,-0.24731445,2.9501953,2.1513672,-0.47753906,27.497406,-5.8258753,-0.083331,-19.870031,-1.1203613,0.75164795,-0.758667,2.6416016,1.2958984,-0.12011719,11.452014,-20.338875,-50.70288,1.9567986,1.2277832,-0.6322632,0.7456665,0.82910156,1.5976562,-0.30273438,17.044535,-36.099598,-119.368324,16.894053,0,0,0,0,0,0,0,-55.971798,-118.56104,19.013329,0,0,0,0,0,0,0,0.28140125,0.00402505,0.95976114,-1.7245483,-0.30718994,1.2868042,-1.0039062,-3.5361328,-1.0585938,17.660784,5.8258753,0.083331,19.870031,-1.5063477,-0.4071045,0.6734009,2.6386719,3.149414,-0.3173828,17.015453,21.767769,-54.14358,12.44257,-0.85528564,1.1847534,0.15899658,4.1816406,10.594727,-5.9785156,27.895517,53.990574,-114.083115,-11.127834,0,0,0,0,0,0,0,36.21624,-121.76667,-16.181368,0,0,0,0,0,0,0,-0.31421557,45.006546,-0.09662086
2.132812436,91,0.08428955,-0.43701172,0.76678467,0.29492188,-1.3251953,-0.29003906,0,0,0,0,0,0,0,0,0,0,0,-0.22966117,0.02264163,-0.973258,-0.5987549,0.38793945,-0.41583252,3.2441406,2.0195312,-1.0859375,25.342402,-4.7546973,0.46875194,-20.149456,-0.7079468,0.18695068,-0.3932495,2.6035156,1.0976562,-0.5566406,10.094205,-16.155636,-51.728893,-0.24304008,-0.8018799,-0.81365967,1.4128418,-0.35742188,1.9355469,-0.1484375,15.914549,-29.56272,-121.065506,13.391144,0,0,0,0,0,0,0,-49.395844,-121.12586,15.983249,0,0,0,0,0,0,0,0.22966117,-0.02264163,0.973258,-1.2792969,-0.23944092,0.3336792,1.1650391,-4.395508,-1.3300781,11.416217,4.7546973,-0.46875194,20.149456,-1.8363037,1.3181152,-0.33148193,2.069336,2.8173828,-0.18261719,27.131203,16.646667,-56.175285,17.861553,-2,-1.9069214,1.6398926,-2.727539,6.7695312,-4.833008,39.25627,52.062042,-113.547134,-7.456152,0,0,0,0,0,0,0,36.232067,-122.61342,-15.668495,0,0,0,0,0,0,0,-0.51575977,44.99285,1.1684072
2.156249936,92,0.01361084,-0.36791992,0.7681885,-0.6699219,-1.0888672,-0.16796875,0,0,0,0,0,0,0,0,0,0,0,-0.21025088,0.039169,-0.97705346,-1.3574219,0.90130615,-0.2130127,-1.5195312,1.1894531,0.5498047,23.2558,-4.352844,0.8109197,-20.228035,-1.5632324,0.23675537,-0.12652588,0.025390625,1.0820312,-0.7138672,9.172091,-14.741514,-52.233856,-2.2688293,-0.6578369,-0.5932007,0.81622314,-0.31054688,-0.051757812,0.67578125,13.616774,-26.070744,-122.20886,10.17182,0,0,0,0,0,0,0,-45.911957,-122.74503,12.639715,0,0,0,0,0,0,0,0.21025088,-0.039169,0.97705346,-2,0.5488281,-0.0770874,2.2177734,-2.663086,0.234375,10.745871,4.352844,-0.8109197,20.228035,-1.3586426,0.7019043,-1.3048706,-5.2021484,2.9589844,-1.1289062,34.484207,14.419443,-56.917835,20.839869,-1.7607422,0.810791,1.8643188,-2.4228516,3.7148438,-3.3447266,43.22551,52.85047,-111.126205,-6.9331074,0,0,0,0,0,0,0,38.825684,-120.61522,-17.582363,0,0,0,0,0,0,0,0.14582801,44.973278,1.7715487
2.179687435,93,-0.0680542,-0.5477905,0.7379761,-0.9345703,-1.1269531,-0.036132812,0,0,0,0,0,0,0,0,0,0,0,-0.18506828,0.044671126,-0.98189265,-0.9869995,-0.6488037,-0.18695068,-0.60253906,1.1337891,-0.7988281,21.93391,-3.831486,0.92483073,-20.328222,-0.5352783,-0.20684814,-0.3713379,-1.4091797,1.1757812,-0.9873047,9.463525,-13.834692,-52.462383,-3.0203056,-0.5441284,-0.824646,0.74468994,-0.25097656,-0.12695312,0.2783203,12.650893,-22.438686,-122.94791,8.990669,0,0,0,0,0,0,0,-42.29996,-123.63012,11.246682,0,0,0,0,0,0,0,0.18506828,-0.044671126,0.98189265,-1.4934692,1.3233643,-1.9060059,-0.39160156,-3.2421875,1.6542969,8.74963,3.831486,-0.92483073,20.328222,-1.6841431,-0.68585205,-1.0093994,-5.3183594,3.243164,-0.84277344,44.068523,9.659716,-57.58021,22.737738,-0.838562,-1.9146118,1.0386353,-1.0273438,-1.9658203,-1.8935547,34.19857,52.55699,-107.13617,-7.119013,0,0,0,0,0,0,0,39.24066,-117.5073,-17.854408,0,0,0,0,0,0,0,1.1596562,44.956036,1.8266976
2.203124934,94,-0.056518555,-0.9209595,0.63916016,-1.9580078,-1.2363281,-0.10058594,0,0,0,0,0,0,0,0,0,0,0,-0.1495713,0.041595627,-0.988087,-0.7399292,-0.25860596,-0.08062744,-2.3896484,2.9482422,-1.4482422,17.998127,-3.096591,0.8611585,-20.456463,-1.2392578,-0.36853027,-0.17163086,-1.1357422,0.7138672,-0.6533203,6.8902245,-9.785538,-53.61023,-5.026989,-0.3942871,-0.7418213,0.78692627,-0.43652344,-0.14160156,-0.080078125,13.169479,-16.455984,-124.30527,6.935026,0,0,0,0,0,0,0,-36.329956,-125.009445,9.080497,0,0,0,0,0,0,0,0.1495713,-0.041595627,0.988087,-1.416748,0.38897705,-0.9624634,-2.78125,-2.8710938,0.12109375,7.364259,3.096591,-0.8611585,20.456463,-1.0853271,-0.68634033,-0.9262085,0.051757812,2.1835938,-0.7763672,51.48248,5.0398383,-57.74229,23.716476,-0.10235596,1.22052,1.347229,-1.8330078,-2.7333984,-2.022461,28.257114,51.13554,-103.60106,-7.2389793,0,0,0,0,0,0,0,38.172806,-114.90223,-17.455606,0,0,0,0,0,0,0,2.565198,44.91112,1.5023232
2.226562434,95,0.13464355,-1.3997192,0.6480713,-0.95410156,-1.3603516,0.20214844,0,0,0,0,0,0,0,0,0,0,0,-0.12390429,0.041224062,-0.9917101,-1.0246582,-0.3739624,-0.14129639,-2.3486328,1.2783203,-0.19042969,15.204418,-2.5652018,0.853466,-20.531475,-0.9112549,-0.17584229,-0.049987793,-0.43945312,0.9550781,-0.5683594,4.6352324,-6.7705355,-54.36213,-7.2545233,-0.31835938,-0.6694336,0.7137451,-0.53027344,-0.12109375,-0.1171875,13.421292,-11.668065,-125.25051,4.3752346,0,0,0,0,0,0,0,-31.55103,-125.93403,6.43032,0,0,0,0,0,0,0,0.12390429,-0.041224062,0.9917101,-1.4766235,-0.030029297,-0.1482544,-3.0625,-5.6279297,-1.3183594,9.363174,2.5652018,-0.853466,20.531475,-0.90185547,0.0647583,-1.0880127,3.3232422,0.75390625,-0.70996094,59.652214,-0.87326026,-57.278214,27.925201,0.6204834,1.0093994,1.2545776,-2.6191406,-3.8496094,-1.0605469,27.954067,47.081245,-101.70695,-2.2927952,0,0,0,0,0,0,0,34.422394,-113.95823,-11.771476,0,0,0,0,0,0,0,4.389491,44.778385,1.3129544
2.249999933,96,0.22363281,-1.1819458,0.49645996,0.7138672,-1.1455078,1.0546875,0,0,0,0,0,0,0,0,0,0,0,-0.09060836,0.0412862,-0.9953026,-0.96691895,-0.5791626,0.057373047,-0.6435547,1.96875,-0.05078125,13.748717,-1.8758752,0.8547524,-20.605848,-1.0170288,-0.08392334,-0.09075928,-0.24414062,0.7714844,-0.33398438,3.1576514,-4.694454,-54.906624,-9.110987,-0.33221436,-0.651001,0.70196533,-0.6777344,-0.061523438,-0.32421875,13.400266,-7.999533,-125.967186,2.0500221,0,0,0,0,0,0,0,-27.89327,-126.68211,3.9915571,0,0,0,0,0,0,0,0.09060836,-0.0412862,0.9953026,-1.3641968,0.001159668,-0.4788208,-2.9121094,-3.8398438,-0.53222656,13.814933,1.8758752,-0.8547524,20.605848,-0.8052368,0.44378662,-1.1200562,2.7929688,-0.96972656,-0.76171875,65.673515,-7.047716,-56.008316,31.939945,1.0339355,0.7084961,0.6721802,-2.2978516,-5.2890625,-0.6142578,27.86871,41.343086,-101.16156,3.5595589,0,0,0,0,0,0,0,28.479687,-114.110085,-4.6291504,0,0,0,0,0,0,0,4.34165,44.77845,1.4622107
2.273437432,97,0.07519531,-0.720459,0.45251465,1.3769531,-0.80371094,1.2529297,0,0,0,0,0,0,0,0,0,0,0,-0.05870673,0.036544234,-0.997775,-0.9637451,-0.06762695,0.028320312,0.45507812,2.2646484,-0.09082031,11.811394,-1.2154117,0.7565789,-20.657036,-0.94329834,0.074523926,0.08105469,-0.36035156,0.76953125,-0.41210938,1.4316282,-1.8736436,-55.457047,-11.254097,-0.2374878,-0.6454468,0.6609497,-0.7529297,-0.022460938,-0.2861328,13.5522175,-3.840959,-126.66575,-0.7865019,0,0,0,0,0,0,0,-23.72771,-127.37714,1.222475,0,0,0,0,0,0,0,0.05870673,-0.036544234,0.997775,-1.2159424,0.05303955,-0.40368652,-0.9140625,-3.3066406,0.16894531,17.891607,1.2154117,-0.7565789,20.657036,-0.4241333,0.3718872,-1.0332642,0.7451172,-2.2363281,-0.33789062,67.75179,-11.888929,-54.686634,33.675423,0.9782715,1.0290527,0.4732666,-2.4384766,-5.5791016,0.052734375,25.358387,35.62648,-102.17836,7.723646,0,0,0,0,0,0,0,22.290344,-115.53822,1.1011558,0,0,0,0,0,0,0,3.0802958,44.87823,1.4624605
2.296874932,98,0.09411621,-0.4547119,0.37371826,1.0556641,-0.5498047,1.0732422,0,0,0,0,0,0,0,0,0,0,0,-0.030973107,0.03184442,-0.99922854,-0.8092041,0.035461426,0.21472168,-0.3486328,1.6816406,-0.25097656,9.82289,-0.64123785,0.6592782,-20.687128,-0.9578247,-0.09033203,0.26275635,-0.6513672,0.7988281,-0.47460938,1.2654772,0.5680498,-55.84863,-13.274762,-0.1685791,-0.7701416,0.57110596,-0.50390625,0.14746094,-0.076171875,13.36608,-0.28638136,-127.09798,-2.9037046,0,0,0,0,0,0,0,-20.17008,-127.84508,-0.8833494,0,0,0,0,0,0,0,0.030973107,-0.03184442,0.99922854,-0.8996582,0.15985107,-0.5293579,0.14160156,-3.4628906,0.12695312,22.36913,0.64123785,-0.6592782,20.687128,-0.18658447,0.089416504,-0.88775635,-0.22363281,-3.3554688,-0.06542969,69.42566,-16.11038,-53.089508,34.864403,0.71728516,0.99823,0.2703247,-1.6435547,-5.9296875,1.6191406,18.83236,31.629122,-102.47975,13.382668,0,0,0,0,0,0,0,17.340174,-115.52198,8.288377,0,0,0,0,0,0,0,1.6843764,44.956974,1.3805234
2.320312431,99,0.098083496,-0.3371582,0.3925171,0.9794922,-0.66503906,1.0546875,0,0,0,0,0,0,0,0,0,0,0,-0.005774945,0.026174976,-0.99989533,-0.95458984,-0.21936035,0.38006592,-0.4169922,1.3964844,-0.4326172,8.74469,-0.11955783,0.54190314,-20.700933,-0.8899536,-0.16870117,0.45666504,0.006835938,0.91015625,-0.44628906,2.5147388,2.5299833,-56.007305,-14.149799,-0.22473145,-0.7970581,0.60717773,0.041015625,0.12109375,0.20703125,12.856271,2.7962506,-127.1546,-3.2078362,0,0,0,0,0,0,0,-17.085741,-127.976074,-1.1892252,0,0,0,0,0,0,0,0.005774945,-0.026174976,0.99989533,-0.64178467,0.17303467,-0.6055908,-0.19628906,-2.7138672,0.14941406,24.648388,0.11955783,-0.54190314,20.700933,-0.09515381,-0.055786133,-0.8327637,-0.22558594,-4.3476562,0.09082031,66.027435,-18.743769,-52.440193,34.46573,0.4683838,0.786499,0.14703369,-1.0380859,-5.3759766,2.5458984,15.92288,25.26563,-106.333725,15.875614,0,0,0,0,0,0,0,9.331144,-117.515076,12.232422,0,0,0,0,0,0,0,0.49214488,44.993427,1.1749827
2.34374993,100,0.047912598,-0.33892822,0.3411255,0.12792969,-0.7558594,0.9707031,0,0,0,0,0,0,0,0,0,0,0,0.022037297,0.020875404,-0.99973875,-1.0427246,-0.14093018,0.43981934,0.09667969,1.3544922,-0.46875,8.139864,0.45624045,0.43218553,-20.697691,-0.86242676,-0.023986816,0.4524536,0.3935547,1.1269531,-0.5566406,3.8083777,4.7113943,-56.11467,-14.843626,-0.17822266,-0.713501,0.6333008,0.6435547,0.055664062,0.4326172,11.392762,6.1939116,-127.15199,-3.342269,0,0,0,0,0,0,0,-13.687829,-127.98454,-1.335,0,0,0,0,0,0,0,-0.022037297,-0.020875404,0.99973875,-0.36499023,0.09509277,-0.6542969,-0.9511719,-2.1416016,0.26660156,28.131725,-0.45624045,-0.43218553,20.697691,-0.035339355,-0.06719971,-0.8272095,0.24804688,-5.2578125,-0.020507812,62.686768,-22.229105,-51.122456,35.052765,-0.041015625,1.2571411,0.5098877,-0.32128906,-5.245117,3.5058594,15.24186,16.513144,-110.001236,20.245993,0,0,0,0,0,0,0,-1.034441,-119.06686,17.390629,0,0,0,0,0,0,0,-0.22612011,44.998703,0.9346272
2.367187429,101,-0.07196045,-0.46392822,0.3421631,-0.8769531,-1.0361328,0.6464844,0,0,0,0,0,0,0,0,0,0,0,0.050301403,0.014467961,-0.9988986,-1.0427246,-0.14093018,0.43981934,0.09667969,1.3544922,-0.46875,8.1512165,1.0413941,0.29953164,-20.680298,-0.9022827,0.03643799,0.3678589,0.1796875,1.2529297,-0.69433594,3.2982376,5.296548,-56.247326,-14.826233,-0.22021484,-0.8501587,0.6610718,1.3095703,-0.31933594,0.88183594,9.467637,8.257289,-127.21474,-3.2194414,0,0,0,0,0,0,0,-11.637435,-127.965355,-1.3020658,0,0,0,0,0,0,0,-0.050301403,-0.014467961,0.9988986,-0.1630249,0.048217773,-0.7251587,-1.6289062,-1.5351562,0.23339844,29.845547,-1.0413941,-0.29953164,20.680298,-0.056518555,0.040893555,-0.97454834,-0.2265625,-5.9882812,0.09765625,59.395115,-25.246227,-49.843822,35.153557,-0.2697754,0.8430786,0.5409546,0.041992188,-5.0546875,3.930664,13.957361,9.2139015,-112.31247,26.176065,0,0,0,0,0,0,0,-9.454515,-119.05971,23.944727,0,0,0,0,0,0,0,0.22803012,45.006638,0.6633551
2.390624929,102,-0.04095459,-0.70788574,0.35821533,-1.2373047,-1.1269531,0.18847656,0,0,0,0,0,0,0,0,0,0,0,0.07631478,0.010798899,-0.9972389,-0.7972412,-0.082336426,0.09472656,-0.80859375,1.7246094,-0.43554688,10.133489,1.5799531,0.2235707,-20.645933,-0.8882446,-0.19598389,0.12957764,-0.072265625,1.4160156,-0.8535156,5.601122,8.782884,-56.217663,-17.196053,-0.25457764,-0.96136475,0.70269775,1.8740234,-0.38378906,1.1083984,8.833511,14.075766,-127.16748,-6.0535593,0,0,0,0,0,0,0,-5.846983,-127.79642,-4.401411,0,0,0,0,0,0,0,-0.07631478,-0.010798899,0.9972389,-0.1340332,-0.028930664,-0.75994873,-2.2480469,-0.6064453,-0.16894531,29.853695,-1.5799531,-0.2235707,20.645933,-0.111206055,-0.13909912,-0.99676514,-1.3828125,-6.3085938,0.36621094,55.524937,-27.346912,-49.0208,34.96058,-0.6508179,1.2420044,0.97229004,0.6894531,-4.8046875,3.9082031,13.525347,2.625431,-114.31329,31.450733,0,0,0,0,0,0,0,-16.844551,-118.53816,29.678658,0,0,0,0,0,0,0,1.5210018,44.979824,0.6034739
2.414062428,103,0.07623291,-0.99243164,0.3647461,-0.63183594,-1.1855469,-0.15039062,0,0,0,0,0,0,0,0,0,0,0,0.089653194,0.013006945,-0.99613154,-0.8302002,-0.13464355,-0.06072998,-1.0498047,1.9365234,-0.3828125,13.389726,1.8560994,0.26928416,-20.623013,-0.9171753,-0.15374756,-0.032165527,0.43066406,1.5224609,-0.8076172,6.7460184,11.080164,-55.956615,-18.83599,-0.36523438,-0.5907593,0.7503052,1.7285156,-0.32226562,0.7314453,9.341445,19.140747,-126.726105,-8.183361,0,0,0,0,0,0,0,-0.80550003,-127.18795,-6.783228,0,0,0,0,0,0,0,-0.089653194,-0.013006945,0.99613154,-0.21118164,-0.18792725,-0.59124756,-2.1142578,-0.12011719,-0.54003906,29.121407,-1.8560994,-0.26928416,20.623013,-0.31536865,-0.6445923,-0.90838623,0.115234375,-6.786133,-0.014648438,48.99501,-28.234877,-48.725002,34.97695,-0.6705322,1.0116577,1.3183594,1.1640625,-4.649414,3.4589844,14.712941,-5.460802,-117.01889,36.62326,0,0,0,0,0,0,0,-25.351603,-118.63421,35.20249,0,0,0,0,0,0,0,2.9520478,44.905914,0.85204566
2.437499927,104,0.25231934,-1.0289307,0.28131104,0.2578125,-0.84277344,-0.17578125,0,0,0,0,0,0,0,0,0,0,0,0.0966405,0.025564685,-0.9951462,-0.87060547,0.07952881,-0.14276123,-1.1542969,2.2041016,-0.25683594,16.027805,2.0007582,0.52926826,-20.602613,-0.899292,0.11138916,-0.22845459,0.29492188,1.6660156,-0.7734375,7.3450503,13.289189,-55.347107,-20.738613,-0.3569336,-0.45178223,0.8237915,0.99609375,-0.17871094,0.4873047,10.045199,24.019215,-125.95179,-11.724069,0,0,0,0,0,0,0,4.060295,-126.26455,-10.484504,0,0,0,0,0,0,0,-0.0966405,-0.025564685,0.9951462,-0.4487915,-0.3526001,-0.2529297,-1.2275391,-0.22070312,-0.61816406,29.391022,-2.0007582,-0.52926826,20.602613,-0.47283936,-0.37542725,-0.7825928,2.4003906,-6.6816406,0.2939453,40.49301,-28.580536,-48.776733,35.29638,-1.3481445,1.4307861,1.6622314,1.9140625,-5.2041016,3.2978516,14.734736,-15.806942,-119.33004,41.25775,0,0,0,0,0,0,0,-35.770813,-118.30135,40.40957,0,0,0,0,0,0,0,3.5384505,44.842705,1.4956065
2.460937427,105,0.24645996,-0.97735596,0.39422607,0.5810547,-0.49902344,0.026367188,0,0,0,0,0,0,0,0,0,0,0,0.09847328,0.037705407,-0.9947081,-0.88494873,4.88E-04,-0.28045654,-1.6630859,2.4375,-0.25976562,17.84058,2.0387037,0.7806189,-20.593542,-0.97753906,0.06591797,-0.25628662,-0.55859375,1.7724609,-0.80859375,7.8741975,15.319307,-54.58231,-23.410074,-0.28381348,-0.48846436,0.8140259,0.2998047,-0.07421875,0.28027344,11.333639,28.532372,-125.06445,-17.130064,0,0,0,0,0,0,0,8.570093,-125.29928,-15.913823,0,0,0,0,0,0,0,-0.09847328,-0.037705407,0.9947081,-0.7492676,-0.4934082,0.06976318,-0.002929688,-0.73828125,-0.32714844,30.871449,-2.0387037,-0.7806189,20.593542,-0.7775879,-0.057800293,-0.83880615,3.6816406,-6.2470703,0.71484375,33.68249,-29.192337,-48.518463,35.856987,-1.5556641,0.91973877,1.2271729,2.8300781,-4.3583984,3.0927734,16.30277,-25.391289,-119.77771,45.235428,0,0,0,0,0,0,0,-45.02448,-115.93657,44.94997,0,0,0,0,0,0,0,3.426204,44.83575,2.0387287
2.484374926,106,0.07330322,-0.9696655,0.42260742,0.7705078,-0.5205078,0.171875,0,0,0,0,0,0,0,0,0,0,0,0.09768444,0.04429488,-0.9944728,-0.96191406,-0.26293945,-0.21142578,-1.2158203,2.03125,-0.16210938,19.77609,2.0223708,0.91704136,-20.588669,-0.96447754,-0.21380615,-0.08746338,-0.578125,1.7900391,-0.80859375,8.555566,17.457203,-53.755203,-25.332718,-0.3026123,-0.53515625,0.8629761,-0.18554688,0.19921875,0.3203125,13.488866,33.399635,-123.83014,-20.66067,0,0,0,0,0,0,0,13.435799,-124.1053,-19.467718,0,0,0,0,0,0,0,-0.09768444,-0.04429488,0.9944728,-0.7979126,-0.084106445,0.1138916,1.9931641,0.2529297,0.765625,31.498766,-2.0223708,-0.91704136,20.588669,-1.1716919,0.61309814,-0.66326904,2.6757812,-5.821289,1.0771484,25.061758,-29.186932,-48.608395,35.98894,-2,-1.9016724,1.1478271,0.32226562,-2.0214844,3.234375,13.455767,-35.92746,-119.28729,48.097908,0,0,0,0,0,0,0,-55.010864,-113.29036,47.77957,0,0,0,0,0,0,0,3.1129603,44.843925,2.303174
2.507812425,107,0.07330322,-0.9696655,0.42260742,0.7705078,-0.5205078,0.171875,0,0,0,0,0,0,0,0,0,0,0,0.09768444,0.04429488,-0.9944728,-1.1361084,-0.35668945,-0.026611328,-0.36035156,1.2607422,-0.11621094,21.444448,2.0223708,0.91704136,-20.588669,-1.0616455,-0.26208496,0.061828613,0.13867188,1.8837891,-0.7216797,8.999337,18.896822,-53.204517,-26.579517,-0.2975464,-0.56518555,0.9100342,-0.5683594,0.70410156,0.26953125,14.942761,37.609444,-122.63016,-22.742796,0,0,0,0,0,0,0,17.656898,-123.16563,-21.474306,0,0,0,0,0,0,0,-0.09768444,-0.04429488,0.9944728,-1.0766602,0.33624268,0.55895996,3.2167969,-0.0078125,1.3183594,30.514143,-2.0223708,-0.91704136,20.588669,-1.1846313,0.29370117,-0.38409424,-0.3828125,-4.904297,0.6298828,16.99414,-28.74181,-49.10265,35.19799,-2,1.003418,0.5830078,-2.3378906,-0.96777344,3.1044922,8.694839,-44.312607,-118.011,49.230232,0,0,0,0,0,0,0,-63.09121,-111.22905,47.96461,0,0,0,0,0,0,0,3.1129603,44.843925,2.303174
2.531249925,108,-0.109680176,-1.0790405,0.67993164,0.14550781,-0.7890625,0.30566406,0,0,0,0,0,0,0,0,0,0,0,0.12991783,0.054247778,-0.990238,-1.2618408,-0.13787842,-0.08300781,-0.2578125,0.89746094,-0.22265625,21.78684,2.6897027,1.1230972,-20.500996,-1.163147,0.159729,0.08642578,-0.037109375,2.1376953,-0.6699219,8.227362,20.634478,-52.56648,-27.240543,-0.09625244,-0.9338379,1.0378418,-0.90527344,1.5722656,0.48828125,15.386669,42.26931,-121.22319,-25.184546,0,0,0,0,0,0,0,22.347485,-122.41555,-23.865055,0,0,0,0,0,0,0,-0.12991783,-0.054247778,0.990238,-1.6947021,0.71899414,1.3175659,1.765625,-0.8720703,0.70703125,31.673811,-2.6897027,-1.1230972,20.500996,-0.951416,-0.39068604,0.31970215,-2.3408203,-2.9423828,-0.08886719,12.402843,-29.77413,-49.207394,34.818558,-2,-0.3123169,-0.1765747,-0.2890625,-1.4013672,1.4648438,6.8107157,-51.085648,-116.244064,50.209274,0,0,0,0,0,0,0,-69.60373,-108.94783,48.216496,0,0,0,0,0,0,0,2.4718516,44.85474,2.7815614
2.554687424,109,0.11242676,-1.0335693,0.5532837,-0.21386719,-0.7109375,0.4580078,0,0,0,0,0,0,0,0,0,0,0,0.1504268,0.055475745,-0.9872447,-1.2272949,-0.18890381,0.21685791,-1.0136719,0.6191406,-0.3671875,22.801994,3.1143017,1.1485198,-20.439028,-1.2238159,0.25512695,0.10772705,-0.9501953,2.6523438,-0.7871094,7.1148567,21.955242,-52.17735,-27.577538,-0.18847656,-0.42578125,0.9454956,-1.5214844,2.7490234,0.9736328,15.839963,47.05945,-119.680405,-27.706615,0,0,0,0,0,0,0,27.287573,-121.974335,-25.969532,0,0,0,0,0,0,0,-0.1504268,-0.055475745,0.9872447,-1.5952759,0.581604,1.24646,-2.1201172,-0.25195312,0.83496094,32.310795,-3.1143017,-1.1485198,20.439028,-0.4827881,-0.3322754,0.5405884,-0.11035156,0.21386719,0.15136719,11.885741,-31.510036,-48.782806,33.65824,-2,-0.6655884,-1.1500244,2.1523438,-1.9902344,0.171875,10.430264,-54.7486,-114.80828,50.506443,0,0,0,0,0,0,0,-72.844315,-106.42911,48.935818,0,0,0,0,0,0,0,2.4912593,44.845413,2.8995693
2.578124923,110,0.38128662,-1.2888794,0.5461426,-0.5527344,-0.09375,0.796875,0,0,0,0,0,0,0,0,0,0,0,0.16434115,0.041668396,-0.98572665,-1.3828735,-0.19378662,0.3069458,-1.3085938,0.31445312,-0.234375,24.361294,3.4023726,0.86266494,-20.407598,-1.2546387,0.29345703,0.22930908,-1.2617188,2.993164,-0.6435547,6.2999578,22.915253,-52.194286,-27.756649,-0.21600342,-0.6275635,0.92871094,-1.8271484,4.2304688,1.5576172,15.08687,51.57632,-118.19508,-30.796486,0,0,0,0,0,0,0,32.124622,-122.36192,-28.711079,0,0,0,0,0,0,0,-0.16434115,-0.041668396,0.98572665,-1.2243042,-0.29968262,0.86676025,-0.7363281,0.64941406,-0.43066406,31.120329,-3.4023726,-0.86266494,20.407598,-0.86932373,-0.026977539,-0.17956543,2.3408203,2.819336,0.96875,13.84248,-31.82687,-48.60147,33.17142,-2,-0.45983887,-0.9145508,-0.3310547,1.3359375,-2.4990234,10.406374,-52.88221,-115.7776,48.40561,0,0,0,0,0,0,0,-71.08704,-107.54846,47.388603,0,0,0,0,0,0,0,3.0461092,44.84147,2.4033775
2.601562422,111,0.46813965,-1.4657593,0.666687,-2.5585938,0.37890625,1.0048828,0,0,0,0,0,0,0,0,0,0,0,0.17041674,0.013099181,-0.98557043,-1.5548096,-0.025268555,0.8882446,-0.64941406,-1.2373047,-0.27148438,25.401962,3.5281544,0.27119374,-20.404366,-1.4804077,0.11206055,0.35479736,-1.0117188,3.3896484,-0.6064453,8.133736,22.738045,-52.981815,-27.10748,-0.3071289,-0.59350586,0.8882446,-2.3125,6.2685547,2.6767578,13.861153,55.380035,-116.86914,-33.389626,0,0,0,0,0,0,0,36.749023,-123.74363,-30.972992,0,0,0,0,0,0,0,-0.17041674,-0.013099181,0.98557043,-1.7834473,0.001342773,1.4249878,2.0126953,-2.4667969,-0.3408203,30.741516,-3.5281544,-0.27119374,20.404366,-2,0.32043457,-0.084350586,-0.095703125,1.2246094,0.5888672,17.49237,-32.611305,-47.267975,34.331192,1.999939,0.3540039,-2,-0.59765625,5.8154297,-5.7177734,3.9712837,-50.933758,-115.65702,47.532516,0,0,0,0,0,0,0,-70.00102,-109.691895,46.436913,0,0,0,0,0,0,0,4.0179443,44.814396,1.2903767
2.624999922,112,0.40734863,-1.2432251,0.5617676,0.11230469,0.7451172,1.5341797,0,0,0,0,0,0,0,0,0,0,0,0.1730924,-0.027287766,-0.9847996,-1.6036377,0.27337646,0.8562622,-0.30273438,-1.4365234,0.46972656,25.526888,3.583548,-0.5649413,-20.388407,-1.8296509,1.1748657,0.605896,-0.3154297,3.9804688,-0.3154297,13.567045,21.402502,-54.406364,-26.185879,-0.20141602,-0.93652344,0.7669678,-3.4980469,8.522461,4.3066406,14.474952,58.09282,-115.53786,-36.367218,0,0,0,0,0,0,0,41.28224,-125.9873,-33.478718,0,0,0,0,0,0,0,-0.1730924,0.027287766,0.9847996,-1.8743286,0.29125977,0.11413574,-1.3447266,3.4052734,1.8125,24.921278,-3.583548,0.5649413,20.388407,-0.26654053,0.6095581,-0.48425293,-5.084961,2.0039062,0.21679688,18.541916,-30.761276,-48.29785,31.504398,-2,-1.5583496,-0.14050293,-2.5263672,2.8691406,-2.8876953,7.007063,-44.524593,-117.913925,42.656815,0,0,0,0,0,0,0,-64.15681,-114.11754,42.00757,0,0,0,0,0,0,0,5.072606,44.72396,-0.347672
2.648437421,113,0.006713867,-0.88391113,0.8008423,0.9667969,1.7265625,1.3662109,0,0,0,0,0,0,0,0,0,0,0,0.16105732,-0.06681706,-0.9849452,-1.5630493,0.9556885,0.54589844,-0.5136719,-2.5107422,1.4619141,21.825407,3.3343856,-1.3833203,-20.391418,-1.8068237,1.6616821,0.6213379,-2.1953125,3.8271484,-1.0117188,21.559923,18.270811,-56.156647,-25.544804,-0.3258667,-1.3904419,0.9355469,-4.2089844,11.169922,6.772461,21.599583,59.208923,-113.776855,-39.34909,0,0,0,0,0,0,0,46.056793,-128.59962,-36.59279,0,0,0,0,0,0,0,-0.16105732,0.06681706,0.9849452,-0.4942627,0.4649048,-0.4985962,-5.489258,2.5185547,0.1328125,22.331158,-3.3343856,1.3833203,20.391418,-0.21105957,-0.52801514,-0.9368286,-5.466797,1.9414062,0.56152344,21.50282,-28.743706,-48.907417,28.586018,0.007568359,0.7927246,-2,-1.7597656,-0.81640625,-1.7998047,14.756338,-36.10189,-119.85358,37.313503,0,0,0,0,0,0,0,-55.93322,-117.392426,36.40194,0,0,0,0,0,0,0,3.8990946,44.778248,-2.4001064
2.67187492,114,-0.33013916,-0.6723633,0.90478516,0.018554688,1.2714844,1.0214844,0,0,0,0,0,0,0,0,0,0,0,0.14386407,-0.103096716,-0.9843964,-1.1506958,0.39587402,0.06262207,-2.1777344,-1.9433594,1.4921875,18.680054,2.9784331,-2.1344218,-20.380056,-1.5571289,-0.49273682,-0.5852661,-5.814453,2.3310547,-1.0175781,29.31186,14.208002,-57.797085,-25.4171,-2,-1.9738159,-1.9553223,0.7519531,9.051758,8.543945,36.437084,58.61161,-112.19136,-41.399776,0,0,0,0,0,0,0,50.55536,-130.37495,-39.252266,0,0,0,0,0,0,0,-0.14386407,0.103096716,0.9843964,-0.4985962,0.18450928,-1.0336304,-5.9052734,2.1767578,0.095703125,19.962772,-2.9784331,2.1344218,20.380056,-1.223877,-0.54711914,-0.8713989,-4.489258,1.5732422,-0.5859375,21.870758,-26.184362,-49.59862,26.311195,-0.6925659,-1.9136353,0.78375244,-2.0058594,-0.22363281,-1.1230469,21.861616,-29.823515,-121.10417,34.11571,0,0,0,0,0,0,0,-49.744522,-119.40182,33.724537,0,0,0,0,0,0,0,3.2090504,44.695568,-4.212023
2.69531242,115,-0.2456665,-0.54644775,0.9006958,-1.328125,0.4892578,0.79003906,0,0,0,0,0,0,0,0,0,0,0,0.1594998,-0.14110991,-0.97725207,-2,-0.02520752,-0.19024658,-5.6416016,-1.5605469,0.23046875,18.163427,3.30214,-2.921413,-20.232147,-1.8919678,-1.6949463,-0.99505615,-1.1630859,2.6699219,-1.1337891,34.47843,12.126598,-59.001034,-25.44735,-1.2767944,-1.7271118,-1.9517212,-2.8076172,-0.8017578,-1.5810547,43.597008,59.194157,-110.97153,-41.8832,0,0,0,0,0,0,0,53.00892,-129.88457,-39.852505,0,0,0,0,0,0,0,-0.1594998,0.14110991,0.97725207,-1.4824219,-1.3388672,-1.2835693,-1.7939453,1.5009766,0.115234375,18.418262,-3.30214,2.921413,20.232147,-1.3865356,-0.71099854,-0.79815674,-0.41992188,1.6015625,0.8359375,22.476334,-24.834637,-49.646595,24.96328,-0.25439453,0.41680908,0.9764404,-0.2998047,-0.28320312,-0.23144531,24.496193,-25.397161,-121.30904,32.107803,0,0,0,0,0,0,0,-45.32718,-119.88974,31.708136,0,0,0,0,0,0,0,3.082929,44.510227,-5.923864
2.718749919,116,0.15673828,-0.94940186,0.7675781,-1.6318359,0.12695312,0.51464844,0,0,0,0,0,0,0,0,0,0,0,0.1656695,-0.17006862,-0.97157633,-2,-0.13848877,-1.0552368,-2.6289062,-3.163086,-0.9326172,17.246473,3.4298716,-3.5209475,-20.114643,-1.7855225,0.30029297,-0.9169922,3.2421875,1.3935547,-0.47265625,40.589962,9.695736,-60.08865,-23.386738,0.76660156,-1.553894,1.3014526,-1.8251953,-2.765625,3.5078125,35.408604,59.457222,-109.32179,-40.302288,0,0,0,0,0,0,0,52.70585,-128.14104,-39.713326,0,0,0,0,0,0,0,-0.1656695,0.17006862,0.97157633,-1.0596924,-0.3336792,-0.4621582,1.9355469,1.4794922,1.5146484,14.378011,-3.4298716,3.5209475,20.114643,-1.1970215,-0.107543945,-0.3735962,1.9423828,1.5166016,1.0683594,21.614218,-22.430813,-50.079937,24.059689,-0.24658203,0.41955566,0.8908081,0.2763672,-0.14941406,-0.05078125,22.6338,-20.65078,-121.84433,29.862148,0,0,0,0,0,0,0,-40.58304,-120.39485,29.340506,0,0,0,0,0,0,0,4.5871773,44.228813,-6.9598002
2.742187418,117,0.3673706,-1.3344727,0.6166992,0.67871094,0.65527344,0.328125,0,0,0,0,0,0,0,0,0,0,0,0.16026041,-0.18588366,-0.96961874,-1.574585,-0.9267578,-0.3949585,0.8496094,-3.4267578,-0.24609375,13.831428,3.3178875,-3.848368,-20.074112,-1.1936646,0.14605713,-0.8167114,-0.6279297,-0.16796875,-0.31054688,45.693863,5.8901687,-60.7898,-20.94999,0.3128662,-1.9718018,1.0264282,-1.1201172,-3.7958984,0.6845703,29.004702,56.504814,-109.273026,-37.50233,0,0,0,0,0,0,0,49.00049,-127.77106,-38.726143,0,0,0,0,0,0,0,-0.16026041,0.18588366,0.96961874,-0.685791,0.36279297,-0.0725708,3.2929688,1.5244141,1.8251953,12.706208,-3.3178875,3.848368,20.074112,-1.1970215,-0.107543945,-0.3735962,1.9423828,1.5166016,1.0683594,19.085602,-19.809006,-50.655838,22.712378,-0.26123047,0.5064697,0.8253784,0.54589844,-0.13085938,0.0390625,21.677027,-18.028973,-122.42023,28.514837,0,0,0,0,0,0,0,-37.942886,-120.955185,27.629677,0,0,0,0,0,0,0,4.8308105,44.089508,-7.6538653
2.765624918,118,0.0435791,-1.0705566,0.50305176,1.5673828,0.6191406,-0.56640625,0,0,0,0,0,0,0,0,0,0,0,0.14765823,-0.17902912,-0.9729704,-1.3685303,-0.4609375,-0.2512207,1.2001953,-3.7529297,-0.4453125,8.397957,3.056983,-3.7064583,-20.143505,-0.67407227,-0.068847656,-0.82458496,-2.0947266,-1.7050781,0.27246094,48.895744,1.4674864,-60.663197,-18.319088,0.401062,-1.6444092,0.96533203,-0.091796875,-3.6425781,-0.97265625,26.57442,50.713512,-110.6423,-34.53286,0,0,0,0,0,0,0,41.866985,-128.47144,-36.51801,0,0,0,0,0,0,0,-0.14765823,0.17902912,0.9729704,-0.9069214,0.7280884,-0.35308838,2.5439453,3.0498047,0.9785156,12.089676,-3.056983,3.7064583,20.143505,-1.30896,0.3040161,-0.25579834,-0.09277344,0.9580078,0.3017578,19.07879,-15.81977,-51.84395,21.238379,-0.20050049,0.59436035,0.7668457,0.70214844,-0.15039062,0.16796875,20.415184,-9.223464,-123.45262,25.204063,0,0,0,0,0,0,0,-29.119976,-121.84574,24.069773,0,0,0,0,0,0,0,3.433596,44.22954,-7.6172695
2.789062417,119,0.137146,-0.7473755,0.4328003,2.0966797,0.6796875,-1.1982422,0,0,0,0,0,0,0,0,0,0,0,0.11787012,-0.14774229,-0.98225135,-1.0783081,0.078125,-0.38043213,0.9501953,-3.9052734,-0.20410156,5.3850327,2.440276,-3.0587234,-20.33565,-0.65618896,-0.37225342,-0.8460083,-3.1757812,-2.7763672,0.28515625,50.79382,-3.6621406,-59.541496,-15.631976,-0.1673584,-1.4110718,1.1425781,0.99609375,-4.8916016,-3.024414,26.26948,42.6957,-112.49421,-30.922298,0,0,0,0,0,0,0,31.920282,-129.22803,-32.893127,0,0,0,0,0,0,0,-0.11787012,0.14774229,0.98225135,-0.84942627,0.58392334,-0.13006592,1.2626953,2.4199219,0.34960938,10.557116,-2.440276,3.0587234,20.33565,-0.97613525,-0.09136963,0.049560547,-0.5839844,0.7421875,0.22558594,15.781026,-10.783501,-53.214695,20.17058,-0.12854004,0.5217285,0.80285645,0.73828125,-0.09277344,0.14941406,21.5736,-2.8956475,-124.71867,23.526363,0,0,0,0,0,0,0,-22.773146,-122.86046,22.33716,0,0,0,0,0,0,0,1.6368299,44.510464,-6.498484
2.812499916,120,0.16680908,-0.40795898,0.32348633,1.2255859,0.64453125,-1.0058594,0,0,0,0,0,0,0,0,0,0,0,0.09202781,-0.12102914,-0.98859197,-0.8491821,0.043945312,-0.5889282,0.37304688,-2.928711,0.080078125,8.59368,1.9052602,-2.5056784,-20.466919,-0.5653076,-0.71173096,-0.7595215,-1.8945312,-3.3652344,-0.047851562,49.038704,-6.5462627,-58.401672,-14.823185,-0.5150757,-0.49920654,0.7630615,1.6865234,-6.553711,-2.9873047,25.48396,36.02243,-114.88654,-28.373396,0,0,0,0,0,0,0,22.620556,-129.62802,-30.015108,0,0,0,0,0,0,0,-0.09202781,0.12102914,0.98859197,-0.6640625,0.40423584,0.015441895,0.017578125,2.9414062,0.43066406,9.501832,-1.9052602,2.5056784,20.466919,-0.9456177,0.24017334,-0.026367188,0.057617188,0.8261719,0.41796875,12.667115,-6.171009,-54.317062,18.945824,-0.11730957,0.7406616,0.70965576,0.37304688,-0.14941406,0.059570312,21.99119,2.7657108,-125.7181,21.086575,0,0,0,0,0,0,0,-17.089106,-123.63503,19.94294,0,0,0,0,0,0,0,0.036518455,44.67654,-5.466161
