TOTAL_TIME,0m6s
TOTAL_FRAMES,254
SELECTED_FRAMES,254
NO_OF_JOINTS,12
FREQUENCY,42.666668
DESCRIPTION,Capture 10
TIME_STAMP,Jul 9, 2010

Time,Frame,Pelvis_accelX_Pelvis,Pelvis_accelY_Pelvis,Pelvis_accelZ_Pelvis,Pelvis_gyroX_Pelvis,Pelvis_gyroY_Pelvis,Pelvis_gyroZ_Pelvis,Pelvis_Joint angle_Pelvis,Pelvis_Relative pos X_Pelvis,Pelvis_Relative pos Y_Pelvis,Pelvis_Relative pos Z_Pelvis,RightPelvis_accelX_RightPelvis,RightPelvis_accelY_RightPelvis,RightPelvis_accelZ_RightPelvis,RightPelvis_gyroX_RightPelvis,RightPelvis_gyroY_RightPelvis,RightPelvis_gyroZ_RightPelvis,RightPelvis_Joint angle_RightPelvis,RightPelvis_Relative pos X_RightPelvis,RightPelvis_Relative pos Y_RightPelvis,RightPelvis_Relative pos Z_RightPelvis,RightUpLeg_accelX_RightUpLeg,RightUpLeg_accelY_RightUpLeg,RightUpLeg_accelZ_RightUpLeg,RightUpLeg_gyroX_RightUpLeg,RightUpLeg_gyroY_RightUpLeg,RightUpLeg_gyroZ_RightUpLeg,RightUpLeg_Joint angle_RightUpLeg,RightUpLeg_Relative pos X_RightUpLeg,RightUpLeg_Relative pos Y_RightUpLeg,RightUpLeg_Relative pos Z_RightUpLeg,RightLeg_accelX_RightLeg,RightLeg_accelY_RightLeg,RightLeg_accelZ_RightLeg,RightLeg_gyroX_RightLeg,RightLeg_gyroY_RightLeg,RightLeg_gyroZ_RightLeg,RightLeg_Joint angle_RightLeg,RightLeg_Relative pos X_RightLeg,RightLeg_Relative pos Y_RightLeg,RightLeg_Relative pos Z_RightLeg,RightFoot_accelX_RightFoot,RightFoot_accelY_RightFoot,RightFoot_accelZ_RightFoot,RightFoot_gyroX_RightFoot,RightFoot_gyroY_RightFoot,RightFoot_gyroZ_RightFoot,RightFoot_Joint angle_RightFoot,RightFoot_Relative pos X_RightFoot,RightFoot_Relative pos Y_RightFoot,RightFoot_Relative pos Z_RightFoot,RightFootEnd_accelX_RightFootEnd,RightFootEnd_accelY_RightFootEnd,RightFootEnd_accelZ_RightFootEnd,RightFootEnd_gyroX_RightFootEnd,RightFootEnd_gyroY_RightFootEnd,RightFootEnd_gyroZ_RightFootEnd,RightFootEnd_Joint angle_RightFootEnd,RightFootEnd_Relative pos X_RightFootEnd,RightFootEnd_Relative pos Y_RightFootEnd,RightFootEnd_Relative pos Z_RightFootEnd,LeftPelvis_accelX_LeftPelvis,LeftPelvis_accelY_LeftPelvis,LeftPelvis_accelZ_LeftPelvis,LeftPelvis_gyroX_LeftPelvis,LeftPelvis_gyroY_LeftPelvis,LeftPelvis_gyroZ_LeftPelvis,LeftPelvis_Joint angle_LeftPelvis,LeftPelvis_Relative pos X_LeftPelvis,LeftPelvis_Relative pos Y_LeftPelvis,LeftPelvis_Relative pos Z_LeftPelvis,LeftUpLeg_accelX_LeftUpLeg,LeftUpLeg_accelY_LeftUpLeg,LeftUpLeg_accelZ_LeftUpLeg,LeftUpLeg_gyroX_LeftUpLeg,LeftUpLeg_gyroY_LeftUpLeg,LeftUpLeg_gyroZ_LeftUpLeg,LeftUpLeg_Joint angle_LeftUpLeg,LeftUpLeg_Relative pos X_LeftUpLeg,LeftUpLeg_Relative pos Y_LeftUpLeg,LeftUpLeg_Relative pos Z_LeftUpLeg,LeftLeg_accelX_LeftLeg,LeftLeg_accelY_LeftLeg,LeftLeg_accelZ_LeftLeg,LeftLeg_gyroX_LeftLeg,LeftLeg_gyroY_LeftLeg,LeftLeg_gyroZ_LeftLeg,LeftLeg_Joint angle_LeftLeg,LeftLeg_Relative pos X_LeftLeg,LeftLeg_Relative pos Y_LeftLeg,LeftLeg_Relative pos Z_LeftLeg,LeftFoot_accelX_LeftFoot,LeftFoot_accelY_LeftFoot,LeftFoot_accelZ_LeftFoot,LeftFoot_gyroX_LeftFoot,LeftFoot_gyroY_LeftFoot,LeftFoot_gyroZ_LeftFoot,LeftFoot_Joint angle_LeftFoot,LeftFoot_Relative pos X_LeftFoot,LeftFoot_Relative pos Y_LeftFoot,LeftFoot_Relative pos Z_LeftFoot,LeftFootEnd_accelX_LeftFootEnd,LeftFootEnd_accelY_LeftFootEnd,LeftFootEnd_accelZ_LeftFootEnd,LeftFootEnd_gyroX_LeftFootEnd,LeftFootEnd_gyroY_LeftFootEnd,LeftFootEnd_gyroZ_LeftFootEnd,LeftFootEnd_Joint angle_LeftFootEnd,LeftFootEnd_Relative pos X_LeftFootEnd,LeftFootEnd_Relative pos Y_LeftFootEnd,LeftFootEnd_Relative pos Z_LeftFootEnd,Spine_accelX_Spine,Spine_accelY_Spine,Spine_accelZ_Spine,Spine_gyroX_Spine,Spine_gyroY_Spine,Spine_gyroZ_Spine,Spine_Joint angle_Spine,Spine_Relative pos X_Spine,Spine_Relative pos Y_Spine,Spine_Relative pos Z_Spine,
0.0,0,0.0,0.0,0.0,0.0,0.0,0.0,0.0,0.0,0.0,0.0,0.0,0.0,0.0,0.0,0.0,0.0,0.0,0.0,0.0,0.0,0.0,0.0,0.0,0.0,0.0,0.0,NaN,0.0,0.0,0.0,0.0,0.0,0.0,0.0,0.0,0.0,NaN,0.0,0.0,0.0,0.0,0.0,0.0,0.0,0.0,0.0,NaN,0.0,0.0,0.0,0.0,0.0,0.0,0.0,0.0,0.0,0.0,0.0,0.0,0.0,0.0,0.0,0.0,0.0,0.0,0.0,0.0,0.0,0.0,0.0,0.0,0.0,0.0,0.0,0.0,0.0,NaN,0.0,0.0,0.0,0.0,0.0,0.0,0.0,0.0,0.0,NaN,0.0,0.0,0.0,0.0,0.0,0.0,0.0,0.0,0.0,NaN,0.0,0.0,0.0,0.0,0.0,0.0,0.0,0.0,0.0,0.0,0.0,0.0,0.0,0.0,0.0,0.0,0.0,0.0,0.0,0.0,0.0,0.0,0.0,
0.02343749930150809,1,0.0,0.0,0.0,0.0,0.0,0.0,0.0,0.0,0.0,0.0,0.0,0.0,0.0,0.0,0.0,0.0,0.0,0.0,0.0,0.0,0.0,0.0,0.0,0.0,0.0,0.0,NaN,0.0,0.0,0.0,0.0,0.0,0.0,0.0,0.0,0.0,NaN,0.0,0.0,0.0,0.0,0.0,0.0,0.0,0.0,0.0,NaN,0.0,0.0,0.0,0.0,0.0,0.0,0.0,0.0,0.0,0.0,0.0,0.0,0.0,0.0,0.0,0.0,0.0,0.0,0.0,0.0,0.0,0.0,0.0,0.0,0.0,0.0,0.0,0.0,0.0,NaN,0.0,0.0,0.0,0.0,0.0,0.0,0.0,0.0,0.0,NaN,0.0,0.0,0.0,0.0,0.0,0.0,0.0,0.0,0.0,NaN,0.0,0.0,0.0,0.0,0.0,0.0,0.0,0.0,0.0,0.0,0.0,0.0,0.0,0.0,0.0,0.0,0.0,0.0,0.0,0.0,0.0,0.0,0.0,
0.04687499860301618,2,0.0,0.0,0.0,0.0,0.0,0.0,0.0,0.0,0.0,0.0,0.0,0.0,0.0,0.0,0.0,0.0,0.0,0.0,0.0,0.0,0.0,0.0,0.0,0.0,0.0,0.0,NaN,0.0,0.0,0.0,0.0,0.0,0.0,0.0,0.0,0.0,NaN,0.0,0.0,0.0,0.0,0.0,0.0,0.0,0.0,0.0,NaN,0.0,0.0,0.0,0.0,0.0,0.0,0.0,0.0,0.0,0.0,0.0,0.0,0.0,0.0,0.0,0.0,0.0,0.0,0.0,0.0,0.0,0.0,0.0,0.0,0.0,0.0,0.0,0.0,0.0,NaN,0.0,0.0,0.0,0.0,0.0,0.0,0.0,0.0,0.0,NaN,0.0,0.0,0.0,0.0,0.0,0.0,0.0,0.0,0.0,NaN,0.0,0.0,0.0,0.0,0.0,0.0,0.0,0.0,0.0,0.0,0.0,0.0,0.0,0.0,0.0,0.0,0.0,0.0,0.0,0.0,0.0,0.0,0.0,
0.07031249790452426,3,0.022155762,-0.8022461,0.65600586,-0.74121094,0.7792969,0.39941406,0.0,0.0,0.0,0.0,0.0,0.0,0.0,0.0,0.0,0.0,0.0,-0.3271351,0.035111368,0.94441843,0.0,0.0,0.0,0.0,0.0,0.0,NaN,-6.772711,0.7269141,19.55239,-0.9637451,-0.016174316,-0.12060547,0.049804688,-0.0234375,-0.034179688,NaN,-6.772711,0.7269141,19.55239,-0.31292725,-0.5042114,0.82177734,-0.06933594,0.5410156,0.9472656,7.793845,-8.9995,-71.19738,16.764656,0.0,0.0,0.0,0.0,0.0,0.0,0.0,4.6245747,-70.66701,31.395452,0.0,0.0,0.0,0.0,0.0,0.0,0.0,0.3271351,-0.035111368,-0.94441843,-0.9237671,0.1329956,-0.22491455,0.015625,0.028320312,-0.0078125,4.0862904,6.772711,-0.7269141,-19.55239,-0.97662354,-0.096191406,-0.10784912,0.0048828125,0.043945312,-0.040039062,1.8241333,5.1951647,-57.68547,-17.943308,-0.19085693,0.52349854,0.8018799,0.040039062,-0.015625,-0.009765625,0.745461,2.574222,-129.65036,-17.102667,0.0,0.0,0.0,0.0,0.0,0.0,0.0,16.637184,-130.03271,-2.8846397,0.0,0.0,0.0,0.0,0.0,0.0,0.0,4.2621717,44.801285,-0.18924707,
0.09374999720603236,4,0.036132812,-0.8145752,0.6604614,-0.60839844,0.625,0.2861328,0.0,0.0,0.0,0.0,0.0,0.0,0.0,0.0,0.0,0.0,0.0,-0.32148013,0.014768105,0.94688904,0.0,0.0,0.0,0.0,0.0,0.0,NaN,-6.6556354,0.3057456,19.60354,-0.9837036,-0.002319336,-0.12976074,0.030273438,-0.005859375,0.0029296875,NaN,-6.6556354,0.3057456,19.60354,-0.28118896,-0.5084839,0.81396484,-0.033203125,0.3310547,0.58691406,7.597294,-8.873707,-71.61979,16.823355,0.0,0.0,0.0,0.0,0.0,0.0,0.0,4.6382523,-71.413925,31.564964,0.0,0.0,0.0,0.0,0.0,0.0,0.0,0.32148013,-0.014768105,-0.94688904,-0.9562988,0.09906006,-0.20788574,0.015625,0.045898438,-0.0078125,3.6944857,6.6556354,-0.3057456,-19.60354,-0.9798584,-0.114746094,-0.08013916,0.0048828125,0.005859375,-9.765625E-4,1.7700096,5.0758176,-57.268513,-18.046587,-0.18475342,0.53015137,0.80877686,0.041015625,-0.034179688,-0.028320312,0.7569224,2.528475,-129.23888,-17.245165,0.0,0.0,0.0,0.0,0.0,0.0,0.0,16.587933,-129.60588,-3.0206947,0.0,0.0,0.0,0.0,0.0,0.0,0.0,3.5661302,44.85932,0.511098,
0.11718749650754046,5,0.035583496,-0.83599854,0.64141846,-0.2685547,0.29589844,0.16992188,0.0,0.0,0.0,0.0,0.0,0.0,0.0,0.0,0.0,0.0,0.0,-0.31958267,0.0020554066,0.94762444,-0.9871216,-0.057250977,-0.14801025,0.022460938,-0.00390625,-0.0087890625,1.1876209,-6.6163507,0.042553276,19.618763,-0.99975586,-0.016296387,-0.13195801,0.0107421875,0.048828125,0.001953125,2.18086,-11.108868,-56.73758,17.364166,-0.3192749,-0.5217285,0.8059082,-0.015625,0.045898438,0.016601562,7.4953566,-13.362976,-128.6677,14.593659,0.0,0.0,0.0,0.0,0.0,0.0,0.0,0.1332922,-128.5904,29.35236,0.0,0.0,0.0,0.0,0.0,0.0,0.0,0.31958267,-0.0020554066,-0.94762444,-0.95977783,0.14251709,-0.21832275,0.0146484375,-0.080078125,0.028320312,3.69634,6.6163507,-0.042553276,-19.618763,-0.9939575,-0.09710693,-0.07989502,0.0234375,0.005859375,-9.765625E-4,1.7600306,5.1178684,-57.005306,-18.08762,-0.18475342,0.53015137,0.80877686,0.041015625,-0.034179688,-0.028320312,0.68983793,2.6687253,-128.9787,-17.298359,0.0,0.0,0.0,0.0,0.0,0.0,0.0,16.728184,-129.3457,-3.0738888,0.0,0.0,0.0,0.0,0.0,0.0,0.0,3.1172247,44.88468,0.95391655,
0.14062499580904855,6,0.027832031,-0.803833,0.6279907,-0.0048828125,0.044921875,-9.765625E-4,0.0,0.0,0.0,0.0,0.0,0.0,0.0,0.0,0.0,0.0,0.0,-0.32051107,0.001489766,0.94728535,-0.9902344,-0.058044434,-0.1539917,0.00390625,0.015625,-0.009765625,1.2175612,-6.635574,0.030842818,19.611744,-0.97576904,-0.027832031,-0.13171387,0.0107421875,0.01171875,0.001953125,2.1642842,-11.141073,-56.748375,17.348736,-0.32733154,-0.5194092,0.7970581,0.001953125,0.0068359375,0.016601562,7.4177256,-13.423688,-128.67601,14.611339,0.0,0.0,0.0,0.0,0.0,0.0,0.0,0.09414005,-128.59923,29.34932,0.0,0.0,0.0,0.0,0.0,0.0,0.0,0.32051107,-0.001489766,-0.94728535,-0.953125,0.114868164,-0.23248291,-0.00390625,0.028320312,0.0107421875,3.6761022,6.635574,-0.030842818,-19.611744,-0.97772217,-0.106933594,-0.09399414,0.0234375,-0.0126953125,-9.765625E-4,1.7317836,5.173087,-56.994404,-18.100445,-0.1786499,0.54785156,0.7921753,0.001953125,-0.015625,-0.009765625,0.7441474,2.7815502,-128.96468,-17.300417,0.0,0.0,0.0,0.0,0.0,0.0,0.0,16.843334,-129.2959,-3.0797129,0.0,0.0,0.0,0.0,0.0,0.0,0.0,3.067458,44.886696,0.9672729,
0.16406249511055665,7,0.03173828,-0.8200073,0.6386719,0.013671875,0.005859375,-0.038085938,0.0,0.0,0.0,0.0,0.0,0.0,0.0,0.0,0.0,0.0,0.0,-0.32254004,0.003147632,0.9466719,-0.97546387,-0.07342529,-0.15014648,-0.051757812,0.0546875,-0.009765625,1.3092549,-6.677578,0.06516576,19.599043,-0.9867554,-0.006286621,-0.16149902,0.0107421875,0.01171875,0.021484375,2.1377156,-11.219182,-56.71221,17.314144,-0.3126831,-0.545105,0.82055664,0.00390625,0.045898438,0.016601562,7.453036,-13.575712,-128.64024,14.578701,0.0,0.0,0.0,0.0,0.0,0.0,0.0,-0.036506653,-128.55156,29.29855,0.0,0.0,0.0,0.0,0.0,0.0,0.0,0.32254004,-0.003147632,-0.9466719,-0.93774414,0.13928223,-0.24243164,0.015625,0.0107421875,0.029296875,3.6101563,6.677578,-0.06516576,-19.599043,-0.99005127,-0.12719727,-0.09210205,0.0048828125,-0.0126953125,-0.020507812,1.7165742,5.212523,-57.030113,-18.121485,-0.16253662,0.54052734,0.81970215,0.001953125,-0.015625,-0.028320312,0.7800927,2.8603318,-129.00232,-17.372162,0.0,0.0,0.0,0.0,0.0,0.0,0.0,16.930222,-129.32137,-3.158821,0.0,0.0,0.0,0.0,0.0,0.0,0.0,3.0916297,44.889748,0.9040915,
0.18749999441206475,8,0.020751953,-0.8411865,0.6715698,-0.0234375,0.025390625,0.036132812,0.0,0.0,0.0,0.0,0.0,0.0,0.0,0.0,0.0,0.0,0.0,-0.3247283,0.0039952807,0.94599944,-0.9815674,-0.07531738,-0.14508057,-0.0146484375,0.03515625,-0.028320312,1.3856452,-6.722883,0.08271472,19.585121,-0.9716797,0.009887695,-0.13647461,0.0107421875,0.01171875,0.001953125,2.0959249,-11.2430935,-56.697136,17.231676,-0.3095703,-0.5008545,0.8031006,0.001953125,0.0068359375,0.016601562,7.3732057,-13.605585,-128.62613,14.5321865,0.0,0.0,0.0,0.0,0.0,0.0,0.0,-0.04066658,-128.52554,29.22897,0.0,0.0,0.0,0.0,0.0,0.0,0.0,0.3247283,-0.0039952807,-0.94599944,-0.95825195,0.107177734,-0.24041748,0.034179688,0.064453125,0.0107421875,3.502411,6.722883,-0.08271472,-19.585121,-0.97888184,-0.13500977,-0.10321045,0.04296875,0.0068359375,-0.020507812,1.6353027,5.2113304,-57.050526,-18.190205,-0.16357422,0.5396118,0.81573486,9.765625E-4,0.00390625,-0.0087890625,0.8055148,2.9141812,-129.02898,-17.501892,0.0,0.0,0.0,0.0,0.0,0.0,0.0,16.993872,-129.33932,-3.2974749,0.0,0.0,0.0,0.0,0.0,0.0,0.0,3.1040652,44.892826,0.8759184,
0.21093749371357284,9,0.020751953,-0.8117676,0.63604736,0.0146484375,0.043945312,0.017578125,0.0,0.0,0.0,0.0,0.0,0.0,0.0,0.0,0.0,0.0,0.0,-0.32662213,0.0048221312,0.9453139,-0.975708,-0.08129883,-0.15112305,0.0234375,0.015625,0.0087890625,1.4680711,-6.76209,0.09983313,19.570929,-0.99572754,-0.015991211,-0.1071167,0.030273438,-0.025390625,0.022460938,2.0656383,-11.246178,-56.67741,17.143448,-0.30645752,-0.49127197,0.81988525,-0.0146484375,0.083984375,0.017578125,7.2942004,-13.589574,-128.6043,14.45237,0.0,0.0,0.0,0.0,0.0,0.0,0.0,-0.010582924,-128.50447,29.132462,0.0,0.0,0.0,0.0,0.0,0.0,0.0,0.32662213,-0.0048221312,-0.9453139,-0.9503784,0.09320068,-0.23376465,0.034179688,-0.0625,0.009765625,3.4477599,6.76209,-0.09983313,-19.570929,-0.9838257,-0.107788086,-0.09893799,0.061523438,0.0068359375,-9.765625E-4,1.5958135,5.2708235,-57.06613,-18.249178,-0.18566895,0.5408325,0.8187256,0.001953125,-0.015625,-0.009765625,0.8787098,2.9951143,-129.04395,-17.588894,0.0,0.0,0.0,0.0,0.0,0.0,0.0,17.069332,-129.3315,-3.3787212,0.0,0.0,0.0,0.0,0.0,0.0,0.0,3.1140563,44.89143,0.84696436,
0.23437499301508094,10,0.0020141602,-0.79473877,0.6525879,0.0146484375,0.005859375,-0.01953125,0.0,0.0,0.0,0.0,0.0,0.0,0.0,0.0,0.0,0.0,0.0,-0.32798645,0.005746685,0.94493836,-0.977478,-0.076660156,-0.13616943,0.061523438,0.034179688,-0.028320312,1.5624777,-6.7903376,0.11897423,19.563152,-0.9737549,-0.015258789,-0.122680664,0.030273438,-0.025390625,0.022460938,2.056332,-11.267757,-56.654823,17.048908,-0.33032227,-0.4683838,0.79138184,-0.015625,0.026367188,-0.001953125,7.2306886,-13.609501,-128.58168,14.30147,0.0,0.0,0.0,0.0,0.0,0.0,0.0,-0.012699127,-128.48163,28.965538,0.0,0.0,0.0,0.0,0.0,0.0,0.0,0.32798645,-0.005746685,-0.94493836,-0.94403076,0.1227417,-0.26519775,-0.00390625,0.064453125,0.0107421875,3.4268556,6.7903376,-0.11897423,-19.563152,-0.9908447,-0.10571289,-0.112854004,0.0234375,-0.0126953125,-9.765625E-4,1.5912696,5.276496,-57.08715,-18.264645,-0.16461182,0.5387573,0.80688477,-0.018554688,0.00390625,-0.0087890625,0.97518283,3.0182934,-129.06639,-17.659842,0.0,0.0,0.0,0.0,0.0,0.0,0.0,17.084915,-129.33015,-3.4414062,0.0,0.0,0.0,0.0,0.0,0.0,0.0,3.1519623,44.89362,0.821018,
0.25781249231658904,11,0.037841797,-0.8344116,0.6572876,0.033203125,0.025390625,-0.038085938,0.0,0.0,0.0,0.0,0.0,0.0,0.0,0.0,0.0,0.0,0.0,-0.32858798,0.0068707354,0.94454634,-0.97662354,-0.0836792,-0.13317871,0.061523438,0.0146484375,0.0087890625,1.6635404,-6.8027883,0.14224543,19.555035,-0.9656372,0.0016479492,-0.09283447,0.030273438,-0.024414062,0.0029296875,2.018291,-11.1961975,-56.633415,16.947878,-0.322937,-0.49780273,0.8099365,0.001953125,-0.03125,-0.0029296875,7.0916305,-13.471885,-128.56148,14.216351,0.0,0.0,0.0,0.0,0.0,0.0,0.0,0.14295769,-128.46216,28.866104,0.0,0.0,0.0,0.0,0.0,0.0,0.0,0.32858798,-0.0068707354,-0.94454634,-0.96698,0.12994385,-0.23510742,-0.022460938,0.0107421875,0.0107421875,3.377828,6.8027883,-0.14224543,-19.555035,-0.9859619,-0.119506836,-0.08508301,0.0048828125,-0.0126953125,-0.020507812,1.5240557,5.2570724,-57.11029,-18.298576,-0.16564941,0.5349121,0.7999878,0.020507812,-0.015625,-0.028320312,1.020675,3.0512629,-129.09244,-17.706558,0.0,0.0,0.0,0.0,0.0,0.0,0.0,17.109585,-129.33475,-3.479601,0.0,0.0,0.0,0.0,0.0,0.0,0.0,3.1896238,44.884163,0.78311145,
0.2812499916180971,12,0.012451172,-0.7965698,0.6821289,0.0146484375,-0.013671875,-9.765625E-4,0.0,0.0,0.0,0.0,0.0,0.0,0.0,0.0,0.0,0.0,0.0,-0.32866198,0.0079064295,0.94446236,-1.0076904,-0.04559326,-0.11291504,0.060546875,-0.00390625,0.009765625,1.7132648,-6.804321,0.16368759,19.553299,-0.9827881,-0.020385742,-0.11987305,0.0107421875,-0.0068359375,0.0029296875,1.9489306,-11.114212,-56.62023,16.915749,-0.34698486,-0.47821045,0.79522705,0.001953125,0.0068359375,0.03515625,7.019174,-13.372618,-128.55304,14.157616,0.0,0.0,0.0,0.0,0.0,0.0,0.0,0.25692177,-128.4569,28.795053,0.0,0.0,0.0,0.0,0.0,0.0,0.0,0.32866198,-0.0079064295,-0.94446236,-0.9468384,0.13446045,-0.23046875,-0.022460938,0.1015625,-0.0078125,3.3441584,6.804321,-0.16368759,-19.553299,-0.97869873,-0.104003906,-0.0949707,0.0234375,-0.0126953125,-9.765625E-4,1.4642004,5.236673,-57.13659,-18.338457,-0.18170166,0.53302,0.8137207,0.0,0.022460938,-0.0087890625,1.0469846,3.0697002,-129.12033,-17.752205,0.0,0.0,0.0,0.0,0.0,0.0,0.0,17.120459,-129.34679,-3.518693,0.0,0.0,0.0,0.0,0.0,0.0,0.0,3.2306175,44.879684,0.7485138,
0.3046874909196052,13,0.04333496,-0.803833,0.65838623,-0.0048828125,0.043945312,0.036132812,0.0,0.0,0.0,0.0,0.0,0.0,0.0,0.0,0.0,0.0,0.0,-0.32904187,0.009532932,0.94443834,-0.977478,-0.07244873,-0.14611816,0.061523438,0.0146484375,0.0087890625,1.7716672,-6.8121867,0.1973612,19.552803,-0.97869873,-0.009460449,-0.08807373,0.030273438,0.0126953125,0.0029296875,1.9497339,-11.073839,-56.586765,16.920372,-0.32751465,-0.5169678,0.82263184,0.0029296875,0.0068359375,-0.001953125,6.8893986,-13.272022,-128.51398,14.14882,0.0,0.0,0.0,0.0,0.0,0.0,0.0,0.37398338,-128.41121,28.770975,0.0,0.0,0.0,0.0,0.0,0.0,0.0,0.32904187,-0.009532932,-0.94443834,-0.9683838,0.0993042,-0.21362305,-0.022460938,0.064453125,-0.026367188,3.3322527,6.8121867,-0.1973612,-19.552803,-0.9779053,-0.13323975,-0.08325195,0.0234375,-0.0126953125,-0.020507812,1.4269732,5.272539,-57.17018,-18.395489,-0.21990967,0.52960205,0.8137207,-0.040039062,0.080078125,-0.0078125,1.0269821,3.1772923,-129.1553,-17.848421,0.0,0.0,0.0,0.0,0.0,0.0,0.0,17.23006,-129.37799,-3.6157227,0.0,0.0,0.0,0.0,0.0,0.0,0.0,3.281352,44.88219,0.6901915,
0.32812499022111324,14,0.014526367,-0.7835083,0.67022705,-0.0048828125,0.005859375,0.017578125,0.0,0.0,0.0,0.0,0.0,0.0,0.0,0.0,0.0,0.0,0.0,-0.329354,0.010351609,0.9442118,-0.98968506,-0.048828125,-0.121032715,0.001953125,-0.041015625,-0.045898438,1.7747575,-6.8186502,0.21431048,19.548111,-0.9797363,-0.013977051,-0.13366699,0.030273438,-0.005859375,0.0029296875,1.8829437,-11.02001,-56.577866,16.936277,-0.28320312,-0.4960327,0.8395996,0.001953125,0.0068359375,0.03515625,6.9066305,-13.228202,-128.50626,14.155951,0.0,0.0,0.0,0.0,0.0,0.0,0.0,0.42514038,-128.3878,28.77036,0.0,0.0,0.0,0.0,0.0,0.0,0.0,0.329354,-0.010351609,-0.9442118,-0.9508667,0.13153076,-0.22747803,0.034179688,-0.0078125,0.0107421875,3.3704007,6.8186502,-0.21431048,-19.548111,-1.000061,-0.092163086,-0.08081055,0.04296875,-0.0126953125,-0.020507812,1.3932506,5.3092403,-57.18864,-18.418236,-0.22479248,0.54211426,0.8324585,0.021484375,-0.03515625,-0.009765625,0.9849661,3.2508907,-129.1749,-17.854391,0.0,0.0,0.0,0.0,0.0,0.0,0.0,17.31319,-129.3998,-3.6329727,0.0,0.0,0.0,0.0,0.0,0.0,0.0,3.3270464,44.8745,0.66855,
0.3515624895226213,15,0.022827148,-0.828125,0.65875244,-0.04296875,-0.013671875,0.0546875,0.0,0.0,0.0,0.0,0.0,0.0,0.0,0.0,0.0,0.0,0.0,-0.32985237,0.011662483,0.94402665,-0.9776001,-0.038635254,-0.15008545,-0.015625,0.015625,-0.028320312,1.7977651,-6.828966,0.2414496,19.54428,-0.9837036,0.005126953,-0.11584473,-0.0087890625,0.030273438,-0.017578125,1.8912404,-11.017836,-56.54995,16.971647,-0.3086548,-0.5010376,0.8119507,0.041015625,0.026367188,-0.001953125,6.901858,-13.201754,-128.48428,14.228618,0.0,0.0,0.0,0.0,0.0,0.0,0.0,0.4577961,-128.35222,28.839123,0.0,0.0,0.0,0.0,0.0,0.0,0.0,0.32985237,-0.011662483,-0.94402665,-0.94207764,0.111572266,-0.20404053,0.034179688,0.028320312,0.029296875,3.3758566,6.828966,-0.2414496,-19.54428,-0.98583984,-0.100097656,-0.0859375,0.04296875,-0.0126953125,-0.0390625,1.3777138,5.3339486,-57.213074,-18.428791,-0.20184326,0.5264282,0.8126831,0.0,0.022460938,-0.02734375,0.97958744,3.3123856,-129.19707,-17.87087,0.0,0.0,0.0,0.0,0.0,0.0,0.0,17.383663,-129.4183,-3.6564589,0.0,0.0,0.0,0.0,0.0,0.0,0.0,3.3628006,44.8727,0.6206396,
0.3749999888241294,16,0.030456543,-0.8438721,0.6425171,-0.0048828125,-0.033203125,0.03515625,0.0,0.0,0.0,0.0,0.0,0.0,0.0,0.0,0.0,0.0,0.0,-0.33109027,0.012747835,0.9436276,-1.0053711,-0.024108887,-0.14483643,-0.015625,0.015625,-0.045898438,1.7569145,-6.8545957,0.2639197,19.536016,-1.0077515,-0.016357422,-0.13305664,-0.0087890625,-0.0068359375,-0.016601562,1.8901018,-11.065158,-56.531643,17.055302,-0.33013916,-0.50164795,0.80792236,-0.016601562,0.0068359375,0.016601562,6.936499,-13.283961,-128.46487,14.356355,0.0,0.0,0.0,0.0,0.0,0.0,0.0,0.38351822,-128.32391,28.960258,0.0,0.0,0.0,0.0,0.0,0.0,0.0,0.33109027,-0.012747835,-0.9436276,-0.9360962,0.11254883,-0.2298584,-0.041015625,-0.0068359375,0.047851562,3.3814197,6.8545957,-0.2639197,-19.536016,-0.9868164,-0.10961914,-0.10992432,-0.013671875,-0.013671875,-0.0390625,1.3670193,5.3946714,-57.238605,-18.446198,-0.19592285,0.515625,0.8096924,0.0390625,0.022460938,-0.028320312,1.0044416,3.3979764,-129.22919,-17.891611,0.0,0.0,0.0,0.0,0.0,0.0,0.0,17.470654,-129.43835,-3.6777115,0.0,0.0,0.0,0.0,0.0,0.0,0.0,3.3810787,44.873936,0.58009845,
0.39843748812563745,17,-1.2207031E-4,-0.8096924,0.6604614,0.051757812,-0.052734375,0.053710938,0.0,0.0,0.0,0.0,0.0,0.0,0.0,0.0,0.0,0.0,0.0,-0.33285916,0.013409178,0.9429216,-0.98547363,-0.072265625,-0.14508057,-0.091796875,0.016601562,-0.009765625,1.7776222,-6.8912163,0.27761152,19.521399,-0.9957886,-0.030273438,-0.12402344,-0.046875,0.009765625,0.001953125,1.8428128,-11.071444,-56.518345,17.04696,-0.29241943,-0.5073242,0.8149414,-0.03515625,0.026367188,0.036132812,6.9762297,-13.31218,-128.44997,14.362075,0.0,0.0,0.0,0.0,0.0,0.0,0.0,0.35856056,-128.28922,28.963223,0.0,0.0,0.0,0.0,0.0,0.0,0.0,0.33285916,-0.013409178,-0.9429216,-0.9418335,0.13641357,-0.24731445,0.015625,0.0107421875,0.029296875,3.36383,6.8912163,-0.27761152,-19.521399,-0.97680664,-0.12445068,-0.09118652,0.0048828125,0.005859375,-0.020507812,1.3251511,5.4303827,-57.25591,-18.470064,-0.2208252,0.5432739,0.8128052,0.020507812,-0.015625,-0.028320312,0.99858004,3.4658508,-129.24347,-17.923113,0.0,0.0,0.0,0.0,0.0,0.0,0.0,17.54866,-129.45207,-3.7191486,0.0,0.0,0.0,0.0,0.0,0.0,0.0,3.3964207,44.869854,0.56087583,
0.4218749874271455,18,0.021850586,-0.8261719,0.66174316,0.013671875,-0.07128906,0.03515625,0.0,0.0,0.0,0.0,0.0,0.0,0.0,0.0,0.0,0.0,0.0,-0.33356413,0.014364146,0.94266164,-0.9848633,-0.07550049,-0.17901611,0.00390625,-0.00390625,0.009765625,1.8980579,-6.9058123,0.29738232,19.516018,-1.0048828,-0.047546387,-0.1449585,-0.0087890625,0.01171875,-0.036132812,1.8393048,-11.125042,-56.49508,16.96002,-0.33563232,-0.5119629,0.82458496,-0.016601562,0.0068359375,0.016601562,6.9984074,-13.413879,-128.41968,14.233793,0.0,0.0,0.0,0.0,0.0,0.0,0.0,0.2658596,-128.25261,28.823738,0.0,0.0,0.0,0.0,0.0,0.0,0.0,0.33356413,-0.014364146,-0.94266164,-0.9598999,0.13171387,-0.2312622,0.052734375,0.064453125,0.0107421875,3.3780017,6.9058123,-0.29738232,-19.516018,-0.9951172,-0.113708496,-0.072021484,0.04296875,0.0068359375,-0.0390625,1.3088064,5.4414988,-57.272095,-18.468786,-0.18670654,0.5350952,0.810791,0.040039062,-0.015625,-0.028320312,1.0056099,3.5349731,-129.26544,-17.941246,0.0,0.0,0.0,0.0,0.0,0.0,0.0,17.619286,-129.46669,-3.7394962,0.0,0.0,0.0,0.0,0.0,0.0,0.0,3.4323182,44.867626,0.5308514,
0.4453124867286536,19,0.010131836,-0.8102417,0.6741333,-0.0234375,-0.051757812,0.03515625,0.0,0.0,0.0,0.0,0.0,0.0,0.0,0.0,0.0,0.0,0.0,-0.33567145,0.014367584,0.9420639,-0.99383545,-0.044311523,-0.14294434,0.00390625,0.03515625,-0.046875,1.9187728,-6.9494405,0.29745352,19.503643,-0.9717407,-0.008117676,-0.12957764,-0.0087890625,-0.0068359375,-0.016601562,1.796785,-11.179209,-56.492264,16.917938,-0.2841797,-0.50445557,0.81591797,-0.016601562,0.0078125,-0.001953125,7.0687447,-13.532571,-128.41724,14.201792,0.0,0.0,0.0,0.0,0.0,0.0,0.0,0.15655804,-128.2352,28.77967,0.0,0.0,0.0,0.0,0.0,0.0,0.0,0.33567145,-0.014367584,-0.9420639,-0.9755249,0.16357422,-0.23565674,-0.022460938,-0.0078125,-0.026367188,3.427998,6.9494405,-0.29745352,-19.503643,-0.98986816,-0.10290527,-0.09387207,0.0048828125,-0.0126953125,-0.0390625,1.3320737,5.5265927,-57.27222,-18.428244,-0.16363525,0.5397949,0.80096436,-0.017578125,-0.015625,-0.02734375,1.0364653,3.6502452,-129.26213,-17.8858,0.0,0.0,0.0,0.0,0.0,0.0,0.0,17.73289,-129.445,-3.682417,0.0,0.0,0.0,0.0,0.0,0.0,0.0,3.4287887,44.87423,0.5373442,
0.46874998603016166,20,0.020690918,-0.8147583,0.63604736,0.0146484375,-0.052734375,0.072265625,0.0,0.0,0.0,0.0,0.0,0.0,0.0,0.0,0.0,0.0,0.0,-0.3376659,0.014797952,0.94132596,-0.9636841,-0.07720947,-0.17321777,-0.0146484375,0.03515625,-0.046875,1.9515398,-6.9907312,0.30636346,19.488365,-0.9657593,-0.014221191,-0.12158203,-0.0087890625,-0.0068359375,-0.016601562,1.8004844,-11.246391,-56.48143,16.885645,-0.32043457,-0.5163574,0.8334961,-0.016601562,0.0068359375,0.016601562,7.0213814,-13.626347,-128.40791,14.171051,0.0,0.0,0.0,0.0,0.0,0.0,0.0,0.07954788,-128.22974,28.732288,0.0,0.0,0.0,0.0,0.0,0.0,0.0,0.3376659,-0.014797952,-0.94132596,-0.95428467,0.10211182,-0.22961426,-0.09765625,-0.025390625,-0.044921875,3.4354148,6.9907312,-0.30636346,-19.488365,-0.97772217,-0.10974121,-0.10595703,-0.013671875,0.005859375,-0.040039062,1.3798428,5.5664196,-57.285896,-18.376009,-0.1786499,0.53393555,0.817688,-0.038085938,0.00390625,-0.02734375,1.0621998,3.6954927,-129.27615,-17.859566,0.0,0.0,0.0,0.0,0.0,0.0,0.0,17.775072,-129.45274,-3.6540318,0.0,0.0,0.0,0.0,0.0,0.0,0.0,3.4271173,44.873734,0.5239217,
0.4921874853316697,21,0.027770996,-0.81591797,0.6368408,0.033203125,-0.052734375,0.072265625,0.0,0.0,0.0,0.0,0.0,0.0,0.0,0.0,0.0,0.0,0.0,-0.3387945,0.015637014,0.940792,-0.9715576,-0.072143555,-0.1661377,-0.033203125,0.053710938,-0.009765625,1.9827791,-7.014095,0.3237346,19.47731,-0.98272705,-0.009887695,-0.10797119,-0.0087890625,-0.043945312,-0.03515625,1.8687551,-11.314817,-56.458225,16.873426,-0.30578613,-0.5073242,0.82373047,-0.017578125,-0.03125,0.015625,6.982188,-13.664467,-128.3914,14.192886,0.0,0.0,0.0,0.0,0.0,0.0,0.0,0.045258522,-128.20491,28.751743,0.0,0.0,0.0,0.0,0.0,0.0,0.0,0.3387945,-0.015637014,-0.940792,-0.95843506,0.09124756,-0.21484375,-0.15429688,0.029296875,-0.026367188,3.4659407,7.014095,-0.3237346,-19.47731,-0.9859009,-0.12133789,-0.10205078,-0.032226562,0.024414062,-0.040039062,1.4047207,5.6084356,-57.303654,-18.37825,-0.18383789,0.51953125,0.7959595,-0.018554688,0.00390625,-0.0087890625,1.0909189,3.7473886,-129.29231,-17.905329,0.0,0.0,0.0,0.0,0.0,0.0,0.0,17.828625,-129.46446,-3.6996708,0.0,0.0,0.0,0.0,0.0,0.0,0.0,3.4600413,44.866608,0.5002838,
0.5156249846331779,22,0.0038452148,-0.8208618,0.6682129,0.0146484375,-0.072265625,0.09082031,0.0,0.0,0.0,0.0,0.0,0.0,0.0,0.0,0.0,0.0,0.0,-0.3400171,0.016154163,0.9403372,-0.99645996,-0.064819336,-0.15490723,-0.033203125,0.053710938,-0.028320312,2.0191636,-7.0394087,0.3344413,19.467896,-0.97369385,-0.00793457,-0.1048584,-0.0087890625,0.01171875,0.001953125,1.9645336,-11.397568,-56.44384,16.846508,-0.31976318,-0.54193115,0.8186035,-0.03515625,0.0078125,-0.021484375,6.8641,-13.699624,-128.37741,14.141285,0.0,0.0,0.0,0.0,0.0,0.0,0.0,0.036233902,-128.19704,28.673805,0.0,0.0,0.0,0.0,0.0,0.0,0.0,0.3400171,-0.016154163,-0.9403372,-0.95910645,0.1149292,-0.21661377,-0.059570312,0.029296875,-0.0078125,3.4843638,7.0394087,-0.3344413,-19.467896,-0.9879761,-0.12335205,-0.09307861,0.0048828125,-0.032226562,-0.0390625,1.4275217,5.6812105,-57.31714,-18.421036,-0.18170166,0.5380249,0.80096436,-0.036132812,-0.03515625,-0.02734375,1.131423,3.8363588,-129.31082,-18.02056,0.0,0.0,0.0,0.0,0.0,0.0,0.0,17.918364,-129.48114,-3.8168154,0.0,0.0,0.0,0.0,0.0,0.0,0.0,3.4712622,44.865707,0.48442268,
0.5390624839346859,23,-0.0032958984,-0.8236084,0.6644287,0.013671875,-0.09082031,0.072265625,0.0,0.0,0.0,0.0,0.0,0.0,0.0,0.0,0.0,0.0,0.0,-0.3438612,0.015843507,0.9389135,-1.005188,-0.0602417,-0.12695312,-0.072265625,0.016601562,-0.009765625,1.9836673,-7.118993,0.32800967,19.438421,-0.98883057,-0.030944824,-0.10015869,-0.06640625,-0.0087890625,-0.017578125,1.9105955,-11.41541,-56.45479,16.822842,-0.31097412,-0.493042,0.85821533,-0.016601562,0.0068359375,0.016601562,6.856151,-13.709904,-128.38588,14.091328,0.0,0.0,0.0,0.0,0.0,0.0,0.0,0.032726288,-128.1959,28.618973,0.0,0.0,0.0,0.0,0.0,0.0,0.0,0.3438612,-0.015843507,-0.9389135,-0.9491577,0.111816406,-0.22766113,-0.022460938,0.046875,-0.0078125,3.4591553,7.118993,-0.32800967,-19.438421,-0.975708,-0.11077881,-0.09906006,0.0234375,0.025390625,-0.020507812,1.4350415,5.759852,-57.305748,-18.438116,-0.18164062,0.54681396,0.80493164,9.765625E-4,0.00390625,-0.02734375,1.1813431,3.9279456,-129.29965,-18.115582,0.0,0.0,0.0,0.0,0.0,0.0,0.0,18.017962,-129.46843,-3.919263,0.0,0.0,0.0,0.0,0.0,0.0,0.0,3.4562457,44.865326,0.50872064,
0.562499983236194,24,0.027648926,-0.8329468,0.64660645,0.033203125,-0.072265625,0.08984375,0.0,0.0,0.0,0.0,0.0,0.0,0.0,0.0,0.0,0.0,0.0,-0.34551695,0.015706673,0.9383619,-0.9904785,-0.036743164,-0.13098145,0.00390625,0.03515625,-0.028320312,1.9235606,-7.153271,0.32517684,19.427002,-0.98883057,-0.032104492,-0.12786865,-0.0078125,-0.043945312,0.0029296875,1.904337,-11.419624,-56.46026,16.8493,-0.32110596,-0.5126343,0.8010254,0.0029296875,0.0068359375,-0.001953125,6.864357,-13.689028,-128.38826,14.090284,0.0,0.0,0.0,0.0,0.0,0.0,0.0,0.055444717,-128.18425,28.616539,0.0,0.0,0.0,0.0,0.0,0.0,0.0,0.34551695,-0.015706673,-0.9383619,-0.946167,0.11187744,-0.24645996,-0.0029296875,0.045898438,-0.026367188,3.4227967,7.153271,-0.32517684,-19.427002,-0.98480225,-0.11260986,-0.104003906,0.0048828125,0.005859375,-0.020507812,1.3910015,5.7567463,-57.303444,-18.502281,-0.17077637,0.5204468,0.79003906,0.001953125,-0.015625,-0.028320312,1.2188464,3.9251637,-129.29878,-18.238495,0.0,0.0,0.0,0.0,0.0,0.0,0.0,18.025028,-129.46681,-4.052807,0.0,0.0,0.0,0.0,0.0,0.0,0.0,3.4748511,44.86595,0.528501,
0.5859374825377021,25,0.04473877,-0.79119873,0.6713867,-0.061523438,-0.013671875,0.091796875,0.0,0.0,0.0,0.0,0.0,0.0,0.0,0.0,0.0,0.0,0.0,-0.34821886,0.016393807,0.9373466,-0.9732666,-0.060302734,-0.16308594,0.001953125,-0.041992188,-0.02734375,1.9530435,-7.2092113,0.3394026,19.405981,-0.98876953,-0.015197754,-0.099121094,0.0107421875,-0.025390625,0.021484375,1.9778377,-11.513032,-56.445267,16.820541,-0.27819824,-0.5220337,0.7942505,-0.016601562,-0.01171875,-0.0029296875,6.83139,-13.735472,-128.37659,14.06904,0.0,0.0,0.0,0.0,0.0,0.0,0.0,0.010093689,-128.15633,28.593664,0.0,0.0,0.0,0.0,0.0,0.0,0.0,0.34821886,-0.016393807,-0.9373466,-0.960022,0.12597656,-0.25305176,-0.041015625,0.029296875,0.0107421875,3.4404266,7.2092113,-0.3394026,-19.405981,-0.9788208,-0.12921143,-0.103149414,0.0048828125,0.005859375,-0.020507812,1.3970377,5.847397,-57.322212,-18.51182,-0.17962646,0.55078125,0.7980957,0.0390625,0.022460938,-0.028320312,1.2188464,4.052359,-129.31314,-18.290318,0.0,0.0,0.0,0.0,0.0,0.0,0.0,18.169239,-129.49135,-4.120796,0.0,0.0,0.0,0.0,0.0,0.0,0.0,3.485006,44.865192,0.50998604,
0.6093749818392101,26,0.042236328,-0.81481934,0.66430664,-0.0048828125,-0.032226562,0.017578125,0.0,0.0,0.0,0.0,0.0,0.0,0.0,0.0,0.0,0.0,0.0,-0.34947821,0.018036805,0.9368557,-0.97491455,-0.0871582,-0.15814209,0.021484375,-0.022460938,-0.0087890625,2.0790489,-7.2352815,0.37341776,19.395817,-0.9807129,-0.010070801,-0.101989746,-0.0087890625,-0.0068359375,-0.016601562,2.0078883,-11.555652,-56.408485,16.772873,-0.32788086,-0.5339966,0.82354736,-0.015625,0.026367188,-0.001953125,6.8082385,-13.759285,-128.33678,14.021383,0.0,0.0,0.0,0.0,0.0,0.0,0.0,-0.011411667,-128.1084,28.542412,0.0,0.0,0.0,0.0,0.0,0.0,0.0,0.34947821,-0.018036805,-0.9368557,-0.946167,0.10992432,-0.25341797,-0.060546875,0.0107421875,-0.0078125,3.3780596,7.2352815,-0.37341776,-19.395817,-0.9797363,-0.11260986,-0.10998535,0.0048828125,0.005859375,-0.020507812,1.3893123,5.8390903,-57.351875,-18.513361,-0.18951416,0.56848145,0.8001709,-0.018554688,0.00390625,-0.0087890625,1.2378043,4.0367284,-129.3449,-18.31584,0.0,0.0,0.0,0.0,0.0,0.0,0.0,18.158525,-129.52274,-4.15164,0.0,0.0,0.0,0.0,0.0,0.0,0.0,3.496211,44.8654,0.4404316,
0.6328124811407182,27,0.0546875,-0.8115845,0.68688965,-0.0048828125,-0.013671875,-9.765625E-4,0.0,0.0,0.0,0.0,0.0,0.0,0.0,0.0,0.0,0.0,0.0,-0.35049906,0.019415954,0.93652207,-1.0004883,-0.039855957,-0.110961914,0.060546875,-0.00390625,-0.0087890625,2.144571,-7.256416,0.40197036,19.38891,-0.97961426,0.012084961,-0.08404541,0.030273438,0.03125,-0.016601562,2.012756,-11.511286,-56.380867,16.768295,-0.35339355,-0.48736572,0.80792236,-0.016601562,0.0078125,-0.021484375,6.7082353,-13.628293,-128.31746,14.033882,0.0,0.0,0.0,0.0,0.0,0.0,0.0,0.13399982,-128.08649,28.541592,0.0,0.0,0.0,0.0,0.0,0.0,0.0,0.35049906,-0.019415954,-0.93652207,-0.94763184,0.07543945,-0.2388916,-0.00390625,-0.044921875,-0.02734375,3.3512933,7.256416,-0.40197036,-19.38891,-0.9970093,-0.12408447,-0.11694336,0.0048828125,-0.0126953125,-0.0390625,1.3389603,5.843831,-57.37969,-18.599863,-0.1897583,0.5341797,0.80682373,-9.765625E-4,0.061523438,-0.02734375,1.272878,4.024809,-129.37303,-18.45051,0.0,0.0,0.0,0.0,0.0,0.0,0.0,18.145313,-129.54909,-4.285795,0.0,0.0,0.0,0.0,0.0,0.0,0.0,3.5397353,44.8656,0.3946147,
0.6562499804422263,28,0.04272461,-0.7993164,0.6843262,-0.0234375,0.025390625,-9.765625E-4,0.0,0.0,0.0,0.0,0.0,0.0,0.0,0.0,0.0,0.0,0.0,-0.3500479,0.020804431,0.9366265,-0.97198486,-0.09765625,-0.13323975,0.017578125,-0.13671875,-0.044921875,2.2494235,-7.247078,0.43071613,19.391073,-0.9817505,-0.016357422,-0.12182617,-0.0087890625,-0.024414062,-0.0546875,1.8712667,-11.34001,-56.363373,16.761898,-0.35510254,-0.517395,0.81365967,-0.053710938,0.0078125,-0.021484375,6.624659,-13.428709,-128.30264,14.093233,0.0,0.0,0.0,0.0,0.0,0.0,0.0,0.34366417,-128.0663,28.590498,0.0,0.0,0.0,0.0,0.0,0.0,0.0,0.3500479,-0.020804431,-0.9366265,-0.9243164,0.093688965,-0.2390747,-0.041015625,-0.080078125,-0.0078125,3.3619673,7.247078,-0.43071613,-19.391073,-1.0012207,-0.12036133,-0.07702637,-0.013671875,-0.08984375,-0.05859375,1.2614503,5.8222084,-57.411736,-18.655191,-0.15289307,0.47583008,0.8251953,0.015625,0.119140625,-0.08203125,1.1535183,4.1072893,-129.4075,-18.52612,0.0,0.0,0.0,0.0,0.0,0.0,0.0,18.208813,-129.60558,-4.34217,0.0,0.0,0.0,0.0,0.0,0.0,0.0,3.593737,44.86025,0.34665716,
0.6796874797437343,29,0.026000977,-0.8132324,0.6557617,-0.0048828125,0.064453125,-0.037109375,0.0,0.0,0.0,0.0,0.0,0.0,0.0,0.0,0.0,0.0,0.0,-0.35013026,0.02206459,0.9365855,-1.0120239,-0.084472656,-0.14587402,0.13183594,-0.13769531,-0.08203125,2.5011592,-7.2487807,0.45680544,19.390224,-0.9769287,-0.06225586,-0.13671875,0.10839844,-0.059570312,0.024414062,1.6877161,-11.135541,-56.35068,16.625381,-0.33306885,-0.5473633,0.7988281,-0.07324219,0.0078125,-0.021484375,6.6418653,-13.194612,-128.2856,13.850777,0.0,0.0,0.0,0.0,0.0,0.0,0.0,0.5972347,-128.04956,28.33495,0.0,0.0,0.0,0.0,0.0,0.0,0.0,0.35013026,-0.02206459,-0.9365855,-0.9534302,0.08709717,-0.19226074,0.0146484375,-0.13574219,0.009765625,3.5209215,7.2487807,-0.45680544,-19.390224,-0.944458,-0.12896729,-0.05456543,0.0048828125,-0.0126953125,-0.0390625,1.2414352,5.981578,-57.440254,-18.70107,-0.1687622,0.5202637,0.80578613,0.03125,0.234375,-0.0625,0.92535007,4.3826437,-129.44193,-18.55737,0.0,0.0,0.0,0.0,0.0,0.0,0.0,18.475193,-129.70258,-4.3649464,0.0,0.0,0.0,0.0,0.0,0.0,0.0,3.6303973,44.85842,0.30037737,
0.7031249790452424,30,0.012268066,-0.78912354,0.65734863,-0.0048828125,0.083984375,-0.037109375,0.0,0.0,0.0,0.0,0.0,0.0,0.0,0.0,0.0,0.0,0.0,-0.34903648,0.021369874,0.9372452,-0.96221924,-0.13580322,-0.17132568,0.16894531,-0.1953125,-0.0625,2.716205,-7.2261376,0.4424227,19.40388,-0.97387695,-0.047607422,-0.1307373,0.18554688,-0.057617188,0.005859375,1.4141619,-10.865932,-56.36951,16.460632,-0.33654785,-0.55584717,0.826355,-0.07128906,0.046875,-0.040039062,6.8555503,-12.964137,-128.30168,13.603112,0.0,0.0,0.0,0.0,0.0,0.0,0.0,0.8327427,-128.06543,28.08294,0.0,0.0,0.0,0.0,0.0,0.0,0.0,0.34903648,-0.021369874,-0.9372452,-0.98779297,0.068847656,-0.16021729,-0.041992188,-0.29882812,-0.02734375,4.056806,7.2261376,-0.4424227,-19.40388,-0.99542236,-0.15081787,-0.039489746,-0.013671875,0.025390625,-0.040039062,1.491872,6.4609804,-57.43429,-18.651958,-0.20263672,0.55462646,0.82666016,0.052734375,0.17675781,-0.0078125,0.70443356,5.0132895,-129.43803,-18.462614,0.0,0.0,0.0,0.0,0.0,0.0,0.0,19.065002,-129.74466,-4.229521,0.0,0.0,0.0,0.0,0.0,0.0,0.0,3.649014,44.866615,0.335926,
0.7265624783467505,31,-0.008544922,-0.8151245,0.6407471,-0.080078125,0.083984375,-0.07324219,0.0,0.0,0.0,0.0,0.0,0.0,0.0,0.0,0.0,0.0,0.0,-0.34781393,0.018888846,0.93778455,-1.0217285,-0.08312988,-0.10290527,0.3955078,-0.29296875,-0.061523438,2.7750928,-7.200826,0.39105773,19.415047,-0.98480225,-0.025939941,-0.10205078,0.22460938,-0.056640625,0.0068359375,1.1108271,-10.493603,-56.4425,16.414547,-0.34539795,-0.49743652,0.8069458,-0.22265625,0.06738281,-0.0390625,6.9471235,-12.540608,-128.37585,13.53601,0.0,0.0,0.0,0.0,0.0,0.0,0.0,1.2809191,-128.16554,27.992725,0.0,0.0,0.0,0.0,0.0,0.0,0.0,0.34781393,-0.018888846,-0.93778455,-0.984375,0.09832764,-0.16101074,0.0146484375,-0.29882812,0.028320312,4.5686183,7.200826,-0.39105773,-19.415047,-0.9660034,-0.14538574,-0.026672363,0.061523438,0.08300781,-0.020507812,1.83323,6.980814,-57.38628,-18.60491,-0.22912598,0.5092163,0.81066895,0.15039062,0.15722656,0.009765625,0.6345818,5.7152185,-129.39038,-18.433315,0.0,0.0,0.0,0.0,0.0,0.0,0.0,19.748075,-129.75734,-4.1856985,0.0,0.0,0.0,0.0,0.0,0.0,0.0,3.5962925,44.87141,0.43002558,
0.7499999776482585,32,-0.0016479492,-0.7891846,0.6765747,-0.099609375,0.045898438,-0.055664062,0.0,0.0,0.0,0.0,0.0,0.0,0.0,0.0,0.0,0.0,0.0,-0.3478898,0.018602543,0.937814,-1.0239868,-0.05419922,-0.107788086,0.42578125,-0.5410156,-0.05859375,3.0468395,-7.2023973,0.38513038,19.415657,-0.96765137,0.012939453,-0.10571289,0.2626953,-0.037109375,0.0068359375,0.3566318,-9.740514,-56.493782,16.579414,-0.29052734,-0.5144043,0.8178711,-0.22167969,0.08691406,-0.05859375,7.224146,-11.756586,-128.41867,13.622099,0.0,0.0,0.0,0.0,0.0,0.0,0.0,2.0504465,-128.2409,28.094849,0.0,0.0,0.0,0.0,0.0,0.0,0.0,0.3478898,-0.018602543,-0.937814,-0.9741821,0.105773926,-0.11468506,0.12792969,-0.4453125,0.045898438,5.2522526,7.2023973,-0.38513038,-19.415657,-0.97088623,-0.105529785,-0.02130127,0.119140625,0.140625,-0.040039062,2.4412806,7.67045,-57.38262,-18.467953,-0.21557617,0.5845947,0.7854614,0.20800781,0.1953125,0.1015625,0.66145605,6.4751344,-129.38882,-18.328764,0.0,0.0,0.0,0.0,0.0,0.0,0.0,20.488277,-129.76132,-4.060913,0.0,0.0,0.0,0.0,0.0,0.0,0.0,3.5792727,44.87489,0.4376189,
0.7734374769497666,33,0.0138549805,-0.8300781,0.671875,-0.13769531,0.02734375,-0.091796875,0.0,0.0,0.0,0.0,0.0,0.0,0.0,0.0,0.0,0.0,0.0,-0.3464111,0.016963458,0.93812907,-0.95910645,-0.049621582,-0.07543945,0.43066406,-0.35058594,-0.09765625,3.3148162,-7.1717834,0.3511962,19.42218,-0.9916992,-0.0060424805,-0.07635498,0.14648438,-0.0029296875,0.0048828125,0.17358941,-9.109554,-56.55299,16.635372,-0.32659912,-0.5239258,0.8206177,-0.35546875,0.049804688,-0.05859375,7.3312535,-11.015212,-128.48885,13.7066345,0.0,0.0,0.0,0.0,0.0,0.0,0.0,2.7679605,-128.33745,28.198921,0.0,0.0,0.0,0.0,0.0,0.0,0.0,0.3464111,-0.016963458,-0.93812907,-0.973938,0.12359619,-0.13623047,0.16601562,-0.50097656,-0.0107421875,5.9436936,7.1717834,-0.3511962,-19.42218,-0.97998047,-0.10632324,-0.03125,0.061523438,0.19726562,-0.001953125,3.248898,8.430067,-57.329082,-18.32952,-0.18334961,0.5969238,0.7855835,0.22753906,0.1953125,0.12011719,0.73007786,7.1953073,-129.33458,-18.247732,0.0,0.0,0.0,0.0,0.0,0.0,0.0,21.157877,-129.663,-3.9289818,0.0,0.0,0.0,0.0,0.0,0.0,0.0,3.476786,44.871456,0.47245312,
0.7968749762512747,34,-0.0071411133,-0.83239746,0.60876465,-0.13769531,-0.01171875,-0.11035156,0.0,0.0,0.0,0.0,0.0,0.0,0.0,0.0,0.0,0.0,0.0,-0.34750164,0.015750814,0.93781775,-1.0524292,-0.09906006,-0.10961914,0.27734375,-0.38671875,-0.09667969,3.6854117,-7.194361,0.32609075,19.415735,-0.9567261,-0.009094238,-0.09173584,0.16601562,0.016601562,0.0048828125,0.7138155,-8.507666,-56.5916,16.558952,-0.29968262,-0.58392334,0.76239014,-0.46875,0.05078125,-0.115234375,7.3798556,-10.31145,-128.52405,13.545746,0.0,0.0,0.0,0.0,0.0,0.0,0.0,3.4615479,-128.42786,28.045645,0.0,0.0,0.0,0.0,0.0,0.0,0.0,0.34750164,-0.015750814,-0.93781775,-0.9530029,0.11328125,-0.12878418,0.08984375,-0.46289062,0.02734375,6.5036983,7.194361,-0.32609075,-19.415735,-0.9494629,-0.119018555,-0.07336426,-0.013671875,0.234375,-0.021484375,4.1376796,9.183126,-57.279236,-18.158163,-0.19372559,0.5460205,0.80200195,0.20507812,0.29101562,0.17675781,0.8047857,7.755415,-129.28177,-18.133373,0.0,0.0,0.0,0.0,0.0,0.0,0.0,21.654354,-129.58763,-3.7528725,0.0,0.0,0.0,0.0,0.0,0.0,0.0,3.31945,44.88633,0.47612464,
0.8203124755527827,35,-0.040649414,-0.8383789,0.60266113,-0.38378906,-0.068359375,-0.034179688,0.0,0.0,0.0,0.0,0.0,0.0,0.0,0.0,0.0,0.0,0.0,-0.35036054,0.012492925,0.9368404,-0.9467163,-0.042236328,-0.06555176,0.24414062,-0.234375,-0.061523438,3.6526444,-7.2535496,0.2586423,19.395502,-0.97369385,-0.009887695,-0.10583496,0.107421875,0.051757812,-0.015625,1.0516467,-8.182478,-56.662815,16.479473,-0.29968262,-0.58392334,0.76239014,-0.46875,0.05078125,-0.115234375,7.457063,-9.924,-128.601,13.48637,0.0,0.0,0.0,0.0,0.0,0.0,0.0,3.848998,-128.5048,27.986269,0.0,0.0,0.0,0.0,0.0,0.0,0.0,0.35036054,-0.012492925,-0.9368404,-0.99560547,0.15148926,-0.11590576,0.0146484375,-0.40722656,0.064453125,6.790585,7.2535496,-0.2586423,-19.395502,-0.9901123,-0.14758301,-0.09429932,-0.033203125,0.2919922,-0.021484375,5.1166883,9.886962,-57.1816,-17.905958,-0.20141602,0.59191895,0.8121338,0.16796875,0.25195312,0.23242188,1.0936061,8.151308,-129.18027,-18.091936,0.0,0.0,0.0,0.0,0.0,0.0,0.0,21.972826,-129.45198,-3.63453,0.0,0.0,0.0,0.0,0.0,0.0,0.0,2.9769251,44.911526,0.5144107,
0.8437499748542908,36,-0.040100098,-0.8498535,0.5796509,-0.34570312,-0.12695312,-0.072265625,0.0,0.0,0.0,0.0,0.0,0.0,0.0,0.0,0.0,0.0,0.0,-0.3574806,0.008624042,0.9340317,-0.99920654,-0.07928467,-0.07910156,0.038085938,-0.11816406,0.0107421875,3.293842,-7.400955,0.17854436,19.337353,-0.9998169,-0.039367676,-0.08843994,-0.0087890625,0.0859375,9.765625E-4,1.2676402,-8.055461,-56.75221,16.537466,-0.31958008,-0.5510254,0.7762451,-0.6201172,0.0146484375,-0.20996094,7.3148293,-9.71819,-128.68236,13.538477,0.0,0.0,0.0,0.0,0.0,0.0,0.0,4.031789,-128.67572,28.061241,0.0,0.0,0.0,0.0,0.0,0.0,0.0,0.3574806,-0.008624042,-0.9340317,-0.9534302,0.08483887,-0.14483643,-0.28710938,-0.40527344,-0.0087890625,6.837158,7.400955,-0.17854436,-19.337353,-0.97784424,-0.12927246,-0.09820557,-0.08886719,0.31054688,-0.041015625,6.097636,10.605089,-57.066814,-17.614075,-0.23376465,0.5790405,0.77264404,0.12890625,0.27148438,0.25195312,1.5281591,8.472059,-129.05156,-18.02173,0.0,0.0,0.0,0.0,0.0,0.0,0.0,22.200611,-129.28908,-3.4755182,0.0,0.0,0.0,0.0,0.0,0.0,0.0,2.4905672,44.93415,0.538328,
0.8671874741557989,37,-0.016052246,-0.8745117,0.59472656,-0.21289062,-0.10839844,-0.037109375,0.0,0.0,0.0,0.0,0.0,0.0,0.0,0.0,0.0,0.0,0.0,-0.36413354,0.005904016,0.9313414,-0.9766846,-0.10797119,-0.06341553,-0.020507812,-0.15625,-0.026367188,3.1489594,-7.538691,0.12223138,19.281656,-0.9929199,-0.0579834,-0.123046875,-0.10546875,0.12011719,-0.01953125,1.6736269,-7.9257164,-56.8124,16.474737,-0.32781982,-0.61413574,0.7473755,-0.6191406,0.034179688,-0.24804688,7.281709,-9.763483,-128.74237,13.457177,0.0,0.0,0.0,0.0,0.0,0.0,0.0,3.9798107,-128.77768,27.986214,0.0,0.0,0.0,0.0,0.0,0.0,0.0,0.36413354,-0.005904016,-0.9313414,-0.9156494,0.13208008,-0.097595215,-0.3623047,-0.36816406,-0.026367188,7.000061,7.538691,-0.12223138,-19.281656,-0.94854736,-0.14526367,-0.0736084,-0.203125,0.328125,-0.021484375,7.0531034,11.270044,-56.97161,-17.31805,-0.22912598,0.517395,0.774292,0.16894531,0.23339844,0.26953125,1.9457147,8.71534,-128.93835,-17.931448,0.0,0.0,0.0,0.0,0.0,0.0,0.0,22.345486,-129.15479,-3.2935076,0.0,0.0,0.0,0.0,0.0,0.0,0.0,2.131853,44.94669,0.5485778,
0.890624973457307,38,-0.01965332,-0.8335571,0.58325195,-0.21386719,-0.18554688,-0.037109375,0.0,0.0,0.0,0.0,0.0,0.0,0.0,0.0,0.0,0.0,0.0,-0.3710448,0.0042488147,0.9285999,-0.9882202,-0.121276855,-0.076293945,-0.0546875,-0.022460938,0.009765625,3.021613,-7.6817775,0.08796364,19.2249,-1.0079346,-0.051757812,-0.13708496,-0.125,0.13769531,0.017578125,1.920506,-7.9870124,-56.84238,16.319164,-0.3250122,-0.5753784,0.753479,-0.65722656,0.034179688,-0.26660156,7.232425,-10.035516,-128.76411,13.211809,0.0,0.0,0.0,0.0,0.0,0.0,0.0,3.7105722,-128.83595,27.73767,0.0,0.0,0.0,0.0,0.0,0.0,0.0,0.3710448,-0.0042488147,-0.9285999,-0.9941406,0.10455322,-0.0076293945,-0.4189453,-0.34960938,-0.044921875,7.355221,7.6817775,-0.08796364,-19.2249,-0.95666504,-0.13458252,-0.06048584,-0.16503906,0.3857422,-0.0029296875,8.1413355,12.072647,-56.87564,-16.943537,-0.20959473,0.5965576,0.75408936,0.16992188,0.21386719,0.30664062,2.3958805,9.139946,-128.82227,-17.794598,0.0,0.0,0.0,0.0,0.0,0.0,0.0,22.672712,-128.992,-3.0663052,0.0,0.0,0.0,0.0,0.0,0.0,0.0,1.81754,44.960045,0.5205276,
0.914062472758815,39,-0.016723633,-0.89068604,0.5588379,-0.13769531,-0.16699219,-0.038085938,0.0,0.0,0.0,0.0,0.0,0.0,0.0,0.0,0.0,0.0,0.0,-0.37852502,0.0031525232,0.9256797,-0.9916992,-0.09503174,-0.09515381,-0.09277344,-0.041015625,0.028320312,2.842829,-7.8366404,0.06526698,19.16444,-0.98565674,0.0037841797,-0.10498047,-0.203125,0.13574219,0.016601562,2.0796137,-8.141979,-56.860577,16.259212,-0.29956055,-0.57507324,0.76934814,-0.6201172,-0.00390625,-0.2861328,6.9870467,-10.393291,-128.78105,13.223305,0.0,0.0,0.0,0.0,0.0,0.0,0.0,3.3811617,-128.88858,27.723919,0.0,0.0,0.0,0.0,0.0,0.0,0.0,0.37852502,-0.0031525232,-0.9256797,-0.9630127,0.039367676,-0.083862305,-0.4189453,-0.27734375,-0.026367188,7.6087804,7.8366404,-0.06526698,-19.16444,-0.9594116,-0.09942627,-0.08508301,-0.22167969,0.42285156,-0.0029296875,9.19691,12.793512,-56.796333,-16.678276,-0.17468262,0.5279541,0.8245239,0.07421875,0.17578125,0.23339844,2.9980683,9.33747,-128.7247,-17.755848,0.0,0.0,0.0,0.0,0.0,0.0,0.0,22.723217,-128.82901,-2.89353,0.0,0.0,0.0,0.0,0.0,0.0,0.0,1.5352728,44.975216,0.47462827,
0.9374999720603231,40,-0.023986816,-0.86743164,0.5960083,-0.0625,-0.3017578,-0.057617188,0.0,0.0,0.0,0.0,0.0,0.0,0.0,0.0,0.0,0.0,0.0,-0.3868948,0.0031744833,0.9221775,-0.96136475,-0.097229004,-0.07550049,-0.22558594,-0.020507812,0.028320312,2.7760801,-8.009923,0.06572163,19.091934,-0.99176025,-0.016357422,-0.12689209,-0.24121094,0.11621094,-0.0029296875,2.2017598,-8.34887,-56.864883,16.17937,-0.3343506,-0.57458496,0.7692261,-0.5644531,-0.024414062,-0.24804688,6.72059,-10.796836,-128.78275,13.227413,0.0,0.0,0.0,0.0,0.0,0.0,0.0,2.9871416,-128.9125,27.717636,0.0,0.0,0.0,0.0,0.0,0.0,0.0,0.3868948,-0.0031744833,-0.9221775,-0.928833,0.039611816,-0.061706543,-0.3623047,-0.34960938,0.0107421875,7.935507,8.009923,-0.06572163,-19.091934,-0.9395752,-0.1687622,-0.06286621,-0.2607422,0.4609375,0.0546875,10.176025,13.52355,-56.74673,-16.552301,-0.21179199,0.55126953,0.7872925,0.036132812,0.13769531,0.15917969,3.3946526,9.572085,-128.64322,-17.900848,0.0,0.0,0.0,0.0,0.0,0.0,0.0,22.878937,-128.74751,-2.9683542,0.0,0.0,0.0,0.0,0.0,0.0,0.0,1.3776796,44.97937,0.42316237,
0.9609374713618312,41,-0.012573242,-0.888916,0.56469727,-0.005859375,-0.32128906,-0.07714844,0.0,0.0,0.0,0.0,0.0,0.0,0.0,0.0,0.0,0.0,0.0,-0.39733306,0.0041484553,0.917788,-0.993103,-0.091308594,-0.034301758,-0.22460938,0.017578125,0.045898438,2.8180702,-8.226026,0.085885875,19.001059,-0.9706421,0.009216309,-0.08294678,-0.2607422,0.13378906,0.034179688,2.390319,-8.501188,-56.840454,16.096663,-0.3102417,-0.6072998,0.74450684,-0.6035156,-0.10058594,-0.30566406,6.201975,-11.110635,-128.7513,13.233521,0.0,0.0,0.0,0.0,0.0,0.0,0.0,2.730935,-128.90584,27.666897,0.0,0.0,0.0,0.0,0.0,0.0,0.0,0.39733306,-0.0041484553,-0.917788,-1.0049438,0.050720215,-0.030700684,-0.13671875,-0.62402344,0.08300781,8.652401,8.226026,-0.085885875,-19.001059,-0.97247314,-0.15197754,-0.2000122,-0.08984375,0.46289062,0.016601562,11.705734,14.591839,-56.664913,-16.240767,-0.14147949,0.5576172,0.7538452,-0.059570312,0.11816406,0.12207031,4.088926,9.9454155,-128.50697,-18.045746,0.0,0.0,0.0,0.0,0.0,0.0,0.0,23.176441,-128.59059,-3.0462437,0.0,0.0,0.0,0.0,0.0,0.0,0.0,1.2689614,44.98586,0.34602612,
0.9843749706633392,42,-0.028320312,-0.8567505,0.56140137,0.05078125,-0.36035156,-0.115234375,0.0,0.0,0.0,0.0,0.0,0.0,0.0,0.0,0.0,0.0,0.0,-0.40702415,0.0078506265,0.913465,-0.963501,-0.14300537,-0.066589355,-0.26171875,0.07519531,0.026367188,3.1053255,-8.426662,0.16253231,18.911558,-0.99090576,-0.051208496,-0.11706543,-0.31933594,0.13183594,0.0146484375,2.5671976,-8.677043,-56.763256,15.908407,-0.23028564,-0.6524658,0.7524414,-0.4716797,-0.08300781,-0.23046875,6.0577364,-11.475105,-128.6691,13.076077,0.0,0.0,0.0,0.0,0.0,0.0,0.0,2.340519,-128.77917,27.53918,0.0,0.0,0.0,0.0,0.0,0.0,0.0,0.40702415,-0.0078506265,-0.913465,-0.9194336,0.0014648438,-0.13824463,0.0146484375,-0.18847656,0.12109375,8.869022,8.426662,-0.16253231,-18.911558,-0.94207764,-0.15429688,-0.1932373,0.022460938,0.4453125,0.11230469,12.820076,15.196127,-56.68893,-16.054367,-0.29510498,0.56207275,0.7872925,-0.059570312,0.080078125,-0.0078125,4.7264633,9.78993,-128.46602,-18.309002,0.0,0.0,0.0,0.0,0.0,0.0,0.0,22.979412,-128.56699,-3.2727842,0.0,0.0,0.0,0.0,0.0,0.0,0.0,1.1798079,44.98766,0.13906276,
1.0078124699648474,43,0.020568848,-0.8885498,0.5529175,0.0126953125,-0.41796875,-0.078125,0.0,0.0,0.0,0.0,0.0,0.0,0.0,0.0,0.0,0.0,0.0,-0.4194346,0.010816326,0.9080043,-0.9304199,-0.1875,-0.06591797,-0.20410156,0.07421875,0.044921875,3.4736147,-8.683597,0.22393146,18.798504,-0.9699707,-0.08312988,-0.09906006,-0.1640625,0.15527344,0.036132812,2.676495,-8.883758,-56.685925,15.593696,-0.2888794,-0.67211914,0.7295532,-0.33789062,-0.02734375,-0.17285156,5.7637463,-11.759308,-128.58304,12.573595,0.0,0.0,0.0,0.0,0.0,0.0,0.0,2.0494366,-128.70813,27.040863,0.0,0.0,0.0,0.0,0.0,0.0,0.0,0.4194346,-0.010816326,-0.9080043,-0.95874023,0.060180664,-0.11730957,0.12792969,-0.2626953,0.13867188,8.873783,8.683597,-0.22393146,-18.798504,-0.9334717,-0.13726807,-0.2937622,-0.034179688,0.38671875,0.07421875,13.817837,15.648518,-56.728336,-15.9263735,-0.22290039,0.56256104,0.7509155,-0.018554688,0.022460938,0.06542969,5.3689613,9.273817,-128.41127,-18.4969,0.0,0.0,0.0,0.0,0.0,0.0,0.0,22.488697,-128.54422,-3.482235,0.0,0.0,0.0,0.0,0.0,0.0,0.0,1.0857873,44.99846,-0.034472585,
1.0312499692663555,44,0.038024902,-0.892334,0.57629395,0.05078125,-0.36035156,-0.041015625,0.0,0.0,0.0,0.0,0.0,0.0,0.0,0.0,0.0,0.0,0.0,-0.43187335,0.015287484,0.90220505,-0.9923096,-0.14752197,-0.005493164,0.0068359375,0.072265625,0.06347656,3.9509652,-8.941116,0.3164983,18.678442,-0.9788208,-0.046203613,-0.05053711,-0.06738281,0.17578125,0.07519531,2.9482923,-8.926559,-56.58521,15.327111,-0.25079346,-0.657959,0.74053955,-0.20507812,-0.028320312,-0.13476562,5.640939,-11.888185,-128.46918,12.086882,0.0,0.0,0.0,0.0,0.0,0.0,0.0,1.9229517,-128.58879,26.54958,0.0,0.0,0.0,0.0,0.0,0.0,0.0,0.43187335,-0.015287484,-0.90220505,-0.9293823,0.08660889,-0.19067383,0.2783203,-0.044921875,0.25097656,8.512877,8.941116,-0.3164983,-18.678442,-0.9608154,-0.13201904,-0.2994995,-0.015625,0.33007812,0.15136719,14.519644,15.762554,-56.83772,-15.781912,-0.23217773,0.51745605,0.77130127,0.021484375,-0.03515625,0.0087890625,6.123879,8.378532,-128.41594,-18.606585,0.0,0.0,0.0,0.0,0.0,0.0,0.0,21.567396,-128.56152,-3.5700703,0.0,0.0,0.0,0.0,0.0,0.0,0.0,0.9802193,45.00462,-0.2933666,
1.0546874685678636,45,0.025146484,-0.93548584,0.5653076,0.12695312,-0.34179688,-0.0048828125,0.0,0.0,0.0,0.0,0.0,0.0,0.0,0.0,0.0,0.0,0.0,-0.44348243,0.019678218,0.8961457,-0.9402466,-0.084350586,-0.00579834,0.0078125,0.09082031,0.08203125,4.2530756,-9.181459,0.40740013,18.552994,-0.95874023,-0.028015137,-0.02545166,-0.1640625,0.22851562,0.053710938,3.0311863,-9.100383,-56.494537,15.178661,-0.29766846,-0.6116333,0.7052002,-0.091796875,-0.0107421875,-0.040039062,5.3284416,-12.086548,-128.3761,11.944393,0.0,0.0,0.0,0.0,0.0,0.0,0.0,1.7191591,-128.49913,26.412464,0.0,0.0,0.0,0.0,0.0,0.0,0.0,0.44348243,-0.019678218,-0.8961457,-0.93859863,0.074035645,-0.1975708,0.22167969,-0.0078125,0.23242188,8.012022,9.181459,-0.40740013,-18.552994,-0.95758057,-0.11151123,-0.3232422,-0.09082031,0.27148438,0.13183594,14.90246,15.628737,-56.971237,-15.734914,-0.2420044,0.553833,0.76464844,0.00390625,-0.07324219,0.02734375,6.7348742,7.2551403,-128.43816,-18.649218,0.0,0.0,0.0,0.0,0.0,0.0,0.0,20.465738,-128.60661,-3.6302938,0.0,0.0,0.0,0.0,0.0,0.0,0.0,0.95204294,44.990128,-0.5167814,
1.0781249678693716,46,0.0064697266,-0.9545288,0.5477295,0.24121094,-0.24609375,0.03125,0.0,0.0,0.0,0.0,0.0,0.0,0.0,0.0,0.0,0.0,0.0,-0.45440915,0.024043012,0.89035714,-0.97180176,-0.0758667,0.05230713,-0.20117188,0.13085938,0.08203125,4.372824,-9.407678,0.49776486,18.433153,-0.9486084,-0.0029296875,-0.0014648438,-0.203125,0.28320312,0.072265625,3.1859202,-9.166696,-56.41431,15.243964,-0.27270508,-0.6382446,0.7189331,-0.13085938,-0.029296875,-0.059570312,4.8141794,-12.16745,-128.3016,12.03776,0.0,0.0,0.0,0.0,0.0,0.0,0.0,1.6445541,-128.43558,26.499516,0.0,0.0,0.0,0.0,0.0,0.0,0.0,0.45440915,-0.024043012,-0.89035714,-0.99298096,0.20489502,-0.17370605,0.08984375,0.030273438,0.2705078,7.726544,9.407678,-0.49776486,-18.433153,-0.980896,-0.11505127,-0.33807373,-0.12890625,0.1953125,0.13183594,15.278802,15.493721,-57.09555,-15.417913,-0.2376709,0.5928345,0.76782227,0.00390625,-0.07324219,0.064453125,7.273595,6.2496643,-128.45258,-18.299006,0.0,0.0,0.0,0.0,0.0,0.0,0.0,19.473957,-128.61491,-3.2921772,0.0,0.0,0.0,0.0,0.0,0.0,0.0,1.0131896,44.97872,-0.6974968,
1.1015624671708797,47,0.04144287,-0.9077759,0.5482178,0.3544922,-0.18945312,0.049804688,0.0,0.0,0.0,0.0,0.0,0.0,0.0,0.0,0.0,0.0,0.0,-0.46677795,0.028288398,0.8838907,-0.9468384,-0.13800049,0.09588623,-0.33398438,0.16992188,0.11816406,4.5280933,-9.663751,0.5856576,18.299276,-0.96875,-0.041503906,0.0546875,-0.3203125,0.41015625,0.049804688,3.4064555,-9.207532,-56.328835,15.275154,-0.23712158,-0.66204834,0.6904297,-0.07128906,0.06542969,-0.0390625,4.289985,-12.231088,-128.21173,12.146974,0.0,0.0,0.0,0.0,0.0,0.0,0.0,1.5686598,-128.34816,26.621536,0.0,0.0,0.0,0.0,0.0,0.0,0.0,0.46677795,-0.028288398,-0.8838907,-0.96087646,0.21044922,-0.21966553,0.052734375,0.30371094,0.27148438,7.4869223,9.663751,-0.5856576,-18.299276,-0.97753906,-0.099121094,-0.39971924,-0.16699219,0.080078125,0.17089844,15.525911,15.23102,-57.21557,-14.912202,-0.16662598,0.53881836,0.8029175,-0.013671875,-0.13085938,0.044921875,7.8704567,5.1788025,-128.46451,-17.740475,0.0,0.0,0.0,0.0,0.0,0.0,0.0,18.378145,-128.59589,-2.7124367,0.0,0.0,0.0,0.0,0.0,0.0,0.0,1.1741222,44.97597,-0.81938165,
1.1249999664723878,48,0.039794922,-0.9011841,0.56921387,0.41210938,-0.015625,0.03125,0.0,0.0,0.0,0.0,0.0,0.0,0.0,0.0,0.0,0.0,0.0,-0.47423452,0.03175195,0.8798721,-0.96990967,-0.09686279,0.33355713,-0.41503906,0.037109375,0.08300781,4.6787257,-9.818125,0.6573637,18.21608,-0.9244995,-0.011962891,0.29608154,-0.3798828,0.70410156,0.12109375,3.7762613,-8.882444,-56.25106,15.542368,-0.31652832,-0.607605,0.76123047,-0.12792969,0.0859375,-0.020507812,3.5375094,-11.781692,-128.13676,12.669891,0.0,0.0,0.0,0.0,0.0,0.0,0.0,2.05927,-128.31358,27.10408,0.0,0.0,0.0,0.0,0.0,0.0,0.0,0.47423452,-0.03175195,-0.8798721,-0.9449463,0.20574951,-0.30688477,-0.30566406,0.7451172,0.45996094,6.662561,9.818125,-0.6573637,-18.21608,-0.97198486,-0.05517578,-0.45117188,-0.41308594,-0.056640625,0.15234375,14.9674425,14.0672035,-57.37549,-14.496386,-0.20684814,0.5513916,0.7675781,0.08496094,-0.16894531,0.08105469,8.327584,3.1862488,-128.51184,-17.047056,0.0,0.0,0.0,0.0,0.0,0.0,0.0,16.419607,-128.61351,-2.0484972,0.0,0.0,0.0,0.0,0.0,0.0,0.0,1.4365218,44.970894,-0.84860647,
1.1484374657738958,49,0.097473145,-0.8648071,0.61572266,0.48828125,0.09863281,0.10546875,0.0,0.0,0.0,0.0,0.0,0.0,0.0,0.0,0.0,0.0,0.0,-0.4779335,0.03512008,0.8778014,-0.97473145,-0.07348633,0.63586426,-0.6748047,-0.36132812,0.16113281,4.929905,-9.894706,0.72709465,18.173212,-0.8909302,0.104003906,0.5812378,-0.59472656,1.1259766,0.07421875,4.201371,-8.394075,-56.22062,16.102911,-0.28448486,-0.6867676,0.66552734,-0.16210938,0.18261719,-0.09472656,3.6551096,-11.130814,-128.11453,13.954841,0.0,0.0,0.0,0.0,0.0,0.0,0.0,2.7430077,-128.36679,28.356304,0.0,0.0,0.0,0.0,0.0,0.0,0.0,0.4779335,-0.03512008,-0.8778014,-0.9425659,0.08453369,-0.3001709,-0.53125,0.7636719,0.27539062,5.889127,9.894706,-0.72709465,-18.173212,-0.9902344,-0.17883301,-0.37841797,-0.7529297,-0.15625,0.11328125,14.071182,12.704278,-57.52526,-14.294781,-0.28588867,0.5812988,0.80511475,0.16210938,-0.16992188,0.15429688,8.569901,1.2558975,-128.58755,-16.651941,0.0,0.0,0.0,0.0,0.0,0.0,0.0,14.551545,-128.61708,-1.7095222,0.0,0.0,0.0,0.0,0.0,0.0,0.0,1.8176706,44.960255,-0.8091605,
1.171874965075404,50,0.12286377,-0.83428955,0.5944214,0.6972656,0.26953125,0.34375,0.0,0.0,0.0,0.0,0.0,0.0,0.0,0.0,0.0,0.0,0.0,-0.47893354,0.03589716,0.8772959,-0.91070557,-0.06994629,0.8088989,-0.7998047,-0.74316406,0.2763672,5.470885,-9.915409,0.7431826,18.162746,-0.81463623,0.14007568,0.7844238,-1.0625,1.7089844,-0.09277344,6.7015076,-7.911125,-56.209564,16.716505,-0.21813965,-0.75805664,0.6437988,0.18164062,0.3701172,0.19140625,5.0697184,-13.11912,-128.0062,14.708874,0.0,0.0,0.0,0.0,0.0,0.0,0.0,0.72679996,-128.36462,29.133007,0.0,0.0,0.0,0.0,0.0,0.0,0.0,0.47893354,-0.03589716,-0.8772959,-0.9911499,0.044677734,-0.22167969,-0.53125,0.9638672,0.29492188,5.350864,9.915409,-0.7431826,-18.162746,-1.0078735,-0.1552124,-0.24066162,-0.734375,-0.23242188,0.11425781,12.689196,11.272787,-57.609978,-14.414699,-0.2140503,0.67071533,0.77716064,0.16015625,-0.07421875,0.26660156,8.764952,-0.19227314,-128.67343,-16.67867,0.0,0.0,0.0,0.0,0.0,0.0,0.0,13.090983,-128.5447,-1.7236834,0.0,0.0,0.0,0.0,0.0,0.0,0.0,2.3678405,44.941418,-0.5462595,
1.195312464376912,51,0.11798096,-0.6602173,0.5701904,1.0380859,0.4580078,0.6376953,0.0,0.0,0.0,0.0,0.0,0.0,0.0,0.0,0.0,0.0,0.0,-0.4794987,0.03125722,0.87704206,-0.92626953,-0.26245117,0.87353516,-0.29492188,-1.1494141,0.37402344,7.140893,-9.92711,0.64712137,18.157492,-0.9720459,0.08392334,0.592041,-1.1416016,2.100586,-0.3076172,10.410703,-6.909951,-56.278168,17.722803,-0.07946777,-0.9053345,0.722229,0.8261719,0.5908203,0.72265625,7.028586,-15.310675,-127.76859,15.477972,0.0,0.0,0.0,0.0,0.0,0.0,0.0,-1.5340309,-128.26186,29.963657,0.0,0.0,0.0,0.0,0.0,0.0,0.0,0.4794987,-0.03125722,-0.87704206,-1.0045776,-0.14068604,-0.13421631,-0.4375,1.0732422,0.46191406,5.75483,9.92711,-0.64712137,-18.157492,-0.9121094,-0.17962646,-0.08807373,-0.86816406,-0.19628906,0.20996094,11.289065,10.125933,-57.528885,-14.559891,-0.17559814,0.8648071,0.774353,0.038085938,0.13671875,0.4375,8.642566,-1.0347605,-128.64064,-16.581532,0.0,0.0,0.0,0.0,0.0,0.0,0.0,12.21099,-128.38437,-1.5957232,0.0,0.0,0.0,0.0,0.0,0.0,0.0,3.2201164,44.886578,0.16078115,
1.21874996367842,52,0.15386963,-0.5531006,0.5731201,0.4716797,0.61328125,0.9765625,0.0,0.0,0.0,0.0,0.0,0.0,0.0,0.0,0.0,0.0,0.0,-0.48119146,0.015105147,0.8766413,-0.92626953,-0.26245117,0.87353516,-0.29492188,-1.1494141,0.37402344,8.03651,-9.962154,0.31272337,18.149193,-1.4439697,-0.027526855,0.15570068,-0.44335938,2.0644531,-0.2763672,13.19208,-6.944996,-56.612564,17.714504,-0.062316895,-1.4058838,0.9766846,1.4765625,1.0429688,1.3515625,8.631149,-18.765556,-127.59396,14.94246,0.0,0.0,0.0,0.0,0.0,0.0,0.0,-4.9808254,-128.46997,29.409445,0.0,0.0,0.0,0.0,0.0,0.0,0.0,0.48119146,-0.015105147,-0.8766413,-0.91674805,0.10858154,0.052368164,-0.060546875,0.90625,0.45996094,6.618499,9.962154,-0.31272337,-18.149193,-0.94506836,-0.23773193,-0.056518555,-0.6611328,-0.15527344,0.32421875,10.141522,9.213316,-57.19405,-14.716095,-0.030639648,0.40234375,0.88482666,0.15722656,-0.015625,0.119140625,8.483042,-1.9118757,-128.32538,-16.215706,0.0,0.0,0.0,0.0,0.0,0.0,0.0,11.129709,-127.97698,-1.0647221,0.0,0.0,0.0,0.0,0.0,0.0,0.0,3.8453908,44.82159,1.3384409,
1.242187462979928,53,0.184021,-0.6159668,0.55493164,-0.8720703,0.6582031,1.1376953,0.0,0.0,0.0,0.0,0.0,0.0,0.0,0.0,0.0,0.0,0.0,-0.4846682,-0.013943987,0.87473977,-1.6055908,0.36730957,0.45947266,-0.67285156,-1.7402344,0.63964844,12.525236,-10.034135,-0.28868374,18.109825,-1.894043,0.06976318,0.03527832,0.44726562,2.1884766,-0.625,20.486856,-3.227426,-56.838882,20.440582,-0.025512695,-2.0,0.8657837,1.2285156,1.2626953,0.37304688,9.803955,-18.549105,-127.115974,16.817142,0.0,0.0,0.0,0.0,0.0,0.0,0.0,-4.688719,-128.39445,31.180513,0.0,0.0,0.0,0.0,0.0,0.0,0.0,0.4846682,0.013943987,-0.87473977,-0.91485596,0.49499512,-0.19799805,-0.96484375,0.83984375,0.24023438,8.262155,10.034135,0.28868374,-18.109825,-0.9920044,-0.024291992,-0.22564697,-0.47070312,-0.038085938,0.22851562,9.82299,8.329141,-56.50842,-13.596262,-0.18365479,0.55688477,0.7803955,0.4501953,-0.16894531,-0.034179688,8.561372,-2.9580746,-127.629196,-14.59041,0.0,0.0,0.0,0.0,0.0,0.0,0.0,10.024981,-127.16831,0.6176357,0.0,0.0,0.0,0.0,0.0,0.0,0.0,3.3871062,44.803528,2.590899,
1.2656249622814362,54,0.026306152,-0.9124756,0.5545654,-1.5732422,0.62597656,0.8125,0.0,0.0,0.0,0.0,0.0,0.0,0.0,0.0,0.0,0.0,0.0,-0.4886962,-0.045323145,0.87136537,-1.7825928,0.042907715,0.21099854,-0.8310547,-1.7353516,0.21484375,13.74452,-10.117526,-0.9383296,18.039965,-1.7983398,-0.022216797,-0.051940918,0.8359375,2.0341797,-0.73046875,25.814745,-1.5755644,-57.146027,22.194157,-0.025512695,-2.0,0.8657837,1.2285156,1.2626953,0.37304688,11.781576,-20.34462,-126.480865,17.059803,0.0,0.0,0.0,0.0,0.0,0.0,0.0,-6.484234,-127.75935,31.423174,0.0,0.0,0.0,0.0,0.0,0.0,0.0,0.4886962,0.045323145,-0.87136537,-0.8859863,0.019958496,-0.050720215,-0.15332031,0.6660156,0.013671875,8.538286,10.117526,0.9383296,-18.039965,-0.9152832,-0.10681152,-0.22283936,0.24804688,0.046875,0.22851562,8.636655,7.148394,-55.824203,-13.788429,-0.18682861,0.53344727,0.78222656,0.625,-0.16894531,0.056640625,9.005775,-4.294267,-126.92334,-14.545707,0.0,0.0,0.0,0.0,0.0,0.0,0.0,8.788458,-126.3103,0.5721741,0.0,0.0,0.0,0.0,0.0,0.0,0.0,1.7560816,44.846687,3.317533,
1.2890624615829442,55,-0.2008667,-1.4475708,0.5181885,-0.79785156,0.5683594,0.25097656,0.0,0.0,0.0,0.0,0.0,0.0,0.0,0.0,0.0,0.0,0.0,-0.4837292,-0.074358925,0.87219375,-1.4840088,-0.3496704,0.15692139,0.66308594,-1.7587891,-0.96777344,14.952004,-10.014694,-1.5394603,18.057116,-1.5541382,-0.00970459,-0.1716919,1.2460938,1.3212891,-0.7158203,30.779888,0.97149944,-57.30045,22.488323,1.1062622,-1.0739746,1.4081421,-0.24023438,1.3955078,-0.07910156,12.023344,-20.460434,-125.72836,15.8112335,0.0,0.0,0.0,0.0,0.0,0.0,0.0,-5.9926786,-128.31174,29.382504,0.0,0.0,0.0,0.0,0.0,0.0,0.0,0.4837292,0.074358925,-0.87219375,-0.8413086,0.44744873,-0.22833252,0.375,1.4453125,0.23730469,9.695114,10.014694,1.5394603,-18.057116,-1.131958,0.18334961,-0.23699951,0.7402344,0.1484375,0.20996094,7.6081614,6.0878687,-55.192978,-14.150751,-0.17816162,0.6514282,0.7081299,0.6064453,-0.20703125,-0.036132812,9.490489,-5.493705,-126.27134,-14.61239,0.0,0.0,0.0,0.0,0.0,0.0,0.0,7.637662,-125.44509,0.45419407,0.0,0.0,0.0,0.0,0.0,0.0,0.0,0.29758638,44.82759,3.986824,
1.3124999608844523,56,-0.0692749,-1.208313,0.43426514,0.6582031,0.21777344,-0.3388672,0.0,0.0,0.0,0.0,0.0,0.0,0.0,0.0,0.0,0.0,0.0,-0.4761846,-0.07489798,0.8762791,-1.2501221,-0.3118286,0.056274414,1.7441406,-2.2109375,-0.48242188,17.765104,-9.858499,-1.5506206,18.141695,-1.3118896,0.3012085,-0.26190186,0.64941406,0.23925781,-0.27539062,34.8657,4.0344257,-56.64334,22.77073,1.4914551,-0.7666626,1.3046875,-0.29492188,-0.33789062,0.23828125,11.952579,-18.555109,-124.60228,15.183708,0.0,0.0,0.0,0.0,0.0,0.0,0.0,-4.088814,-127.39336,28.715893,0.0,0.0,0.0,0.0,0.0,0.0,0.0,0.4761846,0.07489798,-0.8762791,-0.85479736,0.26776123,-0.27124023,0.5058594,0.7890625,0.16015625,10.178847,9.858499,1.5506206,-18.141695,-0.87805176,0.022888184,-0.2119751,0.23046875,0.103515625,0.1328125,6.578735,4.6412888,-55.08702,-14.322706,-0.06964111,0.5166626,0.6621094,0.29296875,-0.11035156,-0.18066406,10.019027,-7.31544,-126.10673,-14.369462,0.0,0.0,0.0,0.0,0.0,0.0,0.0,5.885396,-125.09108,0.62273693,0.0,0.0,0.0,0.0,0.0,0.0,0.0,0.49153197,44.815475,4.0976086,
1.3359374601859604,57,0.12792969,-1.0426025,0.43450928,0.80859375,-0.09082031,-0.4892578,0.0,0.0,0.0,0.0,0.0,0.0,0.0,0.0,0.0,0.0,0.0,-0.47110572,-0.061210524,0.8801759,-1.144104,0.14007568,0.09008789,1.4130859,-2.5927734,-0.08984375,21.835003,-9.753349,-1.2672476,18.222372,-1.1350098,0.23138428,-0.23608398,-0.8574219,-0.9951172,-0.095703125,37.732933,7.281767,-55.386745,23.754873,1.592041,-0.77282715,0.92718506,-0.19238281,-1.5292969,-0.09667969,12.099341,-14.494591,-123.58176,15.906132,0.0,0.0,0.0,0.0,0.0,0.0,0.0,-0.25200272,-125.99285,29.743546,0.0,0.0,0.0,0.0,0.0,0.0,0.0,0.47110572,0.061210524,-0.8801759,-0.8508911,0.24285889,-0.06402588,0.24316406,1.2636719,0.12597656,9.868586,9.753349,1.2672476,-18.222372,-0.98321533,0.023132324,-0.062927246,0.13574219,0.12207031,0.11328125,4.773765,2.7926612,-55.210907,-14.808912,-0.18920898,0.6514282,0.7229004,-0.16992188,-0.18652344,-0.58496094,9.534691,-9.13887,-126.2284,-14.38144,0.0,0.0,0.0,0.0,0.0,0.0,0.0,4.1761513,-125.29414,0.5156498,0.0,0.0,0.0,0.0,0.0,0.0,0.0,1.3465669,44.824776,3.8380094,
1.3593749594874684,58,0.12908936,-0.8959961,0.43969727,0.8652344,0.06347656,-0.5078125,0.0,0.0,0.0,0.0,0.0,0.0,0.0,0.0,0.0,0.0,0.0,-0.47381037,-0.041976757,0.8792144,-0.8869629,0.17755127,0.1138916,0.15820312,-2.4296875,0.038085938,25.163616,-9.809345,-0.869049,18.202465,-1.0220947,-0.075805664,-0.2592163,-1.2412109,-1.9951172,0.21386719,38.419437,9.74028,-53.951824,25.139095,1.3306885,-0.8216553,0.72052,-0.20214844,-1.5058594,-0.8330078,12.578947,-9.138649,-123.046814,17.63419,0.0,0.0,0.0,0.0,0.0,0.0,0.0,4.962097,-124.76246,31.717916,0.0,0.0,0.0,0.0,0.0,0.0,0.0,0.47381037,0.041976757,-0.8792144,-0.9932251,0.17663574,-0.04852295,0.4501953,1.0800781,0.14257812,9.185642,9.809345,0.869049,-18.202465,-0.9171753,-0.10443115,0.016235352,0.5332031,0.2607422,0.07519531,3.991548,1.9642825,-55.485683,-14.891449,-0.09069824,0.64819336,0.72979736,-0.36035156,-0.3203125,-0.7324219,9.107332,-9.774389,-126.52571,-14.326977,0.0,0.0,0.0,0.0,0.0,0.0,0.0,3.7143364,-125.72112,0.4202242,0.0,0.0,0.0,0.0,0.0,0.0,0.0,1.9111469,44.831135,3.1703157,
1.3828124587889765,59,0.06463623,-0.7194824,0.4169922,1.0361328,0.25585938,-0.60058594,0.0,0.0,0.0,0.0,0.0,0.0,0.0,0.0,0.0,0.0,0.0,-0.4668268,-0.025960457,0.8839236,-0.72058105,-0.005065918,0.103149414,-0.20898438,-1.8525391,-0.171875,28.849161,-9.664762,-0.53746194,18.29996,-0.79919434,-0.15808105,-0.25958252,-0.016601562,-2.5947266,0.3935547,37.934666,12.28435,-52.564148,26.138159,0.8140869,-0.8366699,0.7246094,-0.41503906,-1.4404297,-1.8691406,13.025406,-2.5047998,-122.6911,19.101454,0.0,0.0,0.0,0.0,0.0,0.0,0.0,11.671903,-123.57664,33.186478,0.0,0.0,0.0,0.0,0.0,0.0,0.0,0.4668268,0.025960457,-0.8839236,-0.8179321,0.2399292,-0.17919922,0.6767578,1.2783203,0.1796875,8.46232,9.664762,0.53746194,-18.29996,-0.9891968,0.21289062,-0.09710693,0.9667969,0.34179688,0.22851562,2.5882313,0.5085249,-55.660423,-15.573356,-0.19866943,0.9083252,0.66534424,-0.7597656,-0.4169922,-0.45117188,8.405973,-11.200688,-126.704185,-14.565706,0.0,0.0,0.0,0.0,0.0,0.0,0.0,2.5045233,-126.09055,-0.009346962,0.0,0.0,0.0,0.0,0.0,0.0,0.0,2.8566654,44.81854,2.8249922,
1.4062499580904846,60,0.057006836,-0.61065674,0.33062744,0.7714844,0.3359375,-0.7636719,0.0,0.0,0.0,0.0,0.0,0.0,0.0,0.0,0.0,0.0,0.0,-0.45243308,-0.011256438,0.8918423,-0.54907227,-0.0881958,0.024780273,0.484375,-1.609375,-0.3232422,32.165234,-9.366767,-0.23304315,18.463902,-0.59521484,0.07434082,-0.31884766,1.0322266,-3.1064453,0.6269531,36.383442,14.641746,-51.273983,26.72423,0.4658203,-0.6107178,0.7815552,-0.55859375,-1.2832031,-2.1884766,13.049476,4.5927105,-122.32213,20.637617,0.0,0.0,0.0,0.0,0.0,0.0,0.0,18.805729,-121.90412,34.638718,0.0,0.0,0.0,0.0,0.0,0.0,0.0,0.45243308,0.011256438,-0.8918423,-0.8722534,0.4578247,-0.21582031,0.6953125,1.4609375,0.32910156,8.670225,9.366767,0.23304315,-18.463902,-0.96881104,0.15692139,-0.19232178,-0.015625,0.33007812,0.11230469,1.9868218,-1.5514355,-55.639664,-15.564873,-0.26837158,0.47479248,0.86950684,-0.70214844,-0.3798828,-0.265625,7.800894,-13.942235,-126.55518,-13.593719,0.0,0.0,0.0,0.0,0.0,0.0,0.0,-0.09307861,-126.11201,0.82966614,0.0,0.0,0.0,0.0,0.0,0.0,0.0,3.8500218,44.768864,2.5181751,
1.4296874573919927,61,0.13787842,-0.576355,0.29901123,-0.0234375,0.5136719,-0.73535156,0.0,0.0,0.0,0.0,0.0,0.0,0.0,0.0,0.0,0.0,0.0,-0.43489155,-0.002705656,0.90057695,-0.38690186,-0.02722168,-0.05230713,1.0419922,-1.5771484,-0.15722656,34.621418,-9.003602,-0.056015454,18.644733,-0.47277832,0.18621826,-0.34368896,0.87890625,-3.5234375,0.8574219,34.02963,16.909786,-50.100822,27.215708,0.09661865,-0.611145,0.94262695,-0.5576172,-1.3203125,-2.3964844,12.2934675,12.425137,-121.81597,22.336119,0.0,0.0,0.0,0.0,0.0,0.0,0.0,26.801012,-120.256905,36.142563,0.0,0.0,0.0,0.0,0.0,0.0,0.0,0.43489155,0.002705656,-0.90057695,-0.8709717,0.18347168,-0.2855835,0.1875,1.5175781,-0.021484375,9.185257,9.003602,0.056015454,-18.644733,-0.96655273,-0.2734375,-0.062683105,-0.08984375,0.40527344,0.016601562,2.9072392,-3.6762743,-55.460697,-16.070936,-0.19268799,0.5349121,0.8344116,-0.296875,-0.36035156,-0.21386719,8.127989,-16.317493,-126.33238,-14.536276,0.0,0.0,0.0,0.0,0.0,0.0,0.0,-2.329996,-126.03076,-0.2407608,0.0,0.0,0.0,0.0,0.0,0.0,0.0,4.2352858,44.751198,2.1796818,
1.4531249566935007,62,0.15515137,-0.7364502,0.40753174,-0.5527344,0.9013672,-0.52441406,0.0,0.0,0.0,0.0,0.0,0.0,0.0,0.0,0.0,0.0,0.0,-0.41504714,-0.0056102537,0.90991545,-0.25646973,0.034301758,-0.07128906,1.3339844,-1.4853516,0.026367188,36.221775,-8.592763,-0.116149604,18.838072,-0.5029907,0.13470459,-0.3511963,0.3173828,-3.709961,1.0595703,31.144552,19.105465,-49.109524,27.902668,-0.15582275,-0.39801025,0.7962036,-0.4453125,-1.3603516,-2.3398438,11.512385,20.796963,-121.02733,24.597216,0.0,0.0,0.0,0.0,0.0,0.0,0.0,35.285385,-118.31738,38.11379,0.0,0.0,0.0,0.0,0.0,0.0,0.0,0.41504714,0.0056102537,-0.90991545,-1.0511475,-0.09008789,-0.21795654,0.22558594,1.6074219,-0.040039062,10.081102,8.592763,0.116149604,-18.838072,-0.9807129,-0.16235352,0.06890869,0.3623047,0.6015625,0.15039062,3.9100113,-5.4222183,-55.10593,-17.617214,-0.18103027,0.48010254,0.8262329,0.14453125,-0.28320312,-0.125,8.826814,-17.860365,-126.02188,-16.81339,0.0,0.0,0.0,0.0,0.0,0.0,0.0,-3.7897902,-125.72999,-2.5998096,0.0,0.0,0.0,0.0,0.0,0.0,0.0,3.8449864,44.794914,2.0300364,
1.4765624559950088,63,0.16278076,-0.9187012,0.49627686,-0.3046875,1.3613281,-0.2841797,0.0,0.0,0.0,0.0,0.0,0.0,0.0,0.0,0.0,0.0,0.0,-0.39995366,-0.0145340245,0.91585153,-0.31970215,0.12512207,0.026184082,1.5302734,-1.3740234,0.19140625,37.299187,-8.28028,-0.30089936,18.960964,-0.53411865,0.11450195,-0.44378662,0.18164062,-3.828125,1.2490234,27.908611,21.075031,-48.219227,28.558487,-0.28216553,-0.5492554,0.9475708,-0.6484375,-0.97558594,-1.8642578,10.082995,29.18311,-119.76062,27.153282,0.0,0.0,0.0,0.0,0.0,0.0,0.0,43.74044,-116.204865,40.398445,0.0,0.0,0.0,0.0,0.0,0.0,0.0,0.39995366,0.0145340245,-0.91585153,-1.0305786,-0.056518555,-0.13305664,0.69628906,1.5136719,0.10644531,11.511804,8.28028,0.30089936,-18.960964,-0.94299316,-0.11053467,0.10595703,0.0234375,0.78808594,0.072265625,4.511756,-6.6028023,-54.706795,-19.205479,-0.19067383,0.5449829,0.8029785,0.37304688,-0.16796875,-0.12597656,9.74548,-19.2117,-125.59542,-18.611435,0.0,0.0,0.0,0.0,0.0,0.0,0.0,-5.062649,-125.19635,-4.479122,0.0,0.0,0.0,0.0,0.0,0.0,0.0,3.0287724,44.828335,2.0340686,
1.4999999552965169,64,0.18249512,-1.041565,0.5186157,0.20703125,1.5693359,-0.1953125,0.0,0.0,0.0,0.0,0.0,0.0,0.0,0.0,0.0,0.0,0.0,-0.3735386,-0.030458033,0.9271037,-0.42889404,0.11468506,0.1338501,1.1826172,-0.8544922,0.12988281,38.980232,-7.733409,-0.6305757,19.19392,-0.61499023,0.14605713,-0.37731934,0.045898438,-3.7382812,1.1884766,24.191936,22.799713,-47.70572,29.244377,-0.49835205,-0.39404297,0.7340698,-0.2685547,-0.80859375,-1.5029297,9.056967,37.196777,-118.27097,29.78547,0.0,0.0,0.0,0.0,0.0,0.0,0.0,51.83532,-114.030754,42.71358,0.0,0.0,0.0,0.0,0.0,0.0,0.0,0.3735386,0.030458033,-0.9271037,-0.99017334,-0.031311035,-0.19274902,1.2050781,1.65625,0.27246094,12.645621,7.733409,0.6305757,-19.19392,-0.9836426,-0.14581299,0.070007324,0.2685547,1.0205078,0.16796875,5.4166355,-8.226267,-54.0572,-20.761444,-0.16619873,0.602417,0.7984009,0.38476562,0.0234375,-0.21679688,10.932199,-21.252352,-124.86769,-20.626709,0.0,0.0,0.0,0.0,0.0,0.0,0.0,-7.0244045,-124.392456,-6.5748672,0.0,0.0,0.0,0.0,0.0,0.0,0.0,2.930513,44.82557,2.65338,
1.523437454598025,65,0.037231445,-1.0380249,0.52142334,0.28222656,1.4941406,-0.38183594,0.0,0.0,0.0,0.0,0.0,0.0,0.0,0.0,0.0,0.0,0.0,-0.34257445,-0.04558646,0.9385911,-0.60858154,0.2010498,0.302063,0.69921875,0.16113281,0.19238281,40.044277,-7.0923533,-0.943781,19.431746,-0.83917236,0.14746094,-0.34747314,0.026367188,-3.6660156,1.2832031,19.826014,23.724792,-47.800636,29.665787,-0.522583,-0.55737305,0.78338623,-0.69921875,0.38378906,-0.62109375,8.944634,43.620983,-116.922264,32.243176,0.0,0.0,0.0,0.0,0.0,0.0,0.0,58.606213,-112.51649,44.6946,0.0,0.0,0.0,0.0,0.0,0.0,0.0,0.34257445,0.04558646,-0.9385911,-0.9785156,-0.056762695,-0.25836182,1.9023438,1.2685547,0.3798828,13.3039055,7.0923533,0.943781,-19.431746,-1.0849609,0.14605713,-0.11010742,0.55078125,1.1191406,0.26367188,5.850122,-9.908117,-53.3713,-22.409313,0.60705566,0.47229004,0.57037354,0.41015625,0.38867188,-0.43652344,11.783483,-24.140903,-123.97071,-22.71863,0.0,0.0,0.0,0.0,0.0,0.0,0.0,-10.032609,-123.33007,-8.616882,0.0,0.0,0.0,0.0,0.0,0.0,0.0,3.2168615,44.76859,3.3484824,
1.546874953899533,66,-0.06781006,-1.0535278,0.532959,0.20605469,1.4960938,-0.5839844,0.0,0.0,0.0,0.0,0.0,0.0,0.0,0.0,0.0,0.0,0.0,-0.3100735,-0.056121543,0.9492989,-0.7789917,0.24047852,0.51904297,0.29492188,0.6015625,0.390625,40.080196,-6.4194818,-1.16189,19.65343,-0.9216919,-0.0078125,-0.121032715,0.39257812,-3.2636719,1.1699219,15.906837,23.748535,-48.31382,30.396458,-1.2467041,-1.2957764,0.9191284,-0.484375,0.94433594,-1.4433594,8.733923,47.79046,-116.049034,34.264137,0.0,0.0,0.0,0.0,0.0,0.0,0.0,63.12156,-111.703255,46.35273,0.0,0.0,0.0,0.0,0.0,0.0,0.0,0.3100735,0.056121543,-0.9492989,-1.0516357,0.04095459,-0.40545654,2.5234375,0.9921875,0.5810547,14.055553,6.4194818,1.16189,-19.65343,-1.0349121,0.04888916,-0.04949951,0.81640625,1.3896484,0.20507812,5.8346553,-11.636969,-52.767593,-23.520655,0.10015869,0.6147461,0.8083496,0.40429688,1.0615234,-0.80078125,12.069782,-27.492077,-123.00486,-24.425503,0.0,0.0,0.0,0.0,0.0,0.0,0.0,-13.345242,-122.6118,-10.297874,0.0,0.0,0.0,0.0,0.0,0.0,0.0,3.476417,44.71657,3.7791128,
1.570312453201041,67,-0.107788086,-1.0774536,0.59143066,0.28125,1.2832031,-0.6230469,0.0,0.0,0.0,0.0,0.0,0.0,0.0,0.0,0.0,0.0,0.0,-0.27767316,-0.06304556,0.9589935,-1.1838989,0.045166016,0.6737671,0.2109375,0.3935547,0.31835938,39.984055,-5.7486954,-1.3052385,19.85414,-1.0997925,-0.033447266,0.12835693,0.9140625,-2.616211,1.1142578,12.91801,23.76028,-48.773235,31.073288,-1.7354126,-0.35968018,0.66223145,0.5703125,1.3759766,-1.4375,10.223103,51.58424,-115.05914,35.1487,0.0,0.0,0.0,0.0,0.0,0.0,0.0,67.444405,-110.576744,46.481224,0.0,0.0,0.0,0.0,0.0,0.0,0.0,0.27767316,0.06304556,-0.9589935,-1.0983276,0.4454956,-0.387146,2.258789,0.5029297,0.54296875,14.961623,5.7486954,1.3052385,-19.85414,-1.1037598,-0.1317749,-0.09350586,0.8378906,1.5429688,0.0126953125,5.249006,-13.452166,-52.200474,-24.082916,-0.061462402,0.6412964,0.7927246,0.59472656,1.6757812,-1.0380859,11.946063,-31.364489,-121.93233,-25.906,0.0,0.0,0.0,0.0,0.0,0.0,0.0,-17.23288,-122.051994,-11.752407,0.0,0.0,0.0,0.0,0.0,0.0,0.0,3.715622,44.683292,4.0133867,
1.5937499525025491,68,-0.13671875,-1.1466064,0.6154785,0.16699219,0.859375,-0.6064453,0.0,0.0,0.0,0.0,0.0,0.0,0.0,0.0,0.0,0.0,0.0,-0.25024506,-0.06538078,0.9663411,-1.3590698,-0.12512207,1.098877,1.2880859,0.15820312,-0.06640625,39.79438,-5.1808486,-1.3535848,20.006256,-1.0387573,0.19030762,0.41906738,1.1796875,-1.2861328,0.83691406,9.979691,23.831484,-49.145123,31.144543,-2.0,-0.18676758,0.3079834,1.0302734,0.7294922,-0.19921875,12.459702,54.683548,-114.01526,36.288204,0.0,0.0,0.0,0.0,0.0,0.0,0.0,70.93834,-109.51385,47.039246,0.0,0.0,0.0,0.0,0.0,0.0,0.0,0.25024506,0.06538078,-0.9663411,-1.0182495,0.58288574,-0.4138794,1.5615234,0.5625,0.39746094,15.412055,5.1808486,1.3535848,-20.006256,-1.1037598,-0.1317749,-0.09350586,0.8378906,1.5429688,0.0126953125,6.0966716,-14.818794,-51.840244,-24.410217,-0.25335693,0.62957764,0.8270874,0.81933594,2.368164,-1.4414062,9.789644,-32.731117,-121.5721,-26.233301,0.0,0.0,0.0,0.0,0.0,0.0,0.0,-18.714931,-122.45075,-11.988857,0.0,0.0,0.0,0.0,0.0,0.0,0.0,4.0293474,44.650726,4.0644274,
1.6171874518040572,69,-0.24468994,-1.1135864,0.58477783,-0.19433594,0.28125,-0.4951172,0.0,0.0,0.0,0.0,0.0,0.0,0.0,0.0,0.0,0.0,0.0,-0.23310426,-0.0647135,0.9705583,-1.3706055,-0.09893799,1.3224487,2.0644531,-0.7080078,-0.056640625,40.393597,-4.8259807,-1.3397702,20.093567,-0.80114746,0.032836914,0.5534668,0.37695312,0.54003906,0.13574219,9.241567,24.932457,-48.706924,31.05846,-2.0,0.39465332,0.04119873,0.39257812,0.16992188,1.1318359,13.870743,56.678993,-113.01748,37.253365,0.0,0.0,0.0,0.0,0.0,0.0,0.0,72.9747,-108.65428,47.996742,0.0,0.0,0.0,0.0,0.0,0.0,0.0,0.23310426,0.0647135,-0.9705583,-1.1033936,0.5081177,-0.30645752,0.90234375,0.65722656,0.12109375,16.437223,4.8259807,1.3397702,-20.093567,-1.2108154,-0.0053710938,-0.06982422,0.3095703,1.8417969,-0.123046875,2.77474,-16.068897,-51.49239,-24.750446,-0.24554443,0.60113525,0.82299805,1.2197266,3.0029297,-1.8847656,10.688132,-38.681698,-119.748215,-28.83404,0.0,0.0,0.0,0.0,0.0,0.0,0.0,-24.886896,-121.553375,-14.464006,0.0,0.0,0.0,0.0,0.0,0.0,0.0,3.9743729,44.66285,3.9325125,
1.6406249511055653,70,-0.20758057,-1.1663818,0.5465698,-0.15722656,-0.24121094,-0.38867188,0.0,0.0,0.0,0.0,0.0,0.0,0.0,0.0,0.0,0.0,0.0,-0.22750464,-0.057979353,0.97222424,-0.9298096,0.36499023,0.99835205,1.2158203,-0.41601562,0.18066406,40.66102,-4.710051,-1.2003523,20.128056,-0.8439331,-0.11828613,0.06097412,-0.48339844,2.3730469,-1.0800781,11.71043,25.698734,-48.139088,31.148148,-2.0,-0.15698242,-0.28607178,1.1083984,-0.15136719,2.2607422,12.536412,55.00254,-113.66884,36.956573,0.0,0.0,0.0,0.0,0.0,0.0,0.0,71.086815,-109.62583,48.135323,0.0,0.0,0.0,0.0,0.0,0.0,0.0,0.22750464,0.057979353,-0.97222424,-1.1934814,0.4390869,-0.15350342,0.3564453,0.69628906,-0.11816406,17.683205,4.710051,1.2003523,-20.128056,-1.2115479,-0.19024658,0.12573242,0.29296875,2.0898438,-0.27734375,1.2238133,-17.028683,-51.255768,-25.190748,-0.25543213,0.63183594,0.79956055,1.5966797,3.7714844,-2.3271484,9.919942,-42.341034,-118.44172,-30.831469,0.0,0.0,0.0,0.0,0.0,0.0,0.0,-28.930597,-121.35912,-16.282679,0.0,0.0,0.0,0.0,0.0,0.0,0.0,3.73383,44.71257,3.5402012,
1.6640624504070733,71,-0.007019043,-0.9938965,1.3469849,-0.7832031,-0.7001953,-0.3857422,0.0,0.0,0.0,0.0,0.0,0.0,0.0,0.0,0.0,0.0,0.0,-0.23172495,-0.04653928,0.9718504,-0.24847412,0.5429077,0.81134033,-1.4570312,-0.10253906,-0.3779297,41.158035,-4.797424,-0.9635074,20.12032,-1.2949219,-0.040405273,-1.9689941,-0.12988281,1.2744141,-1.3662109,16.51739,26.050993,-47.2549,32.226784,0.7363281,-1.5111084,1.232666,-1.4414062,1.5654297,2.524414,10.409417,51.29731,-114.565674,36.511734,0.0,0.0,0.0,0.0,0.0,0.0,0.0,67.03327,-111.38267,48.441925,0.0,0.0,0.0,0.0,0.0,0.0,0.0,0.23172495,0.04653928,-0.9718504,-1.4613037,0.2727661,0.049926758,-0.020507812,0.24316406,-0.39746094,18.661577,4.797424,0.9635074,-20.12032,-1.2931519,-0.44067383,0.38000488,0.4267578,2.5117188,-0.3935547,1.2274854,-17.440798,-51.21905,-25.740934,-0.2979126,0.73779297,0.81591797,1.9765625,4.982422,-2.9677734,8.832533,-45.837692,-116.97417,-33.276833,0.0,0.0,0.0,0.0,0.0,0.0,0.0,-33.03564,-121.35371,-18.541767,0.0,0.0,0.0,0.0,0.0,0.0,0.0,3.4840283,44.77423,2.9748373,
1.6874999497085814,72,-0.19500732,-1.19104,0.8432617,-0.4814453,-1.2412109,-0.55859375,0.0,0.0,0.0,0.0,0.0,0.0,0.0,0.0,0.0,0.0,0.0,-0.23737103,-0.04141486,0.9709091,-1.4716187,0.45111084,-0.27270508,-3.4472656,3.0673828,-0.765625,37.96921,-4.9143157,-0.85741603,20.10083,-2.0,0.019836426,0.13787842,0.001953125,2.1660156,-1.1650391,17.762587,25.58298,-47.565815,31.85556,-1.1258545,-2.0,-0.48864746,0.95410156,1.1083984,-2.4208984,10.511724,48.303642,-115.78702,35.88621,0.0,0.0,0.0,0.0,0.0,0.0,0.0,63.688717,-113.930115,48.531525,0.0,0.0,0.0,0.0,0.0,0.0,0.0,0.23737103,0.04141486,-0.9709091,-1.8037109,0.22363281,0.33563232,-0.83203125,-0.47851562,-0.5830078,20.855461,4.9143157,0.85741603,-20.10083,-1.659668,-0.6456909,0.8684082,0.23925781,3.0439453,-0.58691406,5.0004163,-16.949757,-51.428215,-26.230173,-0.27197266,0.74139404,0.7224121,2.1425781,6.807617,-3.75,8.772344,-48.91237,-115.215805,-36.01882,0.0,0.0,0.0,0.0,0.0,0.0,0.0,-37.344223,-121.33221,-20.89809,0.0,0.0,0.0,0.0,0.0,0.0,0.0,1.586081,44.929306,2.3042636,
1.7109374490100895,73,0.005065918,-0.9786377,0.62213135,0.5390625,-1.9423828,-0.5175781,0.0,0.0,0.0,0.0,0.0,0.0,0.0,0.0,0.0,0.0,0.0,-0.25865436,-0.008515583,0.9663357,-0.6605835,-0.3034668,-0.6729126,-2.1035156,2.6464844,-2.2578125,32.86418,-5.354947,-0.17629898,20.006144,0.1638794,-0.29144287,-0.43603516,0.6220703,2.1728516,-1.6494141,16.993124,22.232876,-49.0712,28.715992,-0.026916504,-0.78063965,1.1991577,0.5371094,4.3945312,-0.8339844,11.305331,40.88601,-118.61391,30.305763,0.0,0.0,0.0,0.0,0.0,0.0,0.0,57.134003,-117.7274,41.937134,0.0,0.0,0.0,0.0,0.0,0.0,0.0,0.25865436,0.008515583,-0.9663357,-1.6314087,-0.12475586,0.7574463,-1.4931641,-1.5458984,-0.73339844,19.488876,5.354947,0.17629898,-20.006144,-1.5447388,-1.1329956,1.1911621,1.1650391,3.5126953,-0.41601562,11.041255,-14.828017,-52.78023,-26.185593,-0.0769043,0.6057129,0.75213623,2.9091797,9.037109,-4.998047,11.546353,-50.87622,-113.875275,-38.614967,0.0,0.0,0.0,0.0,0.0,0.0,0.0,-41.343,-122.00789,-23.044641,0.0,0.0,0.0,0.0,0.0,0.0,0.0,1.5937068,44.981785,0.82297,
1.7343749483115976,74,0.3106079,-0.6358032,0.9192505,0.049804688,-1.1904297,-0.009765625,0.0,0.0,0.0,0.0,0.0,0.0,0.0,0.0,0.0,0.0,0.0,-0.28574362,0.018328767,0.9584418,-0.45495605,-0.9328613,-0.029418945,-1.1630859,1.1806641,-1.390625,30.7752,-5.915779,0.37946224,19.842716,-1.0481567,0.2298584,-0.692749,2.5839844,1.3291016,0.01171875,17.113096,20.490564,-49.221764,24.978725,-2.0,-0.15673828,1.999939,0.9863281,-0.21191406,2.8447266,10.771593,35.962917,-119.544815,25.172424,0.0,0.0,0.0,0.0,0.0,0.0,0.0,52.386253,-119.74113,36.58752,0.0,0.0,0.0,0.0,0.0,0.0,0.0,0.28574362,-0.018328767,-0.9584418,-1.7332153,-0.8654785,1.1474609,-1.5322266,-5.3183594,-1.6386719,14.808511,5.915779,-0.37946224,-19.842716,-1.6329346,-0.08691406,0.50860596,3.8515625,3.508789,-0.5283203,20.119518,-9.492168,-54.932106,-25.852573,-1.9116821,-1.9013672,1.0188599,1.296875,10.824219,-6.3554688,21.326956,-49.476845,-113.02137,-40.492428,0.0,0.0,0.0,0.0,0.0,0.0,0.0,-43.304935,-123.368,-24.521988,0.0,0.0,0.0,0.0,0.0,0.0,0.0,1.8912965,44.972683,-0.29617643,
1.7578124476131056,75,0.20465088,-0.4473877,0.95043945,-1.3515625,-1.125,0.0048828125,0.0,0.0,0.0,0.0,0.0,0.0,0.0,0.0,0.0,0.0,0.0,-0.2976024,0.032145035,0.95269424,-1.1651001,-0.25280762,-0.4360962,0.953125,1.1943359,-0.4111328,29.24953,-6.161292,0.6655019,19.723724,-1.3894043,0.21490479,-0.59606934,1.2851562,1.3017578,-0.5810547,17.806282,20.191776,-49.77576,22.325844,-0.009033203,-1.8478394,0.20349121,0.6455078,0.09472656,0.3388672,7.9173794,33.406677,-120.56613,22.57166,0.0,0.0,0.0,0.0,0.0,0.0,0.0,49.562943,-120.59129,34.361996,0.0,0.0,0.0,0.0,0.0,0.0,0.0,0.2976024,-0.032145035,-0.95269424,-1.4143066,-0.26397705,0.089660645,1.6210938,-2.4746094,-1.4912109,11.205336,6.161292,-0.6655019,-19.723724,-2.0,1.4262695,-0.6981201,1.8232422,2.680664,-0.16308594,29.741362,-3.1578894,-56.516094,-26.30658,-2.0,-1.8935547,0.3909912,-2.4189453,7.109375,-3.3291016,35.8951,-46.52107,-111.6158,-42.733543,0.0,0.0,0.0,0.0,0.0,0.0,0.0,-44.767403,-123.07171,-26.429447,0.0,0.0,0.0,0.0,0.0,0.0,0.0,1.300544,44.90505,-1.1088861,
1.7812499469146137,76,-0.144104,-0.6005249,0.8498535,-1.0478516,-0.81640625,-0.18066406,0.0,0.0,0.0,0.0,0.0,0.0,0.0,0.0,0.0,0.0,0.0,-0.2808599,0.042448882,0.9548215,-1.2640991,-0.030456543,-0.32318115,1.8193359,1.5996094,0.58203125,25.885557,-5.814671,0.8788234,19.767765,-1.0526123,-0.20117188,-0.3352661,-0.22753906,1.2890625,-1.3300781,18.102219,18.77257,-50.497574,22.193018,-0.13586426,0.24407959,1.170227,-0.049804688,-0.39746094,0.21875,5.659358,29.407,-121.71477,20.888224,0.0,0.0,0.0,0.0,0.0,0.0,0.0,45.554367,-121.79358,32.69061,0.0,0.0,0.0,0.0,0.0,0.0,0.0,0.2808599,-0.042448882,-0.9548215,-2.0,0.41015625,-0.45776367,3.006836,-4.123047,0.46679688,10.934899,5.814671,-0.8788234,-19.767765,-1.4611206,0.32714844,-1.3255005,-5.107422,2.7314453,-1.0898438,36.90782,-0.06460667,-57.158585,-26.64971,-1.354187,1.8647461,1.6844482,-2.875,3.6904297,-1.8925781,39.811237,-46.878185,-109.00241,-44.163574,0.0,0.0,0.0,0.0,0.0,0.0,0.0,-48.45218,-120.897385,-28.157982,0.0,0.0,0.0,0.0,0.0,0.0,0.0,0.26193258,44.786312,-1.9140356,
1.8046874462161218,77,-0.23693848,-0.90008545,0.713562,-0.82128906,-0.9316406,-0.36816406,0.0,0.0,0.0,0.0,0.0,0.0,0.0,0.0,0.0,0.0,0.0,-0.28030103,0.048378706,0.95720506,-0.8781128,0.14776611,-0.17150879,0.5761719,1.4853516,-0.6923828,22.077795,-5.803101,1.0015892,19.817112,-0.64019775,-0.15539551,-0.53900146,-0.16796875,1.0166016,-0.46875,18.401978,16.722532,-51.290897,21.424871,-0.45391846,-0.8399658,0.7036133,-0.22460938,-0.009765625,-0.078125,3.1016037,24.136063,-122.89531,19.239927,0.0,0.0,0.0,0.0,0.0,0.0,0.0,40.17172,-122.89344,31.193645,0.0,0.0,0.0,0.0,0.0,0.0,0.0,0.28030103,-0.048378706,-0.95720506,-1.4317627,0.83966064,-1.9025879,0.21289062,-2.336914,1.8222656,8.514238,5.803101,-1.0015892,-19.817112,-1.5682983,-0.5621338,-1.1115723,-4.548828,2.4697266,-0.33984375,45.989548,3.931676,-57.79049,-24.43538,-0.18664551,1.6906128,1.7367554,-0.22167969,-0.95410156,-0.48046875,32.64638,-46.55183,-105.49085,-43.495094,0.0,0.0,0.0,0.0,0.0,0.0,0.0,-48.446404,-117.48202,-27.59776,0.0,0.0,0.0,0.0,0.0,0.0,0.0,-0.9921062,44.852043,-2.5574164,
1.8281249455176298,78,0.09008789,-1.1532593,0.67510986,-1.2001953,-0.93066406,-0.21679688,0.0,0.0,0.0,0.0,0.0,0.0,0.0,0.0,0.0,0.0,0.0,-0.29461336,0.055583775,0.9538085,-0.86572266,-0.2774048,-0.11651611,-1.3115234,2.4013672,-1.0351562,18.344652,-6.09941,1.1507564,19.746792,-1.3222046,-0.3026123,-0.41625977,-0.45703125,0.7138672,-0.6230469,16.8643,13.849353,-52.17819,19.055077,-0.37384033,-0.73132324,0.70440674,-0.3388672,-0.103515625,-0.24902344,1.6375748,19.31813,-123.93323,16.29124,0.0,0.0,0.0,0.0,0.0,0.0,0.0,35.376392,-123.93273,28.214066,0.0,0.0,0.0,0.0,0.0,0.0,0.0,0.29461336,-0.055583775,-0.9538085,-1.430481,0.38671875,-0.6925049,-1.7626953,-3.5361328,0.059570312,6.8818502,6.09941,-1.1507564,-19.746792,-1.085022,-0.64642334,-0.9407959,-0.16015625,1.1308594,-0.44628906,52.591396,7.7558165,-58.070442,-22.321419,0.11010742,1.3955688,1.8364258,-0.8691406,-3.5058594,-0.2763672,26.789045,-44.61554,-103.254295,-42.371254,0.0,0.0,0.0,0.0,0.0,0.0,0.0,-45.82016,-115.67453,-26.737816,0.0,0.0,0.0,0.0,0.0,0.0,0.0,-2.2040453,44.81704,-3.2925284,
1.851562444819138,79,0.24487305,-1.1611938,0.63031006,0.0126953125,-0.9042969,0.36132812,0.0,0.0,0.0,0.0,0.0,0.0,0.0,0.0,0.0,0.0,0.0,-0.31312472,0.059164725,0.94807655,-1.029602,-0.49139404,-0.117492676,-1.0390625,2.0859375,0.07714844,15.227176,-6.482651,1.2248933,19.628122,-0.95928955,-0.15075684,-0.2705078,-0.24414062,0.81347656,-0.6201172,14.865579,10.409607,-53.17281,17.357649,-0.2932129,-0.5918579,0.7092285,-0.42578125,0.16699219,-0.24609375,0.8659236,14.17157,-124.9913,13.867258,0.0,0.0,0.0,0.0,0.0,0.0,0.0,30.159363,-125.04528,25.885567,0.0,0.0,0.0,0.0,0.0,0.0,0.0,0.31312472,-0.059164725,-0.94807655,-1.4873047,0.2288208,-0.27215576,-2.140625,-5.375,-0.5966797,7.404329,6.482651,-1.2248933,-19.628122,-0.84851074,-0.003112793,-1.0580444,2.9404297,-0.39648438,-0.34179688,59.36891,14.752398,-57.618294,-20.64376,0.6643677,0.91778564,1.3573608,-1.625,-5.6933594,-0.08691406,24.214369,-37.263992,-102.77925,-41.66169,0.0,0.0,0.0,0.0,0.0,0.0,0.0,-36.960403,-115.71544,-26.407429,0.0,0.0,0.0,0.0,0.0,0.0,0.0,-2.939715,44.75483,-3.763836,
1.874999944120646,80,0.152771,-0.92370605,0.510437,1.0556641,-0.41308594,0.9814453,0.0,0.0,0.0,0.0,0.0,0.0,0.0,0.0,0.0,0.0,0.0,-0.33803257,0.05700944,0.9394006,-0.84698486,-0.4196167,-0.07702637,0.23144531,2.5361328,-0.31640625,13.560026,-6.9983215,1.1802722,19.448503,-0.9144287,-0.19921875,-0.25128174,0.33789062,0.5253906,-0.18847656,11.250131,4.710659,-54.090637,13.882681,-0.31097412,-0.70318604,0.6102905,-0.51464844,0.34179688,-0.33789062,1.9345176,6.5727987,-125.95323,9.845837,0.0,0.0,0.0,0.0,0.0,0.0,0.0,22.602287,-126.13975,21.808159,0.0,0.0,0.0,0.0,0.0,0.0,0.0,0.33803257,-0.05700944,-0.9394006,-1.3633423,-0.0107421875,-0.4650879,-2.1953125,-3.8808594,-0.3671875,12.168975,6.9983215,-1.1802722,-19.448503,-0.75341797,0.30297852,-1.0668335,3.2597656,-2.0527344,-0.29785156,63.31701,21.290962,-56.362244,-18.772497,0.6026001,0.8353882,0.6305542,-1.6425781,-7.326172,0.60253906,22.378801,-28.509266,-103.7917,-40.16,0.0,0.0,0.0,0.0,0.0,0.0,0.0,-25.937729,-116.99144,-25.350426,0.0,0.0,0.0,0.0,0.0,0.0,0.0,-2.318603,44.799316,-3.5530605,
1.898437443422154,81,0.042663574,-0.5380249,0.38928223,1.1513672,-0.06738281,1.0205078,0.0,0.0,0.0,0.0,0.0,0.0,0.0,0.0,0.0,0.0,0.0,-0.3568839,0.047751203,0.93302006,-0.9262085,0.066101074,-0.006652832,0.8466797,2.6835938,-0.31835938,12.224532,-7.3886027,0.98859787,19.316408,-1.0740967,0.17181396,-0.045166016,0.39648438,0.5097656,-0.26367188,8.503483,0.3656807,-55.07091,12.459796,-0.21954346,-0.5834961,0.74005127,-0.3955078,0.5136719,-0.37402344,2.7086275,1.1634934,-126.97366,8.410261,0.0,0.0,0.0,0.0,0.0,0.0,0.0,17.20019,-127.28631,20.353813,0.0,0.0,0.0,0.0,0.0,0.0,0.0,0.3568839,-0.047751203,-0.93302006,-1.0974121,0.0770874,-0.5338135,-0.7080078,-3.5439453,0.25976562,17.811644,7.3886027,-0.98859787,-19.316408,-0.43115234,0.38275146,-1.0490723,1.6074219,-3.2382812,0.33789062,64.21653,26.108267,-54.775352,-16.815357,0.78186035,0.49865723,0.09814453,-1.6181641,-6.904297,0.69921875,20.167032,-20.106615,-105.91528,-37.694336,0.0,0.0,0.0,0.0,0.0,0.0,0.0,-14.91091,-118.33623,-23.011204,0.0,0.0,0.0,0.0,0.0,0.0,0.0,-1.0805371,44.909122,-2.7117214,
1.921874942723662,82,0.027954102,-0.4202881,0.37072754,1.0751953,-0.064453125,0.8183594,0.0,0.0,0.0,0.0,0.0,0.0,0.0,0.0,0.0,0.0,0.0,-0.36830556,0.03923229,0.9289499,-0.83551025,0.37713623,0.09185791,0.23632812,2.6298828,-0.15136719,9.722817,-7.625068,0.81223005,19.232143,-0.8706665,0.23626709,0.08538818,-0.3017578,0.51171875,-0.484375,5.6122375,-3.3198142,-55.679672,12.997599,-0.19360352,-0.58117676,0.70666504,-0.2578125,0.20214844,0.018554688,2.1437497,-3.0193808,-127.60234,9.380801,0.0,0.0,0.0,0.0,0.0,0.0,0.0,13.013136,-127.94356,21.330238,0.0,0.0,0.0,0.0,0.0,0.0,0.0,0.36830556,-0.03923229,-0.9289499,-0.717041,0.16949463,-0.5905762,0.19726562,-3.3144531,0.40625,22.043772,7.625068,-0.81223005,-19.232143,-0.14813232,0.034851074,-0.93029785,0.31835938,-4.169922,0.53222656,63.185036,28.9532,-53.418,-15.4983635,0.4597168,0.97888184,0.17767334,-0.2841797,-6.1210938,1.9003906,18.45855,-14.301912,-108.22638,-33.104225,0.0,0.0,0.0,0.0,0.0,0.0,0.0,-6.612608,-118.807106,-18.044506,0.0,0.0,0.0,0.0,0.0,0.0,0.0,-0.025660276,44.962547,-1.9090743,
1.9453124420251702,83,0.028564453,-0.3381958,0.3256836,1.0751953,-0.25683594,0.7246094,0.0,0.0,0.0,0.0,0.0,0.0,0.0,0.0,0.0,0.0,0.0,-0.3800052,0.035230357,0.9244846,-0.848938,0.19793701,0.36694336,-0.8613281,2.5078125,-0.4453125,7.750182,-7.867287,0.72937757,19.139698,-0.91522217,0.06982422,0.2746582,-0.32128906,0.5683594,-0.56152344,2.8900182,-6.5314837,-55.96194,13.541371,-0.38476562,-0.6190796,0.6901245,-0.33398438,0.18359375,0.056640625,1.2010561,-6.3764114,-127.86339,9.787588,0.0,0.0,0.0,0.0,0.0,0.0,0.0,9.606546,-128.32265,21.800272,0.0,0.0,0.0,0.0,0.0,0.0,0.0,0.3800052,-0.035230357,-0.9244846,-0.41656494,0.13531494,-0.63134766,-0.06542969,-2.6210938,0.42871094,26.77128,7.867287,-0.72937757,-19.139698,0.036376953,-0.1081543,-0.7732544,0.3359375,-5.0097656,0.6308594,60.59134,32.10829,-52.083755,-14.197303,0.105163574,1.0689087,0.39172363,0.28515625,-5.5878906,3.125,16.530117,-5.66251,-111.520004,-29.292297,0.0,0.0,0.0,0.0,0.0,0.0,0.0,3.8719654,-120.39229,-14.108232,0.0,0.0,0.0,0.0,0.0,0.0,0.0,1.0533823,44.976562,-1.2809837,
1.9687499413266782,84,-0.030151367,-0.24835205,0.3717041,0.5058594,-0.5996094,0.5800781,0.0,0.0,0.0,0.0,0.0,0.0,0.0,0.0,0.0,0.0,0.0,-0.3958424,0.03599085,0.9178772,-0.99505615,-0.21044922,0.338562,-0.97265625,2.584961,-0.4091797,7.3763185,-8.195166,0.7451222,19.002903,-0.9083252,0.012634277,0.43115234,0.08496094,0.8408203,-0.5957031,2.2545514,-9.209316,-55.899094,12.995014,-0.21716309,-0.6682739,0.7347412,9.765625E-4,0.044921875,0.20605469,1.9242727,-9.047884,-127.75928,8.75835,0.0,0.0,0.0,0.0,0.0,0.0,0.0,6.8524475,-128.26703,20.877869,0.0,0.0,0.0,0.0,0.0,0.0,0.0,0.3958424,-0.03599085,-0.9178772,-0.10620117,0.09625244,-0.70788574,-0.87597656,-1.7949219,0.4716797,30.76843,8.195166,-0.7451222,-19.002903,-0.05267334,-0.023742676,-0.7510376,0.48828125,-5.8085938,0.46191406,56.050995,34.74662,-50.797043,-12.705328,-0.19897461,1.3482666,0.57928467,0.5683594,-5.2070312,3.9609375,15.959635,4.6879883,-115.01813,-25.325909,0.0,0.0,0.0,0.0,0.0,0.0,0.0,15.5615425,-121.56439,-9.862235,0.0,0.0,0.0,0.0,0.0,0.0,0.0,1.9355544,44.959694,-0.9281888,
1.9921874406281863,85,-0.05218506,-0.3453369,0.33666992,-0.8779297,-1.0917969,0.35058594,0.0,0.0,0.0,0.0,0.0,0.0,0.0,0.0,0.0,0.0,0.0,-0.41603994,0.036036532,0.9088384,-1.0905762,-0.37823486,0.41186523,-0.0126953125,2.0214844,-0.18066406,8.546034,-8.6133175,0.74606794,18.815771,-0.86468506,-0.111694336,0.5393677,0.14160156,1.1611328,-0.80859375,4.367581,-12.708052,-55.697376,11.948263,-0.31134033,-0.81152344,0.6373291,0.5986328,-0.15527344,0.4873047,3.0350587,-12.682679,-127.51192,7.117468,0.0,0.0,0.0,0.0,0.0,0.0,0.0,3.0185442,-128.02228,19.49041,0.0,0.0,0.0,0.0,0.0,0.0,0.0,0.41603994,-0.036036532,-0.9088384,0.08312988,0.0030517578,-0.7157593,-1.8925781,-1.1308594,0.38476562,32.233047,8.6133175,-0.74606794,-18.815771,-0.13928223,0.16595459,-0.93414307,-1.0673828,-6.1914062,0.90234375,50.720505,36.595524,-49.807556,-11.064934,-0.42614746,1.0272217,0.5921631,0.9658203,-4.2695312,4.541992,16.079401,14.244801,-117.676765,-19.653524,0.0,0.0,0.0,0.0,0.0,0.0,0.0,25.821108,-121.5729,-3.809414,0.0,0.0,0.0,0.0,0.0,0.0,0.0,1.5719203,44.96841,-1.0634716,
2.0156249399296944,86,-0.050354004,-0.5860596,0.4300537,-1.3134766,-1.2802734,0.095703125,0.0,0.0,0.0,0.0,0.0,0.0,0.0,0.0,0.0,0.0,0.0,-0.43922883,0.036903974,0.8980636,-0.8555908,-0.31188965,0.22747803,0.30859375,1.9042969,-0.21679688,11.267291,-9.093399,0.76402664,18.592701,-0.88635254,-0.25360107,0.32965088,0.33496094,1.3535156,-0.88378906,5.2240853,-14.833548,-55.395634,10.975654,-0.30523682,-0.7484741,0.67108154,1.046875,-0.33398438,0.5986328,4.9458942,-15.409181,-127.09485,4.7645416,0.0,0.0,0.0,0.0,0.0,0.0,0.0,0.11362648,-127.54559,17.360384,0.0,0.0,0.0,0.0,0.0,0.0,0.0,0.43922883,-0.036903974,-0.8980636,0.03540039,-0.11602783,-0.73883057,-2.2109375,-0.27734375,-0.01953125,31.543268,9.093399,-0.76402664,-18.592701,-0.3013916,-0.3057251,-0.89453125,-2.578125,-6.6679688,0.6533203,46.088364,37.76838,-49.235615,-9.723287,-0.6092529,1.3702393,1.1846313,1.3115234,-3.0605469,4.569336,16.96424,20.977798,-119.105545,-12.660157,0.0,0.0,0.0,0.0,0.0,0.0,0.0,32.628193,-120.32092,3.557145,0.0,0.0,0.0,0.0,0.0,0.0,0.0,0.2882012,44.98472,-1.7075949,
2.0390624392312025,87,0.04815674,-0.89782715,0.43182373,-1.1621094,-1.2597656,-0.12695312,0.0,0.0,0.0,0.0,0.0,0.0,0.0,0.0,0.0,0.0,0.0,-0.47097892,0.03898323,0.8804666,-0.8273926,0.022277832,0.021362305,-0.4091797,2.2167969,-0.2939453,15.47692,-9.750724,0.8070737,18.228386,-0.8811035,-0.16033936,0.12878418,0.43066406,1.5625,-0.99902344,6.301234,-18.096268,-54.94784,9.775145,-0.3607788,-0.6755371,0.7460327,1.1787109,-0.3544922,0.6357422,6.7263074,-20.311142,-126.477936,1.8755417,0.0,0.0,0.0,0.0,0.0,0.0,0.0,-4.9560204,-126.83051,14.684394,0.0,0.0,0.0,0.0,0.0,0.0,0.0,0.47097892,-0.03898323,-0.8804666,-0.23217773,-0.27331543,-0.39404297,-1.8125,0.15136719,-0.37304688,29.651821,9.750724,-0.8070737,-18.228386,-0.42077637,-0.6456909,-0.7095337,-0.69921875,-6.9677734,0.0625,40.45317,38.495197,-49.179325,-9.06969,-1.0378418,1.8822632,1.9689941,1.046875,-3.6386719,5.290039,21.068634,28.150105,-120.25017,-8.466628,0.0,0.0,0.0,0.0,0.0,0.0,0.0,39.416058,-118.77854,7.9990244,0.0,0.0,0.0,0.0,0.0,0.0,0.0,-1.1542432,44.87731,-2.6043997,
2.0624999385327105,88,0.13305664,-1.2009277,0.46289062,-0.17773438,-1.1884766,-0.17285156,0.0,0.0,0.0,0.0,0.0,0.0,0.0,0.0,0.0,0.0,0.0,-0.4936306,0.04784707,0.8682078,-0.8577881,0.017700195,-0.100097656,-1.5126953,2.4765625,-0.5371094,20.026606,-10.219683,0.99058264,17.974592,-0.94384766,-0.051452637,-0.091674805,0.061523438,1.7558594,-0.98828125,7.352019,-21.655186,-54.044277,8.4911785,-0.35131836,-0.5363159,0.8076782,0.9765625,-0.140625,0.6191406,8.820492,-26.468431,-125.29973,-0.84529495,0.0,0.0,0.0,0.0,0.0,0.0,0.0,-11.209027,-125.59164,12.080421,0.0,0.0,0.0,0.0,0.0,0.0,0.0,0.4936306,-0.04784707,-0.8682078,-0.60961914,-0.39935303,0.031799316,-1.2480469,-0.7265625,-0.3779297,29.046162,10.219683,-0.99058264,-17.974592,-0.85736084,-0.38208008,-0.8869629,1.265625,-6.6953125,0.23535156,33.8055,39.49678,-49.021908,-8.672638,-1.4483032,1.0109863,1.7149048,0.97558594,-3.90625,4.8984375,26.351637,38.011578,-120.96878,-5.9953823,0.0,0.0,0.0,0.0,0.0,0.0,0.0,48.59562,-116.65808,10.42683,0.0,0.0,0.0,0.0,0.0,0.0,0.0,-1.95215,44.80917,-3.57936,
2.0859374378342186,89,0.12109375,-1.046814,0.45751953,1.5449219,-1.1621094,0.17871094,0.0,0.0,0.0,0.0,0.0,0.0,0.0,0.0,0.0,0.0,0.0,-0.51432025,0.067866996,0.8551216,-0.92285156,-0.020812988,-0.16748047,-1.8632812,2.2294922,-0.40527344,22.378881,-10.648025,1.4050572,17.703669,-0.98065186,0.0256958,-0.17224121,-0.1328125,1.8232422,-0.8779297,7.847954,-24.890717,-52.777294,7.1870947,-0.3310547,-0.31365967,0.8786621,0.32910156,0.34765625,0.45507812,11.049598,-32.797962,-123.594406,-3.2421484,0.0,0.0,0.0,0.0,0.0,0.0,0.0,-17.561848,-123.91167,9.708804,0.0,0.0,0.0,0.0,0.0,0.0,0.0,0.51432025,-0.067866996,-0.8551216,-1.0084839,-0.31726074,0.2850952,-0.3828125,-1.1308594,0.10058594,31.609064,10.648025,-1.4050572,-17.703669,-1.1435547,0.05517578,-0.83569336,2.8154297,-6.314453,0.36914062,26.227427,40.875988,-48.5576,-7.6774406,-1.9772339,0.71539307,1.1590576,2.0927734,-3.055664,3.1503906,27.691044,50.516685,-119.77931,-3.0381947,0.0,0.0,0.0,0.0,0.0,0.0,0.0,60.555176,-113.03352,12.89782,0.0,0.0,0.0,0.0,0.0,0.0,0.0,-0.8918256,44.81283,-4.092981,
2.1093749371357267,90,0.012756348,-0.90948486,0.5171509,1.1484375,-1.0283203,0.57128906,0.0,0.0,0.0,0.0,0.0,0.0,0.0,0.0,0.0,0.0,0.0,-0.55569315,0.07925512,0.82660013,-1.2749634,-0.09661865,-0.0947876,-1.5380859,1.4609375,-0.026367188,23.155985,-11.504572,1.6408265,17.113186,-1.1630859,0.20318604,-0.16711426,-0.3076172,2.0029297,-0.84472656,7.534525,-27.843885,-51.840473,6.053278,-0.58166504,-1.2168579,0.7279053,-0.92871094,0.83984375,0.6484375,12.363843,-38.902115,-122.1111,-5.1473913,0.0,0.0,0.0,0.0,0.0,0.0,0.0,-23.673525,-122.814476,7.795412,0.0,0.0,0.0,0.0,0.0,0.0,0.0,0.55569315,-0.07925512,-0.82660013,-1.3360596,0.44152832,0.58392334,1.7480469,-0.34570312,0.671875,33.678204,11.504572,-1.6408265,-17.113186,-1.199585,0.31585693,-0.1716919,2.2871094,-5.290039,0.3076172,18.779718,42.07823,-48.58603,-6.6062965,-2.0,1.1021729,0.94970703,1.640625,-0.73046875,1.9716797,28.428019,61.57968,-117.651,-0.5292587,0.0,0.0,0.0,0.0,0.0,0.0,0.0,71.127045,-109.365074,14.975552,0.0,0.0,0.0,0.0,0.0,0.0,0.0,0.38722116,44.779797,-4.03321,
2.1328124364372347,91,-0.029296875,-1.1027832,0.6766968,0.0126953125,-0.98339844,0.6376953,0.0,0.0,0.0,0.0,0.0,0.0,0.0,0.0,0.0,0.0,0.0,-0.5861585,0.078928545,0.8061473,-1.291626,-0.303833,0.00970459,-1.4570312,1.1376953,-0.39257812,24.262342,-12.135298,1.6340656,16.689747,-1.3215332,-0.17437744,0.032958984,-0.81347656,2.3095703,-1.1992188,6.183803,-30.015577,-51.24723,5.1503716,-0.40454102,-0.6956177,1.0114136,-0.77734375,2.2792969,1.0253906,13.128916,-44.63356,-120.627014,-7.4555225,0.0,0.0,0.0,0.0,0.0,0.0,0.0,-29.455956,-122.21451,5.4669123,0.0,0.0,0.0,0.0,0.0,0.0,0.0,0.5861585,-0.078928545,-0.8061473,-1.4869385,0.64697266,1.333252,2.7460938,-1.3564453,0.4970703,35.11263,12.135298,-1.6340656,-16.689747,-1.1003418,0.36065674,0.24053955,1.7255859,-3.2167969,-0.16015625,14.4070835,43.475456,-48.01062,-5.867075,-2.0,1.453125,0.7735596,-1.7802734,-1.1171875,2.0957031,30.001408,69.933784,-114.70301,0.39385843,0.0,0.0,0.0,0.0,0.0,0.0,0.0,78.82484,-105.8055,15.949636,0.0,0.0,0.0,0.0,0.0,0.0,0.0,0.7102264,44.820374,-3.8718753,
2.156249935738743,92,0.16992188,-1.3143921,0.70251465,-0.4609375,-0.94140625,0.5136719,0.0,0.0,0.0,0.0,0.0,0.0,0.0,0.0,0.0,0.0,0.0,-0.6069579,0.07548716,0.7912764,-1.416626,-0.4869995,-0.13513184,-1.3886719,1.0449219,-0.81640625,26.510706,-12.56591,1.5628182,16.381874,-1.1871338,0.17901611,0.028686523,-0.6201172,2.6044922,-0.7050781,4.20859,-31.470724,-50.698452,3.6940022,-0.30981445,-0.6187134,0.9019165,-1.0488281,3.6074219,1.5322266,12.649224,-50.144142,-118.93701,-9.790589,0.0,0.0,0.0,0.0,0.0,0.0,0.0,-35.021027,-122.023315,2.9285984,0.0,0.0,0.0,0.0,0.0,0.0,0.0,0.6069579,-0.07548716,-0.7912764,-1.6362915,0.17810059,1.6989136,-0.6503906,-0.15136719,1.3876953,34.90347,12.56591,-1.5628182,-16.381874,-0.19439697,0.070373535,0.58428955,-0.7705078,-0.022460938,-0.040039062,13.157588,43.932144,-47.594074,-4.261938,-2.0,-1.5543213,-1.973999,-0.33789062,-3.90625,-0.7314453,27.456482,72.97447,-113.140976,2.4398174,0.0,0.0,0.0,0.0,0.0,0.0,0.0,82.02405,-103.55838,17.490297,0.0,0.0,0.0,0.0,0.0,0.0,0.0,0.26807535,44.8196,-4.070125,
2.179687435040251,93,0.44262695,-1.401062,0.42132568,-0.32617188,-0.44335938,0.84765625,0.0,0.0,0.0,0.0,0.0,0.0,0.0,0.0,0.0,0.0,0.0,-0.6245544,0.0664726,0.77839684,-1.3372192,-0.0368042,0.56518555,-0.5546875,0.08105469,-0.50878906,27.981892,-12.930212,1.3761889,16.115227,-1.3640137,0.22888184,0.13659668,-0.15722656,3.046875,-0.81640625,1.762142,-32.213882,-50.503098,2.46908,-0.3466797,-0.5251465,0.88842773,-1.6953125,5.091797,2.171875,11.183734,-55.48535,-117.10272,-12.009303,0.0,0.0,0.0,0.0,0.0,0.0,0.0,-40.62172,-122.36857,0.28936386,0.0,0.0,0.0,0.0,0.0,0.0,0.0,0.6245544,-0.0664726,-0.77839684,-1.1697998,-0.042419434,0.79907227,-0.4736328,0.3203125,-0.33984375,34.30382,12.930212,-1.3761889,-16.115227,-0.90270996,0.28900146,-0.29315186,-1.4589844,2.4863281,0.77441406,15.33412,44.08153,-47.318703,-3.0988817,-2.0,0.32989502,-1.5300293,-0.56640625,0.76171875,-3.0771484,23.89162,70.10562,-114.012794,4.369519,0.0,0.0,0.0,0.0,0.0,0.0,0.0,80.18315,-104.34471,18.691761,0.0,0.0,0.0,0.0,0.0,0.0,0.0,-0.25136203,44.827267,-4.029788,
2.203124934341759,94,0.38763428,-1.1155396,1.3953247,-1.2148438,0.29589844,0.8251953,0.0,0.0,0.0,0.0,0.0,0.0,0.0,0.0,0.0,0.0,0.0,-0.63315415,0.048533514,0.77277124,-1.3337402,0.030334473,0.7597656,-0.60839844,-0.62890625,0.016601562,27.608784,-13.108255,1.0047942,15.998762,-1.4341431,0.7227783,0.3649292,-0.44921875,3.4814453,-0.6933594,4.478684,-31.97481,-50.982876,2.1855059,-0.31640625,-0.7574463,0.862854,-2.1679688,6.8984375,3.2314453,10.415861,-60.38669,-115.38434,-13.012468,0.0,0.0,0.0,0.0,0.0,0.0,0.0,-46.137608,-123.69511,-1.6885586,0.0,0.0,0.0,0.0,0.0,0.0,0.0,0.63315415,-0.048533514,-0.77277124,0.11151123,0.13446045,0.6484375,0.8251953,-1.765625,-0.38964844,35.170086,13.108255,-1.0047942,-15.998762,-1.4231567,-0.7491455,1.2804565,0.11230469,2.1054688,0.6044922,20.047646,45.404404,-46.31882,-3.6218882,1.3607788,0.99890137,1.9435425,-0.8046875,8.180664,-2.0166016,24.644753,66.10324,-114.80585,4.6366224,0.0,0.0,0.0,0.0,0.0,0.0,0.0,76.54731,-107.26975,19.947844,0.0,0.0,0.0,0.0,0.0,0.0,0.0,-0.68142796,44.87732,-3.3768115,
2.226562433643267,95,0.39074707,-0.97454834,1.0097656,-0.64453125,0.7705078,1.3388672,0.0,0.0,0.0,0.0,0.0,0.0,0.0,0.0,0.0,0.0,0.0,-0.6338,0.004954051,0.7739939,-2.0,-0.012084961,1.4107666,-0.36035156,-2.0654297,0.4404297,28.043102,-13.121626,0.10256423,16.024073,-2.0,1.0211182,0.87976074,-0.9160156,3.7822266,-0.5517578,10.378923,-30.83364,-52.524094,3.1203594,-0.24914551,-0.8865967,0.60961914,-3.1855469,9.614258,4.623047,14.773275,-64.58255,-114.1747,-12.57654,0.0,0.0,0.0,0.0,0.0,0.0,0.0,-51.916286,-126.21458,-2.8544044,0.0,0.0,0.0,0.0,0.0,0.0,0.0,0.6338,-0.004954051,-0.7739939,-1.5778198,0.61553955,-0.60601807,-2.1738281,7.2060547,2.944336,29.481544,13.121626,-0.10256423,-16.024073,-1.4680176,0.6420288,-0.4033203,-2.0576172,2.5185547,0.19824219,20.017347,42.831955,-47.033043,-3.1479912,-2.0,1.5598755,-1.4333496,-3.2666016,2.9003906,-0.9121094,23.739824,60.091103,-116.49453,4.8754177,0.0,0.0,0.0,0.0,0.0,0.0,0.0,71.26575,-111.80383,20.792126,0.0,0.0,0.0,0.0,0.0,0.0,0.0,-3.170394,44.813435,-2.8829737,
2.249999932944775,96,0.07318115,-0.8052368,1.0134888,-0.09277344,1.8466797,1.5800781,0.0,0.0,0.0,0.0,0.0,0.0,0.0,0.0,0.0,0.0,0.0,-0.62425005,-0.04361081,0.7804384,-1.1347046,1.0201416,0.355896,0.59765625,-2.4052734,1.4238281,24.085026,-12.92391,-0.902879,16.157494,-1.7365112,1.4591675,0.5840454,-3.0478516,3.5292969,-1.3662109,18.758171,-27.903963,-54.897434,5.667547,-0.6132202,-1.2557373,1.2991943,-3.9707031,12.092773,6.5585938,26.860056,-66.91622,-113.105415,-10.947062,0.0,0.0,0.0,0.0,0.0,0.0,0.0,-57.478844,-129.39099,-4.1423388,0.0,0.0,0.0,0.0,0.0,0.0,0.0,0.62425005,0.04361081,-0.7804384,-0.90631104,0.78948975,-0.5946045,-3.758789,0.10449219,0.3779297,27.022858,12.92391,0.902879,-16.157494,0.057617188,0.18060303,-1.1393433,-5.845703,2.413086,0.6748047,21.390812,39.593918,-47.205322,-1.1824245,1.4220581,1.5634155,1.6584473,-2.2148438,-1.0839844,-1.9648438,18.913958,51.53977,-117.6759,7.6751356,0.0,0.0,0.0,0.0,0.0,0.0,0.0,62.94501,-114.67139,23.832653,0.0,0.0,0.0,0.0,0.0,0.0,0.0,-4.3644724,44.79219,-0.98803234,
2.273437432246283,97,-0.17272949,-0.5475464,1.0767212,-0.30273438,1.4257812,1.2109375,0.0,0.0,0.0,0.0,0.0,0.0,0.0,0.0,0.0,0.0,0.0,-0.6078918,-0.08967581,0.78928524,-1.5359497,0.41088867,0.33428955,-2.6933594,-1.9199219,1.4726562,21.387291,-12.585244,-1.8565673,16.34065,-1.6020508,-0.44873047,-0.6828003,-6.5341797,2.9296875,-1.4365234,25.431545,-26.0745,-56.71765,8.732824,-2.0,-2.0,1.576294,1.1357422,8.717773,5.6914062,42.730976,-69.00325,-111.589035,-9.51008,0.0,0.0,0.0,0.0,0.0,0.0,0.0,-63.689896,-130.55923,-6.020185,0.0,0.0,0.0,0.0,0.0,0.0,0.0,0.6078918,0.08967581,-0.78928524,-0.36657715,0.3788452,-1.0250854,-5.921875,2.9023438,-0.10546875,26.092031,12.585244,1.8565673,-16.34065,-1.3300781,-0.6675415,-1.1547241,-5.435547,2.1728516,-0.55078125,23.125412,37.19422,-47.185234,-0.8627529,-1.7241211,1.1051025,1.2764893,-1.9716797,0.060546875,-0.30371094,11.480085,44.247803,-118.369064,7.543414,0.0,0.0,0.0,0.0,0.0,0.0,0.0,55.836025,-116.12307,23.671352,0.0,0.0,0.0,0.0,0.0,0.0,0.0,-5.239277,44.69415,1.0428042,
2.296874931547791,98,-0.14483643,-0.62164307,0.97094727,-1.0810547,0.640625,1.0839844,0.0,0.0,0.0,0.0,0.0,0.0,0.0,0.0,0.0,0.0,0.0,-0.5995162,-0.1271262,0.7904785,-2.0,-0.11273193,-0.5026245,-5.921875,-1.9785156,0.23535156,20.713112,-12.411846,-2.6319065,16.365356,-1.9743042,-1.4586792,-1.2540894,-0.8535156,2.6748047,-0.8808594,30.69566,-24.681086,-58.061836,11.181061,-1.3762207,-1.9823608,-1.9532471,-2.9482422,-0.73828125,0.8339844,48.568024,-70.0732,-110.26997,-8.844082,0.0,0.0,0.0,0.0,0.0,0.0,0.0,-66.68959,-129.82356,-6.3358746,0.0,0.0,0.0,0.0,0.0,0.0,0.0,0.5995162,0.1271262,-0.7904785,-1.0717163,-0.87091064,-1.1743164,-2.9267578,1.0947266,0.17382812,23.558632,12.411846,2.6319065,-16.365356,-1.0801392,-0.9055786,-0.99591064,-1.8916016,1.8896484,0.5078125,23.147871,34.191074,-47.841484,-1.4342546,-0.5032959,1.0963745,0.8868408,-0.53222656,-0.26367188,-0.32226562,6.3885016,37.500893,-119.44951,5.4947677,0.0,0.0,0.0,0.0,0.0,0.0,0.0,49.146004,-117.338806,21.593311,0.0,0.0,0.0,0.0,0.0,0.0,0.0,-6.3815866,44.494915,2.3158183,
2.3203124308492993,99,0.12207031,-1.2056885,0.7852173,-1.0634766,0.25683594,0.74902344,0.0,0.0,0.0,0.0,0.0,0.0,0.0,0.0,0.0,0.0,0.0,-0.5979296,-0.15849505,0.78605855,-1.8043213,-0.22259521,-1.0251465,-2.7714844,-3.428711,-0.9296875,19.206825,-12.378997,-3.2813392,16.27385,-1.6608276,0.19952393,-0.9008179,2.0986328,1.3085938,-0.71972656,37.562996,-21.310051,-59.462852,12.579452,0.90582275,-0.96606445,1.3883057,-2.3964844,-4.6679688,0.67285156,39.87936,-68.97853,-108.86133,-9.210723,0.0,0.0,0.0,0.0,0.0,0.0,0.0,-65.893814,-128.12933,-4.820545,0.0,0.0,0.0,0.0,0.0,0.0,0.0,0.5979296,0.15849505,-0.78605855,-1.4373779,-0.79455566,-0.71813965,1.0351562,2.4423828,0.61035156,20.333601,12.378997,3.2813392,-16.27385,-1.2557373,-0.4298706,-0.6161499,1.2841797,1.7373047,0.74121094,22.51467,31.931877,-48.50124,-2.634367,-0.1762085,0.4185791,0.9026489,0.203125,-0.2841797,-0.0703125,8.544793,32.04971,-120.187454,4.3055587,0.0,0.0,0.0,0.0,0.0,0.0,0.0,43.385513,-117.99703,20.571417,0.0,0.0,0.0,0.0,0.0,0.0,0.0,-7.9656987,44.209366,2.8547993,
2.3437499301508073,100,0.17163086,-1.2081909,0.64172363,0.9238281,0.4814453,0.1953125,0.0,0.0,0.0,0.0,0.0,0.0,0.0,0.0,0.0,0.0,0.0,-0.5928798,-0.1707643,0.7873149,-1.7455444,-0.71173096,-0.54473877,0.9033203,-3.4833984,-0.3935547,15.556464,-12.274448,-3.5353503,16.299858,-1.2459106,0.093322754,-0.95129395,-0.375,-0.5058594,0.30664062,42.447983,-17.229729,-60.309,14.80876,0.17260742,-2.0,1.1379395,-1.3662109,-4.3710938,0.828125,32.98062,-64.97835,-109.443436,-7.3643436,0.0,0.0,0.0,0.0,0.0,0.0,0.0,-62.24904,-128.15013,-0.83359814,0.0,0.0,0.0,0.0,0.0,0.0,0.0,0.5928798,0.1707643,-0.7873149,-0.6230469,0.10882568,-0.1184082,2.5751953,1.0214844,1.8076172,19.061575,12.274448,3.5353503,-16.299858,-0.7753296,-0.18981934,-0.5570679,1.4345703,1.5292969,0.7998047,21.974257,29.285622,-49.303265,-3.4632072,-0.26446533,0.4642334,0.8477783,0.6279297,-0.28320312,-0.037109375,12.236075,26.201572,-120.78815,3.5472283,0.0,0.0,0.0,0.0,0.0,0.0,0.0,37.607784,-118.56818,19.811161,0.0,0.0,0.0,0.0,0.0,0.0,0.0,-8.021816,44.150078,3.535161,
2.3671874294523154,101,-0.029907227,-1.0629272,0.5090332,1.4345703,0.44726562,-0.6953125,0.0,0.0,0.0,0.0,0.0,0.0,0.0,0.0,0.0,0.0,0.0,-0.58484596,-0.15903871,0.7956973,-1.4559937,-0.3381958,-0.36297607,1.0283203,-4.2841797,-0.6425781,10.51032,-12.108123,-3.2925944,16.4734,-0.72631836,-0.3805542,-0.95391846,-1.5712891,-1.8203125,0.3017578,46.08094,-12.136906,-60.29302,17.365807,0.015563965,-1.6444702,1.1165161,0.43847656,-4.814453,-2.1933594,29.257156,-58.546215,-111.13042,-3.814455,0.0,0.0,0.0,0.0,0.0,0.0,0.0,-54.93745,-128.97612,4.468787,0.0,0.0,0.0,0.0,0.0,0.0,0.0,0.58484596,0.15903871,-0.7956973,-0.8322754,0.61157227,-0.38006592,2.6933594,2.977539,1.1640625,18.060307,12.108123,3.2925944,-16.4734,-0.7747803,0.32092285,-0.49682617,1.6103516,1.3417969,0.26367188,20.471855,25.7361,-50.6746,-4.305834,-0.17626953,0.6086426,0.777771,0.5888672,-0.26464844,0.038085938,16.236225,19.880123,-122.09722,2.5931726,0.0,0.0,0.0,0.0,0.0,0.0,0.0,31.326857,-119.74827,18.82545,0.0,0.0,0.0,0.0,0.0,0.0,0.0,-6.8176856,44.32456,3.848228,
2.3906249287538235,102,0.17449951,-0.80352783,0.418396,2.3232422,0.56152344,-1.1650391,0.0,0.0,0.0,0.0,0.0,0.0,0.0,0.0,0.0,0.0,0.0,-0.5753602,-0.12248188,0.8086747,-1.0579834,-0.1505127,-0.47772217,0.7861328,-4.208008,-0.34765625,8.192804,-11.911738,-2.5357547,16.742073,-0.5649414,-0.31854248,-0.9180298,-1.7021484,-2.9199219,0.29296875,48.64603,-6.669772,-59.18126,20.428349,-0.3630371,-0.98760986,0.96881104,1.5507812,-6.1464844,-3.3222656,25.796339,-50.209255,-112.988495,0.56134796,0.0,0.0,0.0,0.0,0.0,0.0,0.0,-44.703255,-129.38411,10.614704,0.0,0.0,0.0,0.0,0.0,0.0,0.0,0.5753602,0.12248188,-0.8086747,-0.9337158,0.5046997,-0.1116333,2.46875,2.4296875,0.6611328,15.613409,11.911738,2.5357547,-16.742073,-1.4419556,0.10192871,-0.030700684,0.15429688,0.96191406,0.20605469,17.539743,21.826824,-52.610756,-6.318619,-0.1362915,0.579834,0.7746582,0.44921875,-0.13085938,0.040039062,18.217184,14.222685,-123.895905,0.54292536,0.0,0.0,0.0,0.0,0.0,0.0,0.0,25.592812,-121.413055,16.807175,0.0,0.0,0.0,0.0,0.0,0.0,0.0,-4.5760584,44.62931,3.5037572,
2.4140624280553316,103,0.23059082,-0.42248535,0.27301025,1.4716797,0.7011719,-1.0263672,0.0,0.0,0.0,0.0,0.0,0.0,0.0,0.0,0.0,0.0,0.0,-0.5566752,-0.09364763,0.825661,-0.8355713,-0.003479004,-0.6170044,0.2890625,-3.0595703,-0.15820312,11.299146,-11.524902,-1.9387962,17.093742,-0.47717285,-0.40942383,-0.85272217,-1.4277344,-3.7626953,0.09765625,48.158703,-3.1887665,-57.851254,22.569323,-0.378479,-0.25878906,0.3554077,1.0595703,-7.2597656,-2.977539,20.720566,-43.27274,-114.93585,4.8983326,0.0,0.0,0.0,0.0,0.0,0.0,0.0,-35.79204,-128.92477,17.077223,0.0,0.0,0.0,0.0,0.0,0.0,0.0,0.5566752,0.09364763,-0.825661,-0.6414795,0.4389038,0.07366943,1.8652344,2.7988281,0.6826172,14.031557,11.524902,1.9387962,-17.093742,-0.80822754,0.46417236,-0.0491333,-0.15039062,0.93847656,0.43652344,14.844051,17.894056,-53.97102,-7.9669094,-0.15063477,0.7238159,0.6760864,0.23828125,-0.16894531,-0.013671875,18.610975,8.667944,-125.019394,-0.7414808,0.0,0.0,0.0,0.0,0.0,0.0,0.0,20.011278,-122.44486,15.528104,0.0,0.0,0.0,0.0,0.0,0.0,0.0,-2.4164464,44.81062,3.453272,
2.4374999273568396,104,0.09375,-0.3012085,0.33026123,0.41210938,0.8417969,-1.0332031,0.0,0.0,0.0,0.0,0.0,0.0,0.0,0.0,0.0,0.0,0.0,-0.5335128,-0.07858002,0.8422444,-0.64868164,-0.18762207,-0.5830078,0.28515625,-2.524414,-0.25683594,12.728624,-11.045368,-1.62685,17.43707,-0.29681396,-0.3479004,-0.85723877,-0.22265625,-4.4375,0.3544922,45.935894,-1.3585081,-57.3906,23.236444,-0.2553711,-0.34503174,0.25408936,-0.7001953,-6.7851562,-2.086914,12.683815,-39.399307,-117.03055,10.066226,0.0,0.0,0.0,0.0,0.0,0.0,0.0,-30.850714,-128.3838,24.150623,0.0,0.0,0.0,0.0,0.0,0.0,0.0,0.5335128,0.07858002,-0.8422444,-0.875,0.47540283,-0.18005371,0.52734375,3.7207031,0.6542969,12.29196,11.045368,1.62685,-17.43707,-0.5805054,-0.09094238,-0.10510254,-0.3515625,0.80371094,-0.27246094,11.483432,13.060578,-54.75487,-9.331721,-0.15899658,0.6437988,0.7583008,-0.07128906,-0.16894531,-0.08496094,18.512123,2.2681637,-125.56285,-1.8074226,0.0,0.0,0.0,0.0,0.0,0.0,0.0,13.630657,-122.97547,14.448765,0.0,0.0,0.0,0.0,0.0,0.0,0.0,-1.5084953,44.86277,3.2300794,
2.4609374266583477,105,0.03717041,-0.24853516,0.34613037,0.0146484375,0.9404297,-0.95410156,0.0,0.0,0.0,0.0,0.0,0.0,0.0,0.0,0.0,0.0,0.0,-0.50787354,-0.070003994,0.8588128,-0.45880127,-0.32513428,-0.46221924,0.6669922,-2.3720703,-0.6464844,15.41392,-10.514557,-1.4492997,17.780087,-0.14141846,0.0015869141,-0.7928467,-0.39453125,-5.0742188,0.359375,43.33514,2.270975,-56.61722,24.313917,-0.43988037,-1.258667,0.588501,-1.1494141,-6.1621094,-2.6464844,6.5068336,-30.139795,-120.073044,13.871814,0.0,0.0,0.0,0.0,0.0,0.0,0.0,-21.190594,-128.79338,29.481125,0.0,0.0,0.0,0.0,0.0,0.0,0.0,0.50787354,0.070003994,-0.8588128,-0.8187256,-0.06817627,0.16278076,0.8671875,3.6621094,0.578125,11.571357,10.514557,1.4492997,-17.780087,-1.3005371,-0.35009766,0.057128906,0.60546875,0.92871094,0.43652344,7.092765,7.2157497,-55.064606,-11.082569,-0.19049072,0.39257812,0.8828125,-0.009765625,-0.32128906,-0.27246094,19.259346,-4.9681063,-125.66673,-3.7982726,0.0,0.0,0.0,0.0,0.0,0.0,0.0,6.2585793,-123.20393,12.552576,0.0,0.0,0.0,0.0,0.0,0.0,0.0,-1.2339971,44.89648,2.92988,
2.4843749259598558,106,0.060302734,-0.2156372,0.30603027,-0.51464844,1.0009766,-0.93066406,0.0,0.0,0.0,0.0,0.0,0.0,0.0,0.0,0.0,0.0,0.0,-0.481202,-0.06529532,0.8744024,-0.21728516,-0.20983887,-0.6236572,1.7255859,-2.171875,-0.53808594,17.96658,-9.962375,-1.3518156,18.102842,-0.13464355,-0.059692383,-0.78796387,-1.0507812,-5.8027344,0.6230469,39.196526,6.015108,-55.61998,25.153442,-0.54803467,-1.1569214,0.425354,-1.4560547,-5.4023438,-3.6933594,4.054778,-18.276127,-122.96663,17.369083,0.0,0.0,0.0,0.0,0.0,0.0,0.0,-8.87463,-129.05554,33.94808,0.0,0.0,0.0,0.0,0.0,0.0,0.0,0.481202,0.06529532,-0.8744024,-0.7327881,-0.056396484,-0.29693604,0.66308594,3.8554688,-0.25683594,12.256072,9.962375,1.3518156,-18.102842,-0.7439575,-0.09259033,0.13983154,0.6269531,1.0625,0.26367188,3.795502,2.3306742,-54.965145,-13.640747,-0.18475342,0.54125977,0.7763672,0.22460938,-0.39746094,-0.3310547,20.126389,-11.30984,-125.32358,-6.553157,0.0,0.0,0.0,0.0,0.0,0.0,0.0,-0.07371998,-122.911194,9.810624,0.0,0.0,0.0,0.0,0.0,0.0,0.0,-1.3646183,44.912914,2.6028588,
2.507812425261364,107,0.08502197,-0.3557129,0.33996582,-0.8925781,1.2714844,-0.7216797,0.0,0.0,0.0,0.0,0.0,0.0,0.0,0.0,0.0,0.0,0.0,-0.45157197,-0.07001327,0.88989764,-0.07910156,-0.0637207,-0.7073364,2.413086,-1.7021484,-0.28515625,19.436787,-9.34894,-1.449492,18.423641,-0.23809814,-0.15997314,-0.8430786,-0.4482422,-6.1572266,0.61816406,33.664078,9.137127,-54.866478,25.801748,-0.71899414,-1.201477,0.6567383,-1.765625,-3.9511719,-4.4492188,3.721049,-5.8903055,-125.15779,21.32611,0.0,0.0,0.0,0.0,0.0,0.0,0.0,4.0258055,-128.87637,38.30287,0.0,0.0,0.0,0.0,0.0,0.0,0.0,0.45157197,0.07001327,-0.88989764,-1.1951904,0.121276855,0.3277588,1.0214844,2.866211,-0.72558594,15.066598,9.34894,1.449492,-18.423641,-1.0446777,0.12994385,0.215271,0.020507812,1.2080078,0.3203125,3.7102458,-2.0785341,-54.37142,-16.786627,-0.15899658,0.65686035,0.7268677,0.20117188,-0.28222656,-0.3857422,19.753489,-17.133327,-124.395096,-9.5051985,0.0,0.0,0.0,0.0,0.0,0.0,0.0,-5.7860956,-121.983406,6.788947,0.0,0.0,0.0,0.0,0.0,0.0,0.0,-2.141429,44.89905,2.4458096,
2.531249924562872,108,0.058898926,-0.66412354,0.3788452,-0.8925781,1.2880859,-0.37109375,0.0,0.0,0.0,0.0,0.0,0.0,0.0,0.0,0.0,0.0,0.0,-0.42203173,-0.08151414,0.903244,-0.11456299,0.111206055,-0.678833,2.1621094,-1.3212891,0.13574219,20.670992,-8.737366,-1.6875955,18.699951,-0.43756104,0.015319824,-0.7738037,0.5605469,-6.383789,0.35253906,28.276384,11.736517,-54.314995,26.53364,-0.7906494,-0.93426514,0.80236816,-2.1953125,-2.3701172,-4.373047,2.9541957,5.565893,-126.06102,25.27938,0.0,0.0,0.0,0.0,0.0,0.0,0.0,16.056963,-127.85808,42.22233,0.0,0.0,0.0,0.0,0.0,0.0,0.0,0.42203173,0.08151414,-0.903244,-1.439209,0.7404175,-0.18817139,0.9814453,2.2519531,-0.31933594,18.020077,8.737366,1.6875955,-18.699951,-0.9303589,0.11248779,0.3050537,-0.453125,1.4306641,0.3955078,6.3647947,-5.022477,-53.627674,-19.416378,-0.16784668,0.6693115,0.7633667,-0.060546875,0.0048828125,-0.5097656,18.20338,-21.659355,-123.22023,-11.587032,0.0,0.0,0.0,0.0,0.0,0.0,0.0,-10.161711,-120.90303,4.614319,0.0,0.0,0.0,0.0,0.0,0.0,0.0,-3.0340233,44.83426,2.628495,
2.55468742386438,109,0.028869629,-1.0050049,0.46228027,-0.8535156,1.4199219,0.03515625,0.0,0.0,0.0,0.0,0.0,0.0,0.0,0.0,0.0,0.0,0.0,-0.4024868,-0.10164344,0.9095515,-0.4022827,0.30767822,-0.28997803,1.8193359,-1.3183594,0.19140625,21.485529,-8.3327265,-2.1043348,18.830536,-0.5548706,0.21118164,-0.60528564,1.1621094,-6.4296875,0.8388672,22.343145,13.603076,-54.042515,27.276602,-1.4348755,-1.2008057,1.2150879,-2.2539062,-1.6787109,-4.0625,2.9953249,16.520624,-125.97064,29.265732,0.0,0.0,0.0,0.0,0.0,0.0,0.0,27.48157,-126.36764,45.99913,0.0,0.0,0.0,0.0,0.0,0.0,0.0,0.4024868,0.10164344,-0.9095515,-0.9890137,0.2789917,-0.22351074,0.12695312,1.4550781,0.94433594,22.020746,8.3327265,2.1043348,-18.830536,-1.0192871,-0.24932861,0.21673584,-0.11230469,1.7216797,0.37597656,6.7120056,-7.8515997,-52.540653,-20.098923,-0.10583496,0.5941162,0.86328125,0.119140625,0.38964844,-0.65625,16.456848,-26.167324,-121.71988,-12.656759,0.0,0.0,0.0,0.0,0.0,0.0,0.0,-14.699508,-119.64897,3.593113,0.0,0.0,0.0,0.0,0.0,0.0,0.0,-4.2083755,44.684414,3.1312823,
2.578124923165888,110,0.084106445,-1.2485352,0.475708,0.20703125,1.5273438,0.22851562,0.0,0.0,0.0,0.0,0.0,0.0,0.0,0.0,0.0,0.0,0.0,-0.37539425,-0.12411206,0.9187264,-0.7788086,0.4506836,0.24810791,2.2958984,-2.4472656,-0.14648438,24.348333,-7.771824,-2.5695045,19.020483,-0.791626,0.052856445,-0.6226196,-0.15722656,-6.114258,0.83203125,18.047766,16.579605,-53.300217,28.073086,-2.0,-1.4482422,1.5218506,-1.4296875,-1.2832031,-3.9248047,5.395176,27.809614,-124.149704,33.02554,0.0,0.0,0.0,0.0,0.0,0.0,0.0,39.202595,-123.30678,49.445778,0.0,0.0,0.0,0.0,0.0,0.0,0.0,0.37539425,0.12411206,-0.9187264,-1.0751953,-0.62316895,-0.06439209,0.3720703,1.5068359,0.94433594,24.59532,7.771824,2.5695045,-19.020483,-1.1181641,-0.048095703,0.07269287,1.4375,2.140625,0.5673828,6.2329397,-10.211601,-51.51139,-20.411873,0.045654297,-0.13665771,1.0962524,0.49414062,1.0654297,-1.8046875,17.252659,-31.385397,-120.00794,-13.634955,0.0,0.0,0.0,0.0,0.0,0.0,0.0,-19.76884,-118.26921,2.5350523,0.0,0.0,0.0,0.0,0.0,0.0,0.0,-4.640745,44.578197,4.1259103,
