TOTAL_TIME,0m8s
TOTAL_FRAMES,350
SELECTED_FRAMES,350
NO_OF_JOINTS,12
FREQUENCY,42.666668
DESCRIPTION,Capture 12
TIME_STAMP,Jul 8, 2010

Time,Frame,Pelvis_accelX_Pelvis,Pelvis_accelY_Pelvis,Pelvis_accelZ_Pelvis,Pelvis_gyroX_Pelvis,Pelvis_gyroY_Pelvis,Pelvis_gyroZ_Pelvis,Pelvis_Joint angle_Pelvis,Pelvis_Relative pos X_Pelvis,Pelvis_Relative pos Y_Pelvis,Pelvis_Relative pos Z_Pelvis,RightPelvis_accelX_RightPelvis,RightPelvis_accelY_RightPelvis,RightPelvis_accelZ_RightPelvis,RightPelvis_gyroX_RightPelvis,RightPelvis_gyroY_RightPelvis,RightPelvis_gyroZ_RightPelvis,RightPelvis_Joint angle_RightPelvis,RightPelvis_Relative pos X_RightPelvis,RightPelvis_Relative pos Y_RightPelvis,RightPelvis_Relative pos Z_RightPelvis,RightUpLeg_accelX_RightUpLeg,RightUpLeg_accelY_RightUpLeg,RightUpLeg_accelZ_RightUpLeg,RightUpLeg_gyroX_RightUpLeg,RightUpLeg_gyroY_RightUpLeg,RightUpLeg_gyroZ_RightUpLeg,RightUpLeg_Joint angle_RightUpLeg,RightUpLeg_Relative pos X_RightUpLeg,RightUpLeg_Relative pos Y_RightUpLeg,RightUpLeg_Relative pos Z_RightUpLeg,RightLeg_accelX_RightLeg,RightLeg_accelY_RightLeg,RightLeg_accelZ_RightLeg,RightLeg_gyroX_RightLeg,RightLeg_gyroY_RightLeg,RightLeg_gyroZ_RightLeg,RightLeg_Joint angle_RightLeg,RightLeg_Relative pos X_RightLeg,RightLeg_Relative pos Y_RightLeg,RightLeg_Relative pos Z_RightLeg,RightFoot_accelX_RightFoot,RightFoot_accelY_RightFoot,RightFoot_accelZ_RightFoot,RightFoot_gyroX_RightFoot,RightFoot_gyroY_RightFoot,RightFoot_gyroZ_RightFoot,RightFoot_Joint angle_RightFoot,RightFoot_Relative pos X_RightFoot,RightFoot_Relative pos Y_RightFoot,RightFoot_Relative pos Z_RightFoot,RightFootEnd_accelX_RightFootEnd,RightFootEnd_accelY_RightFootEnd,RightFootEnd_accelZ_RightFootEnd,RightFootEnd_gyroX_RightFootEnd,RightFootEnd_gyroY_RightFootEnd,RightFootEnd_gyroZ_RightFootEnd,RightFootEnd_Joint angle_RightFootEnd,RightFootEnd_Relative pos X_RightFootEnd,RightFootEnd_Relative pos Y_RightFootEnd,RightFootEnd_Relative pos Z_RightFootEnd,LeftPelvis_accelX_LeftPelvis,LeftPelvis_accelY_LeftPelvis,LeftPelvis_accelZ_LeftPelvis,LeftPelvis_gyroX_LeftPelvis,LeftPelvis_gyroY_LeftPelvis,LeftPelvis_gyroZ_LeftPelvis,LeftPelvis_Joint angle_LeftPelvis,LeftPelvis_Relative pos X_LeftPelvis,LeftPelvis_Relative pos Y_LeftPelvis,LeftPelvis_Relative pos Z_LeftPelvis,LeftUpLeg_accelX_LeftUpLeg,LeftUpLeg_accelY_LeftUpLeg,LeftUpLeg_accelZ_LeftUpLeg,LeftUpLeg_gyroX_LeftUpLeg,LeftUpLeg_gyroY_LeftUpLeg,LeftUpLeg_gyroZ_LeftUpLeg,LeftUpLeg_Joint angle_LeftUpLeg,LeftUpLeg_Relative pos X_LeftUpLeg,LeftUpLeg_Relative pos Y_LeftUpLeg,LeftUpLeg_Relative pos Z_LeftUpLeg,LeftLeg_accelX_LeftLeg,LeftLeg_accelY_LeftLeg,LeftLeg_accelZ_LeftLeg,LeftLeg_gyroX_LeftLeg,LeftLeg_gyroY_LeftLeg,LeftLeg_gyroZ_LeftLeg,LeftLeg_Joint angle_LeftLeg,LeftLeg_Relative pos X_LeftLeg,LeftLeg_Relative pos Y_LeftLeg,LeftLeg_Relative pos Z_LeftLeg,LeftFoot_accelX_LeftFoot,LeftFoot_accelY_LeftFoot,LeftFoot_accelZ_LeftFoot,LeftFoot_gyroX_LeftFoot,LeftFoot_gyroY_LeftFoot,LeftFoot_gyroZ_LeftFoot,LeftFoot_Joint angle_LeftFoot,LeftFoot_Relative pos X_LeftFoot,LeftFoot_Relative pos Y_LeftFoot,LeftFoot_Relative pos Z_LeftFoot,LeftFootEnd_accelX_LeftFootEnd,LeftFootEnd_accelY_LeftFootEnd,LeftFootEnd_accelZ_LeftFootEnd,LeftFootEnd_gyroX_LeftFootEnd,LeftFootEnd_gyroY_LeftFootEnd,LeftFootEnd_gyroZ_LeftFootEnd,LeftFootEnd_Joint angle_LeftFootEnd,LeftFootEnd_Relative pos X_LeftFootEnd,LeftFootEnd_Relative pos Y_LeftFootEnd,LeftFootEnd_Relative pos Z_LeftFootEnd,Spine_accelX_Spine,Spine_accelY_Spine,Spine_accelZ_Spine,Spine_gyroX_Spine,Spine_gyroY_Spine,Spine_gyroZ_Spine,Spine_Joint angle_Spine,Spine_Relative pos X_Spine,Spine_Relative pos Y_Spine,Spine_Relative pos Z_Spine,
0.0,0,0.0,0.0,0.0,0.0,0.0,0.0,0.0,0.0,0.0,0.0,0.0,0.0,0.0,0.0,0.0,0.0,0.0,0.0,0.0,0.0,0.0,0.0,0.0,0.0,0.0,0.0,NaN,0.0,0.0,0.0,0.0,0.0,0.0,0.0,0.0,0.0,NaN,0.0,0.0,0.0,0.0,0.0,0.0,0.0,0.0,0.0,NaN,0.0,0.0,0.0,0.0,0.0,0.0,0.0,0.0,0.0,0.0,0.0,0.0,0.0,0.0,0.0,0.0,0.0,0.0,0.0,0.0,0.0,0.0,0.0,0.0,0.0,0.0,0.0,0.0,0.0,NaN,0.0,0.0,0.0,0.0,0.0,0.0,0.0,0.0,0.0,NaN,0.0,0.0,0.0,0.0,0.0,0.0,0.0,0.0,0.0,NaN,0.0,0.0,0.0,0.0,0.0,0.0,0.0,0.0,0.0,0.0,0.0,0.0,0.0,0.0,0.0,0.0,0.0,0.0,0.0,0.0,0.0,0.0,0.0,
0.02343749930150809,1,0.0,0.0,0.0,0.0,0.0,0.0,0.0,0.0,0.0,0.0,0.0,0.0,0.0,0.0,0.0,0.0,0.0,0.0,0.0,0.0,0.0,0.0,0.0,0.0,0.0,0.0,NaN,0.0,0.0,0.0,0.0,0.0,0.0,0.0,0.0,0.0,NaN,0.0,0.0,0.0,0.0,0.0,0.0,0.0,0.0,0.0,NaN,0.0,0.0,0.0,0.0,0.0,0.0,0.0,0.0,0.0,0.0,0.0,0.0,0.0,0.0,0.0,0.0,0.0,0.0,0.0,0.0,0.0,0.0,0.0,0.0,0.0,0.0,0.0,0.0,0.0,NaN,0.0,0.0,0.0,0.0,0.0,0.0,0.0,0.0,0.0,NaN,0.0,0.0,0.0,0.0,0.0,0.0,0.0,0.0,0.0,NaN,0.0,0.0,0.0,0.0,0.0,0.0,0.0,0.0,0.0,0.0,0.0,0.0,0.0,0.0,0.0,0.0,0.0,0.0,0.0,0.0,0.0,0.0,0.0,
0.04687499860301618,2,0.0,0.0,0.0,0.0,0.0,0.0,0.0,0.0,0.0,0.0,0.0,0.0,0.0,0.0,0.0,0.0,0.0,0.0,0.0,0.0,0.0,0.0,0.0,0.0,0.0,0.0,NaN,0.0,0.0,0.0,0.0,0.0,0.0,0.0,0.0,0.0,NaN,0.0,0.0,0.0,0.0,0.0,0.0,0.0,0.0,0.0,NaN,0.0,0.0,0.0,0.0,0.0,0.0,0.0,0.0,0.0,0.0,0.0,0.0,0.0,0.0,0.0,0.0,0.0,0.0,0.0,0.0,0.0,0.0,0.0,0.0,0.0,0.0,0.0,0.0,0.0,NaN,0.0,0.0,0.0,0.0,0.0,0.0,0.0,0.0,0.0,NaN,0.0,0.0,0.0,0.0,0.0,0.0,0.0,0.0,0.0,NaN,0.0,0.0,0.0,0.0,0.0,0.0,0.0,0.0,0.0,0.0,0.0,0.0,0.0,0.0,0.0,0.0,0.0,0.0,0.0,0.0,0.0,0.0,0.0,
0.07031249790452426,3,-0.0064697266,-0.9998779,0.26446533,0.0107421875,0.0859375,0.001953125,0.0,0.0,0.0,0.0,0.0,0.0,0.0,0.0,0.0,0.0,0.0,0.06174603,-0.0058713853,-0.9982549,-0.8925781,-0.10461426,-0.36871338,0.018554688,0.09863281,0.040039062,1.228123,1.278334,-0.121555895,-20.66697,-0.9647217,0.023925781,-0.21282959,0.021484375,0.026367188,0.0546875,6.5457144,-2.2555566,-57.004635,-19.55729,-0.41638184,-0.34674072,0.84820557,-0.022460938,0.028320312,-0.0078125,2.97618,-0.9878222,-128.92761,-23.050465,0.0,0.0,0.0,0.0,0.0,0.0,0.0,-20.889845,-128.48619,-24.942204,0.0,0.0,0.0,0.0,0.0,0.0,0.0,-0.06174603,0.0058713853,0.9982549,0.9243164,0.08026123,-0.34838867,-0.052734375,-0.013671875,0.037109375,1.8003757,-1.278334,0.121555895,20.66697,-0.95843506,0.07141113,-0.3001709,0.001953125,-0.03515625,-0.009765625,4.823245,-4.387594,-56.783802,22.174543,-0.44451904,0.6890869,1.4002686,-0.020507812,9.765625E-4,0.0087890625,33.900223,-3.7703655,-128.79344,21.641401,0.0,0.0,0.0,0.0,0.0,0.0,0.0,-18.763546,-127.916016,34.8549,0.0,0.0,0.0,0.0,0.0,0.0,0.0,3.303608,44.886654,-0.059666276,
0.09374999720603236,4,-0.0014038086,-0.97473145,0.2824707,0.030273438,0.06738281,0.040039062,0.0,0.0,0.0,0.0,0.0,0.0,0.0,0.0,0.0,0.0,0.0,0.06280491,-0.0057125017,-0.99818873,-0.89086914,-0.06817627,-0.3673706,0.09472656,0.080078125,0.076171875,1.2433252,1.3002565,-0.118266515,-20.6656,-0.96313477,0.001953125,-0.21490479,0.021484375,0.026367188,0.016601562,6.467841,-2.1581113,-57.01198,-19.559153,-0.40948486,-0.35473633,0.83813477,-0.00390625,-0.0078125,-0.0078125,3.0287313,-0.8789551,-128.93774,-23.005716,0.0,0.0,0.0,0.0,0.0,0.0,0.0,-20.778538,-128.49338,-24.914173,0.0,0.0,0.0,0.0,0.0,0.0,0.0,-0.06280491,0.0057125017,0.99818873,0.9234009,0.11126709,-0.33319092,-0.0146484375,0.024414062,0.017578125,1.7970029,-1.3002565,0.118266515,20.6656,-0.9304199,0.06048584,-0.31799316,0.021484375,-0.015625,0.0087890625,4.8410835,-4.4002647,-56.777622,22.194803,-0.43829346,0.65789795,1.2032471,-0.020507812,0.038085938,0.02734375,34.030968,-3.7466767,-128.7797,21.690807,0.0,0.0,0.0,0.0,0.0,0.0,0.0,-18.739857,-127.90227,34.904305,0.0,0.0,0.0,0.0,0.0,0.0,0.0,3.2575798,44.88998,-0.05193633,
0.11718749650754046,5,-0.0014648438,-0.99121094,0.27349854,0.0107421875,0.06738281,0.020507812,0.0,0.0,0.0,0.0,0.0,0.0,0.0,0.0,0.0,0.0,0.0,0.06451288,-0.0057639666,-0.9981473,-0.8988037,-0.076049805,-0.36627197,0.056640625,0.061523438,0.0390625,1.2257305,1.3356177,-0.119332,-20.664743,-0.97143555,0.042175293,-0.22363281,-0.016601562,0.0068359375,0.0546875,6.368305,-2.0502162,-57.01222,-19.596018,-0.3935547,-0.36291504,0.84277344,0.015625,0.0107421875,0.047851562,3.0285373,-0.78604174,-128.93794,-23.020336,0.0,0.0,0.0,0.0,0.0,0.0,0.0,-20.685568,-128.49046,-24.945055,0.0,0.0,0.0,0.0,0.0,0.0,0.0,-0.06451288,0.0057639666,0.9981473,0.9445801,0.08190918,-0.338562,-0.0146484375,0.005859375,-9.765625E-4,1.7980917,-1.3356177,0.119332,20.664743,-0.95739746,0.070373535,-0.29821777,0.001953125,-0.015625,-0.009765625,4.8912063,-4.485,-56.77834,22.258635,-0.42730713,0.67926025,1.2122192,-0.020507812,0.0390625,0.0087890625,34.04444,-3.830844,-128.78197,21.82345,0.0,0.0,0.0,0.0,0.0,0.0,0.0,-18.824024,-127.90454,35.03695,0.0,0.0,0.0,0.0,0.0,0.0,0.0,3.219307,44.89579,-0.051186025,
0.14062499580904855,6,-0.013427734,-0.9795532,0.2753296,-0.0087890625,0.06640625,0.020507812,0.0,0.0,0.0,0.0,0.0,0.0,0.0,0.0,0.0,0.0,0.0,0.067828804,-0.005353898,-0.9979076,-0.90875244,-0.095703125,-0.3554077,0.0,0.080078125,0.021484375,1.1681838,1.404266,-0.11084229,-20.65978,-0.95269775,0.01184082,-0.21582031,-0.0546875,0.0078125,0.0546875,6.341586,-1.9590296,-57.011208,-19.64189,-0.42358398,-0.3564453,0.8502197,-0.022460938,0.029296875,0.029296875,3.1026766,-0.6452092,-128.93863,-23.043732,0.0,0.0,0.0,0.0,0.0,0.0,0.0,-20.541859,-128.49316,-25.00019,0.0,0.0,0.0,0.0,0.0,0.0,0.0,-0.067828804,0.005353898,0.9979076,0.913147,0.07556152,-0.35235596,-0.0146484375,-0.032226562,0.018554688,1.7569145,-1.404266,0.11084229,20.65978,-0.9351196,0.10040283,-0.29510498,9.765625E-4,0.00390625,0.009765625,4.952584,-4.5518327,-56.783215,22.229984,-0.41400146,0.66656494,1.2059326,-0.0390625,0.01953125,0.028320312,34.159653,-3.843404,-128.79391,21.691433,0.0,0.0,0.0,0.0,0.0,0.0,0.0,-18.836584,-127.91649,34.90493,0.0,0.0,0.0,0.0,0.0,0.0,0.0,3.1441324,44.900146,-0.027184963,
0.16406249511055665,7,0.014526367,-1.0093994,0.29248047,-0.0087890625,0.06640625,0.020507812,0.0,0.0,0.0,0.0,0.0,0.0,0.0,0.0,0.0,0.0,0.0,0.07033074,-0.0055189095,-0.9977298,-0.87231445,-0.10479736,-0.40979004,0.01953125,0.080078125,0.040039062,1.1815088,1.4560643,-0.11425853,-20.6561,-0.9572754,-7.324219E-4,-0.18640137,-0.036132812,0.0068359375,0.0546875,6.204598,-1.7529286,-57.020054,-19.68458,-0.42767334,-0.36120605,0.8324585,-0.022460938,0.0107421875,0.029296875,3.229982,-0.37815332,-128.94235,-23.036478,0.0,0.0,0.0,0.0,0.0,0.0,0.0,-20.272753,-128.49669,-25.008251,0.0,0.0,0.0,0.0,0.0,0.0,0.0,-0.07033074,0.0055189095,0.9977298,0.9384155,0.061584473,-0.3416748,0.04296875,-0.0703125,-9.765625E-4,1.7212421,-1.4560643,0.11425853,20.6561,-0.9393921,0.056396484,-0.29241943,-0.018554688,0.00390625,0.009765625,5.0093417,-4.6089463,-56.78099,22.223652,-0.4222412,0.67926025,1.2151489,-0.020507812,0.01953125,0.02734375,34.223892,-3.8393602,-128.7872,21.658974,0.0,0.0,0.0,0.0,0.0,0.0,0.0,-18.83254,-127.909775,34.87247,0.0,0.0,0.0,0.0,0.0,0.0,0.0,3.0970092,44.90325,-0.030070126,
0.18749999441206475,8,-0.02947998,-0.9944458,0.30285645,-0.028320312,0.047851562,9.765625E-4,0.0,0.0,0.0,0.0,0.0,0.0,0.0,0.0,0.0,0.0,0.0,0.07283604,-0.0057446025,-0.99744445,-0.87768555,-0.080078125,-0.383667,0.018554688,0.099609375,0.0029296875,1.1090641,1.5079309,-0.118931055,-20.650192,-0.97650146,0.021972656,-0.16271973,-0.016601562,0.026367188,0.0546875,6.0780897,-1.6190058,-57.03581,-19.753967,-0.41070557,-0.371521,0.8597412,-0.00390625,0.0107421875,0.029296875,3.271836,-0.22642505,-128.96193,-23.044874,0.0,0.0,0.0,0.0,0.0,0.0,0.0,-20.119259,-128.51524,-25.033566,0.0,0.0,0.0,0.0,0.0,0.0,0.0,-0.07283604,0.0057446025,0.99744445,0.9242554,0.08886719,-0.3274536,0.04296875,-0.05078125,-0.020507812,1.6530373,-1.5079309,0.118931055,20.650192,-0.9151001,0.076538086,-0.28045654,0.0,0.041992188,-0.0087890625,5.012821,-4.6788445,-56.774765,22.203966,-0.47296143,0.6697998,1.2098999,-0.05859375,-0.038085938,0.0087890625,34.244385,-3.9080517,-128.77954,21.666782,0.0,0.0,0.0,0.0,0.0,0.0,0.0,-18.901232,-127.902115,34.88028,0.0,0.0,0.0,0.0,0.0,0.0,0.0,3.0247467,44.903477,-0.03773856,
0.21093749371357284,9,0.008544922,-1.0012207,0.31323242,-0.047851562,0.028320312,9.765625E-4,0.0,0.0,0.0,0.0,0.0,0.0,0.0,0.0,0.0,0.0,0.0,0.07606825,-0.0054828767,-0.9971635,-0.8788452,-0.076049805,-0.3577881,0.01953125,0.080078125,0.021484375,1.0693604,1.5748485,-0.11351254,-20.644377,-0.95947266,-0.0048217773,-0.17852783,-0.0546875,0.026367188,0.0546875,5.9213247,-1.5031785,-57.030434,-19.797745,-0.4255371,-0.35040283,0.82562256,-0.00390625,0.0107421875,0.0107421875,3.196472,-0.19829643,-128.96545,-23.017235,0.0,0.0,0.0,0.0,0.0,0.0,0.0,-20.089977,-128.5152,-25.011284,0.0,0.0,0.0,0.0,0.0,0.0,0.0,-0.07606825,0.0054828767,0.9971635,0.94763184,0.08660889,-0.32458496,0.061523438,0.0068359375,-9.765625E-4,1.6415137,-1.5748485,0.11351254,20.644377,-0.94818115,0.09857178,-0.29608154,-0.037109375,-0.015625,0.009765625,5.035322,-4.769622,-56.7825,22.20474,-0.44256592,0.6803589,1.2144775,-0.0390625,0.01953125,0.028320312,34.174088,-4.0204954,-128.79211,21.624382,0.0,0.0,0.0,0.0,0.0,0.0,0.0,-19.013676,-127.91469,34.83788,0.0,0.0,0.0,0.0,0.0,0.0,0.0,2.9641194,44.905685,-0.020795822,
0.23437499301508094,10,0.0056152344,-0.98205566,0.29833984,-0.028320312,0.029296875,0.001953125,0.0,0.0,0.0,0.0,0.0,0.0,0.0,0.0,0.0,0.0,0.0,0.079595834,-0.004706789,-0.99696934,-0.89953613,-0.105651855,-0.37353516,0.01953125,0.024414062,0.0390625,1.1072984,1.6478817,-0.097445115,-20.640356,-0.9639282,0.026245117,-0.18334961,-0.015625,0.045898438,-0.001953125,5.8070774,-1.3820498,-57.02059,-19.787323,-0.40875244,-0.37347412,0.8508301,0.0146484375,-0.0078125,0.047851562,3.1320662,-0.13508737,-128.95747,-22.916796,0.0,0.0,0.0,0.0,0.0,0.0,0.0,-20.026495,-128.50632,-24.913086,0.0,0.0,0.0,0.0,0.0,0.0,0.0,-0.079595834,0.004706789,0.99696934,0.93859863,0.074401855,-0.37243652,0.0234375,0.025390625,-9.765625E-4,1.6492445,-1.6478817,0.097445115,20.640356,-0.9744873,0.0725708,-0.30114746,-0.057617188,0.022460938,-0.0087890625,5.0835733,-4.894493,-56.79262,22.1932,-0.44024658,0.6501465,1.2002563,-0.05859375,-0.018554688,-0.029296875,34.188046,-4.1444974,-128.79865,21.60636,0.0,0.0,0.0,0.0,0.0,0.0,0.0,-19.142107,-127.92041,34.813725,0.0,0.0,0.0,0.0,0.0,0.0,0.0,2.9153843,44.91235,0.02072239,
0.25781249231658904,11,0.010559082,-0.9848633,0.2637329,-0.047851562,0.046875,0.020507812,0.0,0.0,0.0,0.0,0.0,0.0,0.0,0.0,0.0,0.0,0.0,0.08121562,-0.0042562317,-0.9968358,-0.89764404,-0.10455322,-0.34973145,0.07519531,0.061523438,0.0390625,1.1069448,1.6814153,-0.08811717,-20.637592,-0.9503174,0.04296875,-0.18121338,-0.0146484375,0.06542969,0.017578125,5.82763,-1.3746362,-57.006287,-19.766195,-0.3782959,-0.34649658,0.84265137,-0.00390625,-0.0078125,0.0107421875,3.1881928,-0.14111996,-128.94666,-22.885693,0.0,0.0,0.0,0.0,0.0,0.0,0.0,-20.034584,-128.48894,-24.867847,0.0,0.0,0.0,0.0,0.0,0.0,0.0,-0.08121562,0.0042562317,0.9968358,0.9416504,0.097473145,-0.3383789,0.0234375,0.005859375,-0.020507812,1.7286166,-1.6814153,0.08811717,20.637592,-0.9234009,0.050354004,-0.29437256,-0.057617188,0.022460938,0.028320312,5.1082187,-4.952039,-56.79463,22.259825,-0.43133545,0.67248535,1.2102661,-0.05859375,0.038085938,0.0087890625,34.197548,-4.2281795,-128.80602,21.694963,0.0,0.0,0.0,0.0,0.0,0.0,0.0,-19.230219,-127.92699,34.896194,0.0,0.0,0.0,0.0,0.0,0.0,0.0,2.8828533,44.914207,0.043103933,
0.2812499916180971,12,0.0025634766,-0.9975586,0.28741455,-0.047851562,0.06542969,0.01953125,0.0,0.0,0.0,0.0,0.0,0.0,0.0,0.0,0.0,0.0,0.0,0.082259566,-0.003968347,-0.9968182,-0.89801025,-0.061157227,-0.3453369,0.09472656,0.061523438,0.01953125,1.1065912,1.703029,-0.08215712,-20.637228,-0.9766846,0.037231445,-0.22070312,0.0029296875,0.045898438,0.036132812,5.7722073,-1.2912098,-57.001083,-19.795788,-0.39031982,-0.34625244,0.8477783,0.015625,0.009765625,-0.0078125,3.287059,-0.03069377,-128.93864,-22.903776,0.0,0.0,0.0,0.0,0.0,0.0,0.0,-19.923702,-128.4726,-24.88205,0.0,0.0,0.0,0.0,0.0,0.0,0.0,-0.082259566,0.003968347,0.9968182,0.9456787,0.09069824,-0.34747314,0.061523438,-0.0126953125,-0.0390625,1.761031,-1.703029,0.08215712,20.637228,-0.9472046,0.09472656,-0.30200195,-0.07714844,0.041992188,0.029296875,5.104919,-4.999368,-56.802856,22.28962,-0.4058838,0.6713867,1.2098389,-0.07714844,0.037109375,0.028320312,34.092724,-4.3100576,-128.8088,21.768906,0.0,0.0,0.0,0.0,0.0,0.0,0.0,-19.314316,-127.92938,34.96707,0.0,0.0,0.0,0.0,0.0,0.0,0.0,2.8497381,44.919308,0.056342006,
0.3046874909196052,13,-0.013549805,-1.0136719,0.29107666,-0.06738281,0.06542969,0.01953125,0.0,0.0,0.0,0.0,0.0,0.0,0.0,0.0,0.0,0.0,0.0,0.08422667,-0.003583802,-0.9965602,-0.8817749,-0.06921387,-0.38146973,0.01953125,0.080078125,0.021484375,1.123439,1.7437525,-0.07419579,-20.631887,-0.9530029,-3.6621094E-4,-0.20507812,0.00390625,0.064453125,0.017578125,5.633047,-1.1058397,-57.00567,-19.858593,-0.39630127,-0.3421631,0.8360596,-0.00390625,0.028320312,-0.0078125,3.4153526,0.21418667,-128.94357,-22.922691,0.0,0.0,0.0,0.0,0.0,0.0,0.0,-19.676846,-128.47015,-24.915918,0.0,0.0,0.0,0.0,0.0,0.0,0.0,-0.08422667,0.003583802,0.9965602,0.93670654,0.1227417,-0.33319092,0.04296875,0.0068359375,-9.765625E-4,1.8104566,-1.7437525,0.07419579,20.631887,-0.9493408,0.084228516,-0.32373047,-0.038085938,0.022460938,0.046875,5.0918527,-4.9893017,-56.814453,22.311346,-0.44256592,0.682312,1.2125244,-0.040039062,-0.037109375,-0.009765625,34.165455,-4.283481,-128.82018,21.756947,0.0,0.0,0.0,0.0,0.0,0.0,0.0,-19.28774,-127.94075,34.955112,0.0,0.0,0.0,0.0,0.0,0.0,0.0,2.8041825,44.917873,0.07546973,
0.32812499022111324,14,-0.013427734,-0.98547363,0.2753296,-0.06738281,0.064453125,0.038085938,0.0,0.0,0.0,0.0,0.0,0.0,0.0,0.0,0.0,0.0,0.0,0.08541137,-0.0037013814,-0.9965128,-0.8934326,-0.107666016,-0.38555908,-0.018554688,0.09863281,0.021484375,1.1243095,1.7682793,-0.07663005,-20.630903,-0.956604,-0.022460938,-0.1953125,-0.013671875,0.123046875,0.017578125,5.523219,-0.96321845,-57.018154,-19.914898,-0.3942871,-0.34118652,0.8320923,0.015625,0.009765625,-0.0078125,3.5129046,0.39885783,-128.95549,-22.96395,0.0,0.0,0.0,0.0,0.0,0.0,0.0,-19.493313,-128.47386,-24.950325,0.0,0.0,0.0,0.0,0.0,0.0,0.0,-0.08541137,0.0037013814,0.9965128,0.94177246,0.120788574,-0.33520508,-0.052734375,0.0048828125,0.037109375,1.8971297,-1.7682793,0.07663005,20.630903,-0.9467163,0.037475586,-0.3427124,0.01953125,0.022460938,0.028320312,5.148221,-4.980859,-56.808735,22.405905,-0.43322754,0.66082764,1.2022095,-0.020507812,0.038085938,0.02734375,34.314266,-4.184638,-128.81264,21.907118,0.0,0.0,0.0,0.0,0.0,0.0,0.0,-19.188896,-127.93321,35.105286,0.0,0.0,0.0,0.0,0.0,0.0,0.0,2.7687783,44.922493,0.07045543,
0.3515624895226213,15,-0.02142334,-0.9812012,0.29309082,-0.028320312,0.08496094,9.765625E-4,0.0,0.0,0.0,0.0,0.0,0.0,0.0,0.0,0.0,0.0,0.0,0.08588892,-0.0038459525,-0.99653816,-0.9185791,-0.097717285,-0.37701416,-0.037109375,0.1171875,0.078125,1.1925538,1.7781677,-0.079623215,-20.631428,-0.9655762,-0.004699707,-0.18249512,-0.0146484375,0.06542969,0.017578125,5.416346,-0.8028705,-57.02592,-19.953497,-0.40563965,-0.36572266,0.85479736,-0.00390625,0.046875,-0.0078125,3.6104274,0.62068415,-128.96683,-23.00222,0.0,0.0,0.0,0.0,0.0,0.0,0.0,-19.271782,-128.48439,-24.990215,0.0,0.0,0.0,0.0,0.0,0.0,0.0,-0.08588892,0.0038459525,0.99653816,0.9295044,0.08898926,-0.3623047,-0.07128906,-0.033203125,-9.765625E-4,1.9044399,-1.7781677,0.079623215,20.631428,-0.9352417,0.07788086,-0.29229736,0.020507812,0.00390625,0.045898438,5.170551,-4.942071,-56.81405,22.416254,-0.44049072,0.67352295,1.2094116,-0.020507812,0.01953125,0.0087890625,34.488476,-4.06156,-128.81525,21.909859,0.0,0.0,0.0,0.0,0.0,0.0,0.0,-19.065819,-127.93582,35.108025,0.0,0.0,0.0,0.0,0.0,0.0,0.0,2.756887,44.926247,0.064224124,
0.3749999888241294,16,-0.02557373,-1.0170898,0.30285645,-0.028320312,0.10253906,0.0390625,0.0,0.0,0.0,0.0,0.0,0.0,0.0,0.0,0.0,0.0,0.0,0.086520195,-0.0034438428,-0.9963297,-0.8673706,-0.117492676,-0.37335205,-0.018554688,0.09863281,0.041015625,1.2365389,1.7912359,-0.07129828,-20.627115,-0.95440674,0.03161621,-0.20788574,-0.051757812,0.08496094,-9.765625E-4,5.400512,-0.7238498,-57.02047,-19.935448,-0.3876953,-0.37390137,0.85046387,-0.00390625,0.028320312,0.0107421875,3.6961813,0.7353034,-128.9593,-23.002306,0.0,0.0,0.0,0.0,0.0,0.0,0.0,-19.15676,-128.47253,-24.984941,0.0,0.0,0.0,0.0,0.0,0.0,0.0,-0.086520195,0.0034438428,0.9963297,0.9232788,0.068603516,-0.35150146,-0.08984375,-0.052734375,0.018554688,1.9075203,-1.7912359,0.07129828,20.627115,-0.94329834,0.07891846,-0.28930664,-0.018554688,0.022460938,0.028320312,5.172635,-4.9449415,-56.815685,22.397856,-0.41607666,0.67437744,1.210022,-0.020507812,0.01953125,0.02734375,34.490208,-4.0669374,-128.81711,21.837341,0.0,0.0,0.0,0.0,0.0,0.0,0.0,-19.071198,-127.93768,35.035507,0.0,0.0,0.0,0.0,0.0,0.0,0.0,2.7261062,44.921124,0.08146083,
0.39843748812563745,17,-0.018493652,-1.0059814,0.29699707,-0.0087890625,0.0859375,9.765625E-4,0.0,0.0,0.0,0.0,0.0,0.0,0.0,0.0,0.0,0.0,0.0,0.087705016,-0.0035595018,-0.9962817,-0.8544922,-0.09197998,-0.39416504,-0.018554688,0.13671875,0.041015625,1.2848134,1.8157657,-0.07369274,-20.62612,-0.9682617,0.0048217773,-0.20605469,-0.034179688,0.045898438,0.016601562,5.218005,-0.51632226,-57.032936,-20.034946,-0.3814087,-0.3572998,0.8564453,0.015625,0.028320312,0.029296875,3.8047252,0.9756732,-128.9685,-23.11423,0.0,0.0,0.0,0.0,0.0,0.0,0.0,-18.918121,-128.477,-25.085289,0.0,0.0,0.0,0.0,0.0,0.0,0.0,-0.087705016,0.0035595018,0.9962817,0.93634033,0.06829834,-0.3206787,0.0234375,0.005859375,-9.765625E-4,1.8620406,-1.8157657,0.07369274,20.62612,-0.9383545,0.050109863,-0.25506592,9.765625E-4,0.022460938,0.028320312,5.1638775,-4.9975934,-56.8134,22.367844,-0.43322754,0.65789795,1.2001953,-0.040039062,0.01953125,0.0087890625,34.447807,-4.1507754,-128.81769,21.806519,0.0,0.0,0.0,0.0,0.0,0.0,0.0,-19.155035,-127.93826,35.004684,0.0,0.0,0.0,0.0,0.0,0.0,0.0,2.6907039,44.925774,0.076358676,
0.4218749874271455,18,0.01763916,-0.97772217,0.29058838,-0.0087890625,0.06640625,0.020507812,0.0,0.0,0.0,0.0,0.0,0.0,0.0,0.0,0.0,0.0,0.0,0.08957943,-0.0035663433,-0.9961896,-0.8897095,-0.07513428,-0.3873291,0.018554688,0.13671875,0.040039062,1.3097032,1.8545722,-0.073834404,-20.624212,-0.94451904,0.012634277,-0.21282959,-0.034179688,0.06542969,0.017578125,5.0345826,-0.3374859,-57.036407,-20.145514,-0.4024048,-0.34906006,0.855896,0.015625,0.009765625,0.0107421875,3.8300653,1.1517191,-128.97073,-23.219126,0.0,0.0,0.0,0.0,0.0,0.0,0.0,-18.742348,-128.47339,-25.189125,0.0,0.0,0.0,0.0,0.0,0.0,0.0,-0.08957943,0.0035663433,0.9961896,0.91619873,0.082214355,-0.34136963,0.0048828125,0.043945312,-9.765625E-4,1.8551964,-1.8545722,0.073834404,20.624212,-0.92926025,0.07495117,-0.3001709,-0.0390625,0.060546875,0.047851562,5.1469646,-5.064082,-56.81434,22.365276,-0.42333984,0.69384766,1.2212524,-0.07714844,0.038085938,0.009765625,34.404293,-4.2579994,-128.82428,21.842194,0.0,0.0,0.0,0.0,0.0,0.0,0.0,-19.262259,-127.944855,35.04036,0.0,0.0,0.0,0.0,0.0,0.0,0.0,2.6523666,44.931408,0.077652454,
0.4453124867286536,19,-0.009521484,-1.0056152,0.288208,-0.0087890625,0.030273438,-0.017578125,0.0,0.0,0.0,0.0,0.0,0.0,0.0,0.0,0.0,0.0,0.0,0.091395855,-0.003399495,-0.99593365,-0.8825073,-0.09881592,-0.3876953,-0.018554688,0.061523438,0.040039062,1.3207134,1.892178,-0.07038006,-20.618912,-0.9532471,-0.0056152344,-0.1942749,-0.0146484375,0.06542969,-0.020507812,4.883871,-0.20053244,-57.03587,-20.237272,-0.39752197,-0.35791016,0.84088135,0.034179688,0.009765625,-0.0078125,3.816698,1.2739401,-128.96944,-23.30135,0.0,0.0,0.0,0.0,0.0,0.0,0.0,-18.61744,-128.46283,-25.28611,0.0,0.0,0.0,0.0,0.0,0.0,0.0,-0.091395855,0.003399495,0.99593365,0.9313965,0.07824707,-0.3494873,-0.0146484375,0.005859375,-9.765625E-4,1.8931022,-1.892178,0.07038006,20.618912,-0.93536377,0.06225586,-0.29333496,-0.01953125,0.041992188,0.028320312,5.2174044,-5.104305,-56.81725,22.390251,-0.44750977,0.6647949,1.2044678,-0.07714844,0.038085938,-0.009765625,34.372074,-4.2576885,-128.82402,21.7915,0.0,0.0,0.0,0.0,0.0,0.0,0.0,-19.276075,-127.93691,34.972233,0.0,0.0,0.0,0.0,0.0,0.0,0.0,2.6134124,44.929565,0.086468816,
0.46874998603016166,20,-0.005432129,-0.98602295,0.29522705,-0.0087890625,0.047851562,0.040039062,0.0,0.0,0.0,0.0,0.0,0.0,0.0,0.0,0.0,0.0,0.0,0.093556255,-0.0036192238,-0.9957793,-0.881897,-0.0524292,-0.38128662,0.0,0.080078125,0.021484375,1.320417,1.9369048,-0.07492915,-20.615719,-0.94714355,0.01361084,-0.25610352,-0.033203125,0.06542969,-0.020507812,4.7881474,-0.06851852,-57.04963,-20.329586,-0.4053955,-0.34588623,0.83618164,-0.00390625,-0.0078125,0.0107421875,3.9225624,1.4547669,-128.99017,-23.38924,0.0,0.0,0.0,0.0,0.0,0.0,0.0,-18.436472,-128.475,-25.37436,0.0,0.0,0.0,0.0,0.0,0.0,0.0,-0.093556255,0.0036192238,0.9957793,0.93859863,0.09753418,-0.3453369,-0.0146484375,-0.013671875,-9.765625E-4,1.8831517,-1.9369048,0.07492915,20.615719,-0.9423218,0.07122803,-0.30218506,-0.057617188,0.041992188,0.047851562,5.293502,-5.137348,-56.8119,22.388708,-0.4442749,0.6453247,1.1953125,-0.05859375,0.038085938,0.0087890625,34.498856,-4.2031174,-128.81567,21.722975,0.0,0.0,0.0,0.0,0.0,0.0,0.0,-19.223728,-127.928185,34.900646,0.0,0.0,0.0,0.0,0.0,0.0,0.0,2.5737855,44.93398,0.07849884,
0.4921874853316697,21,-0.007507324,-1.0122681,0.31298828,-0.0087890625,0.029296875,0.040039062,0.0,0.0,0.0,0.0,0.0,0.0,0.0,0.0,0.0,0.0,0.0,0.09601751,-0.0035675839,-0.99550897,-0.8944092,-0.10668945,-0.39648438,-0.018554688,0.1171875,0.059570312,1.344357,1.9878613,-0.07386006,-20.61012,-0.9388428,-0.009521484,-0.20703125,-0.013671875,0.083984375,-9.765625E-4,4.750977,0.07698798,-57.04511,-20.347363,-0.40063477,-0.36975098,0.85266113,-0.00390625,-0.0078125,0.0107421875,4.0575304,1.6662779,-128.98166,-23.431343,0.0,0.0,0.0,0.0,0.0,0.0,0.0,-18.225857,-128.46309,-25.406515,0.0,0.0,0.0,0.0,0.0,0.0,0.0,-0.09601751,0.0035675839,0.99550897,0.9365845,0.091796875,-0.35736084,-0.013671875,-0.032226562,-0.020507812,1.8540356,-1.9878613,0.07386006,20.61012,-0.9202881,0.07110596,-0.31591797,-0.01953125,0.041992188,0.046875,5.261273,-5.1273665,-56.815437,22.349342,-0.4241333,0.6656494,1.2050781,-0.057617188,0.056640625,0.0087890625,34.608932,-4.1111894,-128.81348,21.742552,0.0,0.0,0.0,0.0,0.0,0.0,0.0,-19.13564,-127.933754,34.91658,0.0,0.0,0.0,0.0,0.0,0.0,0.0,2.5229783,44.935234,0.0823096,
0.5156249846331779,22,-0.016479492,-0.99365234,0.28222656,-0.0087890625,0.029296875,0.020507812,0.0,0.0,0.0,0.0,0.0,0.0,0.0,0.0,0.0,0.0,0.0,0.0966962,-0.0034031905,-0.99541456,-0.8812256,-0.113708496,-0.41766357,-0.018554688,0.080078125,0.040039062,1.4305344,2.0019114,-0.070456594,-20.608166,-0.9619751,0.016479492,-0.19317627,-0.034179688,0.06542969,0.036132812,4.651895,0.2030909,-57.049652,-20.370804,-0.40026855,-0.3371582,0.8342285,-0.00390625,0.0107421875,0.0107421875,4.1076097,1.84354,-128.98776,-23.399029,0.0,0.0,0.0,0.0,0.0,0.0,0.0,-18.046974,-128.46721,-25.398672,0.0,0.0,0.0,0.0,0.0,0.0,0.0,-0.0966962,0.0034031905,0.99541456,0.9143677,0.09515381,-0.38409424,0.0048828125,-0.0703125,-0.020507812,1.8628812,-2.0019114,0.070456594,20.608166,-0.9100342,0.09313965,-0.28729248,-0.038085938,0.041992188,0.046875,5.276075,-5.0893126,-56.82416,22.34518,-0.44348145,0.66864014,1.2103882,-0.05859375,0.056640625,-0.009765625,34.71092,-4.00567,-128.82014,21.693316,0.0,0.0,0.0,0.0,0.0,0.0,0.0,-19.03012,-127.94042,34.867348,0.0,0.0,0.0,0.0,0.0,0.0,0.0,2.507906,44.934742,0.08999616,
0.5390624839346859,23,-0.005493164,-0.9977417,0.29125977,-0.0087890625,0.029296875,0.040039062,0.0,0.0,0.0,0.0,0.0,0.0,0.0,0.0,0.0,0.0,0.0,0.09779629,-0.0034954976,-0.99543077,-0.8731079,-0.12652588,-0.42193604,-0.055664062,0.061523438,0.00390625,1.5140072,2.0246866,-0.07236765,-20.608503,-0.9257202,0.039794922,-0.18804932,-0.016601562,0.026367188,0.036132812,4.5625257,0.34142232,-57.052376,-20.369076,-0.38909912,-0.33050537,0.8449707,0.015625,0.046875,0.0107421875,4.1868954,1.9976197,-128.98798,-23.387661,0.0,0.0,0.0,0.0,0.0,0.0,0.0,-17.893568,-128.45601,-25.368628,0.0,0.0,0.0,0.0,0.0,0.0,0.0,-0.09779629,0.0034954976,0.99543077,0.92333984,0.08996582,-0.3493042,0.0234375,-0.032226562,-0.020507812,1.8411127,-2.0246866,0.07236765,20.608503,-0.93237305,0.06237793,-0.30810547,-0.038085938,0.022460938,0.028320312,5.2754064,-5.086315,-56.825737,22.32882,-0.4567871,0.67749023,1.2086792,-0.05859375,0.01953125,-0.009765625,34.74582,-3.9629614,-128.82788,21.67169,0.0,0.0,0.0,0.0,0.0,0.0,0.0,-18.987411,-127.94816,34.84572,0.0,0.0,0.0,0.0,0.0,0.0,0.0,2.4850588,44.94159,0.08633089,
0.562499983236194,24,-0.005493164,-1.0062866,0.31103516,-0.0087890625,0.0107421875,0.021484375,0.0,0.0,0.0,0.0,0.0,0.0,0.0,0.0,0.0,0.0,0.0,0.101472616,-0.00320719,-0.99512094,-0.8496094,-0.08502197,-0.37634277,-0.018554688,0.061523438,0.021484375,1.4408933,2.1007974,-0.066398755,-20.602089,-0.9779663,0.028076172,-0.21289062,-0.033203125,0.06542969,-0.001953125,4.581933,0.41424537,-57.04944,-20.344158,-0.4154663,-0.350708,0.8442383,-0.022460938,0.0107421875,0.0107421875,4.154589,2.083325,-128.98242,-23.36011,0.0,0.0,0.0,0.0,0.0,0.0,0.0,-17.805487,-128.45215,-25.358929,0.0,0.0,0.0,0.0,0.0,0.0,0.0,-0.101472616,0.00320719,0.99512094,0.94262695,0.08001709,-0.34851074,-0.0146484375,0.005859375,-9.765625E-4,1.8838791,-2.1007974,0.066398755,20.602089,-0.90808105,0.08337402,-0.29223633,9.765625E-4,0.022460938,0.009765625,5.2998276,-5.1574497,-56.825306,22.34681,-0.43347168,0.6890259,1.2163696,-0.05859375,0.01953125,-0.009765625,34.738434,-4.0115137,-128.82893,21.684818,0.0,0.0,0.0,0.0,0.0,0.0,0.0,-19.042595,-127.94778,34.851902,0.0,0.0,0.0,0.0,0.0,0.0,0.0,2.4206896,44.947636,0.10197574,
0.5859374825377021,25,-0.0053710938,-0.97283936,0.28533936,-0.0087890625,0.029296875,0.040039062,0.0,0.0,0.0,0.0,0.0,0.0,0.0,0.0,0.0,0.0,0.0,0.10266659,-0.0028627869,-0.99498886,-0.8777466,-0.07507324,-0.3776245,0.0,0.09863281,0.078125,1.4077821,2.1255176,-0.0592686,-20.599356,-0.9711304,-3.0517578E-4,-0.24249268,-0.015625,0.045898438,0.036132812,4.640765,0.4535148,-57.04444,-20.362415,-0.40753174,-0.35772705,0.8430176,0.015625,0.0107421875,0.029296875,4.2762213,2.2086725,-128.97589,-23.43615,0.0,0.0,0.0,0.0,0.0,0.0,0.0,-17.679329,-128.44078,-25.440403,0.0,0.0,0.0,0.0,0.0,0.0,0.0,-0.10266659,0.0028627869,0.99498886,0.925354,0.072509766,-0.36047363,-0.033203125,-0.013671875,-9.765625E-4,1.8855404,-2.1255176,0.0592686,20.599356,-0.939209,0.08782959,-0.3079834,-0.076171875,0.022460938,0.029296875,5.302304,-5.166029,-56.836506,22.327297,-0.4486084,0.6706543,1.2084961,-0.07714844,0.038085938,-0.009765625,34.695206,-4.0094185,-128.8384,21.61642,0.0,0.0,0.0,0.0,0.0,0.0,0.0,-19.052437,-127.950005,34.769146,0.0,0.0,0.0,0.0,0.0,0.0,0.0,2.3828979,44.949135,0.11654818,
0.6093749818392101,26,-0.0335083,-1.0057373,0.31463623,-0.0087890625,0.029296875,0.020507812,0.0,0.0,0.0,0.0,0.0,0.0,0.0,0.0,0.0,0.0,0.0,0.10412276,-0.0025653765,-0.9948,-0.8812866,-0.09893799,-0.42443848,0.09375,0.13671875,0.057617188,1.4597832,2.155663,-0.053111278,-20.595444,-0.9473877,-0.0178833,-0.18444824,0.00390625,0.064453125,-0.001953125,4.5763717,0.5834527,-57.034992,-20.367565,-0.4093628,-0.34509277,0.87280273,-0.022460938,0.046875,0.029296875,4.37045,2.4023197,-128.96605,-23.40185,0.0,0.0,0.0,0.0,0.0,0.0,0.0,-17.486048,-128.42804,-25.399406,0.0,0.0,0.0,0.0,0.0,0.0,0.0,-0.10412276,0.0025653765,0.9948,0.91522217,0.07751465,-0.35736084,0.024414062,-0.0703125,-0.0390625,1.8827358,-2.155663,0.053111278,20.595444,-0.91619873,0.08190918,-0.32373047,-0.076171875,0.022460938,0.029296875,5.3767295,-5.193776,-56.84768,22.303268,-0.43725586,0.6530762,1.1982422,-0.05859375,0.056640625,-0.009765625,34.819927,-3.93847,-128.84256,21.54966,0.0,0.0,0.0,0.0,0.0,0.0,0.0,-18.996338,-127.948784,34.685204,0.0,0.0,0.0,0.0,0.0,0.0,0.0,2.3446915,44.94939,0.12949705,
0.6328124811407182,27,-0.02545166,-0.9960327,0.29296875,-0.0087890625,0.048828125,0.001953125,0.0,0.0,0.0,0.0,0.0,0.0,0.0,0.0,0.0,0.0,0.0,0.10621464,-0.0024544895,-0.9945486,-0.89245605,-0.078186035,-0.4249878,0.018554688,0.09863281,0.040039062,1.5050622,2.1989727,-0.050815538,-20.59024,-0.9343262,0.016174316,-0.19702148,-0.015625,0.045898438,0.016601562,4.4405174,0.7357929,-57.043594,-20.44484,-0.40338135,-0.3479004,0.8282471,-0.00390625,0.0107421875,0.0107421875,4.37833,2.5663738,-128.97804,-23.463636,0.0,0.0,0.0,0.0,0.0,0.0,0.0,-17.322905,-128.4321,-25.46182,0.0,0.0,0.0,0.0,0.0,0.0,0.0,-0.10621464,0.0024544895,0.9945486,0.9215088,0.12207031,-0.34606934,0.04296875,-0.0126953125,-0.0390625,1.8925853,-2.1989727,0.050815538,20.59024,-0.975647,0.049194336,-0.3081665,-0.056640625,0.022460938,0.046875,5.2530355,-5.135245,-56.850044,22.300798,-0.41900635,0.65686035,1.197998,-0.057617188,0.018554688,0.028320312,34.75066,-3.8893948,-128.85214,21.619019,0.0,0.0,0.0,0.0,0.0,0.0,0.0,-18.949493,-127.95799,34.751507,0.0,0.0,0.0,0.0,0.0,0.0,0.0,2.3098001,44.949818,0.13574576,
0.6562499804422263,28,-0.010375977,-0.9764404,0.30316162,-0.0087890625,0.030273438,0.001953125,0.0,0.0,0.0,0.0,0.0,0.0,0.0,0.0,0.0,0.0,0.0,0.10617158,-0.0026808884,-0.9945835,-0.86743164,-0.10961914,-0.380188,-0.018554688,0.061523438,0.021484375,1.5353136,2.198082,-0.055502675,-20.590961,-0.95684814,0.0211792,-0.18334961,-0.052734375,0.08496094,0.017578125,4.385794,0.78060174,-57.043198,-20.44887,-0.40753174,-0.35968018,0.84002686,0.015625,0.028320312,0.029296875,4.3677154,2.5937212,-128.97713,-23.458824,0.0,0.0,0.0,0.0,0.0,0.0,0.0,-17.2965,-128.4222,-25.453465,0.0,0.0,0.0,0.0,0.0,0.0,0.0,-0.10617158,0.0026808884,0.9945835,0.92755127,0.10070801,-0.36120605,0.0234375,-0.0126953125,-9.765625E-4,1.8838791,-2.198082,0.055502675,20.590961,-0.9400635,0.11437988,-0.31866455,0.0,0.060546875,0.046875,5.2112417,-5.074723,-56.846916,22.306896,-0.43640137,0.6725464,1.2073364,-0.020507812,0.0390625,0.0087890625,34.79839,-3.8040514,-128.84177,21.646593,0.0,0.0,0.0,0.0,0.0,0.0,0.0,-18.864151,-127.94762,34.779083,0.0,0.0,0.0,0.0,0.0,0.0,0.0,2.3009677,44.95168,0.124461174,
0.6796874797437343,29,0.005493164,-1.0038452,0.30029297,0.0107421875,0.030273438,0.021484375,0.0,0.0,0.0,0.0,0.0,0.0,0.0,0.0,0.0,0.0,0.0,0.10709727,-0.0017248914,-0.9944805,-0.89172363,-0.0770874,-0.3793335,0.01953125,0.061523438,0.021484375,1.5964265,2.2172446,-0.03571061,-20.588829,-0.9923706,-0.017944336,-0.19836426,-0.0146484375,0.06542969,0.017578125,4.309117,0.89197373,-57.028316,-20.48078,-0.41516113,-0.3260498,0.83947754,-0.059570312,0.029296875,-0.0078125,4.4167676,2.7486846,-128.95728,-23.468723,0.0,0.0,0.0,0.0,0.0,0.0,0.0,-17.14094,-128.39886,-25.468086,0.0,0.0,0.0,0.0,0.0,0.0,0.0,-0.10709727,0.0017248914,0.9944805,0.93463135,0.09289551,-0.3692627,-0.033203125,-0.032226562,-9.765625E-4,1.9716932,-2.2172446,0.03571061,20.588829,-0.95007324,0.11431885,-0.30187988,-0.037109375,0.0029296875,0.046875,5.297979,-5.0879126,-56.867508,22.33883,-0.432312,0.666687,1.2042236,-0.057617188,0.018554688,0.028320312,34.886444,-3.749607,-128.86282,21.596361,0.0,0.0,0.0,0.0,0.0,0.0,0.0,-18.809706,-127.96867,34.72885,0.0,0.0,0.0,0.0,0.0,0.0,0.0,2.2740018,44.95265,0.16692221,
0.7031249790452424,30,0.0016479492,-0.9707031,0.31323242,-0.0087890625,0.048828125,0.001953125,0.0,0.0,0.0,0.0,0.0,0.0,0.0,0.0,0.0,0.0,0.0,0.10792136,-0.0015488863,-0.9942515,-0.87109375,-0.12261963,-0.42785645,-0.055664062,0.080078125,0.022460938,1.6944282,2.234307,-0.032066748,-20.584087,-0.9729614,-0.028808594,-0.21606445,-0.0146484375,0.083984375,0.036132812,4.273518,1.0202943,-57.02622,-20.471819,-0.40356445,-0.3605957,0.81030273,-0.022460938,0.0107421875,0.029296875,4.577741,2.9719772,-128.9583,-23.444862,0.0,0.0,0.0,0.0,0.0,0.0,0.0,-16.915928,-128.39018,-25.443405,0.0,0.0,0.0,0.0,0.0,0.0,0.0,-0.10792136,0.0015488863,0.9942515,0.93255615,0.08416748,-0.37036133,-0.013671875,0.08203125,-0.001953125,1.9673209,-2.234307,0.032066748,20.584087,-0.9362793,0.070007324,-0.28546143,-0.018554688,0.022460938,0.028320312,5.29091,-5.100334,-56.873516,22.318619,-0.43823242,0.6491699,1.1952515,-0.020507812,0.01953125,0.046875,34.817585,-3.742074,-128.86488,21.604908,0.0,0.0,0.0,0.0,0.0,0.0,0.0,-18.802174,-127.97073,34.737396,0.0,0.0,0.0,0.0,0.0,0.0,0.0,2.2619364,44.94695,0.17550242,
0.7265624783467505,31,-0.0034179688,-0.9827881,0.31903076,-0.0087890625,0.06738281,9.765625E-4,0.0,0.0,0.0,0.0,0.0,0.0,0.0,0.0,0.0,0.0,0.0,0.10871926,-0.0014000684,-0.9942529,-0.85546875,-0.08996582,-0.39611816,0.01953125,0.080078125,0.021484375,1.7803724,2.2508264,-0.028985754,-20.584118,-0.9380493,0.017089844,-0.23638916,-0.034179688,0.045898438,0.036132812,4.1086583,1.1720908,-57.029816,-20.567917,-0.41729736,-0.33587646,0.8394165,-0.022460938,0.0107421875,0.0107421875,4.63426,3.1417599,-128.96268,-23.517756,0.0,0.0,0.0,0.0,0.0,0.0,0.0,-16.746439,-128.38766,-25.511074,0.0,0.0,0.0,0.0,0.0,0.0,0.0,-0.10871926,0.0014000684,0.9942529,0.92333984,0.099609375,-0.33129883,0.024414062,-0.032226562,-0.0390625,1.9816929,-2.2508264,0.028985754,20.584118,-0.93237305,0.070251465,-0.31793213,9.765625E-4,0.022460938,0.06542969,5.3110557,-5.0943847,-56.877018,22.325867,-0.44049072,0.6725464,1.2064209,-0.020507812,0.0390625,0.0087890625,34.890965,-3.6803012,-128.87364,21.620182,0.0,0.0,0.0,0.0,0.0,0.0,0.0,-18.7404,-127.97949,34.75267,0.0,0.0,0.0,0.0,0.0,0.0,0.0,2.2357469,44.952187,0.1811738,
0.7499999776482585,32,-0.011413574,-0.98583984,0.28723145,-0.0087890625,0.08496094,0.020507812,0.0,0.0,0.0,0.0,0.0,0.0,0.0,0.0,0.0,0.0,0.0,0.109576344,-0.0013177227,-0.9940665,-0.883667,-0.059387207,-0.40911865,0.018554688,0.09863281,0.040039062,1.8607789,2.268569,-0.02728094,-20.580257,-0.9454346,0.023254395,-0.19506836,-0.053710938,0.045898438,0.036132812,3.960717,1.3146429,-57.025673,-20.64337,-0.41748047,-0.3536377,0.8501587,-0.041015625,0.029296875,0.0107421875,4.622198,3.294509,-128.95508,-23.578444,0.0,0.0,0.0,0.0,0.0,0.0,0.0,-16.59377,-128.37952,-25.580849,0.0,0.0,0.0,0.0,0.0,0.0,0.0,-0.109576344,0.0013177227,0.9940665,0.92645264,0.08325195,-0.36535645,-0.051757812,-0.013671875,-9.765625E-4,1.9978237,-2.268569,0.02728094,20.580257,-0.93414307,0.10559082,-0.32757568,-0.01953125,0.060546875,0.046875,5.3233275,-5.082881,-56.87846,22.334623,-0.4202881,0.6899414,1.2191772,-0.0390625,0.018554688,0.06640625,34.902054,-3.6405835,-128.86711,21.590826,0.0,0.0,0.0,0.0,0.0,0.0,0.0,-18.700682,-127.97296,34.723312,0.0,0.0,0.0,0.0,0.0,0.0,0.0,2.207684,44.949425,0.1837694,
0.7734374769497666,33,-0.012573242,-1.0179443,0.30297852,-0.0087890625,0.047851562,0.020507812,0.0,0.0,0.0,0.0,0.0,0.0,0.0,0.0,0.0,0.0,0.0,0.10968101,-0.0013163462,-0.9940941,-0.8845215,-0.09979248,-0.38372803,0.018554688,0.09863281,0.040039062,1.9228483,2.2707367,-0.027252458,-20.58083,-0.951416,-0.018493652,-0.19921875,-0.03515625,0.026367188,0.036132812,3.8829234,1.4034214,-57.023926,-20.71017,-0.3909912,-0.324646,0.86083984,-0.022460938,0.0107421875,0.029296875,4.7110615,3.4283886,-128.95113,-23.64796,0.0,0.0,0.0,0.0,0.0,0.0,0.0,-16.460566,-128.37242,-25.647888,0.0,0.0,0.0,0.0,0.0,0.0,0.0,-0.10968101,0.0013163462,0.9940941,0.9173584,0.10559082,-0.35211182,-0.033203125,-0.032226562,-0.020507812,1.9774418,-2.2707367,0.027252458,20.58083,-0.9362793,0.08312988,-0.32373047,-0.01953125,0.041992188,0.028320312,5.363191,-5.0463295,-56.886585,22.317045,-0.44140625,0.6608887,1.1983643,-0.001953125,0.01953125,0.0087890625,34.962505,-3.5167077,-128.87813,21.512503,0.0,0.0,0.0,0.0,0.0,0.0,0.0,-18.576807,-127.98398,34.64499,0.0,0.0,0.0,0.0,0.0,0.0,0.0,2.1921065,44.951942,0.18233705,
0.7968749762512747,34,-0.010437012,-0.9814453,0.27435303,0.0107421875,0.030273438,0.040039062,0.0,0.0,0.0,0.0,0.0,0.0,0.0,0.0,0.0,0.0,0.0,0.10985434,-0.0016330276,-0.99420786,-0.8743286,-0.0949707,-0.4196167,-0.018554688,0.09863281,0.041015625,1.9984115,2.274324,-0.033808716,-20.583183,-0.96984863,0.024047852,-0.21679688,-0.034179688,0.045898438,0.036132812,3.7775056,1.5107493,-57.033627,-20.760036,-0.39141846,-0.35009766,0.8348999,-0.022460938,0.028320312,0.0107421875,4.764318,3.5508547,-128.9622,-23.694517,0.0,0.0,0.0,0.0,0.0,0.0,0.0,-16.339,-128.37244,-25.67089,0.0,0.0,0.0,0.0,0.0,0.0,0.0,-0.10985434,0.0016330276,0.99420786,0.91522217,0.08721924,-0.3562622,-0.033203125,-0.032226562,-9.765625E-4,1.9360344,-2.274324,0.033808716,20.583183,-0.9423218,0.08807373,-0.32470703,0.020507812,0.022460938,0.046875,5.3474936,-5.003378,-56.87991,22.298546,-0.432312,0.6676636,1.2052612,0.016601562,0.0390625,0.0078125,34.96831,-3.4488132,-128.86667,21.443062,0.0,0.0,0.0,0.0,0.0,0.0,0.0,-18.508911,-127.97252,34.57555,0.0,0.0,0.0,0.0,0.0,0.0,0.0,2.171837,44.95896,0.16612887,
0.8203124755527827,35,0.0025634766,-0.99786377,0.29730225,-0.0087890625,0.029296875,0.040039062,0.0,0.0,0.0,0.0,0.0,0.0,0.0,0.0,0.0,0.0,0.0,0.10965666,-0.0013966616,-0.9942255,-0.9011841,-0.111694336,-0.43011475,-0.037109375,0.061523438,0.078125,2.0194542,2.2702315,-0.028915232,-20.58355,-0.96520996,0.00579834,-0.20507812,-0.07324219,0.02734375,0.03515625,3.7280936,1.5516675,-57.032566,-20.77593,-0.39508057,-0.32940674,0.84606934,-0.00390625,0.028320312,0.029296875,4.754975,3.6108496,-128.95993,-23.674454,0.0,0.0,0.0,0.0,0.0,0.0,0.0,-16.278788,-128.37042,-25.658289,0.0,0.0,0.0,0.0,0.0,0.0,0.0,-0.10965666,0.0013966616,0.9942255,0.9122925,0.096069336,-0.37213135,-0.0146484375,-0.032226562,-9.765625E-4,1.9066994,-2.2702315,0.028915232,20.58355,-0.91204834,0.095336914,-0.30889893,-0.018554688,0.022460938,0.009765625,5.3019347,-4.958125,-56.882656,22.25905,-0.4609375,0.6871948,1.2197876,-0.001953125,9.765625E-4,0.0087890625,34.95868,-3.3906157,-128.874,21.40275,0.0,0.0,0.0,0.0,0.0,0.0,0.0,-18.450714,-127.97984,34.53524,0.0,0.0,0.0,0.0,0.0,0.0,0.0,2.1529427,44.959637,0.1742976,
0.8437499748542908,36,-0.02142334,-0.98187256,0.31488037,-0.0087890625,0.0107421875,0.059570312,0.0,0.0,0.0,0.0,0.0,0.0,0.0,0.0,0.0,0.0,0.0,0.11044201,-0.0014087502,-0.99405533,-0.87835693,-0.0949707,-0.4215088,-0.018554688,0.061523438,0.0029296875,1.9766499,2.286493,-0.0291655,-20.580027,-0.97961426,0.0020141602,-0.20513916,-0.053710938,0.02734375,0.016601562,3.7560883,1.5612198,-57.03278,-20.775196,-0.40948486,-0.35479736,0.85198975,0.015625,0.0107421875,0.029296875,4.802405,3.6356015,-128.95837,-23.708794,0.0,0.0,0.0,0.0,0.0,0.0,0.0,-16.25465,-128.3585,-25.678116,0.0,0.0,0.0,0.0,0.0,0.0,0.0,-0.11044201,0.0014087502,0.99405533,0.92144775,0.07672119,-0.3982544,0.0234375,-0.05078125,-0.020507812,1.8630913,-2.286493,0.0291655,20.580027,-0.93725586,0.08892822,-0.3217163,-0.057617188,0.041992188,0.029296875,5.285945,-4.9199758,-56.891914,22.214268,-0.43841553,0.6696167,1.2063599,-0.020507812,0.0390625,0.0087890625,34.982544,-3.3124447,-128.87874,21.292591,0.0,0.0,0.0,0.0,0.0,0.0,0.0,-18.372543,-127.98459,34.42508,0.0,0.0,0.0,0.0,0.0,0.0,0.0,2.1244748,44.957275,0.17232206,
0.8671874741557989,37,-0.01550293,-1.0127563,0.29309082,0.0107421875,0.030273438,0.001953125,0.0,0.0,0.0,0.0,0.0,0.0,0.0,0.0,0.0,0.0,0.0,0.111413926,-7.8380667E-4,-0.9939417,-0.87005615,-0.13244629,-0.41809082,9.765625E-4,0.061523438,0.040039062,2.0105186,2.306614,-0.016227236,-20.577675,-0.9765625,-0.05090332,-0.2053833,-0.032226562,0.123046875,0.037109375,3.8088405,1.6494378,-57.019146,-20.73713,-0.3894043,-0.354187,0.8457031,-0.022460938,0.046875,0.029296875,5.0170016,3.8624759,-128.94019,-23.665195,0.0,0.0,0.0,0.0,0.0,0.0,0.0,-16.02926,-128.3404,-25.619858,0.0,0.0,0.0,0.0,0.0,0.0,0.0,-0.111413926,7.8380667E-4,0.9939417,0.9194336,0.0960083,-0.37512207,0.04296875,-0.0126953125,-0.0390625,1.8801355,-2.306614,0.016227236,20.577675,-0.9345093,0.058776855,-0.33764648,-0.01953125,0.041992188,0.009765625,5.203151,-4.888163,-56.903522,22.193893,-0.42816162,0.6618042,1.2021484,-0.020507812,0.01953125,0.02734375,34.89717,-3.292316,-128.89764,21.32607,0.0,0.0,0.0,0.0,0.0,0.0,0.0,-18.352415,-128.0035,34.458557,0.0,0.0,0.0,0.0,0.0,0.0,0.0,2.095782,44.95825,0.19946912,
0.890624973457307,38,-0.009399414,-0.975647,0.27838135,0.0107421875,0.030273438,0.021484375,0.0,0.0,0.0,0.0,0.0,0.0,0.0,0.0,0.0,0.0,0.0,0.11234707,-3.474392E-4,-0.9938878,-0.87158203,-0.06732178,-0.40942383,0.0,0.080078125,0.040039062,2.0396085,2.325934,-0.0071930774,-20.576557,-0.9667969,0.016296387,-0.2286377,-0.03515625,0.045898438,0.07324219,3.7728372,1.7544059,-57.012768,-20.745968,-0.40527344,-0.33911133,0.8550415,-0.00390625,0.0107421875,0.029296875,5.090044,4.021668,-128.93106,-23.6873,0.0,0.0,0.0,0.0,0.0,0.0,0.0,-15.869879,-128.32538,-25.653234,0.0,0.0,0.0,0.0,0.0,0.0,0.0,-0.11234707,3.474392E-4,0.9938878,0.9194336,0.10467529,-0.35913086,0.024414062,0.005859375,-0.0390625,1.9179566,-2.325934,0.0071930774,20.576557,-0.91204834,0.09716797,-0.2980957,-0.036132812,-0.015625,0.046875,5.2210836,-4.8757257,-56.916855,22.210415,-0.4375,0.6842041,1.2153931,-0.020507812,0.0390625,0.0087890625,34.90955,-3.2321286,-128.90103,21.329367,0.0,0.0,0.0,0.0,0.0,0.0,0.0,-18.292227,-128.00688,34.461853,0.0,0.0,0.0,0.0,0.0,0.0,0.0,2.0506744,44.962524,0.21608639,
0.914062472758815,39,-0.0134887695,-0.9956665,0.2852173,-0.0087890625,0.029296875,0.020507812,0.0,0.0,0.0,0.0,0.0,0.0,0.0,0.0,0.0,0.0,0.0,0.11339921,-3.680978E-4,-0.99368393,-0.899353,-0.1116333,-0.39544678,-0.018554688,0.061523438,0.021484375,2.0422935,2.3477151,-0.007620761,-20.57234,-0.94885254,0.0073242188,-0.19421387,-0.053710938,0.045898438,0.036132812,3.7418816,1.82612,-57.008617,-20.766474,-0.40716553,-0.33325195,0.8659668,-0.00390625,-0.0078125,0.0107421875,5.152748,4.1354027,-128.9281,-23.69834,0.0,0.0,0.0,0.0,0.0,0.0,0.0,-15.75602,-128.31795,-25.652485,0.0,0.0,0.0,0.0,0.0,0.0,0.0,-0.11339921,3.680978E-4,0.99368393,0.91119385,0.101745605,-0.3451538,0.0234375,0.043945312,-9.765625E-4,1.9062887,-2.3477151,0.007620761,20.57234,-0.9243164,0.06921387,-0.31591797,-0.076171875,0.00390625,0.028320312,5.225585,-4.8409147,-56.916897,22.197693,-0.43743896,0.67736816,1.2123413,-0.040039062,0.01953125,-0.009765625,34.912365,-3.1487222,-128.9032,21.247429,0.0,0.0,0.0,0.0,0.0,0.0,0.0,-18.20882,-128.00905,34.379917,0.0,0.0,0.0,0.0,0.0,0.0,0.0,2.014213,44.96042,0.21320704,
0.9374999720603231,40,-0.005432129,-0.9976196,0.31799316,-0.0087890625,0.030273438,0.001953125,0.0,0.0,0.0,0.0,0.0,0.0,0.0,0.0,0.0,0.0,0.0,0.11408013,-1.6040541E-4,-0.9936099,-0.86950684,-0.09588623,-0.39093018,-0.055664062,0.080078125,0.059570312,2.0493727,2.3618133,-0.003320897,-20.570807,-0.9649048,0.014099121,-0.2197876,-0.03515625,0.026367188,0.0546875,3.704806,1.8771582,-57.004486,-20.804682,-0.37841797,-0.35839844,0.8563843,-0.022460938,0.0107421875,0.0107421875,5.1534705,4.2129526,-128.92789,-23.730556,0.0,0.0,0.0,0.0,0.0,0.0,0.0,-15.677661,-128.3129,-25.690132,0.0,0.0,0.0,0.0,0.0,0.0,0.0,-0.11408013,1.6040541E-4,0.9936099,0.9113159,0.09033203,-0.38513184,0.0048828125,0.005859375,-9.765625E-4,1.8913438,-2.3618133,0.003320897,20.570807,-0.91833496,0.061157227,-0.30419922,-0.038085938,0.022460938,0.028320312,5.1994596,-4.8041277,-56.924316,22.17018,-0.44659424,0.67840576,1.2115479,-0.040039062,0.038085938,-0.009765625,35.032303,-3.0603313,-128.90921,21.23255,0.0,0.0,0.0,0.0,0.0,0.0,0.0,-18.12043,-128.01506,34.365036,0.0,0.0,0.0,0.0,0.0,0.0,0.0,1.9914539,44.961563,0.2213879,
0.9609374713618312,41,-0.01751709,-1.0098267,0.29400635,-0.0087890625,0.0107421875,0.040039062,0.0,0.0,0.0,0.0,0.0,0.0,0.0,0.0,0.0,0.0,0.0,0.11457002,1.9007549E-4,-0.9935771,-0.8904419,-0.111572266,-0.37872314,-0.037109375,0.09863281,0.041015625,2.0855343,2.3719544,0.0039351396,-20.570127,-0.9821167,-0.02758789,-0.22003174,-0.053710938,0.045898438,0.0546875,3.6543057,1.950577,-56.99852,-20.803963,-0.3922119,-0.33935547,0.85284424,-0.00390625,0.046875,0.029296875,5.189653,4.312157,-128.91522,-23.692314,0.0,0.0,0.0,0.0,0.0,0.0,0.0,-15.577686,-128.30042,-25.660011,0.0,0.0,0.0,0.0,0.0,0.0,0.0,-0.11457002,-1.9007549E-4,0.9935771,0.92041016,0.09887695,-0.36712646,-0.0146484375,-0.032226562,-9.765625E-4,1.909161,-2.3719544,-0.0039351396,20.570127,-0.9503784,0.08239746,-0.331604,0.0,0.041992188,0.028320312,5.2382436,-4.8205147,-56.934536,22.170296,-0.42010498,0.666626,1.2040405,-0.001953125,0.057617188,-0.0107421875,35.046513,-3.0356712,-128.92229,21.22273,0.0,0.0,0.0,0.0,0.0,0.0,0.0,-18.09577,-128.02814,34.355217,0.0,0.0,0.0,0.0,0.0,0.0,0.0,1.9694836,44.963512,0.23570418,
0.9843749706633392,42,0.017578125,-0.9894409,0.28759766,0.0107421875,0.048828125,0.040039062,0.0,0.0,0.0,0.0,0.0,0.0,0.0,0.0,0.0,0.0,0.0,0.11455464,4.3065846E-4,-0.99363023,-0.89538574,-0.09100342,-0.427063,-0.055664062,0.061523438,0.00390625,2.110998,2.3716357,0.008915946,-20.571226,-0.961853,0.005432129,-0.23754883,-0.052734375,0.06542969,0.036132812,3.614005,1.9936887,-56.9976,-20.80915,-0.4173584,-0.3447876,0.85614014,-0.022460938,0.0107421875,0.047851562,5.171574,4.3690386,-128.92052,-23.67488,0.0,0.0,0.0,0.0,0.0,0.0,0.0,-15.519473,-128.30743,-25.658113,0.0,0.0,0.0,0.0,0.0,0.0,0.0,-0.11455464,-4.3065846E-4,0.99363023,0.9071655,0.096069336,-0.36212158,-0.0146484375,-0.013671875,0.017578125,1.8876152,-2.3716357,-0.008915946,20.571226,-0.93200684,0.13311768,-0.34313965,-0.0390625,0.041992188,0.009765625,5.2428055,-4.7717543,-56.943962,22.137524,-0.45690918,0.6911011,1.2167969,-0.021484375,0.01953125,-0.029296875,35.166317,-2.9113617,-128.92441,21.16171,0.0,0.0,0.0,0.0,0.0,0.0,0.0,-17.97146,-128.03026,34.294197,0.0,0.0,0.0,0.0,0.0,0.0,0.0,1.9550946,44.96639,0.24489024,
1.0078124699648474,43,-0.02557373,-1.0236816,0.29089355,-0.0087890625,0.0107421875,0.021484375,0.0,0.0,0.0,0.0,0.0,0.0,0.0,0.0,0.0,0.0,0.0,0.11542669,4.966408E-4,-0.99351436,-0.88464355,-0.07513428,-0.39733887,-0.018554688,0.061523438,0.040039062,2.1333165,2.3896892,0.01028201,-20.56883,-0.9562378,-0.009216309,-0.20904541,-0.07324219,0.045898438,0.0546875,3.5648017,2.0639133,-56.99933,-20.81307,-0.4276123,-0.35839844,0.85321045,-0.00390625,0.0107421875,0.029296875,5.196633,4.455024,-128.91934,-23.649693,0.0,0.0,0.0,0.0,0.0,0.0,0.0,-15.43221,-128.30591,-25.640125,0.0,0.0,0.0,0.0,0.0,0.0,0.0,-0.11542669,-4.966408E-4,0.99351436,0.9326172,0.08331299,-0.38531494,0.04296875,-0.03125,-0.020507812,1.8695927,-2.3896892,-0.01028201,20.56883,-0.9282837,0.08117676,-0.33459473,-0.037109375,0.00390625,0.009765625,5.245346,-4.752778,-56.945564,22.11421,-0.43634033,0.6676636,1.2062988,-0.057617188,0.038085938,0.046875,35.289154,-2.8331146,-128.92177,21.12964,0.0,0.0,0.0,0.0,0.0,0.0,0.0,-17.893213,-128.02762,34.26213,0.0,0.0,0.0,0.0,0.0,0.0,0.0,1.9315261,44.966732,0.24688315,
1.0312499692663555,44,-0.015380859,-0.9744873,0.30108643,0.0107421875,0.030273438,0.040039062,0.0,0.0,0.0,0.0,0.0,0.0,0.0,0.0,0.0,0.0,0.0,0.11610648,4.8534013E-4,-0.9933152,-0.8491821,-0.094055176,-0.4399414,-0.017578125,0.024414062,0.0029296875,2.1738489,2.4037623,0.010048056,-20.564705,-0.9639282,-0.03125,-0.20031738,-0.07324219,0.02734375,0.03515625,3.545581,2.1333308,-56.99464,-20.779768,-0.4202881,-0.33789062,0.8621826,-0.022460938,0.0107421875,0.0107421875,5.219995,4.562426,-128.92073,-23.588339,0.0,0.0,0.0,0.0,0.0,0.0,0.0,-15.325125,-128.30705,-25.582985,0.0,0.0,0.0,0.0,0.0,0.0,0.0,-0.11610648,-4.8534013E-4,0.9933152,0.9315796,0.1026001,-0.3591919,0.061523438,0.0068359375,-0.0390625,1.8428128,-2.4037623,-0.010048056,20.564705,-0.9324341,0.058532715,-0.31896973,-0.057617188,0.041992188,0.0107421875,5.2600813,-4.735551,-56.942036,22.083246,-0.4342041,0.6520996,1.196167,-0.057617188,0.056640625,0.028320312,35.349243,-2.7574863,-128.9172,21.060976,0.0,0.0,0.0,0.0,0.0,0.0,0.0,-17.817585,-128.02306,34.193466,0.0,0.0,0.0,0.0,0.0,0.0,0.0,1.9186293,44.96192,0.2462332,
1.0546874685678636,45,-3.0517578E-4,-0.9589844,0.3171997,-0.0087890625,0.029296875,0.040039062,0.0,0.0,0.0,0.0,0.0,0.0,0.0,0.0,0.0,0.0,0.0,0.11658755,9.826776E-4,-0.9933579,-0.87945557,-0.080200195,-0.42529297,-0.055664062,0.061523438,0.022460938,2.2207894,2.413723,0.020344442,-20.56559,-0.98114014,-0.0095825195,-0.17669678,-0.07421875,0.0078125,0.0546875,3.4576266,2.2122502,-56.98811,-20.827366,-0.39123535,-0.3383789,0.84490967,-0.00390625,0.0107421875,0.029296875,5.268047,4.6539907,-128.91003,-23.60731,0.0,0.0,0.0,0.0,0.0,0.0,0.0,-15.231469,-128.29117,-25.614586,0.0,0.0,0.0,0.0,0.0,0.0,0.0,-0.11658755,-9.826776E-4,0.9933579,0.9182129,0.08123779,-0.34039307,0.04296875,-0.0126953125,-0.020507812,1.854669,-2.413723,-0.020344442,20.56559,-0.927124,0.10461426,-0.33642578,-0.057617188,0.041992188,0.0107421875,5.2961664,-4.7534676,-56.95707,22.070208,-0.45458984,0.6589966,1.2005615,-0.020507812,0.0390625,-0.0107421875,35.438274,-2.7193544,-128.93118,21.062735,0.0,0.0,0.0,0.0,0.0,0.0,0.0,-17.779453,-128.03703,34.19522,0.0,0.0,0.0,0.0,0.0,0.0,0.0,1.9019432,44.966953,0.26770905,
1.0781249678693716,46,-0.012390137,-0.97784424,0.31500244,-0.02734375,-0.0087890625,0.040039062,0.0,0.0,0.0,0.0,0.0,0.0,0.0,0.0,0.0,0.0,0.0,0.11705172,0.0012807734,-0.9932043,-0.89227295,-0.10479736,-0.4232788,-0.037109375,0.080078125,0.041015625,2.2184968,2.4233327,0.02651595,-20.562408,-0.9552002,-0.012023926,-0.21789551,-0.036132812,0.0068359375,0.0546875,3.4719234,2.234097,-56.98083,-20.853891,-0.399292,-0.3411255,0.83514404,-0.00390625,0.0107421875,0.029296875,5.3712597,4.7414026,-128.90244,-23.62473,0.0,0.0,0.0,0.0,0.0,0.0,0.0,-15.144374,-128.28333,-25.636217,0.0,0.0,0.0,0.0,0.0,0.0,0.0,-0.11705172,-0.0012807734,0.9932043,0.9347534,0.12677002,-0.35205078,0.0234375,0.005859375,-0.020507812,1.8919646,-2.4233327,-0.02651595,20.562408,-0.9290161,0.09918213,-0.2822876,0.001953125,-0.015625,0.0087890625,5.3050385,-4.734707,-56.959213,22.08681,-0.43432617,0.6647339,1.2072144,-0.001953125,0.0390625,0.02734375,35.470425,-2.6757524,-128.93709,21.055082,0.0,0.0,0.0,0.0,0.0,0.0,0.0,-17.735851,-128.04294,34.18757,0.0,0.0,0.0,0.0,0.0,0.0,0.0,1.8906167,44.962936,0.2807953,
1.1015624671708797,47,-0.0034179688,-0.986145,0.30023193,-0.0087890625,0.0107421875,0.021484375,0.0,0.0,0.0,0.0,0.0,0.0,0.0,0.0,0.0,0.0,0.0,0.11740661,0.0015663505,-0.9933503,-0.87646484,-0.08703613,-0.40655518,-0.018554688,0.09863281,0.041015625,2.2384336,2.430682,0.03242828,-20.565432,-0.9789429,0.02532959,-0.22271729,-0.07421875,0.0078125,0.0546875,3.4667878,2.277682,-56.971733,-20.855406,-0.39440918,-0.35009766,0.8468628,0.015625,0.0107421875,0.029296875,5.35694,4.800355,-128.89148,-23.661299,0.0,0.0,0.0,0.0,0.0,0.0,0.0,-15.085889,-128.27394,-25.677876,0.0,0.0,0.0,0.0,0.0,0.0,0.0,-0.11740661,-0.0015663505,0.9933503,0.92852783,0.09875488,-0.36120605,0.0048828125,0.043945312,-9.765625E-4,1.9240692,-2.430682,-0.03242828,20.565432,-0.94537354,0.07928467,-0.32177734,-0.037109375,0.00390625,-0.0087890625,5.251618,-4.713745,-56.96674,22.106325,-0.43017578,0.6569214,1.2021484,0.017578125,0.07714844,0.02734375,35.440834,-2.7033453,-128.93839,21.07704,0.0,0.0,0.0,0.0,0.0,0.0,0.0,-17.763443,-128.04424,34.209526,0.0,0.0,0.0,0.0,0.0,0.0,0.0,1.8776436,44.97183,0.29283667,
1.1249999664723878,48,0.016540527,-0.99420166,0.3133545,-0.0087890625,0.047851562,0.040039062,0.0,0.0,0.0,0.0,0.0,0.0,0.0,0.0,0.0,0.0,0.0,0.117495865,0.0020030867,-0.99320424,-0.85253906,-0.0869751,-0.38427734,0.018554688,0.099609375,0.0029296875,2.3116453,2.4325278,0.041470096,-20.562407,-0.9621582,-0.0029907227,-0.21789551,-0.07324219,0.026367188,0.07324219,3.4219387,2.371457,-56.966423,-20.884274,-0.4055786,-0.3616333,0.8311157,-0.00390625,0.028320312,0.0107421875,5.445825,4.9731493,-128.8802,-23.684605,0.0,0.0,0.0,0.0,0.0,0.0,0.0,-14.9114485,-128.2652,-25.71508,0.0,0.0,0.0,0.0,0.0,0.0,0.0,-0.117495865,-0.0020030867,0.99320424,0.91729736,0.09490967,-0.35321045,-0.0146484375,0.005859375,0.017578125,1.9612432,-2.4325278,-0.041470096,20.562407,-0.9250488,0.101379395,-0.3059082,-0.076171875,0.022460938,0.029296875,5.3096166,-4.7152205,-56.974308,22.118063,-0.4605713,0.6483154,1.1955566,-0.05859375,0.01953125,-0.009765625,35.52338,-2.6690073,-128.94585,21.017107,0.0,0.0,0.0,0.0,0.0,0.0,0.0,-17.729107,-128.0517,34.149597,0.0,0.0,0.0,0.0,0.0,0.0,0.0,1.8625865,44.96631,0.31103134,
1.1484374657738958,49,5.493164E-4,-1.0023804,0.31506348,-0.0087890625,0.048828125,0.001953125,0.0,0.0,0.0,0.0,0.0,0.0,0.0,0.0,0.0,0.0,0.0,0.118180424,0.0022500083,-0.99315387,-0.852417,-0.09100342,-0.40014648,0.018554688,0.09863281,0.021484375,2.341259,2.4467013,0.04658217,-20.561365,-0.9734497,0.004760742,-0.19921875,-0.0546875,0.0078125,0.0546875,3.3662157,2.4541028,-56.96248,-20.912006,-0.42053223,-0.35357666,0.84820557,-0.041015625,0.0107421875,0.0107421875,5.492085,5.082453,-128.87613,-23.712173,0.0,0.0,0.0,0.0,0.0,0.0,0.0,-14.80065,-128.25943,-25.750565,0.0,0.0,0.0,0.0,0.0,0.0,0.0,-0.118180424,-0.0022500083,0.99315387,0.90734863,0.10986328,-0.38787842,0.0234375,-0.0126953125,-9.765625E-4,1.9507375,-2.4467013,-0.04658217,20.561365,-0.92193604,0.11999512,-0.3166504,-0.057617188,0.022460938,0.009765625,5.293761,-4.6829357,-56.98994,22.095182,-0.4413452,0.6550293,1.1983032,-0.0390625,0.038085938,0.046875,35.611355,-2.6192164,-128.9601,20.927788,0.0,0.0,0.0,0.0,0.0,0.0,0.0,-17.679316,-128.06595,34.060276,0.0,0.0,0.0,0.0,0.0,0.0,0.0,1.832183,44.968895,0.3198986,
1.171874965075404,50,-0.0053710938,-0.97442627,0.30322266,-0.0087890625,0.029296875,0.020507812,0.0,0.0,0.0,0.0,0.0,0.0,0.0,0.0,0.0,0.0,0.0,0.1197297,0.0019457731,-0.9930379,-0.8845825,-0.07714844,-0.40130615,0.01953125,0.061523438,0.001953125,2.370503,2.4787767,0.04028354,-20.558964,-0.9781494,-0.01751709,-0.18164062,-0.07324219,0.02734375,0.03515625,3.2837222,2.5371993,-56.963345,-20.94413,-0.39538574,-0.3491211,0.84588623,-0.022460938,0.028320312,0.0107421875,5.478795,5.158127,-128.8841,-23.707321,0.0,0.0,0.0,0.0,0.0,0.0,0.0,-14.723331,-128.26385,-25.752745,0.0,0.0,0.0,0.0,0.0,0.0,0.0,-0.1197297,-0.0019457731,0.9930379,0.9194946,0.113464355,-0.3670044,-0.0146484375,0.043945312,0.017578125,1.9440039,-2.4787767,-0.04028354,20.558964,-0.9425659,0.064941406,-0.35827637,9.765625E-4,0.022460938,0.028320312,5.2699065,-4.673217,-56.98347,22.10124,-0.44250488,0.6706543,1.2044678,-0.001953125,0.0390625,0.046875,35.683514,-2.5708313,-128.95241,20.980373,0.0,0.0,0.0,0.0,0.0,0.0,0.0,-17.63093,-128.05826,34.11286,0.0,0.0,0.0,0.0,0.0,0.0,0.0,1.8156424,44.97274,0.30703068,
1.195312464376912,51,0.005554199,-0.99212646,0.30529785,-0.0087890625,0.030273438,0.001953125,0.0,0.0,0.0,0.0,0.0,0.0,0.0,0.0,0.0,0.0,0.0,0.12015924,0.0018737856,-0.99284506,-0.8666382,-0.06341553,-0.41149902,-0.055664062,0.024414062,0.022460938,2.341844,2.487669,0.038793184,-20.55497,-0.97052,0.0072631836,-0.17852783,-0.07324219,0.02734375,0.0546875,3.2568426,2.5492287,-56.96386,-20.963161,-0.41430664,-0.33874512,0.82159424,0.015625,0.028320312,0.029296875,5.4797606,5.143476,-128.88074,-23.738665,0.0,0.0,0.0,0.0,0.0,0.0,0.0,-14.738234,-128.26073,-25.789894,0.0,0.0,0.0,0.0,0.0,0.0,0.0,-0.12015924,-0.0018737856,0.99284506,0.90509033,0.08630371,-0.35021973,-0.033203125,-0.013671875,0.017578125,1.9378532,-2.487669,-0.038793184,20.55497,-0.9434204,0.06756592,-0.32580566,0.01953125,0.022460938,0.028320312,5.2425437,-4.664009,-56.981884,22.098515,-0.45373535,0.6765137,1.2116089,-0.020507812,0.038085938,0.02734375,35.638813,-2.554254,-128.95178,21.023626,0.0,0.0,0.0,0.0,0.0,0.0,0.0,-17.619848,-128.05505,34.15211,0.0,0.0,0.0,0.0,0.0,0.0,0.0,1.7902434,44.96749,0.3015312,
1.21874996367842,52,-0.014526367,-1.0142822,0.3109131,-0.0087890625,0.048828125,0.001953125,0.0,0.0,0.0,0.0,0.0,0.0,0.0,0.0,0.0,0.0,0.0,0.120894104,0.0024219267,-0.9928069,-0.8897705,-0.072143555,-0.3793335,-0.018554688,0.061523438,0.021484375,2.2614856,2.5028837,0.05014142,-20.554178,-0.9616089,-0.016418457,-0.1953125,-0.07421875,0.0078125,0.0546875,3.286225,2.531482,-56.957256,-20.975351,-0.4100952,-0.32421875,0.84832764,-0.022460938,0.0107421875,0.029296875,5.512209,5.1592736,-128.87285,-23.711164,0.0,0.0,0.0,0.0,0.0,0.0,0.0,-14.722109,-128.2547,-25.764923,0.0,0.0,0.0,0.0,0.0,0.0,0.0,-0.120894104,-0.0024219267,0.9928069,0.9234619,0.09301758,-0.36621094,-0.051757812,0.024414062,0.017578125,1.9311762,-2.5028837,-0.05014142,20.554178,-0.9741211,0.12738037,-0.30480957,9.765625E-4,0.022460938,0.028320312,5.256988,-4.66813,-56.99268,22.06504,-0.4446411,0.682312,1.2145386,-0.020507812,9.765625E-4,0.046875,35.643337,-2.533245,-128.96625,20.930758,0.0,0.0,0.0,0.0,0.0,0.0,0.0,-17.598839,-128.06952,34.059242,0.0,0.0,0.0,0.0,0.0,0.0,0.0,1.7533903,44.971123,0.3232164,
1.242187462979928,53,-0.005432129,-0.99157715,0.28430176,-0.047851562,0.046875,9.765625E-4,0.0,0.0,0.0,0.0,0.0,0.0,0.0,0.0,0.0,0.0,0.0,0.12125692,0.0025628787,-0.992877,-0.88220215,-0.10089111,-0.4373169,-0.018554688,0.061523438,0.0029296875,2.241841,2.510395,0.05305955,-20.555634,-0.9819946,-0.003479004,-0.18060303,-0.052734375,0.045898438,-0.001953125,3.2597265,2.543005,-56.953754,-20.969725,-0.3991089,-0.3293457,0.84906006,-0.022460938,0.029296875,0.029296875,5.564649,5.1520143,-128.87375,-23.671383,0.0,0.0,0.0,0.0,0.0,0.0,0.0,-14.73167,-128.24327,-25.699312,0.0,0.0,0.0,0.0,0.0,0.0,0.0,-0.12125692,-0.0025628787,0.992877,0.91833496,0.084350586,-0.37023926,-0.033203125,0.024414062,0.017578125,1.9008397,-2.510395,-0.05305955,20.555634,-0.9423218,0.07220459,-0.30316162,-0.037109375,0.00390625,0.009765625,5.220558,-4.6485877,-56.997528,22.030388,-0.42095947,0.6520386,1.1950073,-0.020507812,0.01953125,0.06542969,35.65947,-2.5157747,-128.96902,20.879574,0.0,0.0,0.0,0.0,0.0,0.0,0.0,-17.58137,-128.0723,34.008057,0.0,0.0,0.0,0.0,0.0,0.0,0.0,1.7350895,44.97693,0.32799843,
1.2656249622814362,54,-0.022460938,-0.9987793,0.31878662,-0.0087890625,0.030273438,0.001953125,0.0,0.0,0.0,0.0,0.0,0.0,0.0,0.0,0.0,0.0,0.0,0.122424275,0.0029073898,-0.9926427,-0.89733887,-0.0949707,-0.427063,-0.017578125,0.024414062,0.0029296875,2.1411004,2.5345623,0.060191967,-20.550781,-0.9555664,0.02368164,-0.2088623,-0.07324219,0.0078125,0.03515625,3.277456,2.5108764,-56.941856,-20.977213,-0.4055786,-0.3618164,0.8597412,-0.022460938,0.028320312,0.0107421875,5.494832,5.0940437,-128.85883,-23.65978,0.0,0.0,0.0,0.0,0.0,0.0,0.0,-14.787073,-128.22765,-25.70211,0.0,0.0,0.0,0.0,0.0,0.0,0.0,-0.122424275,-0.0029073898,0.9926427,0.9234619,0.0949707,-0.37219238,-0.033203125,0.005859375,0.037109375,1.8863707,-2.5345623,-0.060191967,20.550781,-0.91711426,0.095458984,-0.31481934,-0.037109375,-0.015625,0.009765625,5.2282467,-4.664654,-57.006172,21.99482,-0.42712402,0.6569214,1.2011108,-0.057617188,0.038085938,0.046875,35.733776,-2.4950643,-128.9765,20.836452,0.0,0.0,0.0,0.0,0.0,0.0,0.0,-17.56066,-128.07977,33.964935,0.0,0.0,0.0,0.0,0.0,0.0,0.0,1.7001257,44.974136,0.34140593,
1.2890624615829442,55,-0.016418457,-0.9829712,0.32086182,-0.0087890625,0.047851562,0.020507812,0.0,0.0,0.0,0.0,0.0,0.0,0.0,0.0,0.0,0.0,0.0,0.12288281,0.0029779747,-0.992692,-0.8689575,-0.122680664,-0.44976807,-0.017578125,0.005859375,0.0029296875,2.1125736,2.544056,0.061653294,-20.5518,-0.9508667,-0.008728027,-0.23657227,-0.053710938,0.045898438,0.036132812,3.331724,2.515037,-56.94183,-20.927124,-0.38928223,-0.34228516,0.8359375,-0.041015625,0.0107421875,0.029296875,5.5344553,5.1205387,-128.86415,-23.635942,0.0,0.0,0.0,0.0,0.0,0.0,0.0,-14.761965,-128.23172,-25.675995,0.0,0.0,0.0,0.0,0.0,0.0,0.0,-0.12288281,-0.0029779747,0.992692,0.9154053,0.08459473,-0.4071045,-0.033203125,-0.013671875,0.017578125,1.8242407,-2.544056,-0.061653294,20.5518,-0.9373169,0.07623291,-0.32281494,-0.018554688,0.00390625,-0.0087890625,5.1935024,-4.630825,-57.012814,21.93169,-0.45666504,0.66778564,1.2046509,-0.057617188,0.0,0.046875,35.76329,-2.4296436,-128.97859,20.741182,0.0,0.0,0.0,0.0,0.0,0.0,0.0,-17.502964,-128.0789,33.862602,0.0,0.0,0.0,0.0,0.0,0.0,0.0,1.6814284,44.979572,0.34307396,
1.3124999608844523,56,-0.023376465,-0.97528076,0.3237915,-0.047851562,0.06542969,0.01953125,0.0,0.0,0.0,0.0,0.0,0.0,0.0,0.0,0.0,0.0,0.0,0.12355378,0.0031150393,-0.9925662,-0.87841797,-0.093933105,-0.40460205,-0.018554688,0.061523438,0.040039062,2.0846894,2.5579457,0.06449099,-20.5492,-0.951355,-0.0126953125,-0.19036865,-0.053710938,0.026367188,0.03515625,3.3616176,2.5082588,-56.940773,-20.870703,-0.4013672,-0.34503174,0.83807373,-0.022460938,0.029296875,0.029296875,5.59489,5.1195908,-128.86392,-23.53316,0.0,0.0,0.0,0.0,0.0,0.0,0.0,-14.764561,-128.22896,-25.55931,0.0,0.0,0.0,0.0,0.0,0.0,0.0,-0.12355378,-0.0031150393,0.9925662,0.90930176,0.10192871,-0.37402344,-0.013671875,-0.032226562,-0.020507812,1.799071,-2.5579457,-0.06449099,20.5492,-0.9251709,0.07171631,-0.2765503,-0.037109375,-0.015625,-0.0087890625,5.174377,-4.605873,-57.016888,21.895042,-0.44024658,0.6472168,1.196228,-0.040039062,-0.018554688,0.028320312,35.796116,-2.363541,-128.98137,20.698723,0.0,0.0,0.0,0.0,0.0,0.0,0.0,-17.439093,-128.08131,33.817085,0.0,0.0,0.0,0.0,0.0,0.0,0.0,1.67379,44.977924,0.3495093,
1.3359374601859604,57,-0.01550293,-1.0029907,0.32873535,-0.0087890625,0.06640625,0.0390625,0.0,0.0,0.0,0.0,0.0,0.0,0.0,0.0,0.0,0.0,0.0,0.12279591,0.0035364032,-0.9926589,-0.878479,-0.08013916,-0.41540527,-0.017578125,0.024414062,0.0029296875,2.0133395,2.5422552,0.07321453,-20.551119,-0.9550171,0.007385254,-0.19226074,-0.053710938,0.045898438,0.036132812,3.4256556,2.4193432,-56.936806,-20.83307,-0.39337158,-0.34613037,0.8330078,-0.041015625,0.0107421875,0.029296875,5.5745015,4.997485,-128.86127,-23.503319,0.0,0.0,0.0,0.0,0.0,0.0,0.0,-14.887269,-128.22372,-25.517889,0.0,0.0,0.0,0.0,0.0,0.0,0.0,-0.12279591,-0.0035364032,0.9926589,0.9387207,0.09869385,-0.3692627,-0.0146484375,-0.013671875,0.017578125,1.823704,-2.5422552,-0.07321453,20.551119,-0.9373779,0.06036377,-0.3012085,0.020507812,-0.015625,-0.009765625,5.120937,-4.578367,-57.028316,21.898878,-0.4482422,0.6307373,1.1872559,-0.020507812,0.01953125,0.046875,35.791023,-2.3635962,-128.99779,20.770554,0.0,0.0,0.0,0.0,0.0,0.0,0.0,-17.439148,-128.09773,33.888916,0.0,0.0,0.0,0.0,0.0,0.0,0.0,1.6716175,44.977867,0.36702198,
1.3593749594874684,58,-0.014526367,-1.0060425,0.3010254,-0.0087890625,0.06738281,9.765625E-4,0.0,0.0,0.0,0.0,0.0,0.0,0.0,0.0,0.0,0.0,0.0,0.12218383,0.0035536047,-0.9927216,-0.87750244,-0.09289551,-0.39569092,0.001953125,-0.0126953125,0.040039062,1.970601,2.529583,0.07357062,-20.552416,-0.9533081,-0.0057373047,-0.18737793,-0.0546875,0.026367188,0.0546875,3.4611921,2.3707833,-56.93181,-20.850784,-0.380188,-0.3366089,0.84277344,-0.00390625,0.0107421875,0.0107421875,5.6498957,4.970016,-128.85504,-23.515995,0.0,0.0,0.0,0.0,0.0,0.0,0.0,-14.91485,-128.20822,-25.521877,0.0,0.0,0.0,0.0,0.0,0.0,0.0,-0.12218383,-0.0035536047,0.9927216,0.92437744,0.08227539,-0.366333,0.0048828125,0.005859375,-9.765625E-4,1.8107811,-2.529583,-0.07357062,20.552416,-0.9262085,0.10083008,-0.347229,-0.016601562,-0.03515625,-0.009765625,5.1034985,-4.589699,-57.030685,21.889425,-0.4404297,0.6715698,1.208374,-0.05859375,0.01953125,0.0087890625,35.71884,-2.4234872,-128.99573,20.761965,0.0,0.0,0.0,0.0,0.0,0.0,0.0,-17.499039,-128.09567,33.88033,0.0,0.0,0.0,0.0,0.0,0.0,0.0,1.6675292,44.97746,0.3662428,
1.3828124587889765,59,0.006591797,-0.9899292,0.29937744,-0.0087890625,0.048828125,0.001953125,0.0,0.0,0.0,0.0,0.0,0.0,0.0,0.0,0.0,0.0,0.0,0.1213384,0.003900027,-0.99275935,-0.90771484,-0.06921387,-0.40075684,0.01953125,0.024414062,0.001953125,1.88232,2.5120807,0.08074262,-20.553198,-0.963562,-0.008483887,-0.19232178,-0.036132812,0.0078125,0.03515625,3.4866107,2.2752888,-56.922226,-20.885658,-0.3831787,-0.33953857,0.85266113,-0.022460938,0.028320312,0.0107421875,5.6798573,4.8533916,-128.846,-23.51726,0.0,0.0,0.0,0.0,0.0,0.0,0.0,-15.032682,-128.19392,-25.510666,0.0,0.0,0.0,0.0,0.0,0.0,0.0,-0.1213384,-0.003900027,0.99275935,0.9255371,0.10461426,-0.36218262,0.0234375,0.025390625,0.017578125,1.8807598,-2.5120807,-0.08074262,20.553198,-0.94866943,0.023254395,-0.28961182,-0.056640625,0.00390625,0.009765625,5.061673,-4.5711045,-57.034172,21.942953,-0.41601562,0.666626,1.2020264,-0.05859375,0.0,0.028320312,35.642025,-2.4637382,-129.01077,20.8781,0.0,0.0,0.0,0.0,0.0,0.0,0.0,-17.53929,-128.11072,33.996464,0.0,0.0,0.0,0.0,0.0,0.0,0.0,1.6604877,44.974716,0.37963232,
1.4062499580904846,60,-0.005493164,-0.9981079,0.30212402,-0.0087890625,0.01171875,0.001953125,0.0,0.0,0.0,0.0,0.0,0.0,0.0,0.0,0.0,0.0,0.0,0.12197167,0.0038497876,-0.99269634,-0.8676758,-0.07611084,-0.38781738,-0.018554688,0.061523438,0.021484375,1.7641399,2.5251908,0.07970253,-20.551893,-0.95526123,-0.012207031,-0.20904541,-0.07324219,0.0078125,-0.001953125,3.5325246,2.2018905,-56.928417,-20.891449,-0.41326904,-0.3338623,0.8265381,-0.00390625,0.028320312,0.0107421875,5.5825815,4.740759,-128.85522,-23.51958,0.0,0.0,0.0,0.0,0.0,0.0,0.0,-15.144506,-128.20438,-25.52528,0.0,0.0,0.0,0.0,0.0,0.0,0.0,-0.12197167,-0.0038497876,0.99269634,0.91729736,0.09106445,-0.3552246,-0.033203125,0.024414062,0.017578125,1.8850214,-2.5251908,-0.07970253,20.551893,-0.927124,0.083496094,-0.28045654,-0.018554688,0.00390625,0.009765625,5.019227,-4.5699043,-57.034607,21.951601,-0.4475708,0.6706543,1.2084961,-0.020507812,9.765625E-4,0.02734375,35.61111,-2.4896944,-129.00735,20.928211,0.0,0.0,0.0,0.0,0.0,0.0,0.0,-17.565247,-128.1073,34.046574,0.0,0.0,0.0,0.0,0.0,0.0,0.0,1.6364911,44.976273,0.37549707,
1.4296874573919927,61,0.0015258789,-0.9935913,0.28637695,-0.047851562,0.028320312,0.020507812,0.0,0.0,0.0,0.0,0.0,0.0,0.0,0.0,0.0,0.0,0.0,0.12160906,0.0035166498,-0.99285465,-0.9076538,-0.08001709,-0.3869629,-0.017578125,0.024414062,0.040039062,1.8060194,2.5176852,0.072805546,-20.555168,-0.96307373,0.01159668,-0.19812012,-0.034179688,0.045898438,0.036132812,3.4904273,2.2328653,-56.93518,-20.884745,-0.40350342,-0.3579712,0.8676758,-0.041015625,0.0107421875,0.0107421875,5.6511097,4.7576556,-128.85855,-23.503592,0.0,0.0,0.0,0.0,0.0,0.0,0.0,-15.131006,-128.19836,-25.475506,0.0,0.0,0.0,0.0,0.0,0.0,0.0,-0.12160906,-0.0035166498,0.99285465,0.92022705,0.08026123,-0.34240723,-0.033203125,0.043945312,0.037109375,1.8879262,-2.5176852,-0.072805546,20.555168,-0.9534302,0.066345215,-0.29431152,-0.038085938,0.022460938,0.009765625,5.027612,-4.553095,-57.028877,21.976797,-0.44451904,0.6725464,1.2084961,-0.020507812,0.01953125,0.046875,35.632538,-2.4643302,-129.0062,20.950924,0.0,0.0,0.0,0.0,0.0,0.0,0.0,-17.539883,-128.10614,34.069286,0.0,0.0,0.0,0.0,0.0,0.0,0.0,1.6398666,44.981308,0.36017978,
1.4531249566935007,62,-0.009460449,-0.9968872,0.29418945,-0.0087890625,0.030273438,0.001953125,0.0,0.0,0.0,0.0,0.0,0.0,0.0,0.0,0.0,0.0,0.0,0.12105498,0.003054507,-0.9928335,-0.8704834,-0.11254883,-0.37127686,-0.055664062,0.024414062,0.00390625,1.7274841,2.5062144,0.063237794,-20.554731,-0.9494629,-0.028259277,-0.20910645,-0.034179688,0.045898438,0.016601562,3.5412157,2.1547515,-56.938457,-20.83047,-0.41711426,-0.3270874,0.8533325,-0.022460938,0.028320312,0.0107421875,5.626676,4.651428,-128.86667,-23.410667,0.0,0.0,0.0,0.0,0.0,0.0,0.0,-15.237337,-128.21106,-25.383682,0.0,0.0,0.0,0.0,0.0,0.0,0.0,-0.12105498,-0.003054507,0.9928335,0.9222412,0.0647583,-0.3585205,-0.0146484375,0.043945312,0.017578125,1.8300245,-2.5062144,-0.063237794,20.554731,-0.9331665,0.10058594,-0.3187256,-0.038085938,0.022460938,-0.02734375,5.0274954,-4.559513,-57.011627,21.948498,-0.43841553,0.66864014,1.2033691,-0.057617188,0.038085938,0.046875,35.615673,-2.4857068,-128.98431,20.905506,0.0,0.0,0.0,0.0,0.0,0.0,0.0,-17.561258,-128.08426,34.02387,0.0,0.0,0.0,0.0,0.0,0.0,0.0,1.6289493,44.977848,0.3369927,
1.4765624559950088,63,0.0025634766,-0.99884033,0.3289795,0.0107421875,0.030273438,0.021484375,0.0,0.0,0.0,0.0,0.0,0.0,0.0,0.0,0.0,0.0,0.0,0.12072182,0.0036377963,-0.99292934,-0.84936523,-0.07824707,-0.4298706,-0.055664062,0.061523438,0.041015625,1.7028385,2.4993162,0.075313665,-20.556715,-0.9633789,-4.8828125E-4,-0.19232178,-0.015625,0.064453125,0.0546875,3.5454154,2.1260037,-56.93214,-20.830343,-0.40344238,-0.3529663,0.8578491,-0.022460938,0.028320312,-0.0078125,5.5571423,4.6010456,-128.86453,-23.409157,0.0,0.0,0.0,0.0,0.0,0.0,0.0,-15.286629,-128.21097,-25.392828,0.0,0.0,0.0,0.0,0.0,0.0,0.0,-0.12072182,-0.0036377963,0.99292934,0.9244995,0.08343506,-0.39019775,-0.07128906,0.0048828125,0.037109375,1.859306,-2.4993162,-0.075313665,20.556715,-0.9310913,0.093444824,-0.29119873,-0.07714844,0.022460938,-0.026367188,5.0472536,-4.595813,-57.027084,21.947205,-0.43328857,0.66278076,1.2002563,-0.0390625,0.0,0.028320312,35.595917,-2.5446956,-128.99826,20.908747,0.0,0.0,0.0,0.0,0.0,0.0,0.0,-17.620247,-128.0982,34.02711,0.0,0.0,0.0,0.0,0.0,0.0,0.0,1.6240687,44.98038,0.3622514,
1.4999999552965169,64,-0.014465332,-0.9859619,0.28918457,-0.047851562,0.028320312,0.020507812,0.0,0.0,0.0,0.0,0.0,0.0,0.0,0.0,0.0,0.0,0.0,0.12003893,0.0039712936,-0.99290437,-0.88427734,-0.08709717,-0.44110107,-0.017578125,0.005859375,0.0029296875,1.7300876,2.485179,0.08221808,-20.5562,-0.9537964,-0.024902344,-0.1776123,-0.015625,0.045898438,0.0546875,3.5073266,2.1331275,-56.92407,-20.805275,-0.40447998,-0.35394287,0.8548584,-0.00390625,0.028320312,-0.0078125,5.5370398,4.59414,-128.85611,-23.3302,0.0,0.0,0.0,0.0,0.0,0.0,0.0,-15.294698,-128.20448,-25.30175,0.0,0.0,0.0,0.0,0.0,0.0,0.0,-0.12003893,-0.0039712936,0.99290437,0.9194336,0.084472656,-0.39416504,-0.0146484375,0.024414062,0.037109375,1.8452537,-2.485179,-0.08221808,20.5562,-0.9381714,0.09967041,-0.3157959,-0.056640625,0.00390625,0.009765625,5.009498,-4.536106,-57.037106,21.915222,-0.43640137,0.67059326,1.2063599,-0.095703125,0.037109375,0.009765625,35.651363,-2.4592319,-129.0134,20.877897,0.0,0.0,0.0,0.0,0.0,0.0,0.0,-17.537018,-128.11299,33.9932,0.0,0.0,0.0,0.0,0.0,0.0,0.0,1.6246277,44.975487,0.3762995,
1.523437454598025,65,-0.01940918,-0.9737549,0.27624512,-0.028320312,0.028320312,0.040039062,0.0,0.0,0.0,0.0,0.0,0.0,0.0,0.0,0.0,0.0,0.0,0.118359536,0.0036100335,-0.99320257,-0.9036255,-0.0859375,-0.38812256,-0.017578125,0.024414062,0.05859375,1.7108644,2.450409,0.07473886,-20.562374,-0.97351074,0.0036621094,-0.1942749,-0.016601562,0.026367188,0.0546875,3.542045,2.05543,-56.926777,-20.834013,-0.3984375,-0.3550415,0.8547363,-0.022460938,0.0107421875,-0.0078125,5.5527678,4.543554,-128.85886,-23.320658,0.0,0.0,0.0,0.0,0.0,0.0,0.0,-15.343338,-128.21002,-25.301903,0.0,0.0,0.0,0.0,0.0,0.0,0.0,-0.118359536,-0.0036100335,0.99320257,0.91033936,0.119384766,-0.36291504,0.041992188,-0.0126953125,0.017578125,1.7904568,-2.450409,-0.07473886,20.562374,-0.93310547,0.115356445,-0.32751465,-0.07714844,0.022460938,-0.026367188,5.023792,-4.4495993,-57.032036,21.886013,-0.43634033,0.66864014,1.2053223,-0.057617188,0.018554688,0.028320312,35.809998,-2.2860813,-129.00223,20.80521,0.0,0.0,0.0,0.0,0.0,0.0,0.0,-17.3661,-128.10146,33.917458,0.0,0.0,0.0,0.0,0.0,0.0,0.0,1.6475124,44.97905,0.3598204,
1.546874953899533,66,-0.0134887695,-1.0023804,0.30993652,-0.0087890625,0.0107421875,0.021484375,0.0,0.0,0.0,0.0,0.0,0.0,0.0,0.0,0.0,0.0,0.0,0.11824295,0.0036644079,-0.99312747,-0.8925171,-0.0869751,-0.40325928,0.01953125,0.024414062,0.020507812,1.7227194,2.4479969,0.0758646,-20.56082,-0.9768677,0.018676758,-0.24047852,-0.015625,0.064453125,0.0546875,3.5174165,2.061917,-56.924603,-20.849487,-0.39538574,-0.34899902,0.82611084,-0.00390625,0.028320312,-0.0078125,5.4808335,4.5389347,-128.85419,-23.332636,0.0,0.0,0.0,0.0,0.0,0.0,0.0,-15.347218,-128.21217,-25.331444,0.0,0.0,0.0,0.0,0.0,0.0,0.0,-0.11824295,-0.0036644079,0.99312747,0.9296875,0.09991455,-0.394104,0.061523438,-0.0126953125,-0.020507812,1.7797127,-2.4479969,-0.0758646,20.56082,-0.94451904,0.052856445,-0.32196045,-0.037109375,-0.015625,-0.0087890625,4.9569335,-4.416244,-57.030712,21.86787,-0.43206787,0.6452637,1.1921387,-0.057617188,0.018554688,0.028320312,35.81697,-2.2662325,-129.00505,20.850649,0.0,0.0,0.0,0.0,0.0,0.0,0.0,-17.346252,-128.10428,33.962894,0.0,0.0,0.0,0.0,0.0,0.0,0.0,1.6510005,44.974926,0.36251715,
1.570312453201041,67,-0.005554199,-1.020935,0.30603027,-0.0087890625,0.030273438,0.001953125,0.0,0.0,0.0,0.0,0.0,0.0,0.0,0.0,0.0,0.0,0.0,0.117601454,0.003810795,-0.99316823,-0.87579346,-0.15612793,-0.4360962,-0.16894531,0.099609375,0.005859375,1.806886,2.4347153,0.078895256,-20.561663,-0.9584961,0.035461426,-0.19702148,-0.03515625,0.026367188,0.016601562,3.3999546,2.130261,-56.929848,-20.89371,-0.4053955,-0.34698486,0.85491943,-0.041015625,0.0107421875,-0.0078125,5.4379025,4.556061,-128.86357,-23.414574,0.0,0.0,0.0,0.0,0.0,0.0,0.0,-15.331923,-128.21269,-25.385162,0.0,0.0,0.0,0.0,0.0,0.0,0.0,-0.117601454,-0.003810795,0.99316823,0.91937256,0.103637695,-0.3531494,0.041992188,0.0068359375,0.017578125,1.7936237,-2.4347153,-0.078895256,20.561663,-0.93536377,0.0703125,-0.31591797,9.765625E-4,0.00390625,-0.02734375,4.9233036,-4.3843536,-57.038433,21.873318,-0.4486084,0.6706543,1.206543,-0.0390625,0.01953125,0.028320312,35.82686,-2.240093,-129.0138,20.898052,0.0,0.0,0.0,0.0,0.0,0.0,0.0,-17.320112,-128.11302,34.0103,0.0,0.0,0.0,0.0,0.0,0.0,0.0,1.655298,44.973164,0.36856687,
1.5937499525025491,68,-0.005432129,-0.984375,0.30517578,0.0107421875,0.01171875,-0.016601562,0.0,0.0,0.0,0.0,0.0,0.0,0.0,0.0,0.0,0.0,0.0,0.11777663,0.0039100796,-0.9931808,-0.8787842,-0.051513672,-0.40319824,-0.20507812,0.024414062,0.005859375,1.8522403,2.438341,0.08095077,-20.561922,-0.9753418,0.054992676,-0.21374512,-0.072265625,0.045898438,0.036132812,3.2367632,2.20339,-56.927513,-21.029594,-0.4212036,-0.33294678,0.8553467,-0.060546875,0.0107421875,0.029296875,5.2906876,4.551703,-128.86266,-23.6007,0.0,0.0,0.0,0.0,0.0,0.0,0.0,-15.336943,-128.21481,-25.564976,0.0,0.0,0.0,0.0,0.0,0.0,0.0,-0.11777663,-0.0039100796,0.9931808,0.9345093,0.06768799,-0.37451172,0.0234375,-0.032226562,-9.765625E-4,1.8010278,-2.438341,-0.08095077,20.561922,-0.92718506,0.093688965,-0.31774902,-0.07714844,0.022460938,-0.026367188,4.9405036,-4.392279,-57.037285,21.87895,-0.43530273,0.66082764,1.2002563,-0.057617188,0.038085938,0.028320312,35.8112,-2.255236,-129.01355,20.856306,0.0,0.0,0.0,0.0,0.0,0.0,0.0,-17.335255,-128.11278,33.96855,0.0,0.0,0.0,0.0,0.0,0.0,0.0,1.6400913,44.9752,0.37155464,
1.6171874518040572,69,0.0075683594,-0.9817505,0.2904663,0.0107421875,0.10449219,0.020507812,0.0,0.0,0.0,0.0,0.0,0.0,0.0,0.0,0.0,0.0,0.0,0.11715105,0.0036230106,-0.9933963,-0.8458252,-0.06427002,-0.36236572,-0.20507812,0.024414062,0.005859375,1.7679076,2.425389,0.07500756,-20.566383,-0.9711914,0.020507812,-0.19024658,-0.052734375,0.045898438,-0.020507812,3.2244008,2.0965583,-56.927822,-21.157654,-0.41235352,-0.34283447,0.8363037,-0.059570312,0.029296875,-0.0078125,5.2159023,4.40681,-128.86295,-23.680166,0.0,0.0,0.0,0.0,0.0,0.0,0.0,-15.480535,-128.21579,-25.655813,0.0,0.0,0.0,0.0,0.0,0.0,0.0,-0.11715105,-0.0036230106,0.9933963,0.91430664,0.09020996,-0.3671875,0.04296875,0.0068359375,-0.0390625,1.7694566,-2.425389,-0.07500756,20.566383,-0.944397,0.061462402,-0.30322266,-0.09472656,-0.03515625,-0.045898438,4.9578424,-4.387513,-57.029095,21.869453,-0.44750977,0.66186523,1.1994629,-0.020507812,0.038085938,0.046875,35.931023,-2.2492542,-129.00334,20.803541,0.0,0.0,0.0,0.0,0.0,0.0,0.0,-17.329273,-128.10257,33.915787,0.0,0.0,0.0,0.0,0.0,0.0,0.0,1.6438389,44.981453,0.3579094,
1.6406249511055653,70,0.009399414,-1.0352783,0.29730225,0.030273438,0.08691406,0.001953125,0.0,0.0,0.0,0.0,0.0,0.0,0.0,0.0,0.0,0.0,0.0,0.11668497,0.004281299,-0.99334514,-0.8867798,-0.0927124,-0.33996582,-0.20507812,-0.0126953125,0.005859375,1.6020554,2.415742,0.08863616,-20.565325,-0.99035645,-0.016174316,-0.18951416,-0.032226562,0.08496094,-0.0390625,3.358238,1.9270178,-56.9169,-21.210167,-0.42956543,-0.3564453,0.86016846,-0.022460938,0.028320312,0.0107421875,5.2151885,4.2372212,-128.85254,-23.751951,0.0,0.0,0.0,0.0,0.0,0.0,0.0,-15.651831,-128.20227,-25.722786,0.0,0.0,0.0,0.0,0.0,0.0,0.0,-0.11668497,-0.004281299,0.99334514,0.94470215,0.0927124,-0.35638428,0.04296875,0.0068359375,-0.05859375,1.8232749,-2.415742,-0.08863616,20.565325,-0.9402466,0.088012695,-0.31878662,-0.076171875,0.00390625,-0.0087890625,4.9087577,-4.382162,-57.048492,21.886866,-0.42510986,0.6588745,1.1981201,-0.0390625,0.038085938,0.028320312,35.896175,-2.2942736,-129.02606,20.893385,0.0,0.0,0.0,0.0,0.0,0.0,0.0,-17.37569,-128.1329,34.00349,0.0,0.0,0.0,0.0,0.0,0.0,0.0,1.6379988,44.97681,0.38625947,
1.6640624504070733,71,-0.018371582,-0.9626465,0.30108643,-0.0087890625,0.06738281,-0.017578125,0.0,0.0,0.0,0.0,0.0,0.0,0.0,0.0,0.0,0.0,0.0,0.115309715,0.004269177,-0.9935749,-0.8946533,-0.09472656,-0.36358643,-0.09277344,-0.0126953125,0.00390625,1.5033709,2.387268,0.0883852,-20.57008,-0.975708,-0.021362305,-0.23474121,-0.015625,0.045898438,0.016601562,3.4704003,1.7978964,-56.912956,-21.265236,-0.3834839,-0.36016846,0.8465576,-0.041015625,0.046875,0.0107421875,5.3329263,4.171427,-128.84805,-23.767096,0.0,0.0,0.0,0.0,0.0,0.0,0.0,-15.719141,-128.19067,-25.72293,0.0,0.0,0.0,0.0,0.0,0.0,0.0,-0.115309715,-0.004269177,0.9935749,0.9213257,0.07269287,-0.37634277,0.0048828125,-0.05078125,0.018554688,1.8000497,-2.387268,-0.0883852,20.57008,-0.93310547,0.10546875,-0.31378174,-0.095703125,0.00390625,-0.026367188,4.927003,-4.34437,-57.043186,21.872377,-0.4383545,0.6618042,1.2033081,-0.076171875,0.037109375,0.047851562,36.015804,-2.255747,-129.01144,20.780207,0.0,0.0,0.0,0.0,0.0,0.0,0.0,-17.338562,-128.12592,33.888176,0.0,0.0,0.0,0.0,0.0,0.0,0.0,1.6343501,44.98007,0.3829447,
1.6874999497085814,72,-0.002319336,-0.9586792,0.30725098,-0.028320312,0.06640625,-0.017578125,0.0,0.0,0.0,0.0,0.0,0.0,0.0,0.0,0.0,0.0,0.0,0.11152965,0.00441831,-0.99400175,-0.8624878,-0.08013916,-0.4107666,0.09472656,-0.0126953125,9.765625E-4,1.4683378,2.3090098,0.0914727,-20.578917,-0.9530029,-0.0041503906,-0.21392822,0.022460938,0.064453125,0.036132812,3.63157,1.6709421,-56.911064,-21.22118,-0.40734863,-0.34405518,0.86486816,-0.041015625,0.028320312,-0.0078125,5.5038476,4.155304,-128.84232,-23.774319,0.0,0.0,0.0,0.0,0.0,0.0,0.0,-15.736343,-128.18127,-25.712757,0.0,0.0,0.0,0.0,0.0,0.0,0.0,-0.11152965,-0.00441831,0.99400175,0.9215088,0.09802246,-0.39105225,0.04296875,-0.10839844,-0.0390625,1.762253,-2.3090098,-0.0914727,20.578917,-0.9412842,0.09197998,-0.32763672,-0.11425781,-0.015625,-0.026367188,4.945577,-4.2480145,-57.04536,21.83789,-0.43823242,0.6491699,1.1952515,-0.076171875,0.037109375,0.047851562,36.193516,-2.1325946,-129.01228,20.6459,0.0,0.0,0.0,0.0,0.0,0.0,0.0,-17.222103,-128.12567,33.744705,0.0,0.0,0.0,0.0,0.0,0.0,0.0,1.6504717,44.979282,0.38511896,
1.7109374490100895,73,0.020507812,-1.0058594,0.30841064,-0.06738281,0.10253906,0.0,0.0,0.0,0.0,0.0,0.0,0.0,0.0,0.0,0.0,0.0,0.0,0.108925134,0.0048159286,-0.9942163,-0.85931396,-0.08911133,-0.43572998,0.1328125,-0.0126953125,0.055664062,1.4490191,2.255089,0.099704646,-20.583363,-0.96173096,-0.038513184,-0.23480225,0.022460938,0.045898438,-0.001953125,3.7574432,1.6024618,-56.900497,-21.168041,-0.41363525,-0.36254883,0.84503174,-0.022460938,0.0107421875,0.0107421875,5.641217,4.186972,-128.82239,-23.78141,0.0,0.0,0.0,0.0,0.0,0.0,0.0,-15.705088,-128.16243,-25.711681,0.0,0.0,0.0,0.0,0.0,0.0,0.0,-0.108925134,-0.0048159286,0.9942163,0.91137695,0.12805176,-0.355896,0.0234375,-0.0126953125,-0.020507812,1.8020056,-2.255089,-0.099704646,20.583363,-0.93237305,0.04840088,-0.2816162,-0.018554688,0.00390625,-0.02734375,4.8274674,-4.1107283,-57.059544,21.85537,-0.44439697,0.6569824,1.1983643,-0.020507812,0.038085938,0.046875,36.22554,-2.0244145,-129.03342,20.737635,0.0,0.0,0.0,0.0,0.0,0.0,0.0,-17.12058,-128.14543,33.829506,0.0,0.0,0.0,0.0,0.0,0.0,0.0,1.6513911,44.97589,0.3987852,
1.7343749483115976,74,-0.017456055,-0.9985962,0.3128662,-0.0087890625,0.12207031,0.01953125,0.0,0.0,0.0,0.0,0.0,0.0,0.0,0.0,0.0,0.0,0.0,0.10490188,0.0041771345,-0.9946377,-0.8673096,-0.10089111,-0.41882324,0.13183594,0.061523438,0.09375,1.5217427,2.1717944,0.086479634,-20.592085,-0.97076416,-0.03137207,-0.23577881,0.0029296875,0.026367188,0.036132812,3.8606193,1.5575836,-56.91503,-21.095327,-0.3824463,-0.35821533,0.83966064,-0.022460938,0.06542969,0.0107421875,5.841035,4.295863,-128.83037,-23.691927,0.0,0.0,0.0,0.0,0.0,0.0,0.0,-15.59784,-128.17554,-25.621904,0.0,0.0,0.0,0.0,0.0,0.0,0.0,-0.10490188,-0.0041771345,0.9946377,0.9326782,0.11517334,-0.3531494,0.0048828125,-0.032226562,0.018554688,1.832269,-2.1717944,-0.086479634,20.592085,-0.9445801,0.035949707,-0.2925415,0.040039062,-0.015625,0.0087890625,4.7341657,-4.0038257,-57.04418,21.927523,-0.44250488,0.66967773,1.2044067,-0.0390625,0.056640625,0.046875,36.13353,-2.0041003,-129.01875,20.919653,0.0,0.0,0.0,0.0,0.0,0.0,0.0,-17.100266,-128.13077,34.011524,0.0,0.0,0.0,0.0,0.0,0.0,0.0,1.6794181,44.974503,0.36600134,
1.7578124476131056,75,-0.025390625,-0.97857666,0.33465576,-0.0087890625,0.123046875,9.765625E-4,0.0,0.0,0.0,0.0,0.0,0.0,0.0,0.0,0.0,0.0,0.0,0.101536244,0.0033174343,-0.99499017,-0.8895874,-0.06237793,-0.42089844,0.07519531,0.09863281,0.0390625,1.5725899,2.1021152,0.068681195,-20.59938,-0.99816895,-0.011413574,-0.21905518,0.0029296875,0.044921875,0.0546875,3.8565595,1.5314511,-56.935856,-21.11804,-0.4206543,-0.36035156,0.82940674,0.015625,0.009765625,0.0107421875,5.908168,4.331995,-128.85373,-23.699787,0.0,0.0,0.0,0.0,0.0,0.0,0.0,-15.560535,-128.2015,-25.631334,0.0,0.0,0.0,0.0,0.0,0.0,0.0,-0.101536244,-0.0033174343,0.99499017,0.9263916,0.08795166,-0.34539795,-0.14746094,-0.034179688,0.037109375,1.8511834,-2.1021152,-0.068681195,20.59938,-0.95233154,0.076171875,-0.29821777,0.040039062,-0.015625,-0.009765625,4.7219434,-3.9222207,-57.02504,22.007189,-0.43432617,0.66571045,1.2052612,-0.020507812,0.038085938,0.046875,36.125454,-1.9436529,-129.00021,21.055452,0.0,0.0,0.0,0.0,0.0,0.0,0.0,-17.039818,-128.11223,34.147324,0.0,0.0,0.0,0.0,0.0,0.0,0.0,1.682445,44.97473,0.32164133,
1.7812499469146137,76,-0.009460449,-0.9987793,0.32287598,-0.0087890625,0.103515625,0.020507812,0.0,0.0,0.0,0.0,0.0,0.0,0.0,0.0,0.0,0.0,0.0,0.099464476,0.0030622464,-0.99510986,-0.89141846,-0.1027832,-0.40344238,0.0,0.09863281,0.040039062,1.6600075,2.0592213,0.06339799,-20.601858,-0.97058105,-0.0072021484,-0.20123291,-0.053710938,0.045898438,0.016601562,3.7568178,1.5881215,-56.938522,-21.110172,-0.3824463,-0.3562622,0.8465576,-0.022460938,0.06542969,0.0107421875,5.885664,4.3865175,-128.85614,-23.661081,0.0,0.0,0.0,0.0,0.0,0.0,0.0,-15.507365,-128.20207,-25.587774,0.0,0.0,0.0,0.0,0.0,0.0,0.0,-0.099464476,-0.0030622464,0.99510986,0.9203491,0.076538086,-0.37036133,-0.07128906,0.0048828125,-9.765625E-4,1.8698021,-2.0592213,-0.06339799,20.601858,-0.9592285,0.093811035,-0.29119873,0.0029296875,-0.053710938,0.0087890625,4.709398,-3.8593016,-57.021946,22.047722,-0.42913818,0.6588745,1.2001343,-0.020507812,0.0390625,0.0087890625,36.076447,-1.924643,-129.00568,21.04882,0.0,0.0,0.0,0.0,0.0,0.0,0.0,-17.02081,-128.11769,34.14069,0.0,0.0,0.0,0.0,0.0,0.0,0.0,1.6719401,44.971184,0.30550545,
1.8046874462161218,77,-0.01739502,-0.97088623,0.31298828,-0.0087890625,0.0859375,-0.017578125,0.0,0.0,0.0,0.0,0.0,0.0,0.0,0.0,0.0,0.0,0.0,0.09821254,0.0030089524,-0.99535763,-0.86608887,-0.13433838,-0.40429688,0.01953125,0.061523438,0.040039062,1.6848148,2.0333035,0.062294655,-20.60699,-0.9595947,-0.029724121,-0.22686768,-0.03515625,0.026367188,0.036132812,3.7228377,1.6499919,-56.945374,-21.055246,-0.42333984,-0.33666992,0.8256836,-0.041015625,0.029296875,0.029296875,5.898505,4.4969606,-128.8624,-23.569548,0.0,0.0,0.0,0.0,0.0,0.0,0.0,-15.394347,-128.21321,-25.504261,0.0,0.0,0.0,0.0,0.0,0.0,0.0,-0.09821254,-0.0030089524,0.99535763,0.93859863,0.060913086,-0.38549805,-0.051757812,-0.033203125,-9.765625E-4,1.7584732,-2.0333035,-0.062294655,20.60699,-0.9435425,0.031921387,-0.28271484,-0.018554688,0.022460938,-0.0087890625,4.611846,-3.8642879,-57.019665,21.96655,-0.44049072,0.6774292,1.2114258,-0.020507812,0.01953125,0.02734375,35.99907,-2.00388,-128.99901,21.059166,0.0,0.0,0.0,0.0,0.0,0.0,0.0,-17.100046,-128.11102,34.151035,0.0,0.0,0.0,0.0,0.0,0.0,0.0,1.624483,44.978504,0.2962581,
1.8281249455176298,78,0.0025634766,-0.99798584,0.3022461,-0.0087890625,0.12207031,0.01953125,0.0,0.0,0.0,0.0,0.0,0.0,0.0,0.0,0.0,0.0,0.0,0.0977419,0.0027457438,-0.99538934,-0.8354492,-0.07336426,-0.4241333,0.01953125,0.061523438,0.021484375,1.7113218,2.0235593,0.056845423,-20.607645,-0.9430542,-0.015380859,-0.20904541,0.001953125,0.0068359375,0.0546875,3.701951,1.7085938,-56.946472,-21.047913,-0.42236328,-0.34179688,0.8592529,-0.022460938,0.028320312,0.0107421875,5.920298,4.619538,-128.86063,-23.541275,0.0,0.0,0.0,0.0,0.0,0.0,0.0,-15.27182,-128.2181,-25.485424,0.0,0.0,0.0,0.0,0.0,0.0,0.0,-0.0977419,-0.0027457438,0.99538934,0.918396,0.11138916,-0.34313965,0.04296875,0.0068359375,-0.0390625,1.7100635,-2.0235593,-0.056845423,20.607645,-0.9381714,0.1015625,-0.3098755,9.765625E-4,0.00390625,0.009765625,4.5731606,-3.8700914,-57.01932,21.945713,-0.44659424,0.6725464,1.2084961,-0.05859375,0.01953125,0.0087890625,36.00739,-2.0544114,-128.99911,21.070066,0.0,0.0,0.0,0.0,0.0,0.0,0.0,-17.150578,-128.11113,34.161938,0.0,0.0,0.0,0.0,0.0,0.0,0.0,1.5909499,44.97912,0.2802959,
1.851562444819138,79,-0.015380859,-0.97076416,0.309021,0.0107421875,0.06738281,0.020507812,0.0,0.0,0.0,0.0,0.0,0.0,0.0,0.0,0.0,0.0,0.0,0.09619799,0.0020739231,-0.9956199,-0.89038086,-0.08709717,-0.42712402,-0.018554688,0.061523438,0.040039062,1.8077524,1.991598,0.042936645,-20.61242,-0.96551514,-0.008239746,-0.20318604,-0.07519531,-0.049804688,0.03515625,3.585503,1.7676327,-56.959602,-21.076242,-0.38446045,-0.35827637,0.8634033,-0.022460938,0.028320312,-0.0078125,5.8676524,4.6480684,-128.87921,-23.570793,0.0,0.0,0.0,0.0,0.0,0.0,0.0,-15.243815,-128.23454,-25.50496,0.0,0.0,0.0,0.0,0.0,0.0,0.0,-0.09619799,-0.0020739231,0.9956199,0.91638184,0.12017822,-0.3470459,-0.033203125,0.08203125,0.017578125,1.7649163,-1.991598,-0.042936645,20.61242,-0.93237305,0.044311523,-0.26690674,0.037109375,0.080078125,0.046875,4.5568557,-3.8402963,-56.99977,22.046715,-0.42419434,0.6715088,1.2071533,-0.057617188,0.018554688,0.028320312,35.968235,-2.0537767,-128.98265,21.285137,0.0,0.0,0.0,0.0,0.0,0.0,0.0,-17.149942,-128.09467,34.377007,0.0,0.0,0.0,0.0,0.0,0.0,0.0,1.5917506,44.982803,0.24749818,
1.874999944120646,80,-0.015380859,-0.97076416,0.309021,0.0107421875,0.06738281,0.020507812,0.0,0.0,0.0,0.0,0.0,0.0,0.0,0.0,0.0,0.0,0.0,0.09619799,0.0020739231,-0.9956199,-0.8748169,-0.055419922,-0.38745117,-0.055664062,0.061523438,0.00390625,1.8090509,1.991598,0.042936645,-20.61242,-0.9641113,-0.034484863,-0.18951416,-0.0546875,0.0078125,0.03515625,3.584848,1.7649653,-56.960052,-21.116497,-0.39068604,-0.3758545,0.85443115,-0.022460938,0.046875,0.0107421875,5.947848,4.66935,-128.8789,-23.592396,0.0,0.0,0.0,0.0,0.0,0.0,0.0,-15.224281,-128.22905,-25.513412,0.0,0.0,0.0,0.0,0.0,0.0,0.0,-0.09619799,-0.0020739231,0.9956199,0.9052124,0.101989746,-0.37200928,-0.109375,0.0048828125,0.017578125,1.7740958,-1.991598,-0.042936645,20.61242,-0.9359741,0.11895752,-0.29595947,0.020507812,0.00390625,0.0087890625,4.527618,-3.812965,-56.997272,22.053238,-0.43652344,0.68322754,1.2144165,-0.057617188,0.018554688,0.028320312,35.995213,-2.03639,-128.98357,21.294226,0.0,0.0,0.0,0.0,0.0,0.0,0.0,-17.132555,-128.09558,34.386097,0.0,0.0,0.0,0.0,0.0,0.0,0.0,1.5917506,44.982803,0.24749818,
1.898437443422154,81,-0.015380859,-0.97076416,0.309021,0.0107421875,0.06738281,0.020507812,0.0,0.0,0.0,0.0,0.0,0.0,0.0,0.0,0.0,0.0,0.0,0.09619799,0.0020739231,-0.9956199,-0.8623657,-0.10675049,-0.39117432,-0.09277344,0.061523438,0.00390625,1.8637215,1.991598,0.042936645,-20.61242,-0.9609375,0.013671875,-0.20501709,-0.053710938,0.045898438,0.0546875,3.5141864,1.815154,-56.95921,-21.155857,-0.41552734,-0.35864258,0.8579712,-0.060546875,0.0107421875,0.029296875,5.8588934,4.7083573,-128.87932,-23.628979,0.0,0.0,0.0,0.0,0.0,0.0,0.0,-15.184929,-128.23236,-25.556696,0.0,0.0,0.0,0.0,0.0,0.0,0.0,-0.09619799,-0.0020739231,0.9956199,0.9213867,0.080444336,-0.3782959,-0.052734375,-0.013671875,0.037109375,1.7144067,-1.991598,-0.042936645,20.61242,-0.95129395,0.09490967,-0.3157959,9.765625E-4,0.022460938,0.009765625,4.5129285,-3.7853417,-57.001633,21.99016,-0.444458,0.66381836,1.2044067,-0.040039062,-0.018554688,0.028320312,36.048237,-1.9897711,-128.9815,21.162086,0.0,0.0,0.0,0.0,0.0,0.0,0.0,-17.085938,-128.09352,34.253956,0.0,0.0,0.0,0.0,0.0,0.0,0.0,1.5917506,44.982803,0.24749818,
1.921874942723662,82,-0.015380859,-0.97076416,0.309021,0.0107421875,0.06738281,0.020507812,0.0,0.0,0.0,0.0,0.0,0.0,0.0,0.0,0.0,0.0,0.0,0.09619799,0.0020739231,-0.9956199,-0.8730469,-0.13342285,-0.42401123,-0.13085938,0.099609375,0.0048828125,1.9673209,1.991598,0.042936645,-20.61242,-0.9310303,-0.030456543,-0.2130127,-0.091796875,0.045898438,0.0546875,3.4481003,1.9186558,-56.962795,-21.160107,-0.44262695,-0.3571167,0.85150146,-0.041992188,-0.005859375,0.15917969,5.878199,4.85748,-128.87454,-23.634546,0.0,0.0,0.0,0.0,0.0,0.0,0.0,-15.033164,-128.24559,-25.595009,0.0,0.0,0.0,0.0,0.0,0.0,0.0,-0.09619799,-0.0020739231,0.9956199,0.9254761,0.071777344,-0.3942871,-0.033203125,0.024414062,0.037109375,1.6457999,-1.991598,-0.042936645,20.61242,-0.9241333,0.07556152,-0.27160645,-0.038085938,0.00390625,-0.02734375,4.43447,-3.7672658,-57.006905,21.918602,-0.45281982,0.6881714,1.2147217,-0.021484375,0.01953125,-0.0107421875,35.976246,-2.012673,-128.99173,21.092659,0.0,0.0,0.0,0.0,0.0,0.0,0.0,-17.108839,-128.10374,34.18453,0.0,0.0,0.0,0.0,0.0,0.0,0.0,1.5917506,44.982803,0.24749818,
1.9453124420251702,83,-0.015380859,-0.97076416,0.309021,0.0107421875,0.06738281,0.020507812,0.0,0.0,0.0,0.0,0.0,0.0,0.0,0.0,0.0,0.0,0.0,0.09619799,0.0020739231,-0.9956199,-0.8699341,-0.14038086,-0.4300537,-0.018554688,0.061523438,0.021484375,2.0728266,1.991598,0.042936645,-20.61242,-0.9577637,-0.028442383,-0.19732666,-0.017578125,0.0068359375,0.07324219,3.4095004,2.0327728,-56.961338,-21.065563,-0.31481934,-0.32403564,0.83691406,-0.2861328,0.39453125,-0.005859375,5.909495,5.040311,-128.87354,-23.478662,0.0,0.0,0.0,0.0,0.0,0.0,0.0,-14.858455,-128.3477,-25.356348,0.0,0.0,0.0,0.0,0.0,0.0,0.0,-0.09619799,-0.0020739231,0.9956199,0.91833496,0.08917236,-0.37023926,0.061523438,0.0068359375,-0.0390625,1.6349436,-1.991598,-0.042936645,20.61242,-0.9313965,0.06536865,-0.31500244,-0.018554688,0.022460938,0.009765625,4.4026875,-3.7975416,-57.00656,21.911842,-0.4321289,0.6520996,1.1941528,-0.0029296875,-0.017578125,-0.0107421875,35.915714,-2.0921087,-128.99728,21.147236,0.0,0.0,0.0,0.0,0.0,0.0,0.0,-17.188274,-128.1093,34.239105,0.0,0.0,0.0,0.0,0.0,0.0,0.0,1.5917506,44.982803,0.24749818,
1.9687499413266782,84,-0.015380859,-0.97076416,0.309021,0.0107421875,0.06738281,0.020507812,0.0,0.0,0.0,0.0,0.0,0.0,0.0,0.0,0.0,0.0,0.0,0.09619799,0.0020739231,-0.9956199,-0.8671875,-0.12939453,-0.3982544,0.09472656,0.061523438,0.038085938,1.9955693,1.991598,0.042936645,-20.61242,-0.9519043,7.324219E-4,-0.2109375,0.09667969,0.025390625,0.07324219,3.5139635,1.9606696,-56.964355,-20.942331,-0.42279053,-0.3711548,0.83032227,-0.07910156,0.2841797,0.06738281,5.2411604,4.954103,-128.87671,-23.346872,0.0,0.0,0.0,0.0,0.0,0.0,0.0,-14.944138,-128.5556,-25.31464,0.0,0.0,0.0,0.0,0.0,0.0,0.0,-0.09619799,-0.0020739231,0.9956199,0.9295044,0.11505127,-0.33416748,0.0048828125,0.043945312,-9.765625E-4,1.7312185,-1.991598,-0.042936645,20.61242,-0.9225464,0.018981934,-0.2886963,9.765625E-4,0.022460938,0.028320312,4.4052224,-3.8611832,-56.99496,22.014946,-0.42712402,0.66082764,1.1971436,0.036132812,0.020507812,0.045898438,35.851173,-2.2112312,-128.9899,21.427483,0.0,0.0,0.0,0.0,0.0,0.0,0.0,-17.307396,-128.10191,34.519352,0.0,0.0,0.0,0.0,0.0,0.0,0.0,1.5917506,44.982803,0.24749818,
1.9921874406281863,85,-0.015380859,-0.97076416,0.309021,0.0107421875,0.06738281,0.020507812,0.0,0.0,0.0,0.0,0.0,0.0,0.0,0.0,0.0,0.0,0.0,0.09619799,0.0020739231,-0.9956199,-0.885437,-0.1105957,-0.38183594,0.01953125,0.061523438,0.021484375,1.8400495,1.991598,0.042936645,-20.61242,-0.94421387,0.033203125,-0.19500732,0.0029296875,0.026367188,0.036132812,3.5763173,1.8059093,-56.95831,-20.946793,-0.42694092,-0.38201904,0.8500366,-0.022460938,0.1015625,0.0107421875,5.053228,4.6827216,-128.87802,-23.367285,0.0,0.0,0.0,0.0,0.0,0.0,0.0,-15.221939,-128.60748,-25.259281,0.0,0.0,0.0,0.0,0.0,0.0,0.0,-0.09619799,-0.0020739231,0.9956199,0.9206543,0.12524414,-0.38684082,-0.08984375,0.0625,0.017578125,1.8114294,-1.991598,-0.042936645,20.61242,-0.9343872,0.06628418,-0.30810547,0.0390625,0.041992188,0.046875,4.316247,-3.827383,-57.00145,22.092072,-0.43432617,0.6696167,1.2072754,-0.020507812,9.765625E-4,0.0087890625,35.719086,-2.2746162,-128.99742,21.567183,0.0,0.0,0.0,0.0,0.0,0.0,0.0,-17.37078,-128.10944,34.659054,0.0,0.0,0.0,0.0,0.0,0.0,0.0,1.5917506,44.982803,0.24749818,
2.0156249399296944,86,-0.015380859,-0.97076416,0.309021,0.0107421875,0.06738281,0.020507812,0.0,0.0,0.0,0.0,0.0,0.0,0.0,0.0,0.0,0.0,0.0,0.09619799,0.0020739231,-0.9956199,-0.8768921,-0.060302734,-0.37054443,-0.055664062,0.09863281,0.041015625,1.7305402,1.991598,0.042936645,-20.61242,-0.97229004,-0.040039062,-0.20336914,-0.015625,0.045898438,-0.001953125,3.660516,1.6966364,-56.958946,-20.969006,-0.4036255,-0.36572266,0.8468628,-0.022460938,0.029296875,0.029296875,4.995948,4.574687,-128.87979,-23.358345,0.0,0.0,0.0,0.0,0.0,0.0,0.0,-15.330316,-128.60738,-25.247791,0.0,0.0,0.0,0.0,0.0,0.0,0.0,-0.09619799,-0.0020739231,0.9956199,0.9083252,0.10394287,-0.381958,-0.08984375,0.0234375,0.037109375,1.8391984,-1.991598,-0.042936645,20.61242,-0.9430542,0.11425781,-0.30187988,-0.018554688,0.022460938,0.028320312,4.3907485,-3.7800932,-57.000427,22.114492,-0.4831543,0.6737671,1.2070923,-0.020507812,9.765625E-4,0.02734375,35.901115,-2.1289032,-128.99069,21.486967,0.0,0.0,0.0,0.0,0.0,0.0,0.0,-17.225069,-128.1027,34.57884,0.0,0.0,0.0,0.0,0.0,0.0,0.0,1.5917506,44.982803,0.24749818,
2.0390624392312025,87,-0.015380859,-0.97076416,0.309021,0.0107421875,0.06738281,0.020507812,0.0,0.0,0.0,0.0,0.0,0.0,0.0,0.0,0.0,0.0,0.0,0.09619799,0.0020739231,-0.9956199,-0.84936523,-0.095947266,-0.4121704,-0.07519531,0.09863281,0.041992188,1.8402622,1.991598,0.042936645,-20.61242,-0.9423828,0.030883789,-0.18029785,-0.016601562,0.026367188,0.0546875,3.5057075,1.8014977,-56.96071,-21.057251,-0.41137695,-0.34576416,0.8303833,-0.060546875,0.13867188,0.06738281,4.8669944,4.6439943,-128.88313,-23.455404,0.0,0.0,0.0,0.0,0.0,0.0,0.0,-15.2618475,-128.63078,-25.348446,0.0,0.0,0.0,0.0,0.0,0.0,0.0,-0.09619799,-0.0020739231,0.9956199,0.9326172,0.0881958,-0.3902588,-0.08984375,0.04296875,0.037109375,1.8229527,-1.991598,-0.042936645,20.61242,-0.91937256,0.04534912,-0.28656006,9.765625E-4,0.022460938,0.009765625,4.335444,-3.7558923,-56.99944,22.094992,-0.4423828,0.6608887,1.2003784,0.036132812,0.0390625,0.045898438,35.93414,-2.1118317,-128.98543,21.522873,0.0,0.0,0.0,0.0,0.0,0.0,0.0,-17.207996,-128.09744,34.614742,0.0,0.0,0.0,0.0,0.0,0.0,0.0,1.5917506,44.982803,0.24749818,
2.0624999385327105,88,-0.015380859,-0.97076416,0.309021,0.0107421875,0.06738281,0.020507812,0.0,0.0,0.0,0.0,0.0,0.0,0.0,0.0,0.0,0.0,0.0,0.09619799,0.0020739231,-0.9956199,-0.8875122,-0.10076904,-0.38269043,-0.018554688,0.061523438,0.0029296875,1.8776356,1.991598,0.042936645,-20.61242,-0.9414673,-0.0211792,-0.17364502,-0.015625,0.045898438,0.0546875,3.4248555,1.8395724,-56.964508,-21.045227,-0.41357422,-0.35864258,0.8510132,-0.041015625,0.15625,0.048828125,4.756664,4.6505737,-128.88855,-23.35553,0.0,0.0,0.0,0.0,0.0,0.0,0.0,-15.259287,-128.69844,-25.206467,0.0,0.0,0.0,0.0,0.0,0.0,0.0,-0.09619799,-0.0020739231,0.9956199,0.92858887,0.10559082,-0.3731079,-0.12792969,-0.034179688,-9.765625E-4,1.8604635,-1.991598,-0.042936645,20.61242,-0.95825195,0.09283447,-0.29418945,9.765625E-4,0.022460938,0.028320312,4.2694373,-3.741169,-56.99672,22.130564,-0.4078369,0.659729,1.2017822,0.036132812,0.057617188,0.064453125,35.817753,-2.1673913,-128.98969,21.613327,0.0,0.0,0.0,0.0,0.0,0.0,0.0,-17.263557,-128.1017,34.705196,0.0,0.0,0.0,0.0,0.0,0.0,0.0,1.5917506,44.982803,0.24749818,
2.0859374378342186,89,-0.015380859,-0.97076416,0.309021,0.0107421875,0.06738281,0.020507812,0.0,0.0,0.0,0.0,0.0,0.0,0.0,0.0,0.0,0.0,0.0,0.09619799,0.0020739231,-0.9956199,-0.91259766,-0.10168457,-0.37420654,0.056640625,0.061523438,0.0390625,1.8346173,1.991598,0.042936645,-20.61242,-0.9641113,0.015380859,-0.1873169,0.07910156,0.044921875,0.0546875,3.4610791,1.8002744,-56.963688,-20.962059,-0.4085083,-0.3557129,0.83813477,0.015625,0.064453125,0.0107421875,4.5681467,4.582899,-128.89166,-23.229086,0.0,0.0,0.0,0.0,0.0,0.0,0.0,-15.326218,-128.72609,-25.087719,0.0,0.0,0.0,0.0,0.0,0.0,0.0,-0.09619799,-0.0020739231,0.9956199,0.92541504,0.08325195,-0.36132812,-0.08984375,-0.0146484375,-9.765625E-4,1.8567779,-1.991598,-0.042936645,20.61242,-0.94750977,0.04559326,-0.28063965,0.0,0.041992188,0.046875,4.226144,-3.78413,-56.99898,22.132668,-0.43017578,0.6569214,1.2041016,-0.020507812,9.765625E-4,0.0087890625,35.706516,-2.3159401,-128.991,21.641817,0.0,0.0,0.0,0.0,0.0,0.0,0.0,-17.412106,-128.10301,34.73369,0.0,0.0,0.0,0.0,0.0,0.0,0.0,1.5917506,44.982803,0.24749818,
2.1093749371357267,90,-0.015380859,-0.97076416,0.309021,0.0107421875,0.06738281,0.020507812,0.0,0.0,0.0,0.0,0.0,0.0,0.0,0.0,0.0,0.0,0.0,0.09619799,0.0020739231,-0.9956199,-0.90197754,-0.0513916,-0.37091064,0.15039062,0.061523438,0.037109375,1.7813615,1.991598,0.042936645,-20.61242,-0.9421997,0.029418945,-0.20489502,0.0234375,0.083984375,-9.765625E-4,3.4326782,1.7475843,-56.965965,-20.922302,-0.41278076,-0.37426758,0.83013916,-0.00390625,-0.026367188,0.0107421875,4.2298956,4.379865,-128.9006,-23.232193,0.0,0.0,0.0,0.0,0.0,0.0,0.0,-15.529936,-128.73192,-25.088398,0.0,0.0,0.0,0.0,0.0,0.0,0.0,-0.09619799,-0.0020739231,0.9956199,0.93151855,0.10443115,-0.340271,-0.033203125,0.043945312,-9.765625E-4,1.898161,-1.991598,-0.042936645,20.61242,-0.9364624,0.04852295,-0.28948975,0.0,0.060546875,0.06542969,4.2126365,-3.8417768,-56.994476,22.180145,-0.42926025,0.666687,1.203186,-0.05859375,0.038085938,0.0087890625,35.567875,-2.4524083,-128.99307,21.778484,0.0,0.0,0.0,0.0,0.0,0.0,0.0,-17.548574,-128.10509,34.870354,0.0,0.0,0.0,0.0,0.0,0.0,0.0,1.5917506,44.982803,0.24749818,
2.1328124364372347,91,-0.015380859,-0.97076416,0.309021,0.0107421875,0.06738281,0.020507812,0.0,0.0,0.0,0.0,0.0,0.0,0.0,0.0,0.0,0.0,0.0,0.09619799,0.0020739231,-0.9956199,-0.8596802,-0.078063965,-0.37805176,0.01953125,0.061523438,0.05859375,1.7116649,1.991598,0.042936645,-20.61242,-0.96655273,-0.005493164,-0.19036865,0.0048828125,0.06542969,-0.020507812,3.5183625,1.678102,-56.957817,-20.956884,-0.43347168,-0.3453369,0.8267822,0.034179688,-0.044921875,-0.0087890625,4.226468,4.338926,-128.88507,-23.3058,0.0,0.0,0.0,0.0,0.0,0.0,0.0,-15.569777,-128.71344,-25.170036,0.0,0.0,0.0,0.0,0.0,0.0,0.0,-0.09619799,-0.0020739231,0.9956199,0.89105225,0.121520996,-0.35784912,-0.08984375,0.0048828125,0.017578125,1.9599457,-1.991598,-0.042936645,20.61242,-0.9259033,0.13891602,-0.34210205,0.038085938,0.060546875,0.083984375,4.307844,-3.7935193,-56.993156,22.237045,-0.4423828,0.65893555,1.201355,-0.05859375,0.056640625,-0.009765625,35.69121,-2.2759228,-128.98611,21.776464,0.0,0.0,0.0,0.0,0.0,0.0,0.0,-17.380985,-128.09642,34.858353,0.0,0.0,0.0,0.0,0.0,0.0,0.0,1.5917506,44.982803,0.24749818,
2.156249935738743,92,-0.015380859,-0.97076416,0.309021,0.0107421875,0.06738281,0.020507812,0.0,0.0,0.0,0.0,0.0,0.0,0.0,0.0,0.0,0.0,0.0,0.09619799,0.0020739231,-0.9956199,-0.8751831,-0.10095215,-0.43847656,-0.13085938,0.061523438,0.0048828125,1.7884881,1.991598,0.042936645,-20.61242,-0.96881104,0.012573242,-0.24047852,0.0048828125,0.06542969,-0.020507812,3.5066566,1.752543,-56.96185,-21.009657,-0.41656494,-0.35949707,0.8411865,0.034179688,-0.099609375,-0.0087890625,4.423547,4.5032883,-128.88683,-23.402592,0.0,0.0,0.0,0.0,0.0,0.0,0.0,-15.406208,-128.66882,-25.252392,0.0,0.0,0.0,0.0,0.0,0.0,0.0,-0.09619799,-0.0020739231,0.9956199,0.89001465,0.06945801,-0.4210205,-0.08984375,-0.052734375,0.018554688,1.920506,-1.991598,-0.042936645,20.61242,-0.9107666,0.12841797,-0.29101562,-0.057617188,0.022460938,0.028320312,4.411886,-3.691289,-57.00079,22.18335,-0.4545288,0.65411377,1.1985474,-0.07714844,0.038085938,-0.028320312,36.027374,-1.9573252,-128.98474,21.539133,0.0,0.0,0.0,0.0,0.0,0.0,0.0,-17.062387,-128.09505,34.621017,0.0,0.0,0.0,0.0,0.0,0.0,0.0,1.5917506,44.982803,0.24749818,
2.179687435040251,93,-0.015380859,-0.97076416,0.309021,0.0107421875,0.06738281,0.020507812,0.0,0.0,0.0,0.0,0.0,0.0,0.0,0.0,0.0,0.0,0.0,0.09619799,0.0020739231,-0.9956199,-0.8502197,-0.10290527,-0.42614746,-0.018554688,0.099609375,0.0029296875,1.968713,1.991598,0.042936645,-20.61242,-0.96539307,-0.057922363,-0.21325684,-0.034179688,0.045898438,-0.020507812,3.4396298,1.931523,-56.962166,-21.025448,-0.4315796,-0.35327148,0.83654785,0.0146484375,-0.080078125,0.046875,4.6254177,4.829776,-128.8814,-23.410664,0.0,0.0,0.0,0.0,0.0,0.0,0.0,-15.078132,-128.6315,-25.280083,0.0,0.0,0.0,0.0,0.0,0.0,0.0,-0.09619799,-0.0020739231,0.9956199,0.9093628,0.11456299,-0.37493896,-0.051757812,-0.07128906,-0.0390625,1.8607789,-1.991598,-0.042936645,20.61242,-0.9487915,0.0026245117,-0.2838745,-0.057617188,0.041992188,0.0107421875,4.2780986,-3.584363,-57.00498,22.101145,-0.42199707,0.6491089,1.1939697,-0.021484375,9.765625E-4,-0.0107421875,36.054344,-1.8263239,-128.99515,21.50173,0.0,0.0,0.0,0.0,0.0,0.0,0.0,-16.93687,-128.10287,34.57959,0.0,0.0,0.0,0.0,0.0,0.0,0.0,1.5917506,44.982803,0.24749818,
2.203124934341759,94,-0.015380859,-0.97076416,0.309021,0.0107421875,0.06738281,0.020507812,0.0,0.0,0.0,0.0,0.0,0.0,0.0,0.0,0.0,0.0,0.0,0.09619799,0.0020739231,-0.9956199,-0.8474121,-0.08026123,-0.42596436,0.055664062,0.17382812,0.05859375,2.1851635,1.991598,0.042936645,-20.61242,-0.9725952,-0.057922363,-0.20837402,9.765625E-4,-0.03125,0.03515625,3.3445096,2.146071,-56.9639,-21.046564,-0.42077637,-0.37023926,0.83917236,-0.00390625,-0.0625,0.029296875,4.919283,5.226436,-128.88023,-23.363335,0.0,0.0,0.0,0.0,0.0,0.0,0.0,-14.679956,-128.60596,-25.24787,0.0,0.0,0.0,0.0,0.0,0.0,0.0,-0.09619799,-0.0020739231,0.9956199,0.9093628,0.11456299,-0.37493896,-0.051757812,-0.07128906,-0.0390625,1.8607789,-1.991598,-0.042936645,20.61242,-0.9434204,0.059387207,-0.2923584,0.078125,0.022460938,0.064453125,4.1661696,-3.584363,-57.00498,22.101145,-0.42816162,0.66082764,1.203125,-0.001953125,0.01953125,0.02734375,35.854992,-1.8802285,-128.99832,21.707699,0.0,0.0,0.0,0.0,0.0,0.0,0.0,-16.990774,-128.10605,34.78556,0.0,0.0,0.0,0.0,0.0,0.0,0.0,1.5917506,44.982803,0.24749818,
2.226562433643267,95,-0.015380859,-0.97076416,0.309021,0.0107421875,0.06738281,0.020507812,0.0,0.0,0.0,0.0,0.0,0.0,0.0,0.0,0.0,0.0,0.0,0.09619799,0.0020739231,-0.9956199,-0.88238525,-0.072387695,-0.4529419,0.056640625,0.1171875,0.0390625,2.377264,1.991598,0.042936645,-20.61242,-0.9879761,-0.0049438477,-0.20123291,-0.034179688,0.045898438,0.036132812,3.1536808,2.3306572,-56.9642,-21.141039,-0.39160156,-0.36895752,0.8535156,0.015625,-0.0625,0.009765625,4.9746084,5.4333286,-128.8774,-23.459915,0.0,0.0,0.0,0.0,0.0,0.0,0.0,-14.4721775,-128.57846,-25.339712,0.0,0.0,0.0,0.0,0.0,0.0,0.0,-0.09619799,-0.0020739231,0.9956199,0.9093628,0.11456299,-0.37493896,-0.051757812,-0.07128906,-0.0390625,1.8607789,-1.991598,-0.042936645,20.61242,-0.94122314,0.09674072,-0.31280518,0.0,0.060546875,0.046875,4.139525,-3.584363,-57.00498,22.101145,-0.442688,0.69592285,1.2215576,-0.07714844,0.0,-0.028320312,35.746246,-1.9151058,-128.99327,21.712915,0.0,0.0,0.0,0.0,0.0,0.0,0.0,-17.025652,-128.101,34.79078,0.0,0.0,0.0,0.0,0.0,0.0,0.0,1.5917506,44.982803,0.24749818,
2.249999932944775,96,-0.015380859,-0.97076416,0.309021,0.0107421875,0.06738281,0.020507812,0.0,0.0,0.0,0.0,0.0,0.0,0.0,0.0,0.0,0.0,0.0,0.09619799,0.0020739231,-0.9956199,-0.8934326,-0.09197998,-0.413208,-0.055664062,0.09863281,0.041015625,2.4858522,1.991598,0.042936645,-20.61242,-0.9388428,9.765625E-4,-0.18334961,-0.053710938,0.045898438,0.07324219,3.0622847,2.4381757,-56.96398,-21.15303,-0.4187622,-0.29736328,0.8309326,-0.11621094,0.21191406,0.06738281,4.8340373,5.5326204,-128.87794,-23.53279,0.0,0.0,0.0,0.0,0.0,0.0,0.0,-14.37379,-128.60263,-25.413181,0.0,0.0,0.0,0.0,0.0,0.0,0.0,-0.09619799,-0.0020739231,0.9956199,0.9041748,0.08355713,-0.3791504,-0.07128906,-0.051757812,0.037109375,1.9077255,-1.991598,-0.042936645,20.61242,-0.9420166,0.12512207,-0.31365967,-0.037109375,0.00390625,0.009765625,4.284092,-3.5964084,-57.007717,22.151936,-0.45550537,0.649292,1.194519,-0.040039062,-0.017578125,-0.047851562,35.83859,-1.8422341,-128.99501,21.626953,0.0,0.0,0.0,0.0,0.0,0.0,0.0,-16.957256,-128.10204,34.698715,0.0,0.0,0.0,0.0,0.0,0.0,0.0,1.5917506,44.982803,0.24749818,
2.273437432246283,97,-0.015380859,-0.97076416,0.309021,0.0107421875,0.06738281,0.020507812,0.0,0.0,0.0,0.0,0.0,0.0,0.0,0.0,0.0,0.0,0.0,0.09619799,0.0020739231,-0.9956199,-0.9036255,-0.1026001,-0.35754395,9.765625E-4,-0.0126953125,0.020507812,2.3425126,1.991598,0.042936645,-20.61242,-0.9638672,0.0059814453,-0.12438965,0.041992188,0.064453125,0.036132812,3.115647,2.298498,-56.958565,-21.112396,-0.43615723,-0.32470703,0.8447876,-0.11621094,0.43066406,0.08691406,4.300199,5.307287,-128.87299,-23.392832,0.0,0.0,0.0,0.0,0.0,0.0,0.0,-14.601669,-128.77272,-25.253548,0.0,0.0,0.0,0.0,0.0,0.0,0.0,-0.09619799,-0.0020739231,0.9956199,0.9001465,0.061523438,-0.42016602,-0.16601562,-0.034179688,0.037109375,1.8241333,-1.991598,-0.042936645,20.61242,-0.91204834,0.10638428,-0.33343506,-0.115234375,0.022460938,-0.026367188,4.342531,-3.50421,-57.01092,22.042633,-0.45336914,0.6385498,1.1864624,-0.0029296875,-0.036132812,-0.0107421875,36.20035,-1.5702544,-128.98918,21.34261,0.0,0.0,0.0,0.0,0.0,0.0,0.0,-16.685278,-128.0962,34.414368,0.0,0.0,0.0,0.0,0.0,0.0,0.0,1.5917506,44.982803,0.24749818,
2.296874931547791,98,-0.015380859,-0.97076416,0.309021,0.0107421875,0.06738281,0.020507812,0.0,0.0,0.0,0.0,0.0,0.0,0.0,0.0,0.0,0.0,0.0,0.09619799,0.0020739231,-0.9956199,-0.9313965,-0.18121338,-0.2913208,0.09667969,-0.14355469,0.018554688,1.8995008,1.991598,0.042936645,-20.61242,-0.9451904,0.059936523,-0.13983154,0.15722656,0.12109375,-9.765625E-4,3.4976559,1.8626854,-56.960682,-20.830244,-0.41625977,-0.40863037,0.82489014,-0.00390625,0.19238281,0.048828125,3.5059867,4.729574,-128.88492,-23.007626,0.0,0.0,0.0,0.0,0.0,0.0,0.0,-15.178492,-128.93521,-24.8889,0.0,0.0,0.0,0.0,0.0,0.0,0.0,-0.09619799,-0.0020739231,0.9956199,0.913208,0.053527832,-0.4093628,0.0048828125,-0.0126953125,-0.0390625,1.6895704,-1.991598,-0.042936645,20.61242,-0.9354248,0.0715332,-0.34051514,-0.09667969,0.022460938,-0.026367188,4.3665943,-3.4924877,-57.017303,21.899054,-0.45837402,0.62786865,1.1834717,0.016601562,-0.017578125,0.045898438,36.42354,-1.4693618,-128.99643,21.097576,0.0,0.0,0.0,0.0,0.0,0.0,0.0,-16.584385,-128.10345,34.169334,0.0,0.0,0.0,0.0,0.0,0.0,0.0,1.5917506,44.982803,0.24749818,
2.3203124308492993,99,-0.015380859,-0.97076416,0.309021,0.0107421875,0.06738281,0.020507812,0.0,0.0,0.0,0.0,0.0,0.0,0.0,0.0,0.0,0.0,0.0,0.09619799,0.0020739231,-0.9956199,-0.93829346,-0.072753906,-0.2890625,0.171875,-0.18066406,0.036132812,1.4430647,1.991598,0.042936645,-20.61242,-0.92840576,0.07208252,-0.15740967,0.17675781,0.12109375,-0.057617188,4.0100994,1.3634189,-56.9577,-20.558615,-0.42944336,-0.3474121,0.8375244,-0.022460938,0.1015625,0.0107421875,2.9419777,4.076048,-128.88206,-22.873495,0.0,0.0,0.0,0.0,0.0,0.0,0.0,-15.8354,-128.96666,-24.711475,0.0,0.0,0.0,0.0,0.0,0.0,0.0,-0.09619799,-0.0020739231,0.9956199,0.9242554,0.10131836,-0.3013916,0.13867188,0.0078125,-0.11621094,1.7195358,-1.991598,-0.042936645,20.61242,-0.9146118,0.017150879,-0.30932617,0.01953125,0.022460938,0.028320312,4.2996526,-3.4969997,-57.01093,21.931707,-0.4494629,0.65411377,1.1964722,0.0546875,0.0390625,0.083984375,36.329018,-1.5316057,-128.99191,21.25522,0.0,0.0,0.0,0.0,0.0,0.0,0.0,-16.652115,-128.09636,34.322956,0.0,0.0,0.0,0.0,0.0,0.0,0.0,1.5917506,44.982803,0.24749818,
2.3437499301508073,100,-0.015380859,-0.97076416,0.309021,0.0107421875,0.06738281,0.020507812,0.0,0.0,0.0,0.0,0.0,0.0,0.0,0.0,0.0,0.0,0.0,0.09619799,0.0020739231,-0.9956199,-0.8980713,-0.06604004,-0.3334961,0.059570312,-0.16210938,0.0,1.0596175,1.991598,0.042936645,-20.61242,-0.93969727,-0.006225586,-0.21881104,0.06542969,0.16113281,-0.11328125,4.6135025,0.9252926,-56.9563,-20.469244,-0.39978027,-0.37554932,0.82891846,0.015625,0.064453125,0.029296875,2.9248943,3.7691674,-128.87032,-22.985794,0.0,0.0,0.0,0.0,0.0,0.0,0.0,-16.146059,-128.93604,-24.791874,0.0,0.0,0.0,0.0,0.0,0.0,0.0,-0.09619799,-0.0020739231,0.9956199,0.9316406,0.12768555,-0.33312988,0.08105469,-0.01171875,-0.078125,1.7842156,-1.991598,-0.042936645,20.61242,-0.9433594,0.06427002,-0.29431152,0.09765625,0.00390625,-0.009765625,4.2690706,-3.5303888,-57.015057,22.008774,-0.40594482,0.67822266,1.2128906,0.017578125,0.057617188,0.06542969,36.12055,-1.6362426,-129.00388,21.4567,0.0,0.0,0.0,0.0,0.0,0.0,0.0,-16.77037,-128.102,34.512566,0.0,0.0,0.0,0.0,0.0,0.0,0.0,1.5917506,44.982803,0.24749818,
2.3671874294523154,101,-0.015380859,-0.97076416,0.309021,0.0107421875,0.06738281,0.020507812,0.0,0.0,0.0,0.0,0.0,0.0,0.0,0.0,0.0,0.0,0.0,0.09619799,0.0020739231,-0.9956199,-0.8607788,-0.048583984,-0.40252686,-0.0546875,-0.03125,0.040039062,0.8659236,1.991598,0.042936645,-20.61242,-0.94940186,-0.062438965,-0.289917,0.064453125,0.14160156,-0.11328125,5.1727104,0.76136434,-56.94761,-20.572624,-0.42669678,-0.36328125,0.8413086,0.072265625,-0.0087890625,0.009765625,3.3918257,4.143545,-128.8357,-23.282444,0.0,0.0,0.0,0.0,0.0,0.0,0.0,-15.769718,-128.90129,-25.103804,0.0,0.0,0.0,0.0,0.0,0.0,0.0,-0.09619799,-0.0020739231,0.9956199,0.9234009,0.09967041,-0.34625244,-0.013671875,-0.10839844,-0.0390625,1.8127254,-1.991598,-0.042936645,20.61242,-0.95910645,0.12237549,-0.31365967,0.01953125,0.041992188,-0.0087890625,4.2447324,-3.4917264,-57.01265,22.027,-0.41815186,0.6802368,1.2140503,-0.057617188,0.0,0.046875,35.962193,-1.6379166,-128.99805,21.387556,0.0,0.0,0.0,0.0,0.0,0.0,0.0,-16.773666,-128.10464,34.44062,0.0,0.0,0.0,0.0,0.0,0.0,0.0,1.5917506,44.982803,0.24749818,
2.3906249287538235,102,-0.015380859,-0.97076416,0.309021,0.0107421875,0.06738281,0.020507812,0.0,0.0,0.0,0.0,0.0,0.0,0.0,0.0,0.0,0.0,0.0,0.09619799,0.0020739231,-0.9956199,-0.833313,-0.06945801,-0.4489746,-0.16992188,0.2109375,0.0068359375,1.084803,1.991598,0.042936645,-20.61242,-0.9768677,-0.09436035,-0.27246094,-0.01171875,0.123046875,-0.09472656,5.3279266,1.0448036,-56.958286,-20.782677,-0.43963623,-0.35803223,0.8297119,0.034179688,-0.0078125,0.029296875,4.016443,5.0199823,-128.80357,-23.71884,0.0,0.0,0.0,0.0,0.0,0.0,0.0,-14.892907,-128.86708,-25.544317,0.0,0.0,0.0,0.0,0.0,0.0,0.0,-0.09619799,-0.0020739231,0.9956199,0.9152832,0.088256836,-0.37121582,-0.051757812,-0.14746094,-0.0390625,1.7539045,-1.991598,-0.042936645,20.61242,-0.92437744,0.06237793,-0.3199463,0.0,0.041992188,0.009765625,4.130052,-3.3875694,-57.019833,21.930141,-0.45257568,0.6609497,1.1985474,-0.1328125,0.036132812,0.029296875,35.891865,-1.5128496,-129.00424,21.27083,0.0,0.0,0.0,0.0,0.0,0.0,0.0,-16.658463,-128.10477,34.30816,0.0,0.0,0.0,0.0,0.0,0.0,0.0,1.5917506,44.982803,0.24749818,
2.4140624280553316,103,-0.021484375,-0.99816895,0.29797363,0.030273438,0.10449219,0.040039062,0.0,0.0,0.0,0.0,0.0,0.0,0.0,0.0,0.0,0.0,0.0,0.05221528,0.0034049083,-0.99875504,-0.8171997,-0.05682373,-0.48590088,-0.020507812,0.24804688,0.041992188,1.3843735,1.0810182,0.07049217,-20.677324,-0.96118164,-0.13043213,-0.27459717,-0.07128906,0.06640625,-0.05859375,5.1753993,0.7066932,-56.932755,-21.005526,-0.4234619,-0.34753418,0.8334961,0.034179688,-0.043945312,0.028320312,4.661192,5.2337217,-128.74225,-24.066242,0.0,0.0,0.0,0.0,0.0,0.0,0.0,-14.676099,-128.80728,-25.91626,0.0,0.0,0.0,0.0,0.0,0.0,0.0,-0.05221528,-0.0034049083,0.99875504,0.91326904,0.07861328,-0.38226318,-0.051757812,-0.22363281,-0.07714844,1.5199413,-1.0810182,-0.07049217,20.677324,-0.93218994,0.09082031,-0.31878662,-0.038085938,0.00390625,-0.02734375,3.8484778,-2.3098986,-57.046642,21.810701,-0.4251709,0.6637573,1.2001343,-0.15234375,0.036132812,-0.0087890625,35.742558,-0.47860503,-129.0354,21.207,0.0,0.0,0.0,0.0,0.0,0.0,0.0,-15.638026,-128.12321,34.230698,0.0,0.0,0.0,0.0,0.0,0.0,0.0,1.3822753,44.983814,0.22562256,
2.4374999273568396,104,-0.0234375,-0.98309326,0.32177734,0.0107421875,0.12207031,0.05859375,0.0,0.0,0.0,0.0,0.0,0.0,0.0,0.0,0.0,0.0,0.0,0.04704857,0.0016800743,-0.99909014,-0.83843994,-0.05859375,-0.44177246,-0.05859375,0.3232422,0.024414062,1.9146886,0.9740505,0.034782767,-20.684265,-0.9647217,-0.052612305,-0.2722168,-0.16796875,0.028320312,0.016601562,4.8057895,1.136746,-56.968136,-21.182905,-0.39172363,-0.37677002,0.8475342,-0.00390625,-0.0625,-0.0087890625,5.0880036,5.9089284,-128.76077,-24.299759,0.0,0.0,0.0,0.0,0.0,0.0,0.0,-14.000275,-128.81192,-26.164724,0.0,0.0,0.0,0.0,0.0,0.0,0.0,-0.04704857,-0.0016800743,0.99909014,0.9175415,0.11846924,-0.3848877,-0.0126953125,-0.18457031,-0.115234375,1.423953,-0.9740505,-0.034782767,20.684265,-0.94647217,0.0446167,-0.27868652,-0.11425781,-0.015625,0.0107421875,3.4761503,-1.9020236,-57.02221,21.68596,-0.42834473,0.6812744,1.2102661,-0.17089844,0.036132812,-0.045898438,35.60077,-0.12554431,-129.01434,21.091255,0.0,0.0,0.0,0.0,0.0,0.0,0.0,-15.297347,-128.0894,34.102818,0.0,0.0,0.0,0.0,0.0,0.0,0.0,1.35375,44.988365,0.13940269,
2.4609374266583477,105,-0.031555176,-1.0197144,0.35229492,-0.0087890625,0.13964844,0.07714844,0.0,0.0,0.0,0.0,0.0,0.0,0.0,0.0,0.0,0.0,0.0,0.045777053,0.0010901848,-0.99922216,-0.8453369,-0.07733154,-0.43988037,-0.022460938,0.39746094,0.0048828125,2.3931832,0.94772696,0.022570208,-20.686996,-0.99609375,-0.1149292,-0.23132324,-0.28222656,-0.0087890625,-0.021484375,4.31257,1.6510756,-56.97932,-21.349365,-0.43756104,-0.35125732,0.8465576,-0.00390625,-0.080078125,0.028320312,5.4999294,6.532736,-128.76418,-24.440662,0.0,0.0,0.0,0.0,0.0,0.0,0.0,-13.375584,-128.7846,-26.328838,0.0,0.0,0.0,0.0,0.0,0.0,0.0,-0.045777053,-0.0010901848,0.99922216,0.92871094,0.12121582,-0.37695312,0.0048828125,-0.10839844,-0.0390625,1.3829594,-0.94772696,-0.022570208,20.686996,-0.95043945,0.062438965,-0.29730225,-0.078125,0.080078125,0.029296875,3.2143672,-1.6903797,-57.012764,21.611483,-0.473938,0.664917,1.2019043,-0.19042969,0.055664062,-0.103515625,35.360462,0.009010315,-129.0061,21.031605,0.0,0.0,0.0,0.0,0.0,0.0,0.0,-15.177364,-128.08871,34.025917,0.0,0.0,0.0,0.0,0.0,0.0,0.0,1.2781473,44.993904,0.10764521,
2.4843749259598558,106,-0.028442383,-0.99090576,0.3484497,0.029296875,0.14160156,0.0390625,0.0,0.0,0.0,0.0,0.0,0.0,0.0,0.0,0.0,0.0,0.0,0.045718282,-5.778717E-4,-0.9991476,-0.86505127,-0.106933594,-0.4506836,0.07324219,0.2861328,0.040039062,2.7550583,0.9465095,-0.011963737,-20.685453,-0.9800415,-0.033203125,-0.23876953,-0.13085938,0.0078125,0.053710938,3.871307,2.1121259,-56.998928,-21.442118,-0.4423828,-0.33929443,0.8338623,-0.022460938,-0.15332031,0.028320312,5.7377067,7.0450306,-128.77672,-24.488419,0.0,0.0,0.0,0.0,0.0,0.0,0.0,-12.857756,-128.75609,-26.415215,0.0,0.0,0.0,0.0,0.0,0.0,0.0,-0.045718282,5.778717E-4,0.9991476,0.92370605,0.12713623,-0.38885498,-0.0703125,-0.12890625,-0.01953125,1.2536699,-0.9465095,0.011963737,20.685453,-0.9224243,0.0435791,-0.300354,-0.13671875,0.099609375,0.030273438,3.1159613,-1.5640728,-56.98092,21.553228,-0.46557617,0.6357422,1.1846313,-0.13378906,0.037109375,-0.103515625,35.561684,0.18536305,-128.96931,20.963657,0.0,0.0,0.0,0.0,0.0,0.0,0.0,-14.99434,-128.05196,33.96621,0.0,0.0,0.0,0.0,0.0,0.0,0.0,1.1672266,44.99355,0.027386367,
2.507812425261364,107,-0.028442383,-0.99090576,0.3484497,0.029296875,0.14160156,0.0390625,0.0,0.0,0.0,0.0,0.0,0.0,0.0,0.0,0.0,0.0,0.0,0.045718282,-5.778717E-4,-0.9991476,-0.88513184,-0.13830566,-0.40197754,0.09375,0.09863281,0.057617188,2.917456,0.9465095,-0.011963737,-20.685453,-0.95269775,0.024169922,-0.18823242,-0.111328125,0.0078125,0.016601562,3.6511967,2.292759,-57.0031,-21.387922,-0.418396,-0.3458252,0.86602783,-0.022460938,-0.080078125,0.009765625,5.7095933,7.1131577,-128.78946,-24.436796,0.0,0.0,0.0,0.0,0.0,0.0,0.0,-12.790989,-128.71776,-26.364117,0.0,0.0,0.0,0.0,0.0,0.0,0.0,-0.045718282,5.778717E-4,0.9991476,0.9083252,0.11743164,-0.36395264,0.0234375,-0.032226562,-9.765625E-4,1.3412967,-0.9465095,0.011963737,20.685453,-0.9450073,-0.02142334,-0.3223877,0.0,0.041992188,0.046875,3.0309281,-1.476739,-56.981304,21.589783,-0.43493652,0.618042,1.1740723,-0.059570312,9.765625E-4,-0.06738281,35.661964,0.3587414,-128.97464,21.25007,0.0,0.0,0.0,0.0,0.0,0.0,0.0,-14.805698,-128.05943,34.263474,0.0,0.0,0.0,0.0,0.0,0.0,0.0,1.1672266,44.99355,0.027386367,
2.531249924562872,108,-0.061523438,-1.00354,0.32818604,-0.0087890625,0.06640625,0.0390625,0.0,0.0,0.0,0.0,0.0,0.0,0.0,0.0,0.0,0.0,0.0,0.04866764,-0.0024912274,-0.9990863,-0.89715576,-0.15197754,-0.38000488,0.16894531,0.13574219,0.11230469,2.7224672,1.00757,-0.051576123,-20.684185,-0.93725586,-0.025756836,-0.19329834,-0.091796875,0.02734375,-0.020507812,3.620825,2.3741732,-57.043404,-21.269655,-0.4109497,-0.39013672,0.84375,-0.00390625,-0.080078125,0.028320312,5.6504164,7.1205554,-128.84464,-24.275013,0.0,0.0,0.0,0.0,0.0,0.0,0.0,-12.781879,-128.72505,-26.21627,0.0,0.0,0.0,0.0,0.0,0.0,0.0,-0.04866764,0.0024912274,0.9990863,0.91448975,0.105895996,-0.39294434,0.08105469,-0.03125,-0.0390625,1.158934,-1.00757,0.051576123,20.684185,-0.9291382,0.11065674,-0.35113525,-0.001953125,0.099609375,0.08496094,3.1121893,-1.4747394,-56.94387,21.60352,-0.4465332,0.66674805,1.2025146,-0.040039062,0.01953125,-0.009765625,35.76582,0.5653976,-128.92163,21.317114,0.0,0.0,0.0,0.0,0.0,0.0,0.0,-14.599043,-128.00642,34.330513,0.0,0.0,0.0,0.0,0.0,0.0,0.0,0.9939047,45.001316,-0.063795805,
