TOTAL_TIME,0m7s
TOTAL_FRAMES,285
SELECTED_FRAMES,285
NO_OF_JOINTS,12
FREQUENCY,42.666668
DESCRIPTION,Capture 9
TIME_STAMP,Jul 8, 2010

Time,Frame,Pelvis_accelX_Pelvis,Pelvis_accelY_Pelvis,Pelvis_accelZ_Pelvis,Pelvis_gyroX_Pelvis,Pelvis_gyroY_Pelvis,Pelvis_gyroZ_Pelvis,Pelvis_Joint angle_Pelvis,Pelvis_Relative pos X_Pelvis,Pelvis_Relative pos Y_Pelvis,Pelvis_Relative pos Z_Pelvis,RightPelvis_accelX_RightPelvis,RightPelvis_accelY_RightPelvis,RightPelvis_accelZ_RightPelvis,RightPelvis_gyroX_RightPelvis,RightPelvis_gyroY_RightPelvis,RightPelvis_gyroZ_RightPelvis,RightPelvis_Joint angle_RightPelvis,RightPelvis_Relative pos X_RightPelvis,RightPelvis_Relative pos Y_RightPelvis,RightPelvis_Relative pos Z_RightPelvis,RightUpLeg_accelX_RightUpLeg,RightUpLeg_accelY_RightUpLeg,RightUpLeg_accelZ_RightUpLeg,RightUpLeg_gyroX_RightUpLeg,RightUpLeg_gyroY_RightUpLeg,RightUpLeg_gyroZ_RightUpLeg,RightUpLeg_Joint angle_RightUpLeg,RightUpLeg_Relative pos X_RightUpLeg,RightUpLeg_Relative pos Y_RightUpLeg,RightUpLeg_Relative pos Z_RightUpLeg,RightLeg_accelX_RightLeg,RightLeg_accelY_RightLeg,RightLeg_accelZ_RightLeg,RightLeg_gyroX_RightLeg,RightLeg_gyroY_RightLeg,RightLeg_gyroZ_RightLeg,RightLeg_Joint angle_RightLeg,RightLeg_Relative pos X_RightLeg,RightLeg_Relative pos Y_RightLeg,RightLeg_Relative pos Z_RightLeg,RightFoot_accelX_RightFoot,RightFoot_accelY_RightFoot,RightFoot_accelZ_RightFoot,RightFoot_gyroX_RightFoot,RightFoot_gyroY_RightFoot,RightFoot_gyroZ_RightFoot,RightFoot_Joint angle_RightFoot,RightFoot_Relative pos X_RightFoot,RightFoot_Relative pos Y_RightFoot,RightFoot_Relative pos Z_RightFoot,RightFootEnd_accelX_RightFootEnd,RightFootEnd_accelY_RightFootEnd,RightFootEnd_accelZ_RightFootEnd,RightFootEnd_gyroX_RightFootEnd,RightFootEnd_gyroY_RightFootEnd,RightFootEnd_gyroZ_RightFootEnd,RightFootEnd_Joint angle_RightFootEnd,RightFootEnd_Relative pos X_RightFootEnd,RightFootEnd_Relative pos Y_RightFootEnd,RightFootEnd_Relative pos Z_RightFootEnd,LeftPelvis_accelX_LeftPelvis,LeftPelvis_accelY_LeftPelvis,LeftPelvis_accelZ_LeftPelvis,LeftPelvis_gyroX_LeftPelvis,LeftPelvis_gyroY_LeftPelvis,LeftPelvis_gyroZ_LeftPelvis,LeftPelvis_Joint angle_LeftPelvis,LeftPelvis_Relative pos X_LeftPelvis,LeftPelvis_Relative pos Y_LeftPelvis,LeftPelvis_Relative pos Z_LeftPelvis,LeftUpLeg_accelX_LeftUpLeg,LeftUpLeg_accelY_LeftUpLeg,LeftUpLeg_accelZ_LeftUpLeg,LeftUpLeg_gyroX_LeftUpLeg,LeftUpLeg_gyroY_LeftUpLeg,LeftUpLeg_gyroZ_LeftUpLeg,LeftUpLeg_Joint angle_LeftUpLeg,LeftUpLeg_Relative pos X_LeftUpLeg,LeftUpLeg_Relative pos Y_LeftUpLeg,LeftUpLeg_Relative pos Z_LeftUpLeg,LeftLeg_accelX_LeftLeg,LeftLeg_accelY_LeftLeg,LeftLeg_accelZ_LeftLeg,LeftLeg_gyroX_LeftLeg,LeftLeg_gyroY_LeftLeg,LeftLeg_gyroZ_LeftLeg,LeftLeg_Joint angle_LeftLeg,LeftLeg_Relative pos X_LeftLeg,LeftLeg_Relative pos Y_LeftLeg,LeftLeg_Relative pos Z_LeftLeg,LeftFoot_accelX_LeftFoot,LeftFoot_accelY_LeftFoot,LeftFoot_accelZ_LeftFoot,LeftFoot_gyroX_LeftFoot,LeftFoot_gyroY_LeftFoot,LeftFoot_gyroZ_LeftFoot,LeftFoot_Joint angle_LeftFoot,LeftFoot_Relative pos X_LeftFoot,LeftFoot_Relative pos Y_LeftFoot,LeftFoot_Relative pos Z_LeftFoot,LeftFootEnd_accelX_LeftFootEnd,LeftFootEnd_accelY_LeftFootEnd,LeftFootEnd_accelZ_LeftFootEnd,LeftFootEnd_gyroX_LeftFootEnd,LeftFootEnd_gyroY_LeftFootEnd,LeftFootEnd_gyroZ_LeftFootEnd,LeftFootEnd_Joint angle_LeftFootEnd,LeftFootEnd_Relative pos X_LeftFootEnd,LeftFootEnd_Relative pos Y_LeftFootEnd,LeftFootEnd_Relative pos Z_LeftFootEnd,Spine_accelX_Spine,Spine_accelY_Spine,Spine_accelZ_Spine,Spine_gyroX_Spine,Spine_gyroY_Spine,Spine_gyroZ_Spine,Spine_Joint angle_Spine,Spine_Relative pos X_Spine,Spine_Relative pos Y_Spine,Spine_Relative pos Z_Spine,
0.0,0,0.0,0.0,0.0,0.0,0.0,0.0,0.0,0.0,0.0,0.0,0.0,0.0,0.0,0.0,0.0,0.0,0.0,0.0,0.0,0.0,0.0,0.0,0.0,0.0,0.0,0.0,NaN,0.0,0.0,0.0,0.0,0.0,0.0,0.0,0.0,0.0,NaN,0.0,0.0,0.0,0.0,0.0,0.0,0.0,0.0,0.0,NaN,0.0,0.0,0.0,0.0,0.0,0.0,0.0,0.0,0.0,0.0,0.0,0.0,0.0,0.0,0.0,0.0,0.0,0.0,0.0,0.0,0.0,0.0,0.0,0.0,0.0,0.0,0.0,0.0,0.0,NaN,0.0,0.0,0.0,0.0,0.0,0.0,0.0,0.0,0.0,NaN,0.0,0.0,0.0,0.0,0.0,0.0,0.0,0.0,0.0,NaN,0.0,0.0,0.0,0.0,0.0,0.0,0.0,0.0,0.0,0.0,0.0,0.0,0.0,0.0,0.0,0.0,0.0,0.0,0.0,0.0,0.0,0.0,0.0,
0.02343749930150809,1,0.0,0.0,0.0,0.0,0.0,0.0,0.0,0.0,0.0,0.0,0.0,0.0,0.0,0.0,0.0,0.0,0.0,0.0,0.0,0.0,0.0,0.0,0.0,0.0,0.0,0.0,NaN,0.0,0.0,0.0,0.0,0.0,0.0,0.0,0.0,0.0,NaN,0.0,0.0,0.0,0.0,0.0,0.0,0.0,0.0,0.0,NaN,0.0,0.0,0.0,0.0,0.0,0.0,0.0,0.0,0.0,0.0,0.0,0.0,0.0,0.0,0.0,0.0,0.0,0.0,0.0,0.0,0.0,0.0,0.0,0.0,0.0,0.0,0.0,0.0,0.0,NaN,0.0,0.0,0.0,0.0,0.0,0.0,0.0,0.0,0.0,NaN,0.0,0.0,0.0,0.0,0.0,0.0,0.0,0.0,0.0,NaN,0.0,0.0,0.0,0.0,0.0,0.0,0.0,0.0,0.0,0.0,0.0,0.0,0.0,0.0,0.0,0.0,0.0,0.0,0.0,0.0,0.0,0.0,0.0,
0.04687499860301618,2,0.0,0.0,0.0,0.0,0.0,0.0,0.0,0.0,0.0,0.0,0.0,0.0,0.0,0.0,0.0,0.0,0.0,0.0,0.0,0.0,0.0,0.0,0.0,0.0,0.0,0.0,NaN,0.0,0.0,0.0,0.0,0.0,0.0,0.0,0.0,0.0,NaN,0.0,0.0,0.0,0.0,0.0,0.0,0.0,0.0,0.0,NaN,0.0,0.0,0.0,0.0,0.0,0.0,0.0,0.0,0.0,0.0,0.0,0.0,0.0,0.0,0.0,0.0,0.0,0.0,0.0,0.0,0.0,0.0,0.0,0.0,0.0,0.0,0.0,0.0,0.0,NaN,0.0,0.0,0.0,0.0,0.0,0.0,0.0,0.0,0.0,NaN,0.0,0.0,0.0,0.0,0.0,0.0,0.0,0.0,0.0,NaN,0.0,0.0,0.0,0.0,0.0,0.0,0.0,0.0,0.0,0.0,0.0,0.0,0.0,0.0,0.0,0.0,0.0,0.0,0.0,0.0,0.0,0.0,0.0,
0.07031249790452426,3,0.01159668,-0.98132324,0.31036377,0.0107421875,0.01171875,0.001953125,0.0,0.0,0.0,0.0,0.0,0.0,0.0,0.0,0.0,0.0,0.0,-0.04303345,0.025667192,-0.9989442,-0.9012451,-0.060058594,-0.3065796,-0.07519531,0.17382812,0.0234375,6.0051484,-0.8909253,0.5313904,-20.68124,-0.9645386,0.024353027,-0.23449707,-0.034179688,0.045898438,0.016601562,10.82111,-8.470596,-55.967392,-20.092083,-0.43328857,-0.33459473,0.84069824,0.052734375,-0.08105469,0.009765625,5.4729977,-6.726805,-127.79466,-25.043911,0.0,0.0,0.0,0.0,0.0,0.0,0.0,-26.72178,-127.68424,-25.200544,0.0,0.0,0.0,0.0,0.0,0.0,0.0,0.04303345,-0.025667192,0.9989442,0.90234375,0.10418701,-0.40582275,-0.033203125,0.024414062,0.037109375,2.8711264,0.8909253,-0.5313904,20.68124,-0.9433594,0.06317139,-0.27856445,-0.076171875,0.00390625,0.009765625,0.47436523,1.3455915,-57.533676,20.827686,-0.45220947,0.6413574,1.3959961,0.016601562,0.0390625,-0.0107421875,33.57821,0.6785381,-129.53882,20.561666,0.0,0.0,0.0,0.0,0.0,0.0,0.0,-13.358387,-128.72818,34.78763,0.0,0.0,0.0,0.0,0.0,0.0,0.0,1.5472641,44.96922,1.0887991,
0.09374999720603236,4,0.016601562,-0.9793091,0.27868652,-0.0087890625,-0.0068359375,0.001953125,0.0,0.0,0.0,0.0,0.0,0.0,0.0,0.0,0.0,0.0,0.0,-0.04281819,0.025886726,-0.9988331,-0.91986084,-0.08087158,-0.3579712,-0.11328125,0.17382812,0.04296875,5.6735387,-0.886469,0.53593546,-20.678944,-0.9691162,0.008117676,-0.21984863,-0.072265625,0.046875,-0.001953125,10.501686,-8.186084,-55.99836,-20.203505,-0.40100098,-0.32043457,0.847229,0.034179688,-0.08105469,-0.0087890625,5.5410733,-6.4574327,-127.826256,-25.151844,0.0,0.0,0.0,0.0,0.0,0.0,0.0,-26.45303,-127.67575,-25.307789,0.0,0.0,0.0,0.0,0.0,0.0,0.0,0.04281819,-0.025886726,0.9988331,0.8972168,0.09265137,-0.414917,-0.07128906,0.0048828125,0.037109375,2.8765755,0.886469,-0.53593546,20.678944,-0.92297363,0.09698486,-0.26660156,-0.038085938,0.041992188,0.046875,0.45456478,1.3287554,-57.53836,20.7932,-0.46887207,0.66589355,1.2037964,0.016601562,0.095703125,-0.030273438,33.677467,0.7245069,-129.54697,20.483932,0.0,0.0,0.0,0.0,0.0,0.0,0.0,-13.316056,-128.74336,34.707092,0.0,0.0,0.0,0.0,0.0,0.0,0.0,1.5719597,44.962982,1.0979171,
0.11718749650754046,5,0.0014648438,-1.0113525,0.28631592,-0.0078125,-0.0625,0.0029296875,0.0,0.0,0.0,0.0,0.0,0.0,0.0,0.0,0.0,0.0,0.0,-0.04191035,0.025323007,-0.99905914,-0.9298706,-0.09069824,-0.34295654,-0.09472656,0.2109375,0.024414062,5.2103395,-0.86767405,0.52426475,-20.683622,-0.9604492,0.03479004,-0.21276855,-0.11035156,0.046875,0.036132812,10.0256405,-7.7894025,-56.05831,-20.394886,-0.41027832,-0.3399048,0.8383179,0.0146484375,-0.0625,0.046875,5.599302,-6.110847,-127.88695,-25.30842,0.0,0.0,0.0,0.0,0.0,0.0,0.0,-26.105682,-127.71755,-25.473673,0.0,0.0,0.0,0.0,0.0,0.0,0.0,0.04191035,-0.025323007,0.99905914,0.8789673,0.09185791,-0.41680908,-0.051757812,-0.033203125,-0.020507812,2.8946881,0.86767405,-0.52426475,20.683622,-0.9180908,0.0814209,-0.27947998,-0.01953125,0.060546875,0.028320312,0.42289913,1.3432902,-57.530655,20.756805,-0.45147705,0.6531372,1.1984863,0.053710938,0.05859375,-0.01171875,33.77855,0.8419581,-129.53531,20.42094,0.0,0.0,0.0,0.0,0.0,0.0,0.0,-13.202243,-128.73875,34.64129,0.0,0.0,0.0,0.0,0.0,0.0,0.0,1.596911,44.9705,1.0728705,
0.14062499580904855,6,-0.021484375,-0.99780273,0.28607178,-0.0078125,-0.044921875,0.041015625,0.0,0.0,0.0,0.0,0.0,0.0,0.0,0.0,0.0,0.0,0.0,-0.04175082,0.024127793,-0.99895364,-0.92285156,-0.095581055,-0.3352661,-0.13085938,0.061523438,0.0048828125,4.856275,-0.86437213,0.49952012,-20.681437,-0.9610596,0.012512207,-0.19519043,-0.11035156,0.046875,0.036132812,9.675566,-7.523198,-56.118584,-20.455116,-0.41351318,-0.35662842,0.8401489,0.0146484375,-0.0625,0.028320312,5.6188335,-5.931485,-127.95271,-25.315449,0.0,0.0,0.0,0.0,0.0,0.0,0.0,-25.92712,-127.776695,-25.50248,0.0,0.0,0.0,0.0,0.0,0.0,0.0,0.04175082,-0.024127793,0.99895364,0.9053955,0.07727051,-0.45593262,-0.0703125,-0.07128906,-0.020507812,2.8991477,0.86437213,-0.49952012,20.681437,-0.94415283,0.10253906,-0.30493164,-0.05859375,0.041992188,-0.0078125,0.43790182,1.358275,-57.50319,20.684597,-0.47711182,0.67663574,1.210022,-0.020507812,0.057617188,-0.0107421875,33.86843,0.8996297,-129.50793,20.235765,0.0,0.0,0.0,0.0,0.0,0.0,0.0,-13.145986,-128.71906,34.45406,0.0,0.0,0.0,0.0,0.0,0.0,0.0,1.6455309,44.96366,1.0172359,
0.16406249511055665,7,0.0045776367,-0.987854,0.29437256,-0.0078125,-0.044921875,0.041015625,0.0,0.0,0.0,0.0,0.0,0.0,0.0,0.0,0.0,0.0,0.0,-0.040226966,0.023577377,-0.9991916,-0.91693115,-0.072021484,-0.35101318,-0.01953125,0.15527344,0.00390625,4.595166,-0.83282375,0.48812485,-20.686363,-0.9522095,0.024230957,-0.2364502,-0.111328125,0.02734375,0.03515625,9.394442,-7.284116,-56.153236,-20.546389,-0.4142456,-0.33587646,0.83740234,0.0146484375,-0.043945312,0.047851562,5.659704,-5.759454,-127.99129,-25.394302,0.0,0.0,0.0,0.0,0.0,0.0,0.0,-25.754322,-127.80354,-25.603441,0.0,0.0,0.0,0.0,0.0,0.0,0.0,0.040226966,-0.023577377,0.9991916,0.9033203,0.08294678,-0.43096924,0.061523438,0.0068359375,-9.765625E-4,2.851972,0.83282375,-0.48812485,20.686363,-0.9170532,0.097229004,-0.29510498,-0.056640625,0.0029296875,0.046875,0.42336154,1.3194032,-57.493805,20.567692,-0.4730835,0.6814575,1.2159424,-0.001953125,0.057617188,-0.029296875,34.05363,0.96534973,-129.50806,19.97733,0.0,0.0,0.0,0.0,0.0,0.0,0.0,-13.080265,-128.71918,34.19562,0.0,0.0,0.0,0.0,0.0,0.0,0.0,1.6668887,44.97069,0.99404067,
0.18749999441206475,8,0.0016479492,-0.97076416,0.3161621,0.0107421875,-0.06347656,0.041015625,0.0,0.0,0.0,0.0,0.0,0.0,0.0,0.0,0.0,0.0,0.0,-0.0376406,0.023466146,-0.99929583,-0.9048462,-0.074035645,-0.36120605,-0.07421875,0.061523438,0.022460938,4.399038,-0.77927685,0.48582196,-20.68852,-0.9290161,0.042541504,-0.26776123,-0.11035156,0.046875,0.036132812,9.190433,-7.056568,-56.17235,-20.577187,-0.41955566,-0.35754395,0.85406494,0.015625,-0.043945312,0.029296875,5.724472,-5.605022,-128.00304,-25.484362,0.0,0.0,0.0,0.0,0.0,0.0,0.0,-25.599237,-127.80028,-25.712254,0.0,0.0,0.0,0.0,0.0,0.0,0.0,0.0376406,-0.023466146,0.99929583,0.8931885,0.07635498,-0.44091797,0.08105469,-0.01171875,-0.020507812,2.7844584,0.77927685,-0.48582196,20.68852,-0.9793091,0.09484863,-0.27545166,-0.078125,0.061523438,0.0107421875,0.36099443,1.2238592,-57.484924,20.448534,-0.444458,0.6628418,1.2023926,-0.0390625,0.038085938,0.0087890625,34.064915,0.871115,-129.49692,19.78946,0.0,0.0,0.0,0.0,0.0,0.0,0.0,-13.1745,-128.70804,34.00775,0.0,0.0,0.0,0.0,0.0,0.0,0.0,1.6830488,44.97016,0.9926242,
0.21093749371357284,9,-0.007507324,-1.0084229,0.315979,-0.046875,-0.045898438,0.040039062,0.0,0.0,0.0,0.0,0.0,0.0,0.0,0.0,0.0,0.0,0.0,-0.035355657,0.02346338,-0.999243,-0.9041748,-0.04534912,-0.34503174,-0.037109375,0.080078125,0.022460938,4.2267923,-0.73197377,0.48576468,-20.687426,-0.96850586,0.036071777,-0.22070312,-0.072265625,0.045898438,0.036132812,8.993113,-6.850852,-56.191216,-20.65974,-0.387146,-0.33447266,0.8389282,-0.00390625,-0.0078125,0.0107421875,5.839155,-5.4094357,-128.03001,-25.543346,0.0,0.0,0.0,0.0,0.0,0.0,0.0,-25.403145,-127.80797,-25.76494,0.0,0.0,0.0,0.0,0.0,0.0,0.0,0.035355657,-0.02346338,0.999243,0.88494873,0.051208496,-0.44708252,0.15625,0.02734375,-0.0390625,2.6810255,0.73197377,-0.48576468,20.687426,-0.9277344,0.16217041,-0.32330322,-0.11816406,0.099609375,0.01171875,0.46646202,1.1255165,-57.48895,20.297089,-0.46038818,0.62786865,1.1834717,-0.057617188,0.038085938,0.028320312,34.453117,0.94696,-129.4984,19.402002,0.0,0.0,0.0,0.0,0.0,0.0,0.0,-13.098656,-128.70952,33.620296,0.0,0.0,0.0,0.0,0.0,0.0,0.0,1.6789789,44.964092,0.9964023,
0.23437499301508094,10,0.0025024414,-1.0096436,0.2952881,0.0107421875,-0.06347656,0.041015625,0.0,0.0,0.0,0.0,0.0,0.0,0.0,0.0,0.0,0.0,0.0,-0.033541054,0.023204261,-0.9993329,-0.92474365,-0.09661865,-0.3491211,9.765625E-4,0.061523438,0.040039062,4.057771,-0.69440305,0.4804002,-20.68929,-0.96643066,0.03527832,-0.22955322,-0.036132812,0.0078125,0.03515625,8.807186,-6.65046,-56.2138,-20.695219,-0.3930664,-0.32659912,0.855896,0.015625,-0.026367188,0.029296875,5.8513618,-5.222617,-128.05199,-25.543478,0.0,0.0,0.0,0.0,0.0,0.0,0.0,-25.217178,-127.81333,-25.767345,0.0,0.0,0.0,0.0,0.0,0.0,0.0,0.033541054,-0.023204261,0.9993329,0.88934326,0.12591553,-0.43847656,0.15722656,0.02734375,-0.078125,2.665796,0.69440305,-0.4804002,20.68929,-0.92626953,0.05596924,-0.26678467,-0.115234375,0.022460938,0.0107421875,0.44893393,1.1206986,-57.480907,20.1597,-0.46051025,0.64056396,1.1915283,-0.020507812,0.038085938,0.02734375,34.754353,1.0572629,-129.49152,19.16921,0.0,0.0,0.0,0.0,0.0,0.0,0.0,-12.988352,-128.70264,33.387505,0.0,0.0,0.0,0.0,0.0,0.0,0.0,1.6779109,44.965282,0.98776627,
0.25781249231658904,11,0.008666992,-0.9597168,0.2816162,-0.0087890625,-0.026367188,0.041015625,0.0,0.0,0.0,0.0,0.0,0.0,0.0,0.0,0.0,0.0,0.0,-0.032988876,0.023104522,-0.9994227,-0.9119873,-0.05529785,-0.3687744,9.765625E-4,0.061523438,0.0029296875,3.8956616,-0.6829723,0.47833526,-20.691147,-0.9446411,0.06414795,-0.19488525,-0.036132812,0.0078125,0.03515625,8.672378,-6.5503297,-56.22653,-20.721096,-0.4152832,-0.3359375,0.8482666,-0.00390625,0.0107421875,0.029296875,5.717209,-5.1672306,-128.06688,-25.539745,0.0,0.0,0.0,0.0,0.0,0.0,0.0,-25.16009,-127.82104,-25.781837,0.0,0.0,0.0,0.0,0.0,0.0,0.0,0.032988876,-0.023104522,0.9994227,0.88635254,0.13555908,-0.4263916,0.061523438,0.0068359375,-0.0390625,2.8216798,0.6829723,-0.47833526,20.691147,-0.9382324,0.07989502,-0.29522705,9.765625E-4,0.00390625,0.028320312,0.3794918,1.1983807,-57.481403,20.174404,-0.47485352,0.649353,1.1938477,-0.0390625,0.038085938,0.0087890625,34.851845,1.1907101,-129.4834,19.259583,0.0,0.0,0.0,0.0,0.0,0.0,0.0,-12.854905,-128.69452,33.477875,0.0,0.0,0.0,0.0,0.0,0.0,0.0,1.7334185,44.966404,0.9823108,
0.2812499916180971,12,0.010620117,-0.9847412,0.32318115,-0.0078125,-0.08203125,0.022460938,0.0,0.0,0.0,0.0,0.0,0.0,0.0,0.0,0.0,0.0,0.0,-0.028178364,0.023529958,-0.9995806,-0.89819336,-0.056152344,-0.32543945,-0.055664062,0.080078125,0.00390625,3.7962754,-0.5833808,0.487143,-20.69442,-0.92803955,0.011657715,-0.22460938,-0.07324219,0.02734375,0.03515625,8.526087,-6.368726,-56.22364,-20.803547,-0.41131592,-0.3418579,0.8383179,-0.022460938,0.0107421875,0.029296875,5.6267805,-5.031565,-128.06789,-25.61194,0.0,0.0,0.0,0.0,0.0,0.0,0.0,-25.024994,-127.81697,-25.881788,0.0,0.0,0.0,0.0,0.0,0.0,0.0,0.028178364,-0.023529958,0.9995806,0.88616943,0.11706543,-0.41760254,0.0234375,-0.0703125,-9.765625E-4,2.9302435,0.5833808,-0.487143,20.69442,-0.93811035,0.09234619,-0.27252197,-0.038085938,0.041992188,0.046875,0.42428493,1.1884661,-57.486057,20.198902,-0.4625244,0.6376343,1.1915283,-0.020507812,0.01953125,0.0087890625,34.96248,1.269737,-129.49147,19.214355,0.0,0.0,0.0,0.0,0.0,0.0,0.0,-12.775878,-128.70259,33.432648,0.0,0.0,0.0,0.0,0.0,0.0,0.0,1.7390296,44.96652,1.0094805,
0.3046874909196052,13,0.006652832,-0.97528076,0.335083,-0.0078125,-0.06347656,0.041015625,0.0,0.0,0.0,0.0,0.0,0.0,0.0,0.0,0.0,0.0,0.0,-0.024067312,0.023907231,-0.99970984,-0.87768555,-0.07904053,-0.37670898,-0.11230469,0.061523438,0.0048828125,3.65377,-0.49826756,0.49495384,-20.697094,-0.9690552,0.02923584,-0.17938232,-0.015625,0.045898438,0.0546875,8.3085575,-6.1410027,-56.232967,-20.897028,-0.39215088,-0.33551025,0.8637085,-0.00390625,0.0107421875,0.0107421875,5.5821605,-4.8383126,-128.08017,-25.642094,0.0,0.0,0.0,0.0,0.0,0.0,0.0,-24.832582,-127.81265,-25.914234,0.0,0.0,0.0,0.0,0.0,0.0,0.0,0.024067312,-0.023907231,0.99970984,0.8810425,0.08709717,-0.43676758,-0.07128906,-0.013671875,-9.765625E-4,2.9202058,0.49826756,-0.49495384,20.697094,-0.9362793,0.07501221,-0.3001709,-0.057617188,0.022460938,0.028320312,0.3846134,1.1133981,-57.496193,20.147661,-0.45684814,0.6881714,1.2157593,-0.0390625,0.056640625,0.028320312,34.885376,1.2258286,-129.50177,19.17667,0.0,0.0,0.0,0.0,0.0,0.0,0.0,-12.819786,-128.71289,33.394962,0.0,0.0,0.0,0.0,0.0,0.0,0.0,1.7280151,44.967773,1.0337664,
0.32812499022111324,14,0.030578613,-0.9959717,0.31152344,0.01171875,-0.08105469,0.022460938,0.0,0.0,0.0,0.0,0.0,0.0,0.0,0.0,0.0,0.0,0.0,-0.01866132,0.024477579,-0.99980676,-0.8859253,-0.072021484,-0.3496704,-0.12988281,0.024414062,0.0048828125,3.6119995,-0.38634568,0.5067618,-20.6991,-0.97509766,0.02758789,-0.19317627,-0.03515625,0.0078125,0.016601562,8.184796,-5.944417,-56.22805,-20.962715,-0.41625977,-0.3338623,0.8364868,-0.00390625,0.028320312,0.0107421875,5.5863714,-4.6541147,-128.07997,-25.684677,0.0,0.0,0.0,0.0,0.0,0.0,0.0,-24.64724,-127.80327,-25.965824,0.0,0.0,0.0,0.0,0.0,0.0,0.0,0.01866132,-0.024477579,0.99980676,0.881897,0.07336426,-0.41296387,0.04296875,-0.03125,-9.765625E-4,2.8453066,0.38634568,-0.5067618,20.6991,-0.93603516,0.11029053,-0.30389404,-0.078125,0.080078125,0.0107421875,0.48738635,0.97253436,-57.50558,20.100365,-0.461792,0.67071533,1.2087402,-0.07714844,0.037109375,0.028320312,34.980316,1.1667792,-129.50766,19.00427,0.0,0.0,0.0,0.0,0.0,0.0,0.0,-12.878836,-128.71878,33.222565,0.0,0.0,0.0,0.0,0.0,0.0,0.0,1.6906941,44.968143,1.0693673,
0.3515624895226213,15,0.024658203,-0.977478,0.31744385,0.01171875,-0.08105469,0.00390625,0.0,0.0,0.0,0.0,0.0,0.0,0.0,0.0,0.0,0.0,0.0,-0.016512215,0.02481889,-0.99976933,-0.90789795,-0.07495117,-0.35321045,-0.018554688,0.080078125,0.040039062,3.4741783,-0.34185344,0.51382804,-20.698324,-0.9682007,0.036865234,-0.25610352,-0.015625,0.045898438,0.036132812,8.02852,-5.775826,-56.230453,-20.97382,-0.42773438,-0.36828613,0.8590698,-0.022460938,-0.0078125,0.0107421875,5.5736575,-4.517622,-128.08386,-25.657545,0.0,0.0,0.0,0.0,0.0,0.0,0.0,-24.51006,-127.798,-25.939587,0.0,0.0,0.0,0.0,0.0,0.0,0.0,0.016512215,-0.02481889,0.99976933,0.89508057,0.046325684,-0.45910645,0.0625,-0.03125,-0.05859375,2.8164718,0.34185344,-0.51382804,20.698324,-0.9319458,0.116760254,-0.27825928,-0.15429688,0.041992188,-0.0068359375,0.5997046,0.8999557,-57.51472,19.978659,-0.4605713,0.6444092,1.1935425,-0.07714844,0.038085938,0.009765625,35.2337,1.1878159,-129.51112,18.662132,0.0,0.0,0.0,0.0,0.0,0.0,0.0,-12.8578,-128.72224,32.880424,0.0,0.0,0.0,0.0,0.0,0.0,0.0,1.7093285,44.963985,1.0879824,
0.3749999888241294,16,0.02947998,-1.0135498,0.30352783,-0.0078125,-0.08203125,0.060546875,0.0,0.0,0.0,0.0,0.0,0.0,0.0,0.0,0.0,0.0,0.0,-0.013286263,0.025009468,-0.9996915,-0.8977051,-0.07116699,-0.3970337,-0.017578125,0.005859375,0.040039062,3.4116244,-0.27506605,0.51777345,-20.696712,-0.95025635,0.03930664,-0.19500732,-0.0546875,0.0078125,0.016601562,7.891254,-5.644871,-56.232937,-20.972904,-0.4152832,-0.3388672,0.83935547,-0.022460938,0.0107421875,0.0107421875,5.4688425,-4.4639845,-128.09134,-25.595085,0.0,0.0,0.0,0.0,0.0,0.0,0.0,-24.45731,-127.796585,-25.887363,0.0,0.0,0.0,0.0,0.0,0.0,0.0,0.013286263,-0.025009468,0.9996915,0.87524414,0.11663818,-0.4822998,0.17578125,-0.030273438,-0.05859375,2.836901,0.27506605,-0.51777345,20.696712,-0.9522705,0.10089111,-0.324646,-0.13476562,0.022460938,0.0107421875,0.5921526,0.88085437,-57.509266,19.797586,-0.46063232,0.6512451,1.1946411,-0.057617188,0.038085938,0.028320312,35.547092,1.2968365,-129.50455,18.365774,0.0,0.0,0.0,0.0,0.0,0.0,0.0,-12.753381,-128.71443,32.580402,0.0,0.0,0.0,0.0,0.0,0.0,0.0,1.714758,44.95798,1.1019324,
0.39843748812563745,17,6.1035156E-4,-0.9798584,0.28936768,-0.046875,-0.12011719,0.022460938,0.0,0.0,0.0,0.0,0.0,0.0,0.0,0.0,0.0,0.0,0.0,-0.011086643,0.02515274,-0.9997915,-0.8777466,-0.06817627,-0.37957764,0.001953125,-0.0126953125,0.040039062,3.3511765,-0.2295267,0.5207397,-20.698786,-0.95025635,0.030700684,-0.21472168,-0.053710938,0.045898438,0.016601562,7.8339863,-5.569517,-56.234325,-20.989014,-0.40509033,-0.32635498,0.85510254,-0.022460938,0.028320312,0.0107421875,5.4233966,-4.4002514,-128.09816,-25.568607,0.0,0.0,0.0,0.0,0.0,0.0,0.0,-24.392317,-127.79333,-25.865757,0.0,0.0,0.0,0.0,0.0,0.0,0.0,0.011086643,-0.02515274,0.9997915,0.88134766,0.13195801,-0.45629883,0.17578125,-0.030273438,-0.07714844,2.9256973,0.2295267,-0.5207397,20.698786,-0.93304443,0.105285645,-0.30096436,-0.05859375,0.041992188,-0.0078125,0.5898349,0.89744776,-57.518078,19.753822,-0.4628296,0.6716919,1.2057495,-0.057617188,0.038085938,0.028320312,35.726196,1.4193885,-129.51375,18.317682,0.0,0.0,0.0,0.0,0.0,0.0,0.0,-12.630829,-128.72363,32.53231,0.0,0.0,0.0,0.0,0.0,0.0,0.0,1.7409582,44.960194,1.1118023,
0.4218749874271455,18,0.029541016,-1.0011597,0.28674316,-0.0078125,-0.08105469,0.0029296875,0.0,0.0,0.0,0.0,0.0,0.0,0.0,0.0,0.0,0.0,0.0,-0.008319795,0.025532968,-0.9997733,-0.9137573,-0.1015625,-0.34143066,-0.0546875,0.005859375,0.0029296875,3.2807994,-0.17224592,0.52861166,-20.698406,-0.9688721,0.022888184,-0.2098999,-0.034179688,0.045898438,0.036132812,7.7537265,-5.439476,-56.237038,-20.99356,-0.40197754,-0.3184204,0.8383789,-0.022460938,0.0107421875,0.0107421875,5.504061,-4.2624044,-128.10092,-25.527395,0.0,0.0,0.0,0.0,0.0,0.0,0.0,-24.25346,-127.78035,-25.814472,0.0,0.0,0.0,0.0,0.0,0.0,0.0,0.008319795,-0.025532968,0.9997733,0.8901367,0.10046387,-0.41577148,0.10058594,-0.03125,-0.078125,2.9641848,0.17224592,-0.52861166,20.698406,-0.94299316,0.123046875,-0.30285645,-0.056640625,0.00390625,-0.0087890625,0.6283845,0.87363464,-57.518867,19.700779,-0.45568848,0.66973877,1.2056274,-0.0390625,0.038085938,0.0087890625,35.870625,1.4911134,-129.50967,18.194874,0.0,0.0,0.0,0.0,0.0,0.0,0.0,-12.559104,-128.71956,32.4095,0.0,0.0,0.0,0.0,0.0,0.0,0.0,1.7482448,44.957767,1.133617,
0.4453124867286536,19,0.024597168,-0.98205566,0.305542,-0.0078125,-0.08203125,0.041015625,0.0,0.0,0.0,0.0,0.0,0.0,0.0,0.0,0.0,0.0,0.0,-0.006929189,0.025829934,-0.9999188,-0.89575195,-0.091796875,-0.35662842,-0.037109375,0.09863281,0.041015625,3.1670609,-0.1434553,0.53475964,-20.701418,-0.96868896,0.06756592,-0.24511719,-0.036132812,0.0078125,0.03515625,7.6399508,-5.307122,-56.24154,-20.98418,-0.4220581,-0.3180542,0.83966064,-0.022460938,0.0107421875,0.029296875,5.4924774,-4.156735,-128.10574,-25.504074,0.0,0.0,0.0,0.0,0.0,0.0,0.0,-24.14882,-127.77395,-25.789816,0.0,0.0,0.0,0.0,0.0,0.0,0.0,0.006929189,-0.025829934,0.9999188,0.90844727,0.093566895,-0.42388916,0.099609375,-0.049804688,-0.0390625,2.9790068,0.1434553,-0.53475964,20.701418,-0.9230957,0.08935547,-0.28533936,-0.07714844,0.041992188,-0.0078125,0.67143875,0.8305396,-57.523624,19.680967,-0.46069336,0.6609497,1.2026367,-0.01953125,0.09472656,0.046875,35.95575,1.4824696,-129.5174,18.130205,0.0,0.0,0.0,0.0,0.0,0.0,0.0,-12.569161,-128.73495,32.342777,0.0,0.0,0.0,0.0,0.0,0.0,0.0,1.7718518,44.962864,1.1492037,
0.46874998603016166,20,-0.010314941,-0.9591675,0.31903076,-0.0078125,-0.08203125,0.022460938,0.0,0.0,0.0,0.0,0.0,0.0,0.0,0.0,0.0,0.0,0.0,-0.0048167706,0.026376406,-0.9998224,-0.91864014,-0.09967041,-0.37304688,-0.09277344,0.061523438,0.00390625,3.1120007,-0.09972167,0.54607344,-20.699423,-0.9100952,0.044006348,-0.2076416,-0.0546875,0.0078125,0.03515625,7.569605,-5.1974936,-56.230385,-20.978489,-0.4232788,-0.33477783,0.84350586,-0.041015625,0.0107421875,0.0107421875,5.4428015,-4.0632143,-128.09843,-25.50116,0.0,0.0,0.0,0.0,0.0,0.0,0.0,-24.054924,-127.759384,-25.79462,0.0,0.0,0.0,0.0,0.0,0.0,0.0,0.0048167706,-0.026376406,0.9998224,0.9035034,0.11505127,-0.4366455,0.04296875,-0.0126953125,-0.0390625,3.0231674,0.09972167,-0.54607344,20.699423,-0.9402466,0.103027344,-0.35510254,-0.07714844,0.041992188,-0.026367188,0.66263825,0.81481266,-57.534187,19.684387,-0.47076416,0.6522827,1.1967773,-0.040039062,0.01953125,0.0087890625,36.03393,1.4851487,-129.52411,18.127111,0.0,0.0,0.0,0.0,0.0,0.0,0.0,-12.570115,-128.7487,32.336872,0.0,0.0,0.0,0.0,0.0,0.0,0.0,1.7795688,44.95757,1.1774565,
0.4921874853316697,21,0.010559082,-0.9923706,0.31427002,-0.02734375,-0.06347656,0.021484375,0.0,0.0,0.0,0.0,0.0,0.0,0.0,0.0,0.0,0.0,0.0,-0.00157547,0.026631441,-0.9998715,-0.9140625,-0.07879639,-0.3154297,0.01953125,0.061523438,0.021484375,3.1252458,-0.03261757,0.55135334,-20.70044,-0.9885254,0.0602417,-0.2166748,-0.016601562,0.0068359375,0.03515625,7.500094,-5.1040955,-56.2308,-20.944899,-0.4216919,-0.36535645,0.8461304,-0.022460938,0.028320312,0.0107421875,5.3243213,-4.021932,-128.10158,-25.401104,0.0,0.0,0.0,0.0,0.0,0.0,0.0,-24.01299,-127.7567,-25.709713,0.0,0.0,0.0,0.0,0.0,0.0,0.0,0.00157547,-0.026631441,0.9998715,0.8840332,0.1005249,-0.41174316,0.04296875,-0.03125,-0.0390625,3.058447,0.03261757,-0.55135334,20.70044,-0.95825195,0.10681152,-0.32165527,-0.07421875,-0.053710938,-0.02734375,0.72009283,0.79879993,-57.542603,19.669874,-0.5022583,0.65045166,1.1982422,-0.07714844,0.037109375,0.028320312,36.23519,1.5841279,-129.52878,18.026031,0.0,0.0,0.0,0.0,0.0,0.0,0.0,-12.471136,-128.75337,32.23579,0.0,0.0,0.0,0.0,0.0,0.0,0.0,1.7666601,44.959675,1.194711,
0.5156249846331779,22,-0.013427734,-0.9866333,0.31097412,-0.0078125,-0.08105469,0.0029296875,0.0,0.0,0.0,0.0,0.0,0.0,0.0,0.0,0.0,0.0,0.0,-2.5707483E-4,0.026716944,-0.9999056,-0.90283203,-0.06518555,-0.37701416,-0.018554688,0.061523438,0.040039062,3.1289396,-0.005322993,0.55312365,-20.701145,-0.9501953,0.03375244,-0.21569824,-0.034179688,0.045898438,0.036132812,7.4657936,-5.0646195,-56.23056,-20.903536,-0.4003296,-0.3460083,0.84002686,-0.022460938,0.029296875,0.029296875,5.292428,-4.0149183,-128.10724,-25.308449,0.0,0.0,0.0,0.0,0.0,0.0,0.0,-24.0066,-127.752106,-25.615658,0.0,0.0,0.0,0.0,0.0,0.0,0.0,2.5707483E-4,-0.026716944,0.9999056,0.89038086,0.1027832,-0.47454834,0.0625,-0.08886719,-0.07714844,3.1642165,0.005322993,-0.55312365,20.701145,-0.95129395,0.090026855,-0.31585693,-0.11621094,0.041992188,-0.026367188,0.66263825,0.8905367,-57.535954,19.518515,-0.4807129,0.6231079,1.1807861,-0.057617188,0.038085938,0.028320312,36.496807,1.7945335,-129.52235,17.79103,0.0,0.0,0.0,0.0,0.0,0.0,0.0,-12.26073,-128.74695,32.00079,0.0,0.0,0.0,0.0,0.0,0.0,0.0,1.7718312,44.96089,1.2008754,
0.5390624839346859,23,0.024658203,-0.97595215,0.29962158,-0.0078125,-0.043945312,0.0029296875,0.0,0.0,0.0,0.0,0.0,0.0,0.0,0.0,0.0,0.0,0.0,0.0017110109,0.027069379,-0.99982876,-0.9203491,-0.04724121,-0.3149414,0.01953125,0.005859375,0.001953125,3.0992043,0.035423398,0.5604201,-20.699554,-0.9637451,0.07281494,-0.21362305,-0.034179688,0.045898438,-0.001953125,7.3591676,-4.9930935,-56.22319,-20.913445,-0.41308594,-0.32421875,0.85723877,-0.022460938,0.029296875,0.029296875,5.211317,-4.026504,-128.10251,-25.276619,0.0,0.0,0.0,0.0,0.0,0.0,0.0,-24.017525,-127.73451,-25.572365,0.0,0.0,0.0,0.0,0.0,0.0,0.0,-0.0017110109,-0.027069379,0.99982876,0.90148926,0.12182617,-0.42956543,0.099609375,-0.03125,-0.05859375,3.2213635,-0.035423398,-0.5604201,20.699554,-0.9223633,0.05230713,-0.29638672,-0.07714844,0.022460938,-0.0078125,0.6132555,0.89746916,-57.539906,19.504578,-0.47668457,0.6279907,1.1827393,-0.020507812,0.038085938,0.02734375,36.573742,1.8180525,-129.52637,17.829475,0.0,0.0,0.0,0.0,0.0,0.0,0.0,-12.239593,-128.75037,32.036327,0.0,0.0,0.0,0.0,0.0,0.0,0.0,1.7781826,44.957153,1.2202137,
0.562499983236194,24,0.045654297,-0.9656372,0.2949829,-0.046875,-0.02734375,0.020507812,0.0,0.0,0.0,0.0,0.0,0.0,0.0,0.0,0.0,0.0,0.0,0.00273633,0.0272027,-0.99973416,-0.91625977,-0.067871094,-0.2944336,-0.037109375,0.080078125,0.041015625,3.1699033,0.0566504,0.5631802,-20.697596,-0.93170166,0.040283203,-0.20574951,-0.053710938,0.02734375,0.016601562,7.3956313,-5.0305834,-56.21769,-20.869501,-0.40734863,-0.34399414,0.8461304,-0.022460938,0.0107421875,0.029296875,5.1825876,-4.115877,-128.09958,-25.235783,0.0,0.0,0.0,0.0,0.0,0.0,0.0,-24.106735,-127.71957,-25.517597,0.0,0.0,0.0,0.0,0.0,0.0,0.0,-0.00273633,-0.0272027,0.99973416,0.9024048,0.105285645,-0.4267578,0.04296875,-0.0126953125,-0.05859375,3.2679443,-0.0566504,-0.5631802,20.697596,-0.93811035,0.10253906,-0.3098755,0.0,0.041992188,-0.02734375,0.556375,0.91143036,-57.549713,19.541246,-0.45544434,0.64245605,1.1914673,-0.020507812,9.765625E-4,0.046875,36.553944,1.81102,-129.53519,17.942848,0.0,0.0,0.0,0.0,0.0,0.0,0.0,-12.246625,-128.75919,32.1497,0.0,0.0,0.0,0.0,0.0,0.0,0.0,1.7825646,44.95277,1.2280409,
0.5859374825377021,25,0.050598145,-0.98864746,0.3048706,-0.046875,-0.045898438,0.021484375,0.0,0.0,0.0,0.0,0.0,0.0,0.0,0.0,0.0,0.0,0.0,0.0024900138,0.028203018,-0.9996794,-0.90197754,-0.07885742,-0.33551025,-0.0546875,-0.049804688,0.0029296875,3.1668139,0.05154988,0.5838899,-20.69646,-0.9526367,0.0119018555,-0.21972656,-0.034179688,0.045898438,0.016601562,7.373977,-5.0188274,-56.196667,-20.822506,-0.42053223,-0.35546875,0.83532715,-0.041015625,0.046875,0.029296875,5.16585,-4.107346,-128.07823,-25.119919,0.0,0.0,0.0,0.0,0.0,0.0,0.0,-24.097286,-127.69383,-25.42432,0.0,0.0,0.0,0.0,0.0,0.0,0.0,-0.0024900138,-0.028203018,0.9996794,0.90130615,0.07623291,-0.4399414,0.0234375,0.044921875,-0.020507812,3.3257837,-0.05154988,-0.5838899,20.69646,-0.9614258,0.07348633,-0.30804443,-0.07714844,0.041992188,0.0107421875,0.5619739,0.93041265,-57.5634,19.52322,-0.46069336,0.6590576,1.1986694,-0.020507812,9.765625E-4,0.02734375,36.539814,1.8614564,-129.54684,17.92674,0.0,0.0,0.0,0.0,0.0,0.0,0.0,-12.196188,-128.77084,32.13359,0.0,0.0,0.0,0.0,0.0,0.0,0.0,1.8132527,44.949055,1.2726219,
0.6093749818392101,26,0.02947998,-1.0170288,0.28967285,-0.06640625,-0.045898438,0.020507812,0.0,0.0,0.0,0.0,0.0,0.0,0.0,0.0,0.0,0.0,0.0,0.0036749244,0.028598357,-0.9997028,-0.91796875,-0.08673096,-0.32434082,-0.017578125,0.024414062,0.021484375,3.211869,0.07608265,0.5920747,-20.696947,-0.94818115,0.03930664,-0.19897461,-0.034179688,0.02734375,-0.020507812,7.3658834,-5.008578,-56.183784,-20.810596,-0.4393921,-0.3404541,0.8545532,-0.041015625,0.046875,0.029296875,5.0595827,-4.1275434,-128.0697,-25.094269,0.0,0.0,0.0,0.0,0.0,0.0,0.0,-24.117867,-127.67982,-25.418938,0.0,0.0,0.0,0.0,0.0,0.0,0.0,-0.0036749244,-0.028598357,0.9997028,0.88720703,0.105529785,-0.4336548,0.04296875,0.044921875,-0.040039062,3.3331928,-0.07608265,-0.5920747,20.696947,-0.9351196,0.105529785,-0.31970215,-0.0390625,0.060546875,0.029296875,0.5682068,0.9301384,-57.57485,19.492813,-0.48083496,0.6425781,1.1938477,-0.0390625,0.01953125,0.046875,36.56992,1.9079556,-129.56398,17.909693,0.0,0.0,0.0,0.0,0.0,0.0,0.0,-12.149689,-128.78798,32.116543,0.0,0.0,0.0,0.0,0.0,0.0,0.0,1.8006748,44.950718,1.2925183,
0.6328124811407182,27,0.0345459,-1.0058594,0.3135376,-0.046875,-0.045898438,0.021484375,0.0,0.0,0.0,0.0,0.0,0.0,0.0,0.0,0.0,0.0,0.0,0.005962968,0.028817158,-0.9998207,-0.8989258,-0.07891846,-0.33758545,0.01953125,0.024414062,0.001953125,3.1869032,0.12345183,0.5966046,-20.699389,-0.9779053,0.022521973,-0.2345581,-0.015625,0.045898438,0.016601562,7.338208,-4.8860855,-56.188858,-20.784185,-0.4083252,-0.34191895,0.83825684,-0.022460938,0.028320312,0.0107421875,5.099965,-3.9614387,-128.06927,-25.060268,0.0,0.0,0.0,0.0,0.0,0.0,0.0,-23.950487,-127.676056,-25.405935,0.0,0.0,0.0,0.0,0.0,0.0,0.0,-0.005962968,-0.028817158,0.9998207,0.8852539,0.10559082,-0.4475708,-0.013671875,-0.013671875,-0.020507812,3.394941,-0.12345183,-0.5966046,20.699389,-0.97247314,0.083496094,-0.3168335,-9.765625E-4,0.061523438,0.009765625,0.54536355,0.964216,-57.574505,19.494606,-0.4829712,0.6532593,1.1999512,-0.095703125,-0.057617188,0.0859375,36.615013,2.0118175,-129.56358,17.879284,0.0,0.0,0.0,0.0,0.0,0.0,0.0,-12.060204,-128.78055,32.072536,0.0,0.0,0.0,0.0,0.0,0.0,0.0,1.7838069,44.957077,1.3064063,
0.6562499804422263,28,0.0024414062,-1.0297241,0.30511475,-0.0078125,-0.043945312,0.0029296875,0.0,0.0,0.0,0.0,0.0,0.0,0.0,0.0,0.0,0.0,0.0,0.006615162,0.028536925,-0.9997916,-0.88604736,-0.08569336,-0.30615234,-0.018554688,0.061523438,0.021484375,3.1805696,0.13695478,0.5908028,-20.698788,-0.96447754,0.04156494,-0.19995117,-0.016601562,0.0068359375,0.03515625,7.382407,-4.8868136,-56.196278,-20.741201,-0.40759277,-0.36260986,0.8390503,-0.022460938,0.046875,0.0107421875,5.074122,-3.9171655,-128.08653,-24.963873,0.0,0.0,0.0,0.0,0.0,0.0,0.0,-23.906414,-127.698425,-25.333591,0.0,0.0,0.0,0.0,0.0,0.0,0.0,-0.006615162,-0.028536925,0.9997916,0.8720703,0.11065674,-0.4524536,-0.0703125,0.0048828125,-0.020507812,3.4928944,-0.13695478,-0.5908028,20.698788,-0.92089844,0.12670898,-0.30377197,-0.038085938,0.022460938,-0.0087890625,0.5293413,1.0165478,-57.575214,19.467558,-0.44085693,0.6034546,1.1710205,-0.15234375,-0.115234375,0.08691406,36.58902,2.128912,-129.56064,17.830763,0.0,0.0,0.0,0.0,0.0,0.0,0.0,-11.982174,-128.7039,31.983662,0.0,0.0,0.0,0.0,0.0,0.0,0.0,1.8134577,44.95473,1.2951359,
0.6796874797437343,29,0.024597168,-0.9855957,0.29266357,-0.0087890625,0.0107421875,0.021484375,0.0,0.0,0.0,0.0,0.0,0.0,0.0,0.0,0.0,0.0,0.0,0.005478114,0.028462179,-0.9998287,-0.91882324,-0.06518555,-0.3885498,-0.016601562,-0.049804688,0.001953125,3.109043,0.11341211,0.5892554,-20.699553,-0.95928955,0.04937744,-0.19500732,-0.016601562,0.0068359375,0.0546875,7.3457446,-4.904212,-56.19872,-20.763292,-0.42529297,-0.33380127,0.8464966,-0.060546875,0.029296875,0.0107421875,4.986802,-3.9427757,-128.09274,-24.94296,0.0,0.0,0.0,0.0,0.0,0.0,0.0,-23.931622,-127.70838,-25.344048,0.0,0.0,0.0,0.0,0.0,0.0,0.0,-0.005478114,-0.028462179,0.9998287,0.8782959,0.13964844,-0.44024658,-0.051757812,-0.033203125,-0.020507812,3.6516256,-0.11341211,-0.5892554,20.699553,-0.944397,0.06945801,-0.31988525,-0.037109375,0.00390625,0.028320312,0.5203939,1.1408229,-57.56637,19.459946,-0.46862793,0.6376343,1.1886597,-0.15234375,-0.09667969,0.08691406,36.65501,2.367836,-129.54443,17.799265,0.0,0.0,0.0,0.0,0.0,0.0,0.0,-11.7620945,-128.63495,31.928349,0.0,0.0,0.0,0.0,0.0,0.0,0.0,1.860703,44.954212,1.2899091,
0.7031249790452424,30,0.057495117,-1.0249023,0.29888916,0.0107421875,-0.0068359375,0.041015625,0.0,0.0,0.0,0.0,0.0,0.0,0.0,0.0,0.0,0.0,0.0,0.0066345334,0.028829837,-0.9996572,-0.920105,-0.06402588,-0.33496094,-0.017578125,-0.0126953125,0.021484375,3.1470315,0.13735563,0.59686697,-20.696001,-0.951355,-0.0126953125,-0.18939209,-0.016601562,0.0078125,-0.021484375,7.352259,-4.914319,-56.18375,-20.781208,-0.41748047,-0.3536377,0.85113525,-0.060546875,0.029296875,0.029296875,4.965621,-3.9533286,-128.07571,-24.916584,0.0,0.0,0.0,0.0,0.0,0.0,0.0,-23.941776,-127.69234,-25.317596,0.0,0.0,0.0,0.0,0.0,0.0,0.0,-0.0066345334,-0.028829837,0.9996572,0.88623047,0.08917236,-0.4586792,-0.033203125,0.005859375,-0.020507812,3.713411,-0.13735563,-0.59686697,20.696001,-0.9291382,0.093566895,-0.30200195,0.0,0.041992188,-0.0087890625,0.50937295,1.1837008,-57.5745,19.459179,-0.4716797,0.640625,1.1867676,-0.11425781,-0.07714844,0.06738281,36.67797,2.4861434,-129.55916,17.832333,0.0,0.0,0.0,0.0,0.0,0.0,0.0,-11.667653,-128.59561,31.932934,0.0,0.0,0.0,0.0,0.0,0.0,0.0,1.8542186,44.94701,1.3085654,
0.7265624783467505,31,0.015625,-0.97875977,0.3242798,0.0107421875,-0.0068359375,0.0029296875,0.0,0.0,0.0,0.0,0.0,0.0,0.0,0.0,0.0,0.0,0.0,0.0081343055,0.029525602,-0.9997181,-0.88287354,-0.07110596,-0.35369873,0.01953125,0.024414062,0.001953125,3.180077,0.168405,0.61127144,-20.697264,-0.95111084,0.035827637,-0.22064209,-0.016601562,0.0068359375,0.016601562,7.395419,-4.8917522,-56.170086,-20.746613,-0.41461182,-0.36157227,0.85198975,-0.041015625,0.0107421875,0.0107421875,5.0276904,-3.8934,-128.05988,-24.862474,0.0,0.0,0.0,0.0,0.0,0.0,0.0,-23.881836,-127.67307,-25.263142,0.0,0.0,0.0,0.0,0.0,0.0,0.0,-0.0081343055,-0.029525602,0.9997181,0.8902588,0.07080078,-0.4827881,0.04296875,-0.0126953125,-0.0390625,3.7730968,-0.168405,-0.61127144,20.697264,-0.92297363,0.1149292,-0.2989502,-0.05859375,0.041992188,-0.0078125,0.5024107,1.2001817,-57.58233,19.369461,-0.48272705,0.6212158,1.1807861,-0.095703125,-9.765625E-4,0.028320312,36.684082,2.5589998,-129.56296,17.67697,0.0,0.0,0.0,0.0,0.0,0.0,0.0,-11.614085,-128.58757,31.75691,0.0,0.0,0.0,0.0,0.0,0.0,0.0,1.8680062,44.949593,1.342737,
0.7499999776482585,32,0.02947998,-1.0136108,0.305542,0.0107421875,-0.0078125,0.07910156,0.0,0.0,0.0,0.0,0.0,0.0,0.0,0.0,0.0,0.0,0.0,0.00854218,0.029614173,-0.99959886,-0.8988037,-0.10839844,-0.32202148,0.01953125,0.061523438,0.001953125,3.1658244,0.17685044,0.6131052,-20.694794,-0.95355225,0.0178833,-0.21875,0.001953125,0.0068359375,0.03515625,7.380759,-4.881041,-56.1699,-20.740831,-0.4194336,-0.3496704,0.8531494,-0.07910156,0.0107421875,0.0107421875,5.0258584,-3.8926563,-128.06592,-24.839264,0.0,0.0,0.0,0.0,0.0,0.0,0.0,-23.880882,-127.68153,-25.23916,0.0,0.0,0.0,0.0,0.0,0.0,0.0,-0.00854218,-0.029614173,0.99959886,0.8822632,0.12219238,-0.45141602,0.0625,0.044921875,-0.078125,3.857067,-0.17685044,-0.6131052,20.694794,-0.93640137,0.07537842,-0.3326416,-0.018554688,0.022460938,0.009765625,0.46897215,1.2589933,-57.58082,19.32278,-0.47998047,0.6600952,1.1989746,-0.020507812,0.01953125,0.02734375,36.72632,2.6616101,-129.55493,17.645916,0.0,0.0,0.0,0.0,0.0,0.0,0.0,-11.511475,-128.57954,31.725857,0.0,0.0,0.0,0.0,0.0,0.0,0.0,1.8836244,44.94369,1.3476012,
0.7734374769497666,33,0.028503418,-1.0119629,0.2836914,0.0107421875,-0.0068359375,0.041015625,0.0,0.0,0.0,0.0,0.0,0.0,0.0,0.0,0.0,0.0,0.0,0.010189742,0.029354744,-0.99970275,-0.90283203,-0.09466553,-0.3395996,0.07519531,0.080078125,0.0390625,3.0954752,0.21095917,0.60773426,-20.696945,-0.93914795,0.032104492,-0.19403076,0.00390625,0.064453125,0.036132812,7.25823,-4.72857,-56.187336,-20.693604,-0.41760254,-0.3585205,0.84020996,-0.060546875,0.0107421875,0.0107421875,4.919602,-3.765364,-128.08566,-24.739437,0.0,0.0,0.0,0.0,0.0,0.0,0.0,-23.753855,-127.69966,-25.159649,0.0,0.0,0.0,0.0,0.0,0.0,0.0,-0.010189742,-0.029354744,0.99970275,0.8852539,0.122924805,-0.4215088,0.0048828125,0.043945312,-0.020507812,3.9259057,-0.21095917,-0.60773426,20.696945,-0.9122925,0.06304932,-0.30413818,0.017578125,0.099609375,0.009765625,0.44893393,1.3020228,-57.582367,19.36998,-0.43603516,0.6277466,1.1831055,-0.07714844,0.0,0.047851562,36.719837,2.7752028,-129.56473,17.774368,0.0,0.0,0.0,0.0,0.0,0.0,0.0,-11.397882,-128.58934,31.85431,0.0,0.0,0.0,0.0,0.0,0.0,0.0,1.8749883,44.949345,1.33898,
0.7968749762512747,34,0.017578125,-0.99279785,0.2994995,-0.0087890625,0.01171875,0.001953125,0.0,0.0,0.0,0.0,0.0,0.0,0.0,0.0,0.0,0.0,0.0,0.011020452,0.029573426,-0.9995842,-0.89849854,-0.11151123,-0.3706665,0.01953125,0.024414062,0.0390625,3.0786068,0.22815683,0.61226153,-20.69449,-0.9746704,0.037109375,-0.21673584,0.040039062,0.0068359375,0.0546875,7.256689,-4.6956787,-56.183987,-20.673574,-0.39318848,-0.33447266,0.8588257,-0.060546875,0.0107421875,0.0107421875,5.0154004,-3.6870818,-128.08206,-24.641165,0.0,0.0,0.0,0.0,0.0,0.0,0.0,-23.675566,-127.68882,-25.050156,0.0,0.0,0.0,0.0,0.0,0.0,0.0,-0.011020452,-0.029573426,0.9995842,0.8800659,0.09588623,-0.43865967,-0.013671875,-0.032226562,-0.020507812,3.9346743,-0.22815683,-0.61226153,20.69449,-0.9510498,0.12426758,-0.31365967,-0.01953125,0.041992188,-0.02734375,0.50590384,1.2639477,-57.579174,19.382847,-0.43414307,0.6452637,1.1921387,-0.1328125,-0.0390625,0.047851562,36.68511,2.7849183,-129.55536,17.722069,0.0,0.0,0.0,0.0,0.0,0.0,0.0,-11.416412,-128.5634,31.772806,0.0,0.0,0.0,0.0,0.0,0.0,0.0,1.8956063,44.943474,1.3505844,
0.8203124755527827,35,0.0026855469,-0.9609375,0.3171997,0.0107421875,0.01171875,0.040039062,0.0,0.0,0.0,0.0,0.0,0.0,0.0,0.0,0.0,0.0,0.0,0.013766527,0.029599143,-0.9996205,-0.8786621,-0.080078125,-0.38360596,0.020507812,-0.0126953125,0.001953125,3.139246,0.28500962,0.61279404,-20.695244,-0.95202637,0.057006836,-0.18414307,0.001953125,0.0068359375,0.016601562,7.256365,-4.6187687,-56.184574,-20.582916,-0.4309082,-0.30517578,0.8607178,-0.060546875,0.029296875,0.0107421875,4.926685,-3.6433759,-128.08301,-24.556643,0.0,0.0,0.0,0.0,0.0,0.0,0.0,-23.631538,-127.68687,-24.979397,0.0,0.0,0.0,0.0,0.0,0.0,0.0,-0.013766527,-0.029599143,0.9996205,0.8851929,0.1104126,-0.4356079,-0.013671875,0.06347656,-9.765625E-4,3.9273515,-0.28500962,-0.61279404,20.695244,-0.92822266,0.07977295,-0.29327393,-0.05859375,0.041992188,-0.026367188,0.49614015,1.2232168,-57.585773,19.38353,-0.45483398,0.68621826,1.2166748,-0.1328125,-0.020507812,0.029296875,36.609562,2.7519064,-129.56317,17.732325,0.0,0.0,0.0,0.0,0.0,0.0,0.0,-11.46913,-128.55223,31.760777,0.0,0.0,0.0,0.0,0.0,0.0,0.0,1.8767588,44.947285,1.3567526,
0.8437499748542908,36,0.004638672,-0.9767456,0.28649902,0.0107421875,0.01171875,0.021484375,0.0,0.0,0.0,0.0,0.0,0.0,0.0,0.0,0.0,0.0,0.0,0.01468575,0.029354313,-0.9996192,-0.9219971,-0.06506348,-0.34881592,0.020507812,-0.0126953125,0.001953125,3.066054,0.30404103,0.60772526,-20.695217,-0.9627075,0.033325195,-0.18920898,0.001953125,0.0068359375,0.0546875,7.1838956,-4.544788,-56.192894,-20.608252,-0.37908936,-0.32855225,0.81518555,-0.30566406,0.23242188,0.12402344,4.6446047,-3.5370264,-128.09888,-24.486603,0.0,0.0,0.0,0.0,0.0,0.0,0.0,-23.524479,-127.77537,-24.98848,0.0,0.0,0.0,0.0,0.0,0.0,0.0,-0.01468575,-0.029354313,0.9996192,0.8861084,0.084228516,-0.44580078,-0.013671875,0.025390625,-0.020507812,3.9410896,-0.30404103,-0.60772526,20.695217,-0.9269409,0.1340332,-0.34118652,-0.07714844,0.022460938,-0.044921875,0.5124369,1.2113892,-57.579727,19.379698,-0.41992188,0.65008545,1.1929932,-0.20898438,-0.078125,-0.0078125,36.587337,2.769772,-129.55354,17.746532,0.0,0.0,0.0,0.0,0.0,0.0,0.0,-11.4724865,-128.52509,31.75984,0.0,0.0,0.0,0.0,0.0,0.0,0.0,1.8831532,44.9475,1.3475714,
0.8671874741557989,37,0.033569336,-0.9874878,0.2937622,0.0107421875,0.030273438,0.001953125,0.0,0.0,0.0,0.0,0.0,0.0,0.0,0.0,0.0,0.0,0.0,0.015046179,0.029205661,-0.9995364,-0.9349365,-0.09851074,-0.32312012,0.020507812,-0.087890625,9.765625E-4,3.2727933,0.31150252,0.60464776,-20.693502,-0.9091797,0.061828613,-0.15545654,0.09765625,0.025390625,0.036132812,7.3560205,-4.7120295,-56.180397,-20.479435,-0.51605225,-0.37139893,0.84765625,-0.3046875,0.359375,0.049804688,4.3400946,-3.7371442,-128.08795,-24.300064,0.0,0.0,0.0,0.0,0.0,0.0,0.0,-23.728354,-127.97982,-24.767315,0.0,0.0,0.0,0.0,0.0,0.0,0.0,-0.015046179,-0.029205661,0.9995364,0.9022827,0.054016113,-0.46307373,0.061523438,0.044921875,-0.040039062,3.9199152,-0.31150252,-0.60464776,20.693502,-0.9182129,0.0769043,-0.31292725,-0.15527344,0.061523438,-0.0625,0.58617437,1.179657,-57.570576,19.32979,-0.4411621,0.6356201,1.1842651,-0.171875,-0.07714844,-0.02734375,36.706303,2.7993102,-129.54405,17.58058,0.0,0.0,0.0,0.0,0.0,0.0,0.0,-11.45771,-128.49132,31.578568,0.0,0.0,0.0,0.0,0.0,0.0,0.0,1.889435,44.943726,1.3416622,
0.890624973457307,38,0.010559082,-0.9925537,0.321167,-0.0087890625,0.030273438,0.001953125,0.0,0.0,0.0,0.0,0.0,0.0,0.0,0.0,0.0,0.0,0.0,0.015099376,0.029036365,-0.99970406,-0.93395996,-0.11029053,-0.29748535,0.020507812,-0.087890625,9.765625E-4,3.4716413,0.31260476,0.60114276,-20.696974,-0.97314453,0.07720947,-0.18115234,0.060546875,0.044921875,-0.001953125,7.4137034,-4.8580704,-56.166542,-20.340776,-0.3772583,-0.34259033,0.8456421,-0.13476562,0.3203125,0.01171875,3.705863,-4.0245876,-128.08556,-24.052563,0.0,0.0,0.0,0.0,0.0,0.0,0.0,-24.01445,-128.13803,-24.535742,0.0,0.0,0.0,0.0,0.0,0.0,0.0,-0.015099376,-0.029036365,0.99970406,0.8851929,0.09686279,-0.4446411,0.11816406,0.083984375,-9.765625E-4,3.8161337,-0.31260476,-0.60114276,20.696974,-0.94854736,0.042907715,-0.29840088,-0.15527344,0.041992188,-0.0625,0.6440698,1.0786232,-57.571903,19.301191,-0.46221924,0.60162354,1.168335,-0.171875,-0.0390625,-0.02734375,36.827785,2.6457162,-129.54051,17.546255,0.0,0.0,0.0,0.0,0.0,0.0,0.0,-11.616507,-128.47726,31.537897,0.0,0.0,0.0,0.0,0.0,0.0,0.0,1.889657,44.9513,1.3341502,
0.914062472758815,39,0.016540527,-1.0048828,0.27563477,-0.0087890625,0.08496094,0.020507812,0.0,0.0,0.0,0.0,0.0,0.0,0.0,0.0,0.0,0.0,0.0,0.015412301,0.028622761,-0.9996342,-0.9338379,-0.12506104,-0.3015747,0.09667969,-0.125,0.037109375,3.8097143,0.31908128,0.5925799,-20.695526,-0.9370117,-0.0052490234,-0.17352295,0.13574219,0.043945312,0.017578125,7.6698446,-5.0981197,-56.153503,-20.078033,-0.42211914,-0.39471436,0.81622314,-0.07910156,0.15625,0.01171875,3.2969909,-4.306556,-128.07867,-23.631464,0.0,0.0,0.0,0.0,0.0,0.0,0.0,-24.295984,-128.25264,-24.138489,0.0,0.0,0.0,0.0,0.0,0.0,0.0,-0.015412301,-0.028622761,0.9996342,0.91033936,0.087524414,-0.39508057,0.25097656,0.16210938,-0.040039062,3.5758245,-0.31908128,-0.5925799,20.695526,-0.92852783,0.033813477,-0.29351807,-0.23242188,0.061523438,-0.04296875,0.8842595,0.8277502,-57.57382,19.307148,-0.44085693,0.60253906,1.1660767,-0.13378906,0.017578125,-0.0087890625,36.964317,2.387749,-129.55328,17.559048,0.0,0.0,0.0,0.0,0.0,0.0,0.0,-11.884126,-128.47504,31.537004,0.0,0.0,0.0,0.0,0.0,0.0,0.0,1.89417,44.948174,1.316216,
0.9374999720603231,40,0.01763916,-0.96569824,0.28570557,0.0107421875,0.06738281,0.001953125,0.0,0.0,0.0,0.0,0.0,0.0,0.0,0.0,0.0,0.0,0.0,0.013536781,0.028111354,-0.9996605,-0.93811035,-0.119018555,-0.25976562,0.095703125,-0.087890625,0.056640625,4.032889,0.28025374,0.5819921,-20.696072,-0.96813965,0.06744385,-0.19299316,0.15527344,0.043945312,-0.001953125,7.8973713,-5.3418965,-56.142162,-19.844807,-0.41882324,-0.3731079,0.8134155,-0.022460938,0.064453125,-0.026367188,2.8841872,-4.636782,-128.06985,-23.386446,0.0,0.0,0.0,0.0,0.0,0.0,0.0,-24.626808,-128.2749,-23.861395,0.0,0.0,0.0,0.0,0.0,0.0,0.0,-0.013536781,-0.028111354,0.9996605,0.9116821,0.14489746,-0.40356445,0.2705078,0.14257812,-0.078125,3.430396,-0.28025374,-0.5819921,20.696072,-0.94873047,0.01739502,-0.2886963,-0.15527344,0.060546875,0.01171875,1.2127302,0.631129,-57.56448,19.437525,-0.42034912,0.5829468,1.154602,-0.040039062,0.038085938,-0.009765625,37.192898,2.303327,-129.536,17.770468,0.0,0.0,0.0,0.0,0.0,0.0,0.0,-11.973509,-128.45677,31.742628,0.0,0.0,0.0,0.0,0.0,0.0,0.0,1.9579263,44.9455,1.290421,
0.9609374713618312,41,0.021606445,-0.9862671,0.28173828,-0.028320312,0.083984375,0.057617188,0.0,0.0,0.0,0.0,0.0,0.0,0.0,0.0,0.0,0.0,0.0,0.011734933,0.02775601,-0.99972034,-0.9102173,-0.051208496,-0.32910156,0.095703125,-0.06933594,0.038085938,4.0849485,0.24294946,0.57463545,-20.69731,-0.9602051,-0.01171875,-0.23071289,0.10058594,0.083984375,-0.07714844,8.160412,-5.5174503,-56.13124,-19.836658,-0.4249878,-0.38482666,0.81933594,0.015625,-0.0078125,0.0107421875,2.8574579,-4.6657944,-128.05399,-23.459566,0.0,0.0,0.0,0.0,0.0,0.0,0.0,-24.655127,-128.25139,-23.931725,0.0,0.0,0.0,0.0,0.0,0.0,0.0,-0.011734933,-0.02775601,0.99972034,0.91204834,0.20898438,-0.40496826,0.0048828125,0.1015625,-0.001953125,3.495584,-0.24294946,-0.57463545,20.69731,-0.9364624,0.056640625,-0.31604004,-0.01953125,0.060546875,0.046875,1.3625745,0.62881494,-57.567783,19.745043,-0.44830322,0.6414795,1.1883545,-0.057617188,0.018554688,0.028320312,37.265118,2.4224226,-129.54294,18.29938,0.0,0.0,0.0,0.0,0.0,0.0,0.0,-11.854413,-128.46371,32.271538,0.0,0.0,0.0,0.0,0.0,0.0,0.0,2.00714,44.94509,1.2714055,
0.9843749706633392,42,0.0014648438,-1.0169678,0.2774048,-0.0087890625,0.12207031,0.0390625,0.0,0.0,0.0,0.0,0.0,0.0,0.0,0.0,0.0,0.0,0.0,0.009075612,0.026694747,-0.9998593,-0.8817749,-0.093688965,-0.33807373,0.056640625,0.080078125,0.057617188,3.9106624,0.18789431,0.552664,-20.700188,-0.9406738,-0.008972168,-0.2296753,0.08105469,0.10253906,-0.01953125,8.329164,-5.5016303,-56.1666,-19.897272,-0.46044922,-0.33880615,0.81640625,-0.022460938,0.046875,-0.0078125,3.007196,-4.3348036,-128.07999,-23.622463,0.0,0.0,0.0,0.0,0.0,0.0,0.0,-24.323353,-128.2844,-24.129908,0.0,0.0,0.0,0.0,0.0,0.0,0.0,-0.009075612,-0.026694747,0.9998593,0.86712646,0.15710449,-0.4121704,-0.12792969,-0.034179688,0.037109375,3.7080286,-0.18789431,-0.552664,20.700188,-0.90185547,0.124694824,-0.31854248,0.0,0.060546875,0.046875,1.3887486,0.8159108,-57.548927,19.97068,-0.46655273,0.6298828,1.1826172,-0.05859375,0.038085938,0.0087890625,37.389668,2.7205446,-129.51881,18.45639,0.0,0.0,0.0,0.0,0.0,0.0,0.0,-11.56126,-128.43861,32.42276,0.0,0.0,0.0,0.0,0.0,0.0,0.0,2.04772,44.948433,1.2186427,
1.0078124699648474,43,0.0034179688,-1.0220337,0.24969482,-0.047851562,0.103515625,0.0,0.0,0.0,0.0,0.0,0.0,0.0,0.0,0.0,0.0,0.0,0.0,0.0070177317,0.024978135,-0.9998323,-0.89556885,-0.10656738,-0.3597412,-0.018554688,0.09863281,0.041015625,3.6671965,0.14528811,0.51712483,-20.699625,-0.9708252,-0.012390137,-0.19140625,0.099609375,0.08300781,-0.020507812,8.296307,-5.3345275,-56.218414,-19.912964,-0.41497803,-0.38897705,0.81915283,0.015625,-0.0078125,0.0107421875,2.981503,-3.9723392,-128.12616,-23.71072,0.0,0.0,0.0,0.0,0.0,0.0,0.0,-23.961418,-128.3344,-24.223572,0.0,0.0,0.0,0.0,0.0,0.0,0.0,-0.0070177317,-0.024978135,0.9998323,0.8851929,0.11035156,-0.4315796,-0.2421875,-0.0546875,0.07519531,3.8404808,-0.14528811,-0.51712483,20.699625,-0.9345093,0.04486084,-0.31610107,-0.057617188,0.041992188,0.047851562,1.3304567,0.9845915,-57.507362,20.096561,-0.4432373,0.6414795,1.1853027,-0.020507812,9.765625E-4,0.02734375,37.450756,2.9122248,-129.48021,18.610119,0.0,0.0,0.0,0.0,0.0,0.0,0.0,-11.36958,-128.40001,32.576485,0.0,0.0,0.0,0.0,0.0,0.0,0.0,2.0504208,44.94648,1.1372592,
1.0312499692663555,44,0.0015869141,-0.9893799,0.27947998,-0.0087890625,0.06738281,-0.017578125,0.0,0.0,0.0,0.0,0.0,0.0,0.0,0.0,0.0,0.0,0.0,0.0037718713,0.02352814,-0.99984276,-0.8984375,-0.11645508,-0.37365723,-0.13085938,0.061523438,0.0048828125,3.411567,0.0780898,0.48710546,-20.699844,-0.9611206,8.544922E-4,-0.21099854,0.0048828125,0.083984375,-9.765625E-4,8.25269,-5.272094,-56.26491,-19.983814,-0.40679932,-0.37841797,0.8428345,0.072265625,0.009765625,0.029296875,2.921814,-3.7926154,-128.16415,-23.849537,0.0,0.0,0.0,0.0,0.0,0.0,0.0,-23.781387,-128.37302,-24.380716,0.0,0.0,0.0,0.0,0.0,0.0,0.0,-0.0037718713,-0.02352814,0.99984276,0.89727783,0.095581055,-0.41784668,-0.2607422,-0.0546875,0.037109375,3.9839857,-0.0780898,-0.48710546,20.699844,-0.94158936,0.043945312,-0.3151245,0.07714844,0.060546875,0.08300781,1.3818268,1.1192689,-57.482933,20.243801,-0.4564209,0.6366577,1.1845093,-0.001953125,9.765625E-4,0.02734375,37.3867,3.12294,-129.4556,18.79705,0.0,0.0,0.0,0.0,0.0,0.0,0.0,-11.158865,-128.3754,32.76342,0.0,0.0,0.0,0.0,0.0,0.0,0.0,2.1025293,44.94393,1.0655451,
1.0546874685678636,45,-0.011657715,-1.048523,0.30096436,0.068359375,0.125,0.001953125,0.0,0.0,0.0,0.0,0.0,0.0,0.0,0.0,0.0,0.0,0.0,0.0016315281,0.022500955,-0.99990916,-0.87854004,-0.115478516,-0.35620117,-0.16796875,0.09863281,0.04296875,3.202346,0.033777982,0.46583953,-20.701218,-0.95495605,-0.0115356445,-0.24249268,0.022460938,0.045898438,-0.001953125,8.189041,-5.194247,-56.298798,-20.096876,-0.46643066,-0.33581543,0.8273926,-0.041015625,0.083984375,0.029296875,3.0126593,-3.5820515,-128.1897,-23.976734,0.0,0.0,0.0,0.0,0.0,0.0,0.0,-23.569733,-128.42183,-24.52468,0.0,0.0,0.0,0.0,0.0,0.0,0.0,-0.0016315281,-0.022500955,0.99990916,0.87493896,0.07763672,-0.45874023,-0.20410156,-0.053710938,0.07519531,4.01888,-0.033777982,-0.46583953,20.701218,-0.9328003,0.16033936,-0.32720947,-0.0029296875,0.15625,0.103515625,1.4518524,1.2102087,-57.459553,20.235306,-0.43499756,0.6278076,1.1801147,-0.020507812,9.765625E-4,0.02734375,37.407013,3.3049061,-129.42365,18.668598,0.0,0.0,0.0,0.0,0.0,0.0,0.0,-10.976899,-128.34344,32.634964,0.0,0.0,0.0,0.0,0.0,0.0,0.0,2.1067834,44.94657,1.0148702,
1.0781249678693716,46,-0.020629883,-1.0319824,0.30682373,0.12695312,0.08984375,-0.015625,0.0,0.0,0.0,0.0,0.0,0.0,0.0,0.0,0.0,0.0,0.0,-4.9209595E-4,0.021344256,-0.99989796,-0.91052246,-0.13702393,-0.32800293,-0.13085938,0.061523438,0.0234375,3.1649587,-0.010188103,0.44189233,-20.700989,-0.9990845,0.0032348633,-0.20324707,0.022460938,0.044921875,0.036132812,8.1449995,-5.182146,-56.323597,-20.111876,-0.4222412,-0.33172607,0.82470703,-0.022460938,0.1015625,0.029296875,3.0180476,-3.5490565,-128.22102,-23.99425,0.0,0.0,0.0,0.0,0.0,0.0,0.0,-23.538597,-128.4792,-24.494335,0.0,0.0,0.0,0.0,0.0,0.0,0.0,4.9209595E-4,-0.021344256,0.99989796,0.8790283,0.07946777,-0.4487915,-0.12792969,0.0234375,0.037109375,4.0180025,0.010188103,-0.44189233,20.700989,-0.9403076,0.08203125,-0.31097412,-0.078125,0.061523438,-0.0078125,1.4403499,1.3434466,-57.429108,20.215,-0.48083496,0.6386719,1.1908569,-0.040039062,0.01953125,-0.009765625,37.49575,3.4655476,-129.39008,18.530413,0.0,0.0,0.0,0.0,0.0,0.0,0.0,-10.821228,-128.30891,32.49099,0.0,0.0,0.0,0.0,0.0,0.0,0.0,2.0497894,44.948742,0.9584867,
1.1015624671708797,47,-0.0154418945,-0.9850464,0.2911377,0.16601562,0.072265625,0.00390625,0.0,0.0,0.0,0.0,0.0,0.0,0.0,0.0,0.0,0.0,0.0,-5.4848194E-4,0.021379657,-0.99998426,-0.91900635,-0.07196045,-0.33605957,-0.036132812,0.024414062,0.059570312,3.3027456,-0.011355519,0.44262516,-20.702774,-0.96569824,-0.016296387,-0.19830322,0.09863281,0.06347656,0.0546875,8.164982,-5.1728315,-56.32877,-20.106192,-0.40893555,-0.38604736,0.8121338,-0.09765625,0.029296875,0.0107421875,2.8591702,-3.482101,-128.22383,-23.94677,0.0,0.0,0.0,0.0,0.0,0.0,0.0,-23.468857,-128.51,-24.49356,0.0,0.0,0.0,0.0,0.0,0.0,0.0,5.4848194E-4,-0.021379657,0.99998426,0.8880615,0.06378174,-0.447937,0.0234375,0.043945312,0.037109375,3.8045194,0.011355519,-0.44262516,20.702774,-0.9282837,0.08703613,-0.33355713,-0.11621094,0.060546875,0.029296875,1.4596492,1.3097701,-57.429073,20.155317,-0.44195557,0.6112671,1.1710815,-0.001953125,9.765625E-4,0.0087890625,37.777954,3.4837375,-129.38509,18.490376,0.0,0.0,0.0,0.0,0.0,0.0,0.0,-10.803038,-128.30392,32.450954,0.0,0.0,0.0,0.0,0.0,0.0,0.0,1.9157208,44.95854,0.9601626,
1.1249999664723878,48,-0.0032958984,-0.9525757,0.30133057,0.107421875,0.032226562,0.041992188,0.0,0.0,0.0,0.0,0.0,0.0,0.0,0.0,0.0,0.0,0.0,0.0011949241,0.021000408,-0.9998913,-0.89331055,-0.16564941,-0.33062744,0.15136719,-0.013671875,0.111328125,3.5157459,0.024739236,0.43477356,-20.70085,-0.9710083,0.022827148,-0.20501709,0.21191406,0.0625,0.07421875,8.344192,-5.1643896,-56.33319,-20.01786,-0.43572998,-0.3630371,0.831604,-0.1171875,0.029296875,0.0107421875,2.6039138,-3.3487782,-128.22214,-23.932333,0.0,0.0,0.0,0.0,0.0,0.0,0.0,-23.333965,-128.51541,-24.509773,0.0,0.0,0.0,0.0,0.0,0.0,0.0,-0.0011949241,-0.021000408,0.9998913,0.9055176,0.1227417,-0.42266846,0.21289062,0.10449219,-0.020507812,3.534907,-0.024739236,-0.43477356,20.70085,-0.93408203,0.105285645,-0.2999878,-0.11621094,0.041992188,0.0107421875,1.5276468,1.1964552,-57.42182,20.083138,-0.4605713,0.649353,1.1906128,0.016601562,0.020507812,0.02734375,37.96883,3.42063,-129.38165,18.405006,0.0,0.0,0.0,0.0,0.0,0.0,0.0,-10.866146,-128.30049,32.365585,0.0,0.0,0.0,0.0,0.0,0.0,0.0,1.773676,44.960136,0.94640356,
1.1484374657738958,49,0.010559082,-0.99627686,0.31323242,0.14648438,0.052734375,0.0234375,0.0,0.0,0.0,0.0,0.0,0.0,0.0,0.0,0.0,0.0,0.0,0.0015951395,0.021450326,-0.9999063,-0.9137573,-0.12121582,-0.31585693,0.31933594,0.13574219,0.18457031,3.6657543,0.033023477,0.44408828,-20.701159,-0.96777344,-0.0134887695,-0.18945312,0.21289062,0.08203125,0.055664062,8.4185095,-5.0915895,-56.329033,-19.927467,-0.4654541,-0.3378296,0.833313,-0.09765625,-0.0068359375,-0.026367188,2.3800616,-3.1861439,-128.2112,-23.910297,0.0,0.0,0.0,0.0,0.0,0.0,0.0,-23.172441,-128.51215,-24.486065,0.0,0.0,0.0,0.0,0.0,0.0,0.0,-0.0015951395,-0.021450326,0.9999063,0.9154053,0.10772705,-0.37304688,0.17480469,0.123046875,-0.001953125,3.208515,-0.033023477,-0.44408828,20.701159,-0.9284668,0.06878662,-0.36517334,-0.11621094,0.061523438,-0.0078125,1.7393385,1.002381,-57.439846,20.169754,-0.44232178,0.6550293,1.1963501,0.036132812,0.0390625,0.026367188,38.124287,3.224793,-129.4011,18.468407,0.0,0.0,0.0,0.0,0.0,0.0,0.0,-11.061983,-128.31993,32.428986,0.0,0.0,0.0,0.0,0.0,0.0,0.0,1.6420863,44.965824,0.96724147,
1.171874965075404,50,-0.02355957,-1.0149536,0.32958984,0.24316406,0.07324219,0.0625,0.0,0.0,0.0,0.0,0.0,0.0,0.0,0.0,0.0,0.0,0.0,0.002180934,0.022428285,-0.99982977,-0.8911743,-0.1696167,-0.3406372,0.31933594,0.09863281,0.18457031,3.9865406,0.04515159,0.46433508,-20.699577,-0.96661377,-0.009338379,-0.19628906,0.34472656,0.080078125,0.07421875,8.517951,-5.0266724,-56.309917,-19.791302,-0.41827393,-0.4095459,0.8110962,-0.09765625,-0.043945312,-0.026367188,2.050232,-2.975618,-128.1893,-23.71342,0.0,0.0,0.0,0.0,0.0,0.0,0.0,-22.959463,-128.5132,-24.332218,0.0,0.0,0.0,0.0,0.0,0.0,0.0,-0.002180934,-0.022428285,0.99982977,0.87298584,0.15093994,-0.37042236,0.041992188,-0.032226562,0.037109375,2.872149,-0.04515159,-0.46433508,20.699577,-0.94073486,0.024597168,-0.33587646,-0.15527344,0.060546875,0.030273438,1.9142796,0.89516056,-57.461624,20.318289,-0.44818115,0.6220093,1.1802368,0.017578125,0.07714844,0.02734375,38.315704,3.1486106,-129.41635,18.627758,0.0,0.0,0.0,0.0,0.0,0.0,0.0,-11.1381645,-128.33519,32.588337,0.0,0.0,0.0,0.0,0.0,0.0,0.0,1.3982548,44.970657,1.0118365,
1.195312464376912,51,0.007446289,-1.0247803,0.3081665,0.3017578,0.076171875,0.0068359375,0.0,0.0,0.0,0.0,0.0,0.0,0.0,0.0,0.0,0.0,0.0,0.0011695921,0.023625739,-0.9999533,-0.8935547,-0.103637695,-0.36968994,0.35742188,0.060546875,0.16503906,4.3801193,0.024213225,0.48912606,-20.702133,-0.9578247,-0.032287598,-0.20129395,0.30664062,0.08105469,0.09375,8.603684,-5.079985,-56.28343,-19.724249,-0.440979,-0.38043213,0.7949219,0.015625,-0.026367188,-0.0078125,1.7402384,-2.9834137,-128.16426,-23.617092,0.0,0.0,0.0,0.0,0.0,0.0,0.0,-22.967564,-128.49072,-24.252983,0.0,0.0,0.0,0.0,0.0,0.0,0.0,-0.0011695921,-0.023625739,0.9999533,0.86938477,0.17962646,-0.44781494,-0.033203125,-0.051757812,0.037109375,2.756266,-0.024213225,-0.48912606,20.702133,-0.91833496,0.06726074,-0.32385254,-0.15332031,0.022460938,0.047851562,1.9742721,1.0492251,-57.480724,20.483694,-0.45794678,0.5802002,1.1552124,0.036132812,0.057617188,0.064453125,38.531456,3.4094756,-129.43454,18.764782,0.0,0.0,0.0,0.0,0.0,0.0,0.0,-10.878631,-128.3611,32.72341,0.0,0.0,0.0,0.0,0.0,0.0,0.0,1.1252459,44.983837,1.0641422,
1.21874996367842,52,-0.02154541,-1.024231,0.31079102,0.30078125,0.11328125,0.005859375,0.0,0.0,0.0,0.0,0.0,0.0,0.0,0.0,0.0,0.0,0.0,-0.002755314,0.024048222,-0.999984,-0.8850708,-0.04937744,-0.35144043,0.35742188,0.0234375,0.14550781,4.666442,-0.057043225,0.49787277,-20.70277,-0.96276855,-0.03100586,-0.21313477,0.23242188,0.12011719,0.037109375,8.752773,-5.1538553,-56.27595,-19.778849,-0.4746704,-0.3482666,0.79382324,0.034179688,-0.0087890625,-0.0078125,1.7400135,-2.8507223,-128.1452,-23.759792,0.0,0.0,0.0,0.0,0.0,0.0,0.0,-22.833214,-128.4706,-24.419266,0.0,0.0,0.0,0.0,0.0,0.0,0.0,0.002755314,-0.024048222,0.999984,0.885437,0.16278076,-0.41918945,-0.053710938,0.04296875,0.11328125,2.6107454,0.057043225,-0.49787277,20.70277,-0.93048096,0.051818848,-0.32983398,-0.076171875,0.022460938,0.103515625,1.9461168,1.2896353,-57.4881,20.546095,-0.42474365,0.61608887,1.1728516,0.0546875,0.05859375,0.026367188,38.65828,3.7834167,-129.44284,18.868471,0.0,0.0,0.0,0.0,0.0,0.0,0.0,-10.512855,-128.36633,32.819283,0.0,0.0,0.0,0.0,0.0,0.0,0.0,0.84112215,44.991653,1.0796689,
1.242187462979928,53,-0.02545166,-0.98657227,0.3048706,0.30078125,0.13183594,0.005859375,0.0,0.0,0.0,0.0,0.0,0.0,0.0,0.0,0.0,0.0,0.0,-0.0068261027,0.023548085,-0.99987984,-0.8678589,-0.05444336,-0.38061523,0.16992188,0.080078125,0.14941406,4.872103,-0.14132279,0.48751834,-20.700613,-0.96606445,-0.043762207,-0.22009277,0.1171875,0.06347656,0.09277344,8.797834,-5.165465,-56.293526,-19.920137,-0.44854736,-0.34490967,0.807251,0.034179688,0.009765625,-0.0078125,1.9172422,-2.6756725,-128.15388,-24.021217,0.0,0.0,0.0,0.0,0.0,0.0,0.0,-22.66009,-128.47421,-24.673277,0.0,0.0,0.0,0.0,0.0,0.0,0.0,0.0068261027,-0.023548085,0.99987984,0.9016113,0.12872314,-0.44250488,-0.1484375,-0.034179688,0.1328125,2.279931,0.14132279,-0.48751834,20.700613,-0.940979,0.12200928,-0.30187988,-0.037109375,0.022460938,0.083984375,2.1335917,1.373977,-57.48072,20.597809,-0.43206787,0.642334,1.1901245,0.0546875,0.05859375,0.064453125,38.683044,3.9959953,-129.41914,18.773146,0.0,0.0,0.0,0.0,0.0,0.0,0.0,-10.301612,-128.35034,32.72202,0.0,0.0,0.0,0.0,0.0,0.0,0.0,0.52917695,44.992615,1.0560045,
1.2656249622814362,54,-0.021362305,-0.9633179,0.32183838,0.33984375,0.16992188,0.005859375,0.0,0.0,0.0,0.0,0.0,0.0,0.0,0.0,0.0,0.0,0.0,-0.012012869,0.023359999,-0.99978495,-0.8833618,-0.12145996,-0.37799072,0.12988281,0.24804688,0.15136719,4.914023,-0.24870339,0.4836244,-20.698647,-0.94158936,-0.04437256,-0.20721436,0.09667969,0.043945312,0.12988281,8.550583,-4.9960856,-56.320396,-20.057182,-0.43945312,-0.33917236,0.8051758,0.072265625,-0.0087890625,-0.0087890625,1.9872158,-2.4729342,-128.16946,-24.272346,0.0,0.0,0.0,0.0,0.0,0.0,0.0,-22.457039,-128.48346,-24.921272,0.0,0.0,0.0,0.0,0.0,0.0,0.0,0.012012869,-0.023359999,0.99978495,0.9124756,0.10211182,-0.4069214,-0.091796875,-0.16699219,0.13378906,1.9027948,0.24870339,-0.4836244,20.698647,-0.9170532,0.107299805,-0.32165527,-0.17285156,0.022460938,0.10449219,2.3225417,1.4699377,-57.470688,20.525986,-0.43218994,0.65600586,1.196228,0.017578125,0.057617188,0.045898438,38.871807,4.2270103,-129.40231,18.427752,0.0,0.0,0.0,0.0,0.0,0.0,0.0,-10.076162,-128.3312,32.372673,0.0,0.0,0.0,0.0,0.0,0.0,0.0,0.21955943,44.993095,1.0486267,
1.2890624615829442,55,-0.021484375,-0.99383545,0.31781006,0.3203125,0.1875,0.005859375,0.0,0.0,0.0,0.0,0.0,0.0,0.0,0.0,0.0,0.0,0.0,-0.0170995,0.02269688,-0.99985486,-0.90545654,-0.14294434,-0.33709717,0.16796875,0.28515625,0.22558594,4.9861345,-0.3540126,0.4698958,-20.700096,-0.96661377,-0.010314941,-0.19927979,0.13476562,0.0625,0.16796875,8.213963,-4.8311615,-56.362,-20.198263,-0.4039917,-0.38812256,0.80810547,0.09082031,-0.0087890625,-0.0087890625,1.9906597,-2.3672867,-128.21564,-24.442995,0.0,0.0,0.0,0.0,0.0,0.0,0.0,-22.353077,-128.51239,-25.06499,0.0,0.0,0.0,0.0,0.0,0.0,0.0,0.0170995,-0.02269688,0.99985486,0.9032593,0.08190918,-0.42297363,0.07910156,-0.14550781,0.11425781,1.3774297,0.3540126,-0.4698958,20.700096,-0.9194336,0.043518066,-0.29840088,-0.23046875,0.022460938,0.048828125,2.1863275,1.6041349,-57.46271,20.2107,-0.3994751,0.63635254,1.1845703,-0.020507812,0.076171875,0.046875,39.043507,4.3788533,-129.38188,17.966017,0.0,0.0,0.0,0.0,0.0,0.0,0.0,-9.932152,-128.3418,31.901752,0.0,0.0,0.0,0.0,0.0,0.0,0.0,-0.11227372,44.999863,1.0234249,
1.3124999608844523,56,-0.03741455,-0.987854,0.34240723,0.3203125,0.18847656,-0.051757812,0.0,0.0,0.0,0.0,0.0,0.0,0.0,0.0,0.0,0.0,0.0,-0.02210924,0.021927046,-0.99975806,-0.8956299,-0.14483643,-0.30059814,0.31835938,0.20996094,0.25976562,5.219995,-0.4577305,0.45395786,-20.698092,-0.9586792,0.036010742,-0.1763916,0.11816406,0.12109375,0.13085938,7.927562,-4.790169,-56.387318,-20.243345,-0.43688965,-0.37982178,0.84625244,0.034179688,0.009765625,-0.0078125,1.762031,-2.5328712,-128.2412,-24.50118,0.0,0.0,0.0,0.0,0.0,0.0,0.0,-22.518314,-128.52147,-25.108725,0.0,0.0,0.0,0.0,0.0,0.0,0.0,0.02210924,-0.021927046,0.99975806,0.88201904,0.07739258,-0.4368286,0.2685547,-0.047851562,0.076171875,0.8180492,0.4577305,-0.45395786,20.698092,-0.932312,0.10028076,-0.38269043,-0.28808594,0.022460938,0.12402344,2.0995634,1.7028975,-57.43559,19.88235,-0.43096924,0.63067627,1.1830444,-0.057617188,0.07519531,0.028320312,39.220413,4.5177727,-129.35611,17.483337,0.0,0.0,0.0,0.0,0.0,0.0,0.0,-9.811302,-128.34364,31.402245,0.0,0.0,0.0,0.0,0.0,0.0,0.0,-0.44613573,44.99768,0.9967711,
1.3359374601859604,57,-0.05340576,-0.97406006,0.33728027,0.30078125,0.1875,-0.033203125,0.0,0.0,0.0,0.0,0.0,0.0,0.0,0.0,0.0,0.0,0.0,-0.027799517,0.020939153,-0.9996206,-0.8881836,-0.0748291,-0.29211426,0.28027344,0.22851562,0.20410156,5.468914,-0.57553756,0.43350536,-20.695246,-0.9414673,0.013427734,-0.20593262,0.041992188,0.12109375,0.13085938,7.694191,-4.7973423,-56.416225,-20.283741,-0.42071533,-0.3671875,0.8204346,0.09082031,0.0087890625,-0.0087890625,1.5878226,-2.787092,-128.27443,-24.67284,0.0,0.0,0.0,0.0,0.0,0.0,0.0,-22.773478,-128.53206,-25.236397,0.0,0.0,0.0,0.0,0.0,0.0,0.0,0.027799517,-0.020939153,0.9996206,0.88531494,0.1105957,-0.46643066,0.40234375,-0.123046875,-0.01953125,0.3669084,0.57553756,-0.43350536,20.695246,-0.8821411,0.08782959,-0.37097168,-0.36523438,0.0029296875,0.10546875,2.2042475,1.8820392,-57.413315,19.605148,-0.46868896,0.6473999,1.1887817,-0.076171875,0.07519531,0.0859375,39.844803,4.9838777,-129.31233,16.953775,0.0,0.0,0.0,0.0,0.0,0.0,0.0,-9.374807,-128.32758,30.846277,0.0,0.0,0.0,0.0,0.0,0.0,0.0,-0.76206565,44.993412,0.96367455,
1.3593749594874684,58,-0.044311523,-0.95080566,0.3225708,0.28125,0.22460938,-0.033203125,0.0,0.0,0.0,0.0,0.0,0.0,0.0,0.0,0.0,0.0,0.0,-0.03231594,0.019382132,-0.9995497,-0.90734863,-0.057006836,-0.28955078,0.20507812,0.24707031,0.22460938,5.7386637,-0.66904044,0.4012702,-20.693777,-0.9359131,0.047668457,-0.17626953,0.041992188,0.12109375,0.13085938,7.4510612,-4.8394995,-56.4486,-20.420757,-0.41687012,-0.37817383,0.8311157,0.109375,-0.02734375,-0.0087890625,1.3883259,-3.1393254,-128.29727,-25.001635,0.0,0.0,0.0,0.0,0.0,0.0,0.0,-23.126768,-128.53049,-25.542023,0.0,0.0,0.0,0.0,0.0,0.0,0.0,0.03231594,-0.019382132,0.9995497,0.8748779,0.06011963,-0.45288086,0.4970703,-0.17871094,-0.057617188,0.3896677,0.66904044,-0.4012702,20.693777,-0.9189453,0.11694336,-0.31072998,-0.46191406,0.0029296875,0.032226562,2.2142582,1.9933585,-57.368546,19.158714,-0.45239258,0.63757324,1.1854248,-0.07519531,0.07421875,0.14257812,40.443123,5.2746577,-129.24771,16.258055,0.0,0.0,0.0,0.0,0.0,0.0,0.0,-9.128761,-128.25658,30.1067,0.0,0.0,0.0,0.0,0.0,0.0,0.0,-1.070095,44.989822,0.90698826,
1.3828124587889765,59,-0.010314941,-0.96813965,0.35369873,0.22363281,0.20410156,-0.053710938,0.0,0.0,0.0,0.0,0.0,0.0,0.0,0.0,0.0,0.0,0.0,-0.039371103,0.018398266,-0.99917823,-0.9140625,-0.085632324,-0.30358887,0.055664062,0.24707031,0.22753906,5.882666,-0.8151032,0.38090113,-20.686087,-0.9557495,0.031799316,-0.1675415,-0.0126953125,0.1796875,0.09375,7.2725697,-4.900162,-56.477768,-20.607883,-0.42773438,-0.36920166,0.8560791,0.052734375,0.028320312,0.029296875,1.3314859,-3.3541026,-128.316,-25.422495,0.0,0.0,0.0,0.0,0.0,0.0,0.0,-23.34249,-128.54224,-25.951324,0.0,0.0,0.0,0.0,0.0,0.0,0.0,0.039371103,-0.018398266,0.99917823,0.8843384,0.15692139,-0.4142456,0.515625,-0.17871094,-0.01953125,0.78384626,0.8151032,-0.38090113,20.686087,-0.9533081,0.08190918,-0.28637695,-0.5,0.0029296875,0.0703125,2.0366318,2.2670918,-57.33947,18.815847,-0.43988037,0.60253906,1.1640625,-0.11230469,0.13085938,0.14257812,40.728035,5.547387,-129.21002,15.696174,0.0,0.0,0.0,0.0,0.0,0.0,0.0,-8.918378,-128.23804,29.478996,0.0,0.0,0.0,0.0,0.0,0.0,0.0,-1.2958691,44.97827,0.8792645,
1.4062499580904846,60,-0.002380371,-0.97998047,0.35577393,0.16503906,0.18457031,-0.053710938,0.0,0.0,0.0,0.0,0.0,0.0,0.0,0.0,0.0,0.0,0.0,-0.046245724,0.018514214,-0.9989798,-0.90997314,-0.12207031,-0.274292,0.09277344,0.20996094,0.18847656,6.057251,-0.95743,0.38330162,-20.681978,-0.9611206,0.02368164,-0.159729,0.0078125,0.21875,0.056640625,7.339439,-5.0801096,-56.475143,-20.714924,-0.4243164,-0.33862305,0.8355713,0.09082031,0.009765625,0.009765625,1.4134699,-3.5180526,-128.30273,-25.716988,0.0,0.0,0.0,0.0,0.0,0.0,0.0,-23.506626,-128.50513,-26.20919,0.0,0.0,0.0,0.0,0.0,0.0,0.0,0.046245724,-0.018514214,0.9989798,0.89312744,0.13018799,-0.35577393,0.25,-0.18164062,0.057617188,0.8943809,0.95743,-0.38330162,20.681978,-0.8911743,0.05670166,-0.28253174,-0.5,0.021484375,0.14453125,2.0405679,2.4624805,-57.330795,18.7028,-0.42175293,0.6218872,1.1768188,-0.09472656,0.07421875,0.0859375,41.007072,5.763559,-129.18387,15.287793,0.0,0.0,0.0,0.0,0.0,0.0,0.0,-8.743038,-128.19273,29.0259,0.0,0.0,0.0,0.0,0.0,0.0,0.0,-1.419492,44.97857,0.89930576,
1.4296874573919927,61,0.013549805,-0.99450684,0.32025146,0.16503906,0.203125,-0.0546875,0.0,0.0,0.0,0.0,0.0,0.0,0.0,0.0,0.0,0.0,0.0,-0.055400252,0.018719006,-0.9984202,-0.94470215,-0.101989746,-0.1741333,0.09277344,0.20996094,0.16992188,6.295132,-1.1469568,0.38754147,-20.670393,-0.95910645,0.13665771,-0.12573242,-0.0087890625,0.2763672,0.057617188,7.2856426,-5.3932614,-56.456497,-20.747017,-0.43145752,-0.3484497,0.84747314,0.09082031,0.009765625,0.028320312,1.5556997,-4.1952953,-128.25723,-25.97711,0.0,0.0,0.0,0.0,0.0,0.0,0.0,-24.184431,-128.44511,-26.467571,0.0,0.0,0.0,0.0,0.0,0.0,0.0,0.055400252,-0.018719006,0.9984202,0.88079834,0.061706543,-0.41503906,0.25,-0.21972656,0.038085938,1.0501571,1.1469568,-0.38754147,20.670393,-0.9071045,0.08947754,-0.3109131,-0.578125,0.041015625,0.08984375,2.0480351,2.6865773,-57.329426,18.521154,-0.45825195,0.6104126,1.168396,-0.09375,0.036132812,0.14257812,41.286636,6.015058,-129.16603,14.823523,0.0,0.0,0.0,0.0,0.0,0.0,0.0,-8.546478,-128.15504,28.5007,0.0,0.0,0.0,0.0,0.0,0.0,0.0,-1.5123305,44.970936,0.92705935,
1.4531249566935007,62,0.032592773,-0.9926758,0.30163574,0.26171875,0.22558594,-0.1484375,0.0,0.0,0.0,0.0,0.0,0.0,0.0,0.0,0.0,0.0,0.0,-0.06870392,0.020656984,-0.9975995,-1.0140381,-0.031433105,-0.04296875,0.13085938,0.20996094,0.18847656,6.7643385,-1.4223845,0.4276636,-20.653402,-0.93029785,0.24749756,-0.008056641,0.013671875,0.39257812,-0.03515625,7.443103,-6.0691843,-56.372894,-20.562153,-0.4064331,-0.34887695,0.8371582,0.07128906,-0.0078125,0.08496094,2.1699739,-5.4386888,-128.1592,-25.980272,0.0,0.0,0.0,0.0,0.0,0.0,0.0,-25.429335,-128.33528,-26.451166,0.0,0.0,0.0,0.0,0.0,0.0,0.0,0.06870392,-0.020656984,0.9975995,0.87994385,0.06774902,-0.4428711,0.21191406,-0.16308594,0.038085938,1.2286009,1.4223845,-0.4276636,20.653402,-0.97436523,0.107299805,-0.34918213,-0.65625,0.07910156,0.16503906,2.1802316,2.9375775,-57.359016,18.191154,-0.45410156,0.6055298,1.1633301,-0.13183594,0.016601562,0.16210938,41.79824,6.421093,-129.18071,14.118769,0.0,0.0,0.0,0.0,0.0,0.0,0.0,-8.195053,-128.13625,27.73294,0.0,0.0,0.0,0.0,0.0,0.0,0.0,-1.5226754,44.970215,1.0360498,
1.4765624559950088,63,0.054504395,-1.0205688,0.3484497,0.3779297,0.23046875,-0.24121094,0.0,0.0,0.0,0.0,0.0,0.0,0.0,0.0,0.0,0.0,0.0,-0.08366269,0.026954927,-0.99639606,-1.1340942,0.0680542,0.17095947,0.13183594,0.061523438,0.15039062,7.3122005,-1.7320774,0.5580506,-20.628487,-0.94177246,0.45281982,0.14538574,0.1171875,0.6044922,-0.25878906,7.349403,-6.6678715,-56.23476,-20.428663,-0.40118408,-0.33410645,0.8283081,0.09082031,0.028320312,0.08496094,3.2742288,-6.7456074,-127.99031,-25.941877,0.0,0.0,0.0,0.0,0.0,0.0,0.0,-26.73723,-128.14113,-26.37431,0.0,0.0,0.0,0.0,0.0,0.0,0.0,0.08366269,-0.026954927,0.99639606,0.8748779,0.10638428,-0.39471436,0.25097656,-0.16308594,-0.0390625,1.0477319,1.7320774,-0.5580506,20.628487,-0.8770752,0.06768799,-0.31988525,-0.61816406,0.09863281,0.16503906,2.3513527,3.3629732,-57.474922,17.971376,-0.453125,0.6104126,1.1633301,-0.07519531,0.017578125,0.19921875,42.40663,7.16316,-129.25037,13.495513,0.0,0.0,0.0,0.0,0.0,0.0,0.0,-7.510243,-128.16974,27.04601,0.0,0.0,0.0,0.0,0.0,0.0,0.0,-1.6394886,44.9617,1.3539832,
1.4999999552965169,64,0.014526367,-1.0075073,0.35888672,0.4560547,0.123046875,-0.3154297,0.0,0.0,0.0,0.0,0.0,0.0,0.0,0.0,0.0,0.0,0.0,-0.09547791,0.035079733,-0.9950329,-1.3283691,0.083618164,0.3359375,-0.12597656,-0.3857422,0.001953125,7.8464537,-1.9766883,0.72625923,-20.600267,-1.0441284,0.69488525,0.22784424,0.038085938,0.9345703,-0.7265625,8.515668,-7.0531254,-56.05371,-20.351692,-0.3633423,-0.35565186,0.8511963,0.0146484375,0.13964844,0.19628906,3.369936,-6.2782116,-127.76939,-26.85766,0.0,0.0,0.0,0.0,0.0,0.0,0.0,-26.26958,-127.89021,-27.212994,0.0,0.0,0.0,0.0,0.0,0.0,0.0,0.09547791,-0.035079733,0.9950329,0.82025146,0.11987305,-0.43414307,0.0234375,-0.29882812,0.0,0.7391344,1.9766883,-0.72625923,20.600267,-0.9376831,0.16491699,-0.29473877,-0.42382812,0.059570312,0.27441406,2.3944097,3.8960428,-57.63112,17.753786,-0.48382568,0.6338501,1.1838989,-0.09472656,-0.0390625,0.12402344,42.78721,7.9672723,-129.35626,12.710047,0.0,0.0,0.0,0.0,0.0,0.0,0.0,-6.7619386,-128.24315,26.197214,0.0,0.0,0.0,0.0,0.0,0.0,0.0,-1.83109,44.93812,1.7599878,
1.523437454598025,65,-0.0073242188,-0.9801636,0.42407227,0.45703125,-0.08203125,-0.3125,0.0,0.0,0.0,0.0,0.0,0.0,0.0,0.0,0.0,0.0,0.0,-0.09942496,0.045239825,-0.99410737,-1.2837524,0.01159668,0.3451538,-0.515625,-0.75878906,-0.16210938,9.261662,-2.0584025,0.9366046,-20.581106,-1.0778809,0.6678467,0.16168213,-0.041992188,1.2275391,-1.2695312,11.251707,-7.893972,-55.769287,-20.131687,-0.3227539,-0.54766846,0.88531494,0.051757812,0.36035156,0.4951172,3.7675395,-5.017616,-127.28826,-28.052168,0.0,0.0,0.0,0.0,0.0,0.0,0.0,-25.007141,-127.49888,-28.398018,0.0,0.0,0.0,0.0,0.0,0.0,0.0,0.09942496,-0.045239825,0.99410737,0.86608887,-0.09112549,-0.5,-0.16503906,-0.4345703,-0.018554688,0.6480073,2.0584025,-0.9366046,20.581106,-0.9121704,0.21130371,-0.2678833,-0.40527344,0.060546875,0.16210938,2.338666,4.2861795,-57.810837,17.341911,-0.4022827,0.48944092,1.1147461,-0.16992188,-0.001953125,0.048828125,42.932613,8.528423,-129.46094,11.589766,0.0,0.0,0.0,0.0,0.0,0.0,0.0,-6.2509804,-128.31888,25.02003,0.0,0.0,0.0,0.0,0.0,0.0,0.0,-2.1718895,44.894783,2.260291,
1.546874953899533,66,0.03491211,-0.90545654,0.387146,0.26367188,-0.2548828,-0.25683594,0.0,0.0,0.0,0.0,0.0,0.0,0.0,0.0,0.0,0.0,0.0,-0.097268164,0.05523573,-0.9938356,-1.4362183,-0.12896729,0.40350342,-0.64160156,-1.2441406,-0.21875,11.037742,-2.013753,1.1435509,-20.575478,-1.3361206,0.4019165,-0.20440674,-0.20019531,1.4443359,-1.8330078,15.192759,-9.037347,-55.421448,-19.710966,-0.4225464,-0.5980835,1.0841064,0.20214844,1.1083984,0.9248047,4.544631,-3.0780816,-126.569466,-29.169611,0.0,0.0,0.0,0.0,0.0,0.0,0.0,-23.059353,-127.176994,-29.676022,0.0,0.0,0.0,0.0,0.0,0.0,0.0,0.097268164,-0.05523573,0.9938356,0.8708496,-0.19567871,-0.567688,0.10058594,-0.4501953,-0.11425781,1.005999,2.013753,-1.1435509,20.575478,-0.98553467,0.32165527,-0.17474365,-0.42285156,0.022460938,0.14355469,2.1463044,4.331421,-57.952003,16.437527,-0.4241333,0.6626587,1.2120361,-0.26464844,-0.021484375,-0.044921875,42.892334,8.507761,-129.52304,9.737936,0.0,0.0,0.0,0.0,0.0,0.0,0.0,-6.3058014,-128.3559,23.130735,0.0,0.0,0.0,0.0,0.0,0.0,0.0,-2.4085724,44.857555,2.728839,
1.570312453201041,67,0.047851562,-0.9333496,0.33770752,0.12890625,-0.33398438,-0.23925781,0.0,0.0,0.0,0.0,0.0,0.0,0.0,0.0,0.0,0.0,0.0,-0.09716064,0.06601951,-0.99324393,-1.4799194,-0.45281982,0.25421143,-0.18554688,-1.8779297,-0.30566406,13.32923,-2.0115263,1.3668087,-20.563229,-1.5876465,0.39190674,-0.045959473,-0.17773438,1.5966797,-1.6992188,20.427322,-11.005017,-54.905495,-18.930004,-0.4225464,-0.5980835,1.0841064,0.20214844,1.1083984,0.9248047,6.797398,-1.4821844,-125.42339,-30.03086,0.0,0.0,0.0,0.0,0.0,0.0,0.0,-21.463455,-126.03092,-30.537271,0.0,0.0,0.0,0.0,0.0,0.0,0.0,0.09716064,-0.06601951,0.99324393,0.89068604,-0.24005127,-0.50445557,0.55566406,-0.44433594,-0.28710938,1.2642395,2.0115263,-1.3668087,20.563229,-0.9265137,0.272583,-0.13562012,-0.63671875,0.060546875,0.09082031,2.1991804,4.1044397,-58.109016,15.572097,-0.43237305,0.6763916,1.2132568,-0.47265625,-0.024414062,-0.15625,42.849293,8.06256,-129.58575,7.7983723,0.0,0.0,0.0,0.0,0.0,0.0,0.0,-6.772485,-128.3928,21.16385,0.0,0.0,0.0,0.0,0.0,0.0,0.0,-2.320847,44.83304,3.2070172,
1.5937499525025491,68,0.10076904,-0.94177246,0.24719238,0.0703125,-0.42773438,-0.2578125,0.0,0.0,0.0,0.0,0.0,0.0,0.0,0.0,0.0,0.0,0.0,-0.09766775,0.0752907,-0.9925637,-1.333374,-0.35961914,-0.13677979,0.64746094,-2.477539,-0.005859375,16.211681,-2.022026,1.5587509,-20.549147,-1.4137573,0.22424316,-0.059936523,-0.32910156,1.9306641,-2.5820312,27.258781,-13.580204,-54.185932,-17.564285,-0.4225464,-0.5980835,1.0841064,0.20214844,1.1083984,0.9248047,10.0508175,0.361351,-123.641846,-30.505114,0.0,0.0,0.0,0.0,0.0,0.0,0.0,-19.61992,-124.249374,-31.011524,0.0,0.0,0.0,0.0,0.0,0.0,0.0,0.09766775,-0.0752907,0.9925637,0.8870239,-0.08520508,-0.39245605,0.8779297,-0.4404297,-0.30566406,1.3412967,2.022026,-1.5587509,20.549147,-0.93377686,0.085998535,-0.14068604,-0.6953125,0.041015625,-0.001953125,1.8102405,3.9754355,-58.235527,14.823364,-0.41992188,0.64715576,1.1968994,-0.6044922,-0.06347656,-0.24902344,42.87099,7.4685564,-129.69637,6.593503,0.0,0.0,0.0,0.0,0.0,0.0,0.0,-7.365075,-128.48634,19.957596,0.0,0.0,0.0,0.0,0.0,0.0,0.0,-2.0529478,44.817455,3.6016273,
1.6171874518040572,69,0.18896484,-0.90411377,0.21270752,-0.123046875,-0.43359375,-0.26171875,0.0,0.0,0.0,0.0,0.0,0.0,0.0,0.0,0.0,0.0,0.0,-0.10587078,0.085158974,-0.9907996,-1.2873535,-0.34985352,-0.14562988,1.1748047,-2.7392578,0.07714844,19.26419,-2.191853,1.7630547,-20.512623,-1.2054443,0.06549072,-0.23217773,-0.74902344,1.9707031,-2.1855469,34.545845,-16.687925,-53.166935,-15.750558,-1.3775635,-1.0959473,1.6819458,0.31152344,2.1201172,2.2285156,2.2038922,1.3412933,-121.29509,-30.59594,0.0,0.0,0.0,0.0,0.0,0.0,0.0,-18.102144,-125.67517,-32.224323,0.0,0.0,0.0,0.0,0.0,0.0,0.0,0.10587078,-0.085158974,0.9907996,0.9446411,0.1329956,-0.27337646,0.7265625,-0.40429688,-0.26757812,0.92429215,2.191853,-1.7630547,20.512623,-0.9274292,0.0034179688,-0.19824219,-0.640625,0.19433594,0.14746094,1.3947947,4.2906485,-58.41677,14.601186,-0.40930176,0.5936279,1.1555176,-0.4921875,-0.10058594,-0.19433594,42.979546,7.5035076,-129.89185,6.3623667,0.0,0.0,0.0,0.0,0.0,0.0,0.0,-7.3210793,-128.65988,19.73648,0.0,0.0,0.0,0.0,0.0,0.0,0.0,-1.3840704,44.80387,3.9987748,
1.6406249511055653,70,0.1897583,-0.9684448,0.24920654,-0.22070312,-0.26757812,-0.32226562,0.0,0.0,0.0,0.0,0.0,0.0,0.0,0.0,0.0,0.0,0.0,-0.11781424,0.09501122,-0.98862755,-1.1182251,0.10559082,-0.42718506,1.7929688,-2.7763672,0.0107421875,22.588314,-2.4391205,1.967027,-20.467657,-1.2163086,-0.34545898,-0.413208,-1.0996094,1.7421875,-1.9628906,42.205154,-20.022934,-51.806316,-13.440943,0.26922607,-0.30889893,1.7206421,0.0068359375,1.0742188,2.7089844,2.5468357,1.9774189,-118.35379,-29.987669,0.0,0.0,0.0,0.0,0.0,0.0,0.0,-17.200476,-123.50645,-32.344673,0.0,0.0,0.0,0.0,0.0,0.0,0.0,0.11781424,-0.09501122,0.98862755,0.9736328,0.22607422,-0.2946167,0.30859375,-0.41015625,-0.15234375,1.6703496,2.4391205,-1.967027,20.467657,-0.9628296,-0.030334473,-0.1984253,-0.39160156,0.29003906,0.33203125,1.277788,4.7386637,-58.64614,14.822535,-0.43115234,0.5372925,1.1295166,-0.47265625,0.013671875,-0.25097656,42.87314,7.854729,-130.12167,6.658642,0.0,0.0,0.0,0.0,0.0,0.0,0.0,-6.9565015,-128.85721,20.046581,0.0,0.0,0.0,0.0,0.0,0.0,0.0,-0.5073702,44.791508,4.3651137,
1.6640624504070733,71,0.20843506,-1.0582275,0.2838745,-0.16308594,-0.13476562,-0.41796875,0.0,0.0,0.0,0.0,0.0,0.0,0.0,0.0,0.0,0.0,0.0,-0.11943072,0.102738485,-0.9877338,-0.975708,0.33599854,-0.45062256,1.3730469,-3.6542969,0.10546875,26.970037,-2.472585,2.127005,-20.449152,-0.8567505,0.15795898,-0.5276489,-0.5605469,0.90625,-1.4628906,49.276176,-23.521265,-49.96492,-10.789573,0.9743042,-1.3112793,1.0596924,-0.4267578,0.1640625,2.1865234,3.8828728,0.9123001,-115.27875,-28.614204,0.0,0.0,0.0,0.0,0.0,0.0,0.0,-18.001797,-120.74764,-32.112724,0.0,0.0,0.0,0.0,0.0,0.0,0.0,0.11943072,-0.102738485,0.9877338,0.93237305,0.27624512,-0.31585693,-0.35546875,-0.5136719,0.09667969,2.7548454,2.472585,-2.127005,20.449152,-0.92437744,0.040283203,-0.26397705,-0.08496094,0.38476562,0.60839844,1.7469728,5.139515,-58.825397,15.230899,-0.3916626,0.55371094,1.1270752,-0.09667969,0.11425781,-0.123046875,42.64913,8.717703,-130.2562,6.835311,0.0,0.0,0.0,0.0,0.0,0.0,0.0,-6.085512,-129.0102,20.231398,0.0,0.0,0.0,0.0,0.0,0.0,0.0,-0.009740949,44.768185,4.6577115,
1.6874999497085814,72,0.117614746,-1.0045166,0.30169678,-0.14355469,-0.115234375,-0.47460938,0.0,0.0,0.0,0.0,0.0,0.0,0.0,0.0,0.0,0.0,0.0,-0.124934375,0.112316184,-0.98597986,-0.7863159,0.26361084,-0.18164062,1.0507812,-1.5830078,0.2919922,28.347599,-2.586529,2.325293,-20.412838,-0.34246826,0.25549316,-0.4241333,-1.2246094,-0.3671875,0.23730469,51.498787,-25.59068,-48.95029,-10.933309,1.4154663,-1.3146362,0.8400879,-0.5527344,-0.26953125,0.53222656,4.0980153,-0.5702362,-114.088684,-28.758698,0.0,0.0,0.0,0.0,0.0,0.0,0.0,-19.346804,-119.59038,-32.883587,0.0,0.0,0.0,0.0,0.0,0.0,0.0,0.124934375,-0.112316184,0.98597986,0.78186035,0.11773682,-0.48968506,-0.8300781,-0.86328125,0.19335938,4.338741,2.586529,-2.325293,20.412838,-0.8914795,0.22875977,-0.46264648,0.2626953,0.3857422,0.5673828,2.0441134,6.0915527,-58.981567,15.170042,-0.40856934,0.50805664,1.1010742,0.16699219,0.21191406,-0.032226562,42.8291,10.899072,-130.30544,6.4287357,0.0,0.0,0.0,0.0,0.0,0.0,0.0,-3.9020605,-129.14359,19.834558,0.0,0.0,0.0,0.0,0.0,0.0,0.0,0.5220759,44.723717,5.0284724,
1.7109374490100895,73,0.09484863,-0.9234619,0.29174805,-0.046875,-0.076171875,-0.3779297,0.0,0.0,0.0,0.0,0.0,0.0,0.0,0.0,0.0,0.0,0.0,-0.13122457,0.1205748,-0.9842269,-0.7303467,-0.016967773,-0.30877686,-0.34179688,-1.1337891,0.15039062,29.769175,-2.7167559,2.496272,-20.376549,-0.6333618,-0.34747314,-0.31976318,-1.2226562,-1.4091797,0.80859375,51.49358,-27.132492,-48.035908,-10.365878,1.1928711,-1.2442627,1.0014648,-0.9628906,-0.9716797,-0.9375,2.665062,-3.813568,-114.03851,-27.289165,0.0,0.0,0.0,0.0,0.0,0.0,0.0,-22.62943,-119.30598,-31.541842,0.0,0.0,0.0,0.0,0.0,0.0,0.0,0.13122457,-0.1205748,0.9842269,0.7689209,0.026794434,-0.68566895,-0.76953125,-1.0527344,-0.17089844,6.3517504,2.7167559,-2.496272,20.376549,-0.92004395,0.36450195,-0.5957031,0.38085938,0.32714844,0.6767578,1.6126477,7.77172,-58.97821,14.528429,-0.46569824,0.5326538,1.1191406,0.3564453,0.42285156,-0.015625,42.60501,13.758534,-130.1423,5.2585783,0.0,0.0,0.0,0.0,0.0,0.0,0.0,-1.0449324,-129.14978,18.674599,0.0,0.0,0.0,0.0,0.0,0.0,0.0,0.94153214,44.68157,5.348278,
1.7343749483115976,74,0.12213135,-0.8612671,0.27142334,-0.0078125,-0.11621094,-0.12988281,0.0,0.0,0.0,0.0,0.0,0.0,0.0,0.0,0.0,0.0,0.0,-0.13340783,0.12587291,-0.98325235,-0.61834717,-0.23120117,-0.3411255,-0.4609375,-0.53515625,0.0068359375,30.641382,-2.7619545,2.6059594,-20.35637,-0.5546875,-0.5215454,-0.3468628,0.36914062,-2.3916016,1.5908203,49.498783,-28.147205,-47.442204,-10.314392,0.6605835,-0.9246216,1.1405029,-0.88378906,-1.6757812,-2.1669922,2.1082149,-7.455059,-114.89374,-24.734241,0.0,0.0,0.0,0.0,0.0,0.0,0.0,-26.49708,-119.54994,-28.68137,0.0,0.0,0.0,0.0,0.0,0.0,0.0,0.13340783,-0.12587291,0.98325235,0.7027588,-0.14990234,-0.89001465,-0.02734375,-1.1767578,-0.5722656,8.37808,2.7619545,-2.6059594,20.35637,-0.93066406,0.4088745,-0.5305176,0.2841797,0.25195312,0.32421875,1.2978457,9.631441,-58.80407,13.721452,-0.4293213,0.6744385,1.2092285,0.28125,0.51660156,-0.109375,42.074417,16.283394,-129.85306,4.1089916,0.0,0.0,0.0,0.0,0.0,0.0,0.0,1.4655991,-129.09885,17.523722,0.0,0.0,0.0,0.0,0.0,0.0,0.0,1.1378491,44.650173,5.5615935,
1.7578124476131056,75,0.112854004,-0.9313965,0.2364502,0.03125,-0.13769531,0.119140625,0.0,0.0,0.0,0.0,0.0,0.0,0.0,0.0,0.0,0.0,0.0,-0.13731104,0.12484372,-0.9828751,-0.58135986,-0.24298096,-0.30340576,0.35839844,-0.05078125,0.14550781,30.54087,-2.8427649,2.584652,-20.348562,-0.52282715,-0.068359375,-0.46954346,1.0078125,-2.9042969,2.4902344,45.243675,-28.427738,-47.3578,-10.311463,0.039123535,-0.59716797,1.253418,-0.65527344,-2.25,-3.024414,2.3033328,-12.380552,-116.56433,-22.105131,0.0,0.0,0.0,0.0,0.0,0.0,0.0,-31.761633,-120.213875,-25.417095,0.0,0.0,0.0,0.0,0.0,0.0,0.0,0.13731104,-0.12484372,0.9828751,0.7207031,-0.13812256,-0.78741455,0.9589844,-1.2402344,-0.85839844,10.376838,2.8427649,-2.584652,20.348562,-0.91278076,0.48773193,-0.42474365,0.1328125,0.13671875,0.21386719,2.1643746,11.390854,-58.43555,12.77561,-0.5031738,0.6329956,1.1832275,-0.01953125,0.56933594,-0.2578125,41.688488,18.511183,-129.42224,2.9163074,0.0,0.0,0.0,0.0,0.0,0.0,0.0,3.6984758,-128.94771,16.351856,0.0,0.0,0.0,0.0,0.0,0.0,0.0,1.357174,44.65513,5.482444,
1.7812499469146137,76,0.18188477,-0.93634033,0.23034668,0.049804688,-0.10253906,0.23242188,0.0,0.0,0.0,0.0,0.0,0.0,0.0,0.0,0.0,0.0,0.0,-0.14116266,0.12153895,-0.98270005,-0.5699463,-0.123291016,-0.18231201,0.9189453,0.060546875,0.21191406,30.348852,-2.9225051,2.5162327,-20.344938,-0.69000244,3.6621094E-4,-0.4048462,0.3515625,-3.0546875,3.1484375,39.878597,-28.500137,-47.392826,-10.096798,-0.52508545,-0.34490967,1.4072266,-0.5234375,-2.6708984,-3.1757812,2.052331,-18.53364,-118.150314,-19.092825,0.0,0.0,0.0,0.0,0.0,0.0,0.0,-38.22555,-120.48898,-21.680058,0.0,0.0,0.0,0.0,0.0,0.0,0.0,0.14116266,-0.12153895,0.98270005,0.78167725,0.082458496,-0.74298096,1.0341797,-1.1816406,-0.78222656,12.558263,2.9225051,-2.5162327,20.344938,-0.9481201,0.15966797,-0.42956543,0.16992188,0.13769531,0.0087890625,3.4997263,13.21182,-57.888878,11.547415,-0.13598633,0.2633667,0.99121094,0.35742188,0.45996094,0.060546875,42.257656,21.114359,-128.79584,1.7519722,0.0,0.0,0.0,0.0,0.0,0.0,0.0,6.3082123,-128.58887,15.198432,0.0,0.0,0.0,0.0,0.0,0.0,0.0,1.5368361,44.66893,5.3038273,
1.8046874462161218,77,0.21777344,-0.96588135,0.24066162,0.06933594,-0.02734375,0.23242188,0.0,0.0,0.0,0.0,0.0,0.0,0.0,0.0,0.0,0.0,0.0,-0.14950016,0.12006385,-0.9816791,-0.63342285,-0.055236816,-0.20806885,1.0654297,0.39648438,0.24804688,29.84111,-3.095116,2.485694,-20.323801,-0.9030762,-0.13903809,-0.37670898,-0.21972656,-3.0126953,3.4501953,33.940582,-28.346249,-47.53938,-9.851499,-0.9090576,-0.31103516,1.2597046,-0.41210938,-2.8867188,-2.7675781,0.9528547,-25.06641,-119.1884,-16.233654,0.0,0.0,0.0,0.0,0.0,0.0,0.0,-44.94497,-120.028336,-18.246843,0.0,0.0,0.0,0.0,0.0,0.0,0.0,0.14950016,-0.12006385,0.9816791,0.80462646,0.22601318,-0.44104004,0.5019531,-1.0175781,-0.5341797,14.484786,3.095116,-2.485694,20.323801,-0.99572754,0.1716919,-0.22088623,0.71191406,0.15625,0.31933594,5.57422,14.917072,-57.52768,11.36482,-0.51293945,0.5913086,1.1452637,0.43066406,0.6142578,-0.20703125,40.98339,22.299347,-128.54672,2.0315475,0.0,0.0,0.0,0.0,0.0,0.0,0.0,7.5655975,-128.7286,15.563107,0.0,0.0,0.0,0.0,0.0,0.0,0.0,1.7909961,44.674103,5.191096,
1.8281249455176298,78,0.1907959,-0.9547119,0.2522583,0.068359375,0.10449219,0.13574219,0.0,0.0,0.0,0.0,0.0,0.0,0.0,0.0,0.0,0.0,0.0,-0.16017285,0.11924164,-0.9800182,-0.8262329,0.16540527,-0.060791016,0.6376953,0.13574219,0.14160156,29.263489,-3.3160748,2.4686718,-20.289415,-0.97869873,-0.091552734,-0.4013672,-0.17578125,-2.8583984,3.2636719,28.579855,-28.192886,-47.711464,-9.661501,-1.1895752,-0.4104004,0.9945679,-0.16796875,-2.6845703,-2.3222656,0.9369085,-30.881329,-119.535965,-13.668368,0.0,0.0,0.0,0.0,0.0,0.0,0.0,-50.800533,-118.8812,-15.312182,0.0,0.0,0.0,0.0,0.0,0.0,0.0,0.16017285,-0.11924164,0.9800182,0.9119873,0.22052002,-0.3829956,0.0625,-1.1757812,-0.13085938,15.938805,3.3160748,-2.4686718,20.289415,-0.9736328,0.14123535,-0.1383667,0.65234375,0.21386719,0.3017578,6.957055,16.18062,-57.234566,11.071493,-0.54364014,0.6107788,1.173706,0.48339844,0.7128906,-0.62597656,39.31401,23.164312,-128.26802,1.585619,0.0,0.0,0.0,0.0,0.0,0.0,0.0,8.558031,-128.85188,15.24551,0.0,0.0,0.0,0.0,0.0,0.0,0.0,2.0481932,44.670097,5.1003857,
1.851562444819138,79,0.2189331,-0.9350586,0.26654053,0.06738281,0.32910156,0.018554688,0.0,0.0,0.0,0.0,0.0,0.0,0.0,0.0,0.0,0.0,0.0,-0.17283529,0.11940094,-0.9778888,-0.87713623,0.37426758,0.17260742,0.09667969,-0.125,0.11230469,29.442528,-3.5782251,2.4719696,-20.245329,-1.0063477,0.0043945312,-0.30065918,-0.27539062,-2.5654297,2.7763672,24.333403,-28.479176,-47.475883,-9.256718,-1.3590698,-0.23706055,0.69958496,-0.22558594,-2.225586,-2.022461,2.3052015,-36.789932,-118.96265,-11.498331,0.0,0.0,0.0,0.0,0.0,0.0,0.0,-56.639725,-116.968506,-12.871404,0.0,0.0,0.0,0.0,0.0,0.0,0.0,0.17283529,-0.11940094,0.9778888,1.0004883,0.25823975,-0.35723877,-0.8300781,-1.1308594,0.19433594,16.863863,3.5782251,-2.4719696,20.245329,-1.0039673,-0.08355713,-0.021606445,0.61035156,0.34765625,0.39648438,8.193907,17.188292,-57.056572,11.034284,-0.50909424,0.6184082,1.177185,0.53808594,0.65722656,-0.703125,37.738884,23.624697,-128.18724,1.882267,0.0,0.0,0.0,0.0,0.0,0.0,0.0,9.208048,-129.18054,15.716754,0.0,0.0,0.0,0.0,0.0,0.0,0.0,2.1733832,44.66958,5.0700574,
1.874999944120646,80,0.25805664,-0.89501953,0.26416016,-0.087890625,0.5488281,-0.08203125,0.0,0.0,0.0,0.0,0.0,0.0,0.0,0.0,0.0,0.0,0.0,-0.19599652,0.12092815,-0.97329617,-0.84802246,0.15435791,0.48913574,-0.19921875,-0.53515625,0.001953125,30.340216,-4.0577354,2.5035875,-20.15025,-0.8774414,-0.0014038086,-0.29730225,-0.40234375,-2.0214844,2.084961,22.084736,-29.73859,-46.923912,-8.320003,-1.5861206,0.12756348,0.5505371,-0.15039062,-1.5498047,-1.5927734,4.124263,-42.407722,-117.76031,-9.193951,0.0,0.0,0.0,0.0,0.0,0.0,0.0,-62.144817,-114.759964,-10.340785,0.0,0.0,0.0,0.0,0.0,0.0,0.0,0.19599652,-0.12092815,0.97329617,1.0616455,0.0637207,-0.434021,-1.1728516,-0.90625,0.38476562,18.462324,4.0577354,-2.5035875,20.15025,-0.96936035,-0.16192627,-0.047607422,0.5654297,0.5957031,0.7519531,9.618852,18.69823,-56.71815,10.363834,-0.5325928,0.62628174,1.1816406,0.5,0.7138672,-0.79785156,36.40256,25.017414,-127.92523,1.7426147,0.0,0.0,0.0,0.0,0.0,0.0,0.0,10.81849,-129.3663,15.765264,0.0,0.0,0.0,0.0,0.0,0.0,0.0,2.507951,44.65393,5.043037,
1.898437443422154,81,0.2699585,-0.92840576,0.1998291,-0.3017578,0.56152344,-0.123046875,0.0,0.0,0.0,0.0,0.0,0.0,0.0,0.0,0.0,0.0,0.0,-0.22465977,0.12317615,-0.9668262,-0.9633179,-0.050109863,0.63031006,-0.34570312,-0.87109375,-0.072265625,31.017874,-4.6511536,2.5501282,-20.0163,-0.90509033,-0.0970459,-0.28503418,-0.56347656,-1.2851562,1.4150391,21.304296,-31.385021,-46.20979,-7.4600544,-1.6448975,0.4725952,0.33831787,0.24316406,-0.8339844,-0.56933594,6.1501055,-46.92233,-116.463684,-7.57584,0.0,0.0,0.0,0.0,0.0,0.0,0.0,-66.5594,-112.821815,-8.578743,0.0,0.0,0.0,0.0,0.0,0.0,0.0,0.22465977,-0.12317615,0.9668262,0.9595947,-0.06317139,-0.47436523,-1.2109375,-0.6777344,0.40234375,19.726543,4.6511536,-2.5501282,20.0163,-1.0568237,0.068237305,-0.25891113,0.40722656,0.7861328,1.0527344,9.353661,19.58555,-56.61071,9.8285265,-0.56921387,0.6303711,1.1842041,0.44433594,0.9785156,-0.9111328,35.498848,26.656803,-127.69611,0.7532339,0.0,0.0,0.0,0.0,0.0,0.0,0.0,12.70394,-129.66806,14.957757,0.0,0.0,0.0,0.0,0.0,0.0,0.0,3.188301,44.622795,4.944199,
1.921874942723662,82,0.15814209,-1.1102905,0.16021729,-0.33984375,0.5410156,-0.06640625,0.0,0.0,0.0,0.0,0.0,0.0,0.0,0.0,0.0,0.0,0.0,-0.24749178,0.11885961,-0.9617233,-1.0745239,-0.20812988,0.49017334,-0.57714844,-0.36621094,-0.2890625,30.737152,-5.1238475,2.4607623,-19.910656,-0.8789673,-0.10614014,-0.25256348,-0.25,-0.5722656,0.72558594,21.547646,-32.354275,-45.95348,-7.0925484,-1.8578491,0.32977295,0.031188965,-0.21191406,-0.2578125,0.21484375,8.369757,-48.72331,-116.00583,-7.4794545,0.0,0.0,0.0,0.0,0.0,0.0,0.0,-68.318306,-112.16347,-8.569401,0.0,0.0,0.0,0.0,0.0,0.0,0.0,0.24749178,-0.11885961,0.9617233,0.94592285,-0.0032958984,-0.54351807,-0.75390625,-0.5185547,0.17285156,20.87018,5.1238475,-2.4607623,19.910656,-1.0736084,0.111450195,-0.26062012,0.052734375,0.9404297,0.7607422,8.052203,20.225843,-56.400654,9.322865,-0.59606934,0.5662842,1.1522827,0.3330078,1.375,-1.1376953,35.852837,29.016552,-127.147675,-0.8584585,0.0,0.0,0.0,0.0,0.0,0.0,0.0,15.344306,-129.81798,13.50361,0.0,0.0,0.0,0.0,0.0,0.0,0.0,3.7953603,44.616116,4.5374107,
1.9453124420251702,83,0.06365967,-1.2149658,0.09136963,-0.14648438,0.49121094,-0.043945312,0.0,0.0,0.0,0.0,0.0,0.0,0.0,0.0,0.0,0.0,0.0,-0.25913513,0.114001095,-0.9591994,-1.0237427,0.026123047,0.3883667,-1.0341797,0.28808594,-0.5019531,30.418596,-5.364901,2.3601763,-19.8584,-0.70428467,-0.005859375,-0.20031738,-0.17773438,0.18359375,-0.32128906,21.387075,-32.563286,-46.03656,-6.9562225,-1.7902222,0.088256836,-0.3189087,-0.30664062,0.58203125,0.5527344,8.3117,-49.238262,-116.091774,-7.3260336,0.0,0.0,0.0,0.0,0.0,0.0,0.0,-68.86067,-112.44304,-8.566379,0.0,0.0,0.0,0.0,0.0,0.0,0.0,0.25913513,-0.114001095,0.9591994,1.029541,0.06854248,-0.52941895,-0.5449219,-0.43945312,0.115234375,21.730356,5.364901,-2.3601763,19.8584,-1.0513306,-0.0068359375,-0.2878418,-0.14355469,1.0556641,0.8378906,7.482439,20.983154,-56.093834,8.989201,-0.6803589,0.55596924,1.1515503,0.20214844,1.9052734,-1.4970703,36.01946,31.130367,-126.56943,-1.7459946,0.0,0.0,0.0,0.0,0.0,0.0,0.0,17.788074,-130.14877,12.727153,0.0,0.0,0.0,0.0,0.0,0.0,0.0,3.9229102,44.63205,4.244726,
1.9687499413266782,84,0.097595215,-1.2358398,0.046142578,-0.0107421875,0.49316406,0.072265625,0.0,0.0,0.0,0.0,0.0,0.0,0.0,0.0,0.0,0.0,0.0,-0.26996017,0.11079699,-0.9566206,-0.8494873,0.008178711,0.40826416,-1.3369141,0.5126953,-0.53222656,30.103943,-5.589013,2.2938414,-19.805012,-0.8185425,-0.34887695,-0.2298584,0.041992188,0.78515625,-1.4638672,22.52801,-32.404995,-46.240475,-6.7167187,-1.6533203,-0.24603271,-0.34991455,-0.34277344,1.6748047,0.64941406,9.092888,-46.954426,-116.71504,-7.099956,0.0,0.0,0.0,0.0,0.0,0.0,0.0,-66.68347,-113.701065,-8.340124,0.0,0.0,0.0,0.0,0.0,0.0,0.0,0.26996017,-0.11079699,0.9566206,1.095459,0.14758301,-0.39562988,-0.46875,-0.24804688,0.038085938,22.141237,5.589013,-2.2938414,19.805012,-1.0939331,-0.07305908,-0.26068115,-0.051757812,1.2275391,1.0244141,5.867853,21.5592,-55.9083,8.845163,-0.61242676,0.6948242,1.2182617,0.203125,2.359375,-1.6875,36.9346,33.886665,-125.837204,-3.135727,0.0,0.0,0.0,0.0,0.0,0.0,0.0,20.997679,-130.55461,11.420999,0.0,0.0,0.0,0.0,0.0,0.0,0.0,3.8949158,44.652054,4.072504,
1.9921874406281863,85,0.29467773,-1.3399658,0.73413086,-0.06738281,0.17578125,0.07519531,0.0,0.0,0.0,0.0,0.0,0.0,0.0,0.0,0.0,0.0,0.0,-0.2778117,0.10794194,-0.9548339,-0.76379395,-0.07495117,0.04650879,-1.2802734,0.45703125,-0.6455078,29.20913,-5.7515635,2.2347329,-19.768023,-1.1156006,-0.17694092,0.49597168,1.8769531,0.6513672,-1.4824219,24.383797,-31.994858,-46.770763,-7.1369896,-0.042114258,-0.54193115,1.5111694,1.2832031,4.6777344,0.76660156,11.5987015,-42.027008,-118.06215,-6.9835396,0.0,0.0,0.0,0.0,0.0,0.0,0.0,-61.930862,-116.23967,-7.641451,0.0,0.0,0.0,0.0,0.0,0.0,0.0,0.2778117,-0.10794194,0.9548339,1.2223511,0.1171875,-0.42352295,-0.7910156,-0.19433594,0.09472656,22.46362,5.7515635,-2.2347329,19.768023,-1.2103882,-0.08605957,-0.19683838,0.041015625,1.3808594,1.1367188,4.115802,22.104641,-55.745537,8.8607435,-0.63134766,0.6442871,1.1982422,0.26171875,3.1572266,-2.0117188,37.774094,36.83232,-124.97736,-4.4237795,0.0,0.0,0.0,0.0,0.0,0.0,0.0,24.544888,-131.12646,10.121494,0.0,0.0,0.0,0.0,0.0,0.0,0.0,3.8140209,44.676765,3.9409125,
2.0156249399296944,86,-0.28125,-1.446167,0.37573242,-0.3173828,-0.25878906,0.076171875,0.0,0.0,0.0,0.0,0.0,0.0,0.0,0.0,0.0,0.0,0.0,-0.27484706,0.10615561,-0.95579207,-2.0,-0.8277588,0.22271729,0.58496094,-0.3486328,-0.140625,28.45081,-5.690187,2.1977503,-19.787857,-2.0,0.29003906,-0.24163818,0.4267578,1.0117188,-1.3662109,25.259312,-31.74407,-46.96509,-7.385195,-1.9424438,-0.88134766,0.845459,1.2695312,2.0175781,-1.6591797,11.498756,-40.497536,-118.4476,-8.028197,0.0,0.0,0.0,0.0,0.0,0.0,0.0,-60.488396,-117.94304,-7.9209824,0.0,0.0,0.0,0.0,0.0,0.0,0.0,0.27484706,-0.10615561,0.95579207,1.4465332,0.095703125,-0.6481323,-0.71484375,-0.022460938,0.036132812,23.2099,5.690187,-2.1977503,19.787857,-1.5178833,-0.12634277,-0.09967041,0.037109375,1.4765625,1.15625,2.5049906,22.414436,-55.62882,9.059727,-0.66619873,0.68322754,1.2478638,-0.16992188,4.176758,-2.899414,38.98722,39.76808,-123.95615,-5.661804,0.0,0.0,0.0,0.0,0.0,0.0,0.0,28.365875,-131.92006,8.721809,0.0,0.0,0.0,0.0,0.0,0.0,0.0,4.1091657,44.660297,3.7785935,
2.0390624392312025,87,-0.13024902,-1.1732178,0.13757324,0.18652344,-0.20703125,0.103515625,0.0,0.0,0.0,0.0,0.0,0.0,0.0,0.0,0.0,0.0,0.0,-0.26899353,0.106972076,-0.95732737,-0.6520996,-0.33062744,0.33111572,0.07910156,1.1484375,-0.7949219,29.016365,-5.569,2.2146535,-19.819645,-0.17340088,-0.15148926,-0.44317627,0.43359375,1.1289062,-1.6855469,28.837708,-31.27584,-46.778347,-6.1505976,-0.22839355,0.33319092,1.1488037,0.12695312,1.9111328,1.0761719,11.792326,-35.45867,-118.67189,-6.861652,0.0,0.0,0.0,0.0,0.0,0.0,0.0,-55.447136,-118.98385,-6.3467593,0.0,0.0,0.0,0.0,0.0,0.0,0.0,0.26899353,-0.106972076,0.95732737,1.3461914,0.103393555,-0.15740967,-1.0791016,0.9267578,0.55078125,22.622679,5.569,-2.2146535,19.819645,-1.3416748,-0.63720703,0.19854736,0.42578125,1.4941406,1.5048828,3.0842612,21.838484,-55.927086,9.838425,-0.73309326,0.6564331,1.204956,0.21972656,5.0966797,-3.8173828,41.121647,41.87068,-123.167114,-6.378111,0.0,0.0,0.0,0.0,0.0,0.0,0.0,31.91959,-133.30833,7.7137623,0.0,0.0,0.0,0.0,0.0,0.0,0.0,4.187823,44.648495,3.8123264,
2.0624999385327105,88,0.42193604,-0.998291,0.50079346,0.20410156,0.08203125,0.6142578,0.0,0.0,0.0,0.0,0.0,0.0,0.0,0.0,0.0,0.0,0.0,-0.26914427,0.10065023,-0.958,-0.36065674,0.986084,-0.69104004,0.60058594,1.6494141,-0.09082031,27.660427,-5.572121,2.0837717,-19.833569,-0.54071045,-0.5899048,-0.23895264,1.1689453,1.0244141,-1.5917969,29.202164,-29.452927,-47.824726,-6.1056023,-1.4422607,-1.4785767,0.45635986,-0.40429688,-0.8125,0.97558594,9.89211,-30.885723,-119.81654,-7.446708,0.0,0.0,0.0,0.0,0.0,0.0,0.0,-50.86525,-120.64192,-7.332442,0.0,0.0,0.0,0.0,0.0,0.0,0.0,0.26914427,-0.10065023,0.958,1.2922974,0.22167969,0.28918457,-0.7216797,1.7128906,0.81640625,20.430569,5.572121,-2.0837717,19.833569,-1.3238525,-0.89660645,0.38702393,1.2011719,1.53125,2.2216797,7.564081,20.376844,-56.430637,11.0503435,-0.7350464,0.7692261,1.2844849,0.71972656,6.171875,-5.194336,44.34367,43.238525,-122.22272,-7.253915,0.0,0.0,0.0,0.0,0.0,0.0,0.0,35.590324,-134.75766,6.349284,0.0,0.0,0.0,0.0,0.0,0.0,0.0,3.8250282,44.698193,3.621502,
2.0859374378342186,89,0.07312012,-0.89385986,0.59973145,0.22363281,0.15820312,0.5371094,0.0,0.0,0.0,0.0,0.0,0.0,0.0,0.0,0.0,0.0,0.0,-0.26336515,0.088005334,-0.9608029,-0.72058105,-0.19586182,-0.75823975,-3.5146484,0.9238281,-0.38085938,25.167376,-5.452476,1.8219831,-19.891596,-1.8045044,-0.23284912,-0.36053467,0.2607422,0.66503906,-0.9941406,28.944046,-27.998518,-49.106617,-8.531461,-0.2753296,0.2097168,1.0318604,1.0732422,0.16015625,-0.30859375,9.365924,-26.147608,-121.088,-9.981257,0.0,0.0,0.0,0.0,0.0,0.0,0.0,-46.040035,-121.753685,-9.578161,0.0,0.0,0.0,0.0,0.0,0.0,0.0,0.26336515,-0.088005334,0.9608029,1.2766113,0.0075683594,0.36608887,-1.3125,2.6210938,1.2724609,16.745716,5.452476,-1.8219831,19.891596,-1.4682617,-0.34155273,0.21899414,2.3320312,1.2998047,2.8388672,14.229444,17.75603,-57.076683,13.187975,-1.0691528,1.2034912,1.579834,0.57714844,6.861328,-6.790039,49.101242,43.084953,-121.078636,-7.990324,0.0,0.0,0.0,0.0,0.0,0.0,0.0,38.872955,-135.81973,4.8805285,0.0,0.0,0.0,0.0,0.0,0.0,0.0,3.178313,44.776863,3.2301583,
2.1093749371357267,90,-0.14312744,-0.6486206,0.5748291,0.26171875,0.18554688,0.0234375,0.0,0.0,0.0,0.0,0.0,0.0,0.0,0.0,0.0,0.0,0.0,-0.2400324,0.07747111,-0.96795636,-1.2215576,-1.1809082,-0.36993408,-0.8652344,1.9316406,-0.5683594,23.642286,-4.9694157,1.6038921,-20.0397,-0.76556396,-0.31884766,-0.35943604,0.11035156,0.78027344,-0.78515625,28.29407,-25.746073,-50.54007,-10.086157,-0.8898926,-1.2339478,0.74798584,0.091796875,-0.06542969,-0.17578125,10.077122,-21.445255,-122.35523,-11.917863,0.0,0.0,0.0,0.0,0.0,0.0,0.0,-41.42529,-123.013626,-11.640146,0.0,0.0,0.0,0.0,0.0,0.0,0.0,0.2400324,-0.07747111,0.96795636,1.1937866,-0.3942871,-0.31732178,-3.34375,2.6708984,1.9609375,12.003458,4.9694157,-1.6038921,20.0397,-1.052002,0.16143799,-0.20324707,2.6679688,2.7773438,2.7011719,22.40858,14.29826,-57.721825,16.37489,-2.0,-1.425415,0.12524414,-4.225586,8.521484,-7.0458984,53.149426,42.47596,-119.39729,-7.8534966,0.0,0.0,0.0,0.0,0.0,0.0,0.0,41.802578,-135.78586,3.624689,0.0,0.0,0.0,0.0,0.0,0.0,0.0,2.0286808,44.860676,3.0873883,
2.1328124364372347,91,-0.18060303,-0.76727295,0.56311035,0.32128906,0.04296875,-0.22070312,0.0,0.0,0.0,0.0,0.0,0.0,0.0,0.0,0.0,0.0,0.0,-0.22888279,0.07527597,-0.97062707,-0.821228,-0.2836914,-0.52386475,0.5048828,1.8916016,0.04296875,21.646763,-4.7385826,1.558446,-20.09499,-0.80133057,-0.4697876,-0.3701172,0.5722656,0.48632812,-0.56152344,27.819355,-22.973976,-51.610672,-10.986753,-0.22662354,-0.18603516,0.8574829,0.2607422,0.061523438,-0.08300781,13.44756,-15.426392,-123.13502,-12.907677,0.0,0.0,0.0,0.0,0.0,0.0,0.0,-35.3546,-123.75022,-12.457222,0.0,0.0,0.0,0.0,0.0,0.0,0.0,0.22888279,-0.07527597,0.97062707,1.182251,-0.52911377,-0.9429321,-2.1933594,2.569336,2.25,8.823074,4.7385826,-1.558446,20.09499,-1.4014282,1.7705078,-1.1486206,0.69628906,3.2773438,1.7246094,30.9324,11.214937,-58.185993,19.187792,-2.0,-1.9995117,1.999939,0.49609375,0.095703125,-4.411133,54.546883,44.40471,-116.62219,-6.672474,0.0,0.0,0.0,0.0,0.0,0.0,0.0,45.9603,-132.9057,4.8512764,0.0,0.0,0.0,0.0,0.0,0.0,0.0,1.3631632,44.87216,3.1585674,
2.156249935738743,92,-0.064819336,-0.8430786,0.5039673,0.33984375,0.025390625,-0.27734375,0.0,0.0,0.0,0.0,0.0,0.0,0.0,0.0,0.0,0.0,0.0,-0.21304771,0.076954916,-0.9741951,-0.85913086,-0.08276367,-0.28985596,0.46972656,1.7783203,0.3046875,20.018644,-4.4107475,1.5932056,-20.16886,-1.064148,-0.24768066,-0.3718872,0.8027344,0.484375,-0.7685547,26.778185,-20.40018,-52.5228,-12.166609,-0.47387695,-0.29553223,0.8624878,0.6191406,0.09472656,-0.028320312,14.706352,-10.572746,-123.83281,-13.939629,0.0,0.0,0.0,0.0,0.0,0.0,0.0,-30.552292,-124.40452,-13.439338,0.0,0.0,0.0,0.0,0.0,0.0,0.0,0.21304771,-0.076954916,0.9741951,1.3057251,-0.013122559,-1.1572266,0.7441406,3.4658203,1.7119141,6.8745785,4.4107475,-1.5932056,20.16886,-1.0643921,0.94329834,-0.79315186,-0.9501953,2.1660156,1.1728516,39.956978,7.037998,-58.5149,21.795082,-1.5688477,1.7462769,1.9910278,2.4990234,-2.6552734,-0.6923828,55.30064,43.762394,-113.516464,-6.7087555,0.0,0.0,0.0,0.0,0.0,0.0,0.0,46.281128,-129.00497,5.7010756,0.0,0.0,0.0,0.0,0.0,0.0,0.0,0.57068676,44.874516,3.4199836,
2.179687435040251,93,0.123046875,-0.90167236,0.45861816,0.24316406,0.09277344,0.005859375,0.0,0.0,0.0,0.0,0.0,0.0,0.0,0.0,0.0,0.0,0.0,-0.20399964,0.08299607,-0.975734,-0.92297363,-0.07098389,-0.3468628,0.14941406,1.8535156,0.1796875,17.67684,-4.223425,1.718276,-20.200718,-1.0395508,-0.17236328,-0.3163452,0.35839844,0.29492188,-0.5263672,24.94103,-17.780544,-53.27243,-13.909398,-0.5097046,-0.34680176,0.82403564,0.60058594,0.00390625,-0.047851562,15.10908,-6.4065523,-124.36452,-15.708525,0.0,0.0,0.0,0.0,0.0,0.0,0.0,-26.39001,-124.84879,-15.142384,0.0,0.0,0.0,0.0,0.0,0.0,0.0,0.20399964,-0.08299607,0.975734,1.3358154,-0.012878418,-0.796875,3.6279297,3.5595703,0.9091797,9.244543,4.223425,-1.718276,20.200718,-0.9935913,0.33703613,-0.5968628,-0.5058594,0.92089844,0.8779297,47.697,2.0668774,-58.531044,24.356684,0.09552002,-1.987854,-2.0,1.2011719,-4.763672,0.29589844,55.564583,40.49688,-111.50537,-5.691223,0.0,0.0,0.0,0.0,0.0,0.0,0.0,42.583828,-125.69754,8.259081,0.0,0.0,0.0,0.0,0.0,0.0,0.0,0.10080814,44.852318,3.7940686,
2.203124934341759,94,0.24786377,-0.9675293,0.4312744,0.087890625,0.23046875,0.38183594,0.0,0.0,0.0,0.0,0.0,0.0,0.0,0.0,0.0,0.0,0.0,-0.20665088,0.085375756,-0.97495776,-0.8458252,-0.09075928,-0.33087158,-0.40039062,2.3769531,0.024414062,14.548194,-4.278315,1.7675431,-20.184649,-0.828125,-0.14379883,-0.2958374,0.14648438,0.2578125,-0.31933594,22.177734,-14.835939,-54.052505,-15.601609,-0.39770508,-0.37042236,0.7963257,0.5058594,0.024414062,0.045898438,15.845617,-2.5269852,-124.98314,-17.435638,0.0,0.0,0.0,0.0,0.0,0.0,0.0,-22.509935,-125.37256,-16.777245,0.0,0.0,0.0,0.0,0.0,0.0,0.0,0.20665088,-0.085375756,0.97495776,1.239502,0.22631836,-0.49639893,3.1367188,3.34375,0.91015625,13.234391,4.278315,-1.7675431,20.184649,-0.7139282,0.07928467,-0.5845337,-0.87109375,0.0234375,-0.4453125,52.499268,-2.7005744,-58.02658,26.17508,0.8841553,1.4885254,1.7560425,-0.6816406,-3.40625,1.9003906,54.280045,35.482334,-111.115204,-3.9715366,0.0,0.0,0.0,0.0,0.0,0.0,0.0,36.352432,-124.30125,11.050919,0.0,0.0,0.0,0.0,0.0,0.0,0.0,-0.14461553,44.837563,3.9570189,
2.226562433643267,95,0.10491943,-0.9257202,0.3661499,-0.048828125,0.40722656,0.7011719,0.0,0.0,0.0,0.0,0.0,0.0,0.0,0.0,0.0,0.0,0.0,-0.21399096,0.07478992,-0.97421014,-0.8195801,-0.05206299,-0.2298584,-0.7949219,2.4892578,-0.08105469,11.089973,-4.430277,1.5483831,-20.169172,-1.0921631,-0.10223389,-0.34375,-0.328125,0.22460938,-0.35839844,19.186884,-11.933397,-54.87782,-17.019032,-0.35766602,-0.30444336,0.8308716,0.16601562,-0.02734375,0.083984375,16.621609,0.8030472,-125.72569,-19.203514,0.0,0.0,0.0,0.0,0.0,0.0,0.0,-19.175152,-126.015236,-18.398125,0.0,0.0,0.0,0.0,0.0,0.0,0.0,0.21399096,-0.07478992,0.97421014,1.0731812,0.2555542,-0.5230713,1.5634766,3.171875,1.1777344,17.086369,4.430277,-1.5483831,20.169172,-0.41662598,0.4336548,-0.7783203,-0.6533203,-0.9316406,-1.4042969,55.71611,-6.9056606,-56.891823,27.77807,0.4161377,1.0697632,1.4944458,-0.41992188,-3.147461,3.4570312,51.840405,30.944052,-111.11251,-0.74824333,0.0,0.0,0.0,0.0,0.0,0.0,0.0,29.99537,-123.737656,14.746154,0.0,0.0,0.0,0.0,0.0,0.0,0.0,-0.35619962,44.8711,3.522987,
2.249999932944775,96,-0.074645996,-0.7715454,0.36035156,-0.16503906,0.3876953,0.58496094,0.0,0.0,0.0,0.0,0.0,0.0,0.0,0.0,0.0,0.0,0.0,-0.21728408,0.056516115,-0.9745946,-0.94866943,0.032104492,-0.18457031,-0.90722656,2.4892578,0.033203125,7.59608,-4.4984555,1.1700588,-20.17713,-0.8986206,0.0048828125,-0.20483398,-0.12207031,0.1640625,-0.30273438,16.445404,-9.170797,-55.615047,-18.516842,-0.3508911,-0.17480469,0.864563,-0.15527344,-0.11425781,0.103515625,17.502047,4.0272436,-126.36165,-20.868862,0.0,0.0,0.0,0.0,0.0,0.0,0.0,-15.938552,-126.530045,-19.883232,0.0,0.0,0.0,0.0,0.0,0.0,0.0,0.21728408,-0.056516115,0.9745946,0.956604,0.08123779,-0.56073,1.4140625,2.788086,1.0253906,20.934343,4.4984555,-1.1700588,20.17713,-0.3161621,0.30700684,-0.84594727,-0.65722656,-2.1748047,-2.3447266,57.372864,-10.755682,-55.309444,29.417645,0.30023193,0.83013916,1.335144,0.6015625,-3.4990234,4.754883,49.22443,25.97286,-111.7112,3.8098621,0.0,0.0,0.0,0.0,0.0,0.0,0.0,22.722742,-123.636284,19.547253,0.0,0.0,0.0,0.0,0.0,0.0,0.0,-0.671641,44.91604,2.754393,
2.273437432246283,97,-0.028137207,-0.64312744,0.3474121,-0.18359375,0.24121094,0.39648438,0.0,0.0,0.0,0.0,0.0,0.0,0.0,0.0,0.0,0.0,0.0,-0.21984097,0.043075487,-0.9748661,-0.8649292,-0.22381592,-0.30804443,-0.828125,2.2265625,0.21679688,4.257632,-4.5513887,0.8917962,-20.18275,-1.0019531,0.08496094,-0.15264893,-0.74121094,0.28710938,-0.5839844,13.766854,-6.6777935,-56.073685,-20.077917,-0.48754883,-0.33843994,0.838562,-0.25,-0.16796875,0.140625,16.862062,6.6364822,-126.77339,-22.696754,0.0,0.0,0.0,0.0,0.0,0.0,0.0,-13.341549,-126.91768,-21.863424,0.0,0.0,0.0,0.0,0.0,0.0,0.0,0.21984097,-0.043075487,0.9748661,0.7923584,0.045898438,-0.6756592,2.6875,2.290039,0.35742188,22.782837,4.5513887,-0.8917962,20.18275,-0.21905518,0.22979736,-0.7755127,-0.55078125,-3.1328125,-2.7451172,54.90833,-13.120269,-54.2608,29.492691,0.12750244,0.7085571,1.2493896,0.43554688,-3.3701172,4.890625,46.36261,20.204872,-114.12804,7.3506794,0.0,0.0,0.0,0.0,0.0,0.0,0.0,14.583549,-125.095146,23.118374,0.0,0.0,0.0,0.0,0.0,0.0,0.0,-0.7960237,44.953175,2.1658142,
2.296874931547791,98,-0.04034424,-0.6906738,0.3451538,-0.20214844,0.07421875,0.3408203,0.0,0.0,0.0,0.0,0.0,0.0,0.0,0.0,0.0,0.0,0.0,-0.22018155,0.033290885,-0.9751592,-0.7637329,-0.3949585,-0.43499756,-0.34179688,2.3378906,0.3408203,1.3614252,-4.5584397,0.6892245,-20.18882,-0.96710205,-0.10461426,-0.12884521,-0.9892578,0.25097656,-0.49121094,10.847073,-3.7715216,-56.304165,-21.043797,-0.4859619,-0.44586182,0.8484497,-0.11816406,-0.24023438,0.25195312,16.554836,9.685849,-126.99524,-23.696629,0.0,0.0,0.0,0.0,0.0,0.0,0.0,-10.302789,-127.114555,-23.168,0.0,0.0,0.0,0.0,0.0,0.0,0.0,0.22018155,-0.033290885,0.9751592,0.5079346,0.26062012,-0.62231445,3.2050781,2.2597656,-0.25585938,24.284765,4.5584397,-0.6892245,20.18882,-0.16186523,0.3829956,-0.8120117,-0.58691406,-3.9355469,-3.3466797,50.68767,-14.987612,-53.413,29.52982,-0.45617676,0.8464966,1.3532715,-0.07128906,-3.756836,5.0117188,43.576084,13.173403,-117.1133,11.25688,0.0,0.0,0.0,0.0,0.0,0.0,0.0,5.2180524,-126.76091,26.884167,0.0,0.0,0.0,0.0,0.0,0.0,0.0,-0.832433,44.971085,1.7232195,
2.3203124308492993,99,-0.09637451,-0.6845093,0.34838867,-0.14355469,-0.052734375,0.30566406,0.0,0.0,0.0,0.0,0.0,0.0,0.0,0.0,0.0,0.0,0.0,-0.21767822,0.025417276,-0.97582453,-0.99487305,-0.24725342,-0.3114624,-0.45507812,2.3388672,0.26757812,2.5912545,-4.5066137,0.52621645,-20.202593,-1.0082397,-0.18566895,-0.18249512,-0.609375,0.28515625,-0.47070312,8.518551,-0.8552191,-56.337276,-21.925722,-0.46679688,-0.28771973,0.8515625,-0.13769531,-0.4033203,0.34375,17.476469,13.372822,-126.89516,-24.30709,0.0,0.0,0.0,0.0,0.0,0.0,0.0,-6.6210136,-126.90632,-24.039219,0.0,0.0,0.0,0.0,0.0,0.0,0.0,0.21767822,-0.025417276,0.97582453,0.20410156,0.39178467,-0.38531494,2.546875,1.7558594,-0.6191406,26.586975,4.5066137,-0.52621645,20.202593,-0.1550293,0.49517822,-0.79364014,-0.6298828,-4.4716797,-3.8720703,47.22044,-17.32877,-52.249897,30.09163,-0.77856445,0.9833374,1.43219,-0.34960938,-4.048828,5.4716797,42.025253,6.087578,-119.13652,17.380966,0.0,0.0,0.0,0.0,0.0,0.0,0.0,-4.20339,-127.02688,32.62873,0.0,0.0,0.0,0.0,0.0,0.0,0.0,-0.8491978,44.97733,1.3609548,
2.3437499301508073,100,-0.07977295,-0.7996216,0.3086548,-0.0859375,-0.10546875,0.19238281,0.0,0.0,0.0,0.0,0.0,0.0,0.0,0.0,0.0,0.0,0.0,-0.21502504,0.019672927,-0.97649544,-0.95910645,-0.07775879,-0.32037354,-0.45117188,2.0019531,0.32128906,4.959067,-4.4516854,0.40729055,-20.216486,-1.0072632,0.12109375,-0.16040039,-0.625,0.36328125,-0.5263672,6.683251,1.279469,-56.233967,-23.17094,-0.4350586,-0.31378174,0.8310547,-0.21289062,-0.18261719,0.49414062,16.79298,15.762842,-126.69446,-25.855173,0.0,0.0,0.0,0.0,0.0,0.0,0.0,-4.233452,-126.6676,-25.93708,0.0,0.0,0.0,0.0,0.0,0.0,0.0,0.21502504,-0.019672927,0.97649544,0.27172852,0.4401245,-0.46697998,1.0683594,0.43945312,-0.40429688,27.512772,4.4516854,-0.40729055,20.216486,-0.19036865,0.47827148,-0.81640625,-0.9375,-4.6796875,-4.576172,42.085594,-18.31499,-51.662796,30.416069,-1.2661133,0.9398804,1.4265747,-0.9433594,-3.9482422,5.9941406,41.13168,-0.34106255,-121.05218,23.638239,0.0,0.0,0.0,0.0,0.0,0.0,0.0,-12.927744,-126.8351,38.09086,0.0,0.0,0.0,0.0,0.0,0.0,0.0,-0.84303224,44.982594,1.0918763,
2.3671874294523154,101,-0.07141113,-0.97021484,0.27069092,0.03125,-0.15625,0.099609375,0.0,0.0,0.0,0.0,0.0,0.0,0.0,0.0,0.0,0.0,0.0,-0.21173996,0.0148596475,-0.97745246,-0.86047363,-0.1361084,-0.33502197,-0.45214844,2.0771484,0.20996094,7.237306,-4.3836737,0.30764076,-20.236298,-0.99993896,0.057678223,-0.09277344,-0.84765625,0.4814453,-0.6767578,5.078136,3.2317114,-56.04462,-24.273539,-0.43310547,-0.3199463,0.8635254,-0.15625,-9.765625E-4,0.53125,16.097813,17.848396,-126.46689,-27.387106,0.0,0.0,0.0,0.0,0.0,0.0,0.0,-2.1455364,-126.4582,-27.72667,0.0,0.0,0.0,0.0,0.0,0.0,0.0,0.21173996,-0.0148596475,0.97745246,0.40625,0.42114258,-0.623291,-0.4140625,-0.34277344,0.2109375,27.298513,4.3836737,-0.30764076,20.236298,-0.33813477,0.453125,-0.767334,-0.7138672,-4.5625,-5.2822266,35.066082,-18.300743,-51.605244,30.399586,-1.8319702,1.0195312,1.4799805,-1.5234375,-4.1103516,6.0966797,40.350403,-7.0846825,-122.71178,29.838346,0.0,0.0,0.0,0.0,0.0,0.0,0.0,-21.75589,-126.115166,43.028564,0.0,0.0,0.0,0.0,0.0,0.0,0.0,-0.8502666,44.99412,0.86820805,
2.3906249287538235,102,-0.07537842,-0.9528198,0.24884033,-0.22070312,-0.34960938,0.1171875,0.0,0.0,0.0,0.0,0.0,0.0,0.0,0.0,0.0,0.0,0.0,-0.20725003,0.009944364,-0.9785228,-1.1098022,-0.2756958,-0.3192749,-0.33691406,1.8535156,0.2626953,9.947913,-4.290718,0.20587915,-20.258455,-1.0767212,-0.0119018555,-0.14648438,-0.4453125,0.63183594,-0.6738281,4.1100407,5.394513,-55.73909,-25.37201,-0.45874023,-0.22869873,0.14556885,-0.34472656,0.29101562,0.49609375,15.855669,20.641468,-126.031166,-28.630962,0.0,0.0,0.0,0.0,0.0,0.0,0.0,0.65200424,-126.13864,-29.170866,0.0,0.0,0.0,0.0,0.0,0.0,0.0,0.20725003,-0.009944364,0.9785228,0.3713379,0.41601562,-0.5235596,-0.85253906,-0.19628906,0.57421875,26.770908,4.290718,-0.20587915,20.258455,-0.8036499,0.5263672,-0.6862793,-0.26953125,-4.6376953,-5.4921875,26.248686,-18.297865,-51.58779,30.207497,-2.0,0.8374634,1.3717041,-2.3417969,-4.2285156,4.8916016,38.248913,-16.777079,-123.425644,35.032394,0.0,0.0,0.0,0.0,0.0,0.0,0.0,-32.999115,-124.186035,46.733738,0.0,0.0,0.0,0.0,0.0,0.0,0.0,-0.68753576,45.00327,0.60297084,
2.4140624280553316,103,0.02709961,-0.8390503,0.15734863,-0.80078125,-0.49609375,0.10839844,0.0,0.0,0.0,0.0,0.0,0.0,0.0,0.0,0.0,0.0,0.0,-0.19951192,0.006443765,-0.98009783,-1.1599731,-0.62280273,-0.35058594,-0.07519531,1.8535156,0.23925781,13.166242,-4.130514,0.13340592,-20.291065,-1.4459839,-0.38702393,0.08459473,-1.109375,0.9121094,-1.5390625,4.5102363,7.521201,-55.31806,-26.558495,0.5654297,-0.72717285,0.68151855,-0.0859375,0.5595703,2.131836,16.08961,24.685009,-125.17425,-29.999022,0.0,0.0,0.0,0.0,0.0,0.0,0.0,4.743141,-125.62311,-31.102375,0.0,0.0,0.0,0.0,0.0,0.0,0.0,0.19951192,-0.006443765,0.98009783,0.44030762,0.05834961,-0.48223877,-0.22558594,-0.13085938,0.28710938,25.603968,4.130514,-0.13340592,20.291065,-1.0518799,0.024414062,-0.5583496,0.63671875,-3.9296875,-5.0302734,17.281021,-18.36057,-51.64026,29.827637,-2.0,0.13970947,0.8508301,-1.4863281,-4.2373047,2.578125,36.6342,-27.05365,-122.47121,39.513725,0.0,0.0,0.0,0.0,0.0,0.0,0.0,-43.9218,-120.850334,50.154945,0.0,0.0,0.0,0.0,0.0,0.0,0.0,-0.063015595,45.00876,0.30874288,
2.4374999273568396,104,-0.12915039,-0.87457275,0.16021729,-0.89746094,-0.5546875,0.14550781,0.0,0.0,0.0,0.0,0.0,0.0,0.0,0.0,0.0,0.0,0.0,-0.18693998,9.968178E-4,-0.98252904,-1.1539917,-0.0146484375,-0.105285645,-0.37402344,1.5947266,-0.46679688,16.566135,-3.870237,0.020637225,-20.341396,-1.1559448,0.44317627,0.12792969,-1.1533203,1.0615234,-0.6503906,3.9662015,9.879808,-54.88516,-27.174854,-0.46557617,-0.57751465,0.9111328,-0.17871094,0.8828125,1.6308594,15.871975,28.548018,-124.31258,-31.402704,0.0,0.0,0.0,0.0,0.0,0.0,0.0,8.627588,-125.210976,-32.88423,0.0,0.0,0.0,0.0,0.0,0.0,0.0,0.18693998,-9.968178E-4,0.98252904,1.2952881,-0.5699463,0.23138428,0.2919922,2.2802734,-0.18164062,25.962978,3.870237,-0.020637225,20.341396,-1.0593262,-0.19659424,-0.5438843,1.2509766,-2.9560547,-3.5976562,11.706358,-19.626818,-50.850937,30.998138,-2.0,-0.25708008,0.6038208,-0.84472656,-3.34375,0.5332031,36.322433,-36.363636,-119.53458,44.70757,0.0,0.0,0.0,0.0,0.0,0.0,0.0,-53.158722,-115.98892,54.98755,0.0,0.0,0.0,0.0,0.0,0.0,0.0,0.77350175,45.000233,-0.10151492,
2.4609374266583477,105,-0.24017334,-1.1314697,0.21459961,-0.70410156,-0.49316406,0.091796875,0.0,0.0,0.0,0.0,0.0,0.0,0.0,0.0,0.0,0.0,0.0,-0.17386469,-0.009558642,-0.9848631,-1.2258301,0.27563477,-0.018371582,-1.4023438,1.3710938,-0.4140625,19.825903,-3.5995362,-0.19789353,-20.38972,-1.0820923,0.1862793,0.10235596,-0.69921875,1.4072266,-1.34375,4.225773,12.029606,-54.521656,-27.775621,-0.5310669,-0.45239258,0.9439697,-0.15722656,1.5341797,1.3359375,17.30053,33.598846,-123.06093,-32.6532,0.0,0.0,0.0,0.0,0.0,0.0,0.0,13.721172,-124.52783,-34.222744,0.0,0.0,0.0,0.0,0.0,0.0,0.0,0.17386469,0.009558642,0.9848631,1.826477,-0.4628296,1.6894531,0.9404297,0.5917969,-0.76953125,27.511671,3.5995362,0.19789353,20.38972,-1.0084229,0.123291016,-0.34417725,2.086914,-1.4863281,-1.2519531,10.002269,-21.808298,-49.32343,32.692833,-2.0,-0.9017334,0.18371582,1.0009766,-2.3896484,0.9638672,35.715134,-43.17005,-116.13158,48.84568,0.0,0.0,0.0,0.0,0.0,0.0,0.0,-59.65607,-111.20648,59.05278,0.0,0.0,0.0,0.0,0.0,0.0,0.0,1.5526922,44.973797,-0.710603,
2.4843749259598558,106,-0.09576416,-1.3088989,0.16143799,-0.49121094,-0.37402344,0.036132812,0.0,0.0,0.0,0.0,0.0,0.0,0.0,0.0,0.0,0.0,0.0,-0.16426176,-0.011313405,-0.98651624,-1.3428345,-0.19384766,-0.117004395,-2.4277344,0.95996094,-0.28710938,22.484446,-3.4007263,-0.23422259,-20.423944,-1.0883789,0.46875,-0.036010742,-0.041015625,1.7871094,-1.5839844,5.3645067,13.626102,-53.94205,-29.090614,-0.31121826,-0.21954346,0.9741211,0.16503906,2.475586,1.2460938,17.58688,38.442837,-121.29413,-34.978603,0.0,0.0,0.0,0.0,0.0,0.0,0.0,18.672386,-123.68249,-36.61264,0.0,0.0,0.0,0.0,0.0,0.0,0.0,0.16426176,0.011313405,0.98651624,1.2310791,-0.07110596,0.74017334,0.36816406,-0.103515625,-0.38378906,26.452753,3.4007263,0.23422259,20.423944,-0.77368164,0.61486816,-0.22125244,0.2607422,0.3671875,0.2890625,9.920576,-21.571064,-49.455166,32.970043,-2.0,-0.94348145,0.13763428,0.0029296875,-0.33203125,-1.0566406,38.152515,-42.492496,-116.5137,48.210377,0.0,0.0,0.0,0.0,0.0,0.0,0.0,-58.69999,-111.170555,58.648827,0.0,0.0,0.0,0.0,0.0,0.0,0.0,2.1144636,44.949226,-0.8675521,
2.507812425261364,107,-0.02355957,-1.6300659,0.7927246,-0.5888672,-0.15820312,0.29882812,0.0,0.0,0.0,0.0,0.0,0.0,0.0,0.0,0.0,0.0,0.0,-0.1569987,-0.01539387,-0.98775357,-1.3623657,-0.4328003,-0.23016357,-1.3691406,0.21191406,-0.123046875,24.236774,-3.2503595,-0.31870082,-20.449562,-1.2692261,0.5600586,0.007080078,0.48535156,2.149414,-1.9179688,7.507913,14.420436,-53.63763,-30.165775,-0.4100952,-0.4182129,1.102356,0.5058594,3.6357422,1.2304688,17.2344,43.272007,-119.24371,-37.209118,0.0,0.0,0.0,0.0,0.0,0.0,0.0,23.709751,-123.052505,-38.84645,0.0,0.0,0.0,0.0,0.0,0.0,0.0,0.1569987,0.01539387,0.98775357,1.7023315,0.51379395,0.23156738,0.026367188,1.3232422,-0.21679688,26.108852,3.2503595,0.31870082,20.449562,-1.0107422,0.21166992,0.082458496,-0.27929688,1.2060547,1.546875,13.98938,-21.828842,-49.231995,33.315582,-1.3857422,-1.2230835,0.035888672,1.75,6.0507812,-1.3857422,45.589596,-38.47785,-118.054756,46.20839,0.0,0.0,0.0,0.0,0.0,0.0,0.0,-54.247494,-114.14416,57.889206,0.0,0.0,0.0,0.0,0.0,0.0,0.0,2.5441754,44.926678,-1.1045544,
2.531249924562872,108,0.5631714,-1.9822388,0.018371582,-0.62890625,0.07519531,0.6767578,0.0,0.0,0.0,0.0,0.0,0.0,0.0,0.0,0.0,0.0,0.0,-0.15217766,-0.02971368,-0.98807764,-1.6181641,-0.5171509,-0.21374512,-0.5371094,-0.38671875,0.12109375,25.043509,-3.1505487,-0.6151653,-20.45627,-1.5231934,0.31591797,0.012939453,1.15625,2.3935547,-1.9521484,10.925876,14.367414,-53.90096,-30.641693,-0.57611084,-0.453125,1.0464478,1.2246094,5.3408203,1.5498047,16.321873,47.70713,-117.1895,-39.006912,0.0,0.0,0.0,0.0,0.0,0.0,0.0,28.616653,-122.98941,-40.377445,0.0,0.0,0.0,0.0,0.0,0.0,0.0,0.15217766,0.02971368,0.98807764,1.8276978,-0.75164795,1.999939,-4.661133,-0.32128906,1.1464844,30.069857,3.1505487,0.6151653,20.45627,-2.0,-0.6071167,-0.21765137,-0.4267578,2.0429688,3.6542969,24.336992,-24.72016,-46.47962,36.40982,-0.30462646,0.9647217,1.5525513,1.5195312,2.5566406,0.46289062,46.09008,-34.82026,-117.14619,45.860573,0.0,0.0,0.0,0.0,0.0,0.0,0.0,-50.994156,-115.44711,57.519993,0.0,0.0,0.0,0.0,0.0,0.0,0.0,2.7974567,44.885284,-1.7806468,
2.55468742386438,109,0.14385986,-1.4746704,0.18286133,0.028320312,0.43066406,0.5498047,0.0,0.0,0.0,0.0,0.0,0.0,0.0,0.0,0.0,0.0,0.0,-0.15706289,-0.04835482,-0.9865417,-1.7166138,-0.13598633,0.22485352,-0.48828125,-1.5058594,-0.20410156,24.321201,-3.2516875,-1.0010947,-20.424473,-1.6934204,0.8755493,0.17047119,0.7324219,2.59375,-2.553711,16.361319,12.945612,-54.689114,-30.673645,-0.6942749,-0.49829102,0.91064453,0.6933594,7.2871094,2.8789062,14.1350355,51.112175,-114.98251,-40.411324,0.0,0.0,0.0,0.0,0.0,0.0,0.0,33.05049,-123.46735,-41.754047,0.0,0.0,0.0,0.0,0.0,0.0,0.0,0.15706289,0.04835482,0.9865417,-0.8394165,1.0961914,-1.8711548,1.8369141,-0.56347656,0.19433594,25.881144,3.2516875,1.0010947,20.424473,-0.05633545,1.0655518,-1.0265503,0.5957031,2.2421875,1.7705078,24.814,-21.970232,-48.14555,34.502693,-0.62023926,0.51312256,0.8979492,1.765625,1.1894531,-3.6875,45.508503,-26.975574,-119.53377,42.501038,0.0,0.0,0.0,0.0,0.0,0.0,0.0,-42.811035,-118.77812,54.58557,0.0,0.0,0.0,0.0,0.0,0.0,0.0,2.6615665,44.85076,-2.6220722,
2.578124923165888,110,-0.5344238,-1.1914062,0.5991211,-0.08691406,0.13964844,-0.057617188,0.0,0.0,0.0,0.0,0.0,0.0,0.0,0.0,0.0,0.0,0.0,-0.16098934,-0.05358068,-0.9856296,-1.5901489,-0.01171875,0.9376831,-0.55371094,-2.4746094,-0.50878906,21.918894,-3.3329787,-1.1092862,-20.40559,-1.729126,0.99005127,0.29681396,-2.0683594,2.3574219,-3.5410156,23.968674,10.429186,-55.588223,-30.024647,-0.33483887,-0.8306885,0.66259766,0.49804688,9.3515625,5.4882812,12.480072,53.92222,-112.06616,-40.29322,0.0,0.0,0.0,0.0,0.0,0.0,0.0,37.954826,-123.86201,-42.735462,0.0,0.0,0.0,0.0,0.0,0.0,0.0,0.16098934,0.05358068,0.9856296,-0.2553711,-0.21264648,0.7305908,-5.3339844,-1.4755859,2.1464844,26.93886,3.3329787,1.1092862,20.40559,0.67596436,1.4518433,-0.95532227,-1.4853516,1.3994141,0.98535156,28.432043,-22.808975,-47.491463,34.688065,-0.4413452,1.2553711,1.7004395,0.24414062,-0.3955078,0.59472656,47.19361,-24.582521,-119.06652,42.405563,0.0,0.0,0.0,0.0,0.0,0.0,0.0,-40.171997,-118.15696,54.8907,0.0,0.0,0.0,0.0,0.0,0.0,0.0,2.561835,44.84188,-2.8561304,
