TOTAL_TIME,0m7s
TOTAL_FRAMES,285
SELECTED_FRAMES,285
NO_OF_JOINTS,12
FREQUENCY,42.666668
DESCRIPTION,Capture 13
TIME_STAMP,Jul 8, 2010

Time,Frame,Pelvis_accelX_Pelvis,Pelvis_accelY_Pelvis,Pelvis_accelZ_Pelvis,Pelvis_gyroX_Pelvis,Pelvis_gyroY_Pelvis,Pelvis_gyroZ_Pelvis,Pelvis_Joint angle_Pelvis,Pelvis_Relative pos X_Pelvis,Pelvis_Relative pos Y_Pelvis,Pelvis_Relative pos Z_Pelvis,RightPelvis_accelX_RightPelvis,RightPelvis_accelY_RightPelvis,RightPelvis_accelZ_RightPelvis,RightPelvis_gyroX_RightPelvis,RightPelvis_gyroY_RightPelvis,RightPelvis_gyroZ_RightPelvis,RightPelvis_Joint angle_RightPelvis,RightPelvis_Relative pos X_RightPelvis,RightPelvis_Relative pos Y_RightPelvis,RightPelvis_Relative pos Z_RightPelvis,RightUpLeg_accelX_RightUpLeg,RightUpLeg_accelY_RightUpLeg,RightUpLeg_accelZ_RightUpLeg,RightUpLeg_gyroX_RightUpLeg,RightUpLeg_gyroY_RightUpLeg,RightUpLeg_gyroZ_RightUpLeg,RightUpLeg_Joint angle_RightUpLeg,RightUpLeg_Relative pos X_RightUpLeg,RightUpLeg_Relative pos Y_RightUpLeg,RightUpLeg_Relative pos Z_RightUpLeg,RightLeg_accelX_RightLeg,RightLeg_accelY_RightLeg,RightLeg_accelZ_RightLeg,RightLeg_gyroX_RightLeg,RightLeg_gyroY_RightLeg,RightLeg_gyroZ_RightLeg,RightLeg_Joint angle_RightLeg,RightLeg_Relative pos X_RightLeg,RightLeg_Relative pos Y_RightLeg,RightLeg_Relative pos Z_RightLeg,RightFoot_accelX_RightFoot,RightFoot_accelY_RightFoot,RightFoot_accelZ_RightFoot,RightFoot_gyroX_RightFoot,RightFoot_gyroY_RightFoot,RightFoot_gyroZ_RightFoot,RightFoot_Joint angle_RightFoot,RightFoot_Relative pos X_RightFoot,RightFoot_Relative pos Y_RightFoot,RightFoot_Relative pos Z_RightFoot,RightFootEnd_accelX_RightFootEnd,RightFootEnd_accelY_RightFootEnd,RightFootEnd_accelZ_RightFootEnd,RightFootEnd_gyroX_RightFootEnd,RightFootEnd_gyroY_RightFootEnd,RightFootEnd_gyroZ_RightFootEnd,RightFootEnd_Joint angle_RightFootEnd,RightFootEnd_Relative pos X_RightFootEnd,RightFootEnd_Relative pos Y_RightFootEnd,RightFootEnd_Relative pos Z_RightFootEnd,LeftPelvis_accelX_LeftPelvis,LeftPelvis_accelY_LeftPelvis,LeftPelvis_accelZ_LeftPelvis,LeftPelvis_gyroX_LeftPelvis,LeftPelvis_gyroY_LeftPelvis,LeftPelvis_gyroZ_LeftPelvis,LeftPelvis_Joint angle_LeftPelvis,LeftPelvis_Relative pos X_LeftPelvis,LeftPelvis_Relative pos Y_LeftPelvis,LeftPelvis_Relative pos Z_LeftPelvis,LeftUpLeg_accelX_LeftUpLeg,LeftUpLeg_accelY_LeftUpLeg,LeftUpLeg_accelZ_LeftUpLeg,LeftUpLeg_gyroX_LeftUpLeg,LeftUpLeg_gyroY_LeftUpLeg,LeftUpLeg_gyroZ_LeftUpLeg,LeftUpLeg_Joint angle_LeftUpLeg,LeftUpLeg_Relative pos X_LeftUpLeg,LeftUpLeg_Relative pos Y_LeftUpLeg,LeftUpLeg_Relative pos Z_LeftUpLeg,LeftLeg_accelX_LeftLeg,LeftLeg_accelY_LeftLeg,LeftLeg_accelZ_LeftLeg,LeftLeg_gyroX_LeftLeg,LeftLeg_gyroY_LeftLeg,LeftLeg_gyroZ_LeftLeg,LeftLeg_Joint angle_LeftLeg,LeftLeg_Relative pos X_LeftLeg,LeftLeg_Relative pos Y_LeftLeg,LeftLeg_Relative pos Z_LeftLeg,LeftFoot_accelX_LeftFoot,LeftFoot_accelY_LeftFoot,LeftFoot_accelZ_LeftFoot,LeftFoot_gyroX_LeftFoot,LeftFoot_gyroY_LeftFoot,LeftFoot_gyroZ_LeftFoot,LeftFoot_Joint angle_LeftFoot,LeftFoot_Relative pos X_LeftFoot,LeftFoot_Relative pos Y_LeftFoot,LeftFoot_Relative pos Z_LeftFoot,LeftFootEnd_accelX_LeftFootEnd,LeftFootEnd_accelY_LeftFootEnd,LeftFootEnd_accelZ_LeftFootEnd,LeftFootEnd_gyroX_LeftFootEnd,LeftFootEnd_gyroY_LeftFootEnd,LeftFootEnd_gyroZ_LeftFootEnd,LeftFootEnd_Joint angle_LeftFootEnd,LeftFootEnd_Relative pos X_LeftFootEnd,LeftFootEnd_Relative pos Y_LeftFootEnd,LeftFootEnd_Relative pos Z_LeftFootEnd,Spine_accelX_Spine,Spine_accelY_Spine,Spine_accelZ_Spine,Spine_gyroX_Spine,Spine_gyroY_Spine,Spine_gyroZ_Spine,Spine_Joint angle_Spine,Spine_Relative pos X_Spine,Spine_Relative pos Y_Spine,Spine_Relative pos Z_Spine,
0.0,0,0.0,0.0,0.0,0.0,0.0,0.0,0.0,0.0,0.0,0.0,0.0,0.0,0.0,0.0,0.0,0.0,0.0,0.0,0.0,0.0,0.0,0.0,0.0,0.0,0.0,0.0,NaN,0.0,0.0,0.0,0.0,0.0,0.0,0.0,0.0,0.0,NaN,0.0,0.0,0.0,0.0,0.0,0.0,0.0,0.0,0.0,NaN,0.0,0.0,0.0,0.0,0.0,0.0,0.0,0.0,0.0,0.0,0.0,0.0,0.0,0.0,0.0,0.0,0.0,0.0,0.0,0.0,0.0,0.0,0.0,0.0,0.0,0.0,0.0,0.0,0.0,NaN,0.0,0.0,0.0,0.0,0.0,0.0,0.0,0.0,0.0,NaN,0.0,0.0,0.0,0.0,0.0,0.0,0.0,0.0,0.0,NaN,0.0,0.0,0.0,0.0,0.0,0.0,0.0,0.0,0.0,0.0,0.0,0.0,0.0,0.0,0.0,0.0,0.0,0.0,0.0,0.0,0.0,0.0,0.0,
0.02343749930150809,1,0.0,0.0,0.0,0.0,0.0,0.0,0.0,0.0,0.0,0.0,0.0,0.0,0.0,0.0,0.0,0.0,0.0,0.0,0.0,0.0,0.0,0.0,0.0,0.0,0.0,0.0,NaN,0.0,0.0,0.0,0.0,0.0,0.0,0.0,0.0,0.0,NaN,0.0,0.0,0.0,0.0,0.0,0.0,0.0,0.0,0.0,NaN,0.0,0.0,0.0,0.0,0.0,0.0,0.0,0.0,0.0,0.0,0.0,0.0,0.0,0.0,0.0,0.0,0.0,0.0,0.0,0.0,0.0,0.0,0.0,0.0,0.0,0.0,0.0,0.0,0.0,NaN,0.0,0.0,0.0,0.0,0.0,0.0,0.0,0.0,0.0,NaN,0.0,0.0,0.0,0.0,0.0,0.0,0.0,0.0,0.0,NaN,0.0,0.0,0.0,0.0,0.0,0.0,0.0,0.0,0.0,0.0,0.0,0.0,0.0,0.0,0.0,0.0,0.0,0.0,0.0,0.0,0.0,0.0,0.0,
0.04687499860301618,2,0.0,0.0,0.0,0.0,0.0,0.0,0.0,0.0,0.0,0.0,0.0,0.0,0.0,0.0,0.0,0.0,0.0,0.0,0.0,0.0,0.0,0.0,0.0,0.0,0.0,0.0,NaN,0.0,0.0,0.0,0.0,0.0,0.0,0.0,0.0,0.0,NaN,0.0,0.0,0.0,0.0,0.0,0.0,0.0,0.0,0.0,NaN,0.0,0.0,0.0,0.0,0.0,0.0,0.0,0.0,0.0,0.0,0.0,0.0,0.0,0.0,0.0,0.0,0.0,0.0,0.0,0.0,0.0,0.0,0.0,0.0,0.0,0.0,0.0,0.0,0.0,NaN,0.0,0.0,0.0,0.0,0.0,0.0,0.0,0.0,0.0,NaN,0.0,0.0,0.0,0.0,0.0,0.0,0.0,0.0,0.0,NaN,0.0,0.0,0.0,0.0,0.0,0.0,0.0,0.0,0.0,0.0,0.0,0.0,0.0,0.0,0.0,0.0,0.0,0.0,0.0,0.0,0.0,0.0,0.0,
0.07031249790452426,3,-0.008361816,-0.9767456,0.3140869,-0.0087890625,-0.0078125,0.021484375,0.0,0.0,0.0,0.0,0.0,0.0,0.0,0.0,0.0,0.0,0.0,-0.37050137,0.008687332,0.9289317,-0.8600464,-0.09906006,-0.4675293,-0.017578125,0.04296875,0.040039062,3.610373,-7.6705265,0.1798547,19.231768,-0.94659424,0.016418457,-0.2010498,-0.015625,0.045898438,0.016601562,1.560974,-9.931984,-56.780148,18.666018,-0.39160156,-0.368042,0.86932373,0.015625,-0.0078125,0.0107421875,13.238434,-12.61882,-128.73448,20.347448,0.0,0.0,0.0,0.0,0.0,0.0,0.0,0.7640972,-127.74018,35.16965,0.0,0.0,0.0,0.0,0.0,0.0,0.0,0.37050137,-0.008687332,-0.9289317,0.87908936,0.10369873,-0.44458008,-0.033203125,0.043945312,0.017578125,3.9542847,7.6705265,-0.1798547,-19.231768,-0.9182739,0.07006836,-0.31591797,-0.0390625,0.041992188,0.009765625,1.6742114,4.874077,-57.112274,-19.316877,-0.47381592,0.6483154,1.2116699,-0.020507812,0.01953125,0.02734375,19.939383,2.8115182,-129.07191,-20.879004,0.0,0.0,0.0,0.0,0.0,0.0,0.0,22.273224,-129.39513,-16.259802,0.0,0.0,0.0,0.0,0.0,0.0,0.0,-0.7914363,44.992886,-0.7364334,
0.09374999720603236,4,-0.0234375,-0.99139404,0.30194092,-0.028320312,0.047851562,9.765625E-4,0.0,0.0,0.0,0.0,0.0,0.0,0.0,0.0,0.0,0.0,0.0,-0.37007672,0.008209253,0.9291591,-0.8741455,-0.09802246,-0.458313,-0.018554688,0.080078125,0.040039062,3.6906147,-7.661734,0.169957,19.236473,-0.9801636,0.027832031,-0.20007324,-0.016601562,0.0068359375,0.016601562,1.4892462,-9.987733,-56.789814,18.69879,-0.40734863,-0.3428955,0.8352661,-0.00390625,0.0107421875,0.0107421875,13.06435,-12.599025,-128.74194,20.370684,0.0,0.0,0.0,0.0,0.0,0.0,0.0,0.7970047,-127.76397,35.180676,0.0,0.0,0.0,0.0,0.0,0.0,0.0,0.37007672,-0.008209253,-0.9291591,0.8731079,0.12609863,-0.43933105,0.0048828125,0.005859375,0.017578125,4.009562,7.661734,-0.169957,-19.236473,-0.9232178,0.08502197,-0.33355713,-0.018554688,0.022460938,0.009765625,1.6282268,4.8531528,-57.10296,-19.348005,-0.48205566,0.65911865,1.2019653,-0.020507812,9.765625E-4,0.02734375,19.87935,2.7324803,-129.06458,-20.896507,0.0,0.0,0.0,0.0,0.0,0.0,0.0,22.194187,-129.38779,-16.277306,0.0,0.0,0.0,0.0,0.0,0.0,0.0,-0.8241473,44.99472,-0.725786,
0.11718749650754046,5,-0.0014648438,-1.0025024,0.3180542,-0.047851562,0.047851562,-0.037109375,0.0,0.0,0.0,0.0,0.0,0.0,0.0,0.0,0.0,0.0,0.0,-0.36888552,0.008570874,0.9296155,-0.866272,-0.10284424,-0.42181396,-0.017578125,0.024414062,0.021484375,3.62369,-7.637074,0.17744365,19.24592,-0.9938965,0.01751709,-0.17755127,-0.0546875,0.0078125,0.03515625,1.4866159,-9.888514,-56.783787,18.70103,-0.41137695,-0.3468628,0.84716797,-0.00390625,0.0107421875,0.047851562,12.856286,-12.422199,-128.73354,20.35738,0.0,0.0,0.0,0.0,0.0,0.0,0.0,0.9963894,-127.78961,35.150272,0.0,0.0,0.0,0.0,0.0,0.0,0.0,0.36888552,-0.008570874,-0.9296155,0.8881836,0.1083374,-0.42266846,0.0234375,-0.0126953125,0.017578125,3.9750788,7.637074,-0.17744365,-19.24592,-0.9413452,0.07312012,-0.29821777,-0.037109375,0.00390625,0.028320312,1.570473,4.8727207,-57.112083,-19.403437,-0.46362305,0.64349365,1.1906128,-0.020507812,9.765625E-4,0.02734375,19.858562,2.756443,-129.07474,-20.948418,0.0,0.0,0.0,0.0,0.0,0.0,0.0,22.21815,-129.39795,-16.329216,0.0,0.0,0.0,0.0,0.0,0.0,0.0,-0.81720054,44.994045,-0.7391138,
0.14062499580904855,6,-0.005432129,-0.986084,0.2972412,0.0107421875,0.030273438,0.001953125,0.0,0.0,0.0,0.0,0.0,0.0,0.0,0.0,0.0,0.0,0.0,-0.36818862,0.008226767,0.92989194,-0.8654175,-0.080200195,-0.42358398,0.01953125,0.061523438,0.040039062,3.6355577,-7.6226463,0.17031959,19.251644,-0.96917725,0.034606934,-0.15179443,-0.0546875,0.0078125,0.03515625,1.4029084,-9.883935,-56.787952,18.748173,-0.39440918,-0.35101318,0.8330078,-0.00390625,-0.0078125,0.029296875,12.720469,-12.319824,-128.74506,20.377636,0.0,0.0,0.0,0.0,0.0,0.0,0.0,1.1051826,-127.81726,35.170303,0.0,0.0,0.0,0.0,0.0,0.0,0.0,0.36818862,-0.008226767,-0.92989194,0.9013672,0.10235596,-0.4267578,-0.051757812,0.0048828125,-9.765625E-4,3.9664483,7.6226463,-0.17031959,-19.251644,-0.939209,0.08984375,-0.30993652,9.765625E-4,0.00390625,0.028320312,1.5106428,4.8972893,-57.10727,-19.43414,-0.47473145,0.6357422,1.1867676,-0.0390625,0.038085938,0.028320312,19.85642,2.7792408,-129.073,-20.945295,0.0,0.0,0.0,0.0,0.0,0.0,0.0,22.240948,-129.39621,-16.326094,0.0,0.0,0.0,0.0,0.0,0.0,0.0,-0.8379407,44.993694,-0.72984064,
0.16406249511055665,7,-0.011413574,-0.98187256,0.31799316,-0.028320312,0.028320312,0.040039062,0.0,0.0,0.0,0.0,0.0,0.0,0.0,0.0,0.0,0.0,0.0,-0.36785823,0.007820935,0.93004584,-0.85723877,-0.090148926,-0.4437256,-0.017578125,0.024414062,0.021484375,3.5612297,-7.6158075,0.1619176,19.254833,-0.9686279,0.04345703,-0.19311523,-0.053710938,0.045898438,0.0546875,1.3423176,-9.847426,-56.80139,18.822964,-0.4095459,-0.35864258,0.8361206,-0.00390625,0.046875,-0.0078125,12.544041,-12.216057,-128.76111,20.473415,0.0,0.0,0.0,0.0,0.0,0.0,0.0,1.2256069,-127.84809,35.25321,0.0,0.0,0.0,0.0,0.0,0.0,0.0,0.36785823,-0.007820935,-0.93004584,0.89227295,0.101623535,-0.4416504,-0.07128906,0.024414062,0.037109375,3.9189663,7.6158075,-0.1619176,-19.254833,-0.9482422,0.0947876,-0.3040161,0.020507812,0.022460938,0.046875,1.4491541,4.9250946,-57.098866,-19.44516,-0.45861816,0.65509033,1.199585,-0.020507812,0.038085938,0.02734375,19.846897,2.807782,-129.06703,-20.897556,0.0,0.0,0.0,0.0,0.0,0.0,0.0,22.269487,-129.39024,-16.278355,0.0,0.0,0.0,0.0,0.0,0.0,0.0,-0.8312621,44.995007,-0.7071583,
0.18749999441206475,8,-0.035461426,-0.98535156,0.32556152,0.0107421875,0.048828125,0.001953125,0.0,0.0,0.0,0.0,0.0,0.0,0.0,0.0,0.0,0.0,0.0,-0.36652198,0.007513712,0.9305146,-0.8740845,-0.10296631,-0.45343018,-0.055664062,0.061523438,0.022460938,3.5277548,-7.588142,0.15555714,19.264538,-0.9801636,-0.010681152,-0.17370605,-0.03515625,0.026367188,0.0546875,1.352484,-9.814905,-56.80139,18.824541,-0.39971924,-0.37670898,0.86346436,-0.00390625,0.046875,-0.0078125,12.418082,-12.110373,-128.76096,20.491344,0.0,0.0,0.0,0.0,0.0,0.0,0.0,1.3416462,-127.86432,35.260094,0.0,0.0,0.0,0.0,0.0,0.0,0.0,0.36652198,-0.007513712,-0.9305146,0.8740845,0.105773926,-0.45251465,-0.07128906,0.04296875,0.037109375,3.8973703,7.588142,-0.15555714,-19.264538,-0.93011475,0.10144043,-0.30889893,-0.038085938,0.022460938,-0.0087890625,1.3939526,4.8937297,-57.097866,-19.473494,-0.48309326,0.66400146,1.203064,-0.020507812,0.01953125,0.02734375,19.768581,2.7355664,-129.0639,-20.886745,0.0,0.0,0.0,0.0,0.0,0.0,0.0,22.197273,-129.38712,-16.267544,0.0,0.0,0.0,0.0,0.0,0.0,0.0,-0.8133335,44.993134,-0.6836755,
0.21093749371357284,9,-0.025390625,-0.9753418,0.32574463,0.0107421875,0.01171875,0.040039062,0.0,0.0,0.0,0.0,0.0,0.0,0.0,0.0,0.0,0.0,0.0,-0.36613572,0.0068653254,0.93071026,-0.84503174,-0.11480713,-0.4362793,-0.055664062,0.061523438,0.022460938,3.5398333,-7.580146,0.14213353,19.268589,-0.9536743,0.034729004,-0.16748047,-0.07324219,0.045898438,0.09277344,1.4105595,-9.802819,-56.818844,18.793776,-0.42132568,-0.3388672,0.8602295,-0.041015625,0.0107421875,0.047851562,12.143626,-11.99303,-128.7888,20.507416,0.0,0.0,0.0,0.0,0.0,0.0,0.0,1.4892359,-127.92034,35.248356,0.0,0.0,0.0,0.0,0.0,0.0,0.0,0.36613572,-0.0068653254,-0.93071026,0.8952637,0.08319092,-0.45281982,-0.033203125,0.005859375,0.017578125,3.842571,7.580146,-0.14213353,-19.268589,-0.94122314,0.09387207,-0.31677246,-9.765625E-4,0.061523438,-0.02734375,1.4192728,4.934296,-57.08627,-19.422293,-0.47772217,0.7504883,1.2613525,-0.47070312,-0.5,0.31933594,19.620386,2.7343678,-129.0487,-20.81895,0.0,0.0,0.0,0.0,0.0,0.0,0.0,22.184437,-129.2034,-16.141512,0.0,0.0,0.0,0.0,0.0,0.0,0.0,-0.8266053,44.994904,-0.65708363,
0.23437499301508094,10,-0.017456055,-0.9981079,0.29901123,-0.0087890625,0.029296875,0.040039062,0.0,0.0,0.0,0.0,0.0,0.0,0.0,0.0,0.0,0.0,0.0,-0.3660631,0.006209552,0.93076366,-0.86517334,-0.103881836,-0.4328003,-0.037109375,0.061523438,0.041015625,3.4694977,-7.578641,0.12855698,19.269693,-0.961853,0.034851074,-0.1675415,-0.03515625,0.026367188,0.0546875,1.3996966,-9.710591,-56.834568,18.791134,-0.4031372,-0.3312378,0.84020996,-0.09863281,0.12109375,0.123046875,11.887135,-11.757772,-128.79855,20.490797,0.0,0.0,0.0,0.0,0.0,0.0,0.0,1.7209129,-127.98653,35.23783,0.0,0.0,0.0,0.0,0.0,0.0,0.0,0.3660631,-0.006209552,-0.93076366,0.8709717,0.079711914,-0.4725952,0.0234375,0.025390625,0.017578125,3.8993294,7.578641,-0.12855698,-19.269693,-0.90979004,0.13256836,-0.31555176,-0.057617188,0.022460938,-0.02734375,1.3504568,4.8831415,-57.067326,-19.384354,-0.45080566,0.576355,1.1461182,-0.171875,-0.4189453,0.21972656,19.586733,2.569467,-129.03058,-20.653296,0.0,0.0,0.0,0.0,0.0,0.0,0.0,22.015287,-128.91933,-15.959013,0.0,0.0,0.0,0.0,0.0,0.0,0.0,-0.84715855,44.99571,-0.6333688,
0.25781249231658904,11,-0.011474609,-0.9923096,0.27337646,-0.047851562,0.08496094,-0.018554688,0.0,0.0,0.0,0.0,0.0,0.0,0.0,0.0,0.0,0.0,0.0,-0.36564368,0.0056633945,0.9309406,-0.8980713,-0.119628906,-0.4411621,0.021484375,-0.087890625,0.0390625,3.31458,-7.569958,0.117249824,19.273357,-0.9708252,0.0602417,-0.13598633,0.07910156,0.044921875,0.036132812,1.3751547,-9.523046,-56.853,18.804537,-0.4133911,-0.34576416,0.8372803,-0.15429688,0.21191406,0.030273438,11.6635275,-11.4544,-128.82343,20.473873,0.0,0.0,0.0,0.0,0.0,0.0,0.0,2.0273342,-128.12054,35.22247,0.0,0.0,0.0,0.0,0.0,0.0,0.0,0.36564368,-0.0056633945,-0.9309406,0.9203491,0.07373047,-0.38928223,0.17480469,0.06542969,-9.765625E-4,3.824591,7.569958,-0.117249824,-19.273357,-0.9304199,0.049560547,-0.30126953,-0.2109375,-0.015625,-0.043945312,1.3350085,4.9446,-57.061695,-19.269468,-0.38116455,0.6314697,1.1723022,-0.13378906,-0.15234375,0.06738281,19.689955,2.519905,-129.02046,-20.38505,0.0,0.0,0.0,0.0,0.0,0.0,0.0,21.954443,-128.75688,-15.650627,0.0,0.0,0.0,0.0,0.0,0.0,0.0,-0.8678694,44.995934,-0.614605,
0.2812499916180971,12,0.005554199,-0.9984131,0.31713867,-0.06640625,0.009765625,-0.017578125,0.0,0.0,0.0,0.0,0.0,0.0,0.0,0.0,0.0,0.0,0.0,-0.36517364,0.0054381746,0.93113196,-0.8791504,-0.10290527,-0.44537354,0.020507812,-0.05078125,0.0390625,3.2336166,-7.5602274,0.11258707,19.277319,-0.9570923,0.06866455,-0.16638184,0.0234375,0.083984375,0.017578125,1.4880631,-9.4089155,-56.86074,18.82471,-0.42871094,-0.36816406,0.8452759,-0.041015625,0.08300781,0.0107421875,11.198357,-11.220846,-128.82658,20.657347,0.0,0.0,0.0,0.0,0.0,0.0,0.0,2.300148,-128.21773,35.374245,0.0,0.0,0.0,0.0,0.0,0.0,0.0,0.36517364,-0.0054381746,-0.93113196,0.91467285,0.14575195,-0.39556885,0.15625,0.12207031,-0.040039062,3.667303,7.5602274,-0.11258707,-19.277319,-0.9399414,-0.00970459,-0.3262329,-0.115234375,0.022460938,0.0107421875,1.4471272,5.109813,-57.06321,-19.2267,-0.39544678,0.64123535,1.1835327,-0.05859375,-0.038085938,0.06640625,20.10334,2.878985,-129.0304,-20.418978,0.0,0.0,0.0,0.0,0.0,0.0,0.0,22.311703,-128.74324,-15.674778,0.0,0.0,0.0,0.0,0.0,0.0,0.0,-0.88818955,44.99582,-0.6111256,
0.3046874909196052,13,-0.017456055,-0.9869995,0.32281494,-0.028320312,0.029296875,0.001953125,0.0,0.0,0.0,0.0,0.0,0.0,0.0,0.0,0.0,0.0,0.0,-0.36565867,0.005306999,0.93094885,-0.8673706,-0.1116333,-0.38916016,-0.017578125,-0.0126953125,0.040039062,3.137562,-7.570269,0.109871335,19.273527,-0.96520996,0.026672363,-0.15673828,0.08203125,0.12207031,-0.01953125,1.5540636,-9.291742,-56.866936,18.85163,-0.3988037,-0.37750244,0.8269043,-0.00390625,0.028320312,-0.0078125,11.122788,-11.154265,-128.83868,20.764025,0.0,0.0,0.0,0.0,0.0,0.0,0.0,2.3734007,-128.25821,35.47659,0.0,0.0,0.0,0.0,0.0,0.0,0.0,0.36565867,-0.005306999,-0.93094885,0.9057007,0.16442871,-0.40930176,0.061523438,0.044921875,-9.765625E-4,3.542819,7.570269,-0.109871335,-19.273527,-0.97454834,0.06890869,-0.3248291,-0.018554688,0.022460938,0.046875,1.3994169,5.3006563,-57.068684,-19.308712,-0.41497803,0.6607666,1.1959839,-0.001953125,9.765625E-4,0.02734375,20.158936,3.1268244,-129.03867,-20.540245,0.0,0.0,0.0,0.0,0.0,0.0,0.0,22.559544,-128.75151,-15.796045,0.0,0.0,0.0,0.0,0.0,0.0,0.0,-0.9151014,44.995487,-0.615937,
0.32812499022111324,14,-0.011352539,-0.96972656,0.27838135,-0.06640625,0.009765625,-0.017578125,0.0,0.0,0.0,0.0,0.0,0.0,0.0,0.0,0.0,0.0,0.0,-0.36807543,0.0049350373,0.9299752,-0.8695679,-0.062438965,-0.42730713,-0.0546875,-0.0126953125,0.0029296875,3.1384354,-7.6203036,0.10217057,19.25337,-0.9520874,0.04748535,-0.20288086,0.10058594,0.10253906,-0.0390625,1.6032765,-9.265854,-56.88165,18.895487,-0.43151855,-0.3491211,0.8000488,0.015625,0.009765625,-0.0078125,11.08731,-11.170433,-128.84349,20.911327,0.0,0.0,0.0,0.0,0.0,0.0,0.0,2.3742247,-128.28293,35.60734,0.0,0.0,0.0,0.0,0.0,0.0,0.0,0.36807543,-0.0049350373,-0.9299752,0.8964844,0.1161499,-0.4475708,-0.07128906,0.0048828125,0.037109375,3.6195269,7.6203036,-0.10217057,-19.25337,-0.9209595,0.1329956,-0.3441162,-0.038085938,0.022460938,0.046875,1.2642395,5.4004784,-57.05978,-19.398598,-0.41186523,0.6588135,1.1968994,-0.020507812,0.038085938,0.02734375,20.113054,3.1704555,-129.0283,-20.583492,0.0,0.0,0.0,0.0,0.0,0.0,0.0,22.603174,-128.74115,-15.839293,0.0,0.0,0.0,0.0,0.0,0.0,0.0,-0.9904506,44.99273,-0.6307709,
0.3515624895226213,15,-0.01739502,-0.9769287,0.2852173,-0.0087890625,0.030273438,0.001953125,0.0,0.0,0.0,0.0,0.0,0.0,0.0,0.0,0.0,0.0,0.0,-0.36876336,0.004448301,0.9296939,-0.8552246,-0.07836914,-0.4584961,-0.09277344,0.061523438,0.00390625,3.14392,-7.6345453,0.0920936,19.247545,-0.9664917,0.033203125,-0.22558594,0.080078125,0.08300781,0.017578125,1.62112,-9.271423,-56.890514,18.955597,-0.4064331,-0.34887695,0.8450928,0.052734375,-0.06347656,-0.0087890625,11.106596,-11.283752,-128.84373,21.034407,0.0,0.0,0.0,0.0,0.0,0.0,0.0,2.2760372,-128.29892,35.71746,0.0,0.0,0.0,0.0,0.0,0.0,0.0,0.36876336,-0.004448301,-0.9296939,0.86816406,0.12249756,-0.472229,-0.20410156,0.0029296875,0.055664062,3.745752,7.6345453,-0.0920936,-19.247545,-0.9008179,0.11462402,-0.2930298,0.001953125,-0.015625,0.02734375,1.1490992,5.357156,-57.05247,-19.50698,-0.4607544,0.6668091,1.2026978,-0.05859375,0.038085938,0.0087890625,20.0065,3.0103168,-129.01842,-20.684473,0.0,0.0,0.0,0.0,0.0,0.0,0.0,22.443035,-128.73126,-15.940273,0.0,0.0,0.0,0.0,0.0,0.0,0.0,-1.0252271,44.9916,-0.62192774,
0.3749999888241294,16,-0.009521484,-1.0061035,0.3050537,-0.0087890625,0.029296875,0.040039062,0.0,0.0,0.0,0.0,0.0,0.0,0.0,0.0,0.0,0.0,0.0,-0.3694556,0.003723259,0.92949843,-0.8527832,-0.1375122,-0.45422363,-0.12988281,-0.049804688,0.00390625,3.1509483,-7.648878,0.077082984,19.2435,-0.9321289,0.027893066,-0.18811035,0.04296875,0.10253906,0.037109375,1.6858598,-9.291465,-56.90833,18.953133,-0.40545654,-0.3538208,0.83807373,0.09082031,-0.06347656,-0.02734375,11.074196,-11.431429,-128.86092,21.071793,0.0,0.0,0.0,0.0,0.0,0.0,0.0,2.1506672,-128.32086,35.734886,0.0,0.0,0.0,0.0,0.0,0.0,0.0,0.3694556,-0.003723259,-0.92949843,0.87402344,0.07104492,-0.49163818,-0.20410156,-0.07324219,0.037109375,3.8621914,7.648878,-0.077082984,-19.2435,-0.9320679,0.10638428,-0.31176758,0.0,0.022460938,-0.0087890625,1.0466107,5.2626886,-57.03365,-19.52562,-0.48321533,0.680603,1.2061768,-0.020507812,0.057617188,-0.0107421875,19.905838,2.816894,-128.99977,-20.614042,0.0,0.0,0.0,0.0,0.0,0.0,0.0,22.249613,-128.71262,-15.869843,0.0,0.0,0.0,0.0,0.0,0.0,0.0,-1.0376858,44.994904,-0.59269226,
0.39843748812563745,17,0.0025634766,-0.9918823,0.29534912,0.048828125,0.10546875,0.001953125,0.0,0.0,0.0,0.0,0.0,0.0,0.0,0.0,0.0,0.0,0.0,-0.3698644,0.0033113807,0.9292406,-0.8118286,-0.11102295,-0.48260498,-0.13085938,0.024414062,-0.032226562,3.330725,-7.6573415,0.06855583,19.238163,-0.95526123,-0.009338379,-0.203125,-0.0146484375,0.06542969,-0.020507812,1.7248765,-9.445939,-56.909393,18.92637,-0.418396,-0.34265137,0.8295288,0.07128906,-0.0625,0.028320312,11.093612,-11.753103,-128.85718,21.079369,0.0,0.0,0.0,0.0,0.0,0.0,0.0,1.8423538,-128.31538,35.73093,0.0,0.0,0.0,0.0,0.0,0.0,0.0,0.3698644,-0.0033113807,-0.9292406,0.8890381,0.042541504,-0.46905518,-0.20410156,-0.07324219,0.07519531,3.9349732,7.6573415,-0.06855583,-19.238163,-0.9182129,0.07775879,-0.3031006,-0.076171875,0.00390625,-0.045898438,1.0387285,5.2256317,-57.021484,-19.49511,-0.42626953,0.67248535,1.203186,-0.040039062,-0.037109375,0.028320312,19.859818,2.7332537,-128.98029,-20.547043,0.0,0.0,0.0,0.0,0.0,0.0,0.0,22.165972,-128.69313,-15.802843,0.0,0.0,0.0,0.0,0.0,0.0,0.0,-1.0681373,44.990234,-0.58547366,
0.4218749874271455,18,0.010375977,-1.0396118,0.30914307,0.068359375,0.10644531,-0.016601562,0.0,0.0,0.0,0.0,0.0,0.0,0.0,0.0,0.0,0.0,0.0,-0.36953676,0.0039623138,0.9294295,-0.8348999,-0.10412598,-0.4840088,-0.09277344,0.061523438,0.00390625,3.4701183,-7.6505575,0.08203218,19.242071,-0.97247314,-0.045166016,-0.19647217,-0.072265625,0.06542969,0.0546875,1.6841177,-9.5636215,-56.89358,18.920763,-0.4024048,-0.34991455,0.8331299,0.052734375,-0.026367188,0.028320312,11.148411,-11.994497,-128.83624,21.018276,0.0,0.0,0.0,0.0,0.0,0.0,0.0,1.6090193,-128.2971,35.66443,0.0,0.0,0.0,0.0,0.0,0.0,0.0,0.36953676,-0.0039623138,-0.9294295,0.9024658,0.101501465,-0.44073486,-0.0146484375,0.043945312,0.017578125,3.939151,7.6505575,-0.08203218,-19.242071,-0.9182739,0.06512451,-0.31103516,-0.076171875,0.00390625,-0.0087890625,1.0458626,5.221599,-57.034412,-19.466291,-0.44250488,0.6744995,1.208435,-0.057617188,0.0,0.046875,19.99191,2.8159854,-128.99457,-20.500566,0.0,0.0,0.0,0.0,0.0,0.0,0.0,22.248636,-128.70706,-15.75354,0.0,0.0,0.0,0.0,0.0,0.0,0.0,-1.0719635,44.992264,-0.61801726,
0.4453124867286536,19,-0.005554199,-1.0236206,0.29711914,0.068359375,0.06933594,0.0029296875,0.0,0.0,0.0,0.0,0.0,0.0,0.0,0.0,0.0,0.0,0.0,-0.36833575,0.0044763675,0.92986834,-0.85302734,-0.099121094,-0.46966553,-0.055664062,0.061523438,0.00390625,3.4735584,-7.625692,0.092674695,19.251158,-0.96258545,0.020263672,-0.23059082,-0.053710938,0.045898438,0.036132812,1.675263,-9.578174,-56.878517,18.951557,-0.4133911,-0.34680176,0.84814453,0.034179688,-0.026367188,0.029296875,11.265403,-12.147566,-128.82689,21.025583,0.0,0.0,0.0,0.0,0.0,0.0,0.0,1.4647217,-128.29263,35.66227,0.0,0.0,0.0,0.0,0.0,0.0,0.0,0.36833575,-0.0044763675,-0.92986834,0.90338135,0.093566895,-0.42388916,0.04296875,0.08300781,-9.765625E-4,3.775691,7.625692,-0.092674695,-19.251158,-0.92926025,0.085998535,-0.32965088,-0.115234375,0.022460938,0.0107421875,1.0711887,5.3288226,-57.046635,-19.450035,-0.45977783,0.67071533,1.2047119,-0.0390625,0.056640625,0.028320312,20.122477,2.8896263,-129.00955,-20.442554,0.0,0.0,0.0,0.0,0.0,0.0,0.0,22.322277,-128.72205,-15.695528,0.0,0.0,0.0,0.0,0.0,0.0,0.0,-1.0451578,44.991238,-0.63059074,
0.46874998603016166,20,0.009521484,-1.0019531,0.3043213,0.087890625,0.06933594,0.0029296875,0.0,0.0,0.0,0.0,0.0,0.0,0.0,0.0,0.0,0.0,0.0,-0.36738124,0.00498583,0.9303595,-0.8602295,-0.06561279,-0.4810791,-0.036132812,-0.0126953125,0.0029296875,3.5175834,-7.6059303,0.10322214,19.261326,-0.9830322,0.024475098,-0.2286377,-0.072265625,0.08496094,0.07421875,1.7059387,-9.684441,-56.864925,18.951694,-0.39141846,-0.35217285,0.850708,0.015625,-0.0078125,-0.0078125,11.301219,-12.360541,-128.80093,21.076649,0.0,0.0,0.0,0.0,0.0,0.0,0.0,1.2584333,-128.27382,35.705505,0.0,0.0,0.0,0.0,0.0,0.0,0.0,0.36738124,-0.00498583,-0.9303595,0.8619385,0.0914917,-0.477417,0.08105469,-0.01171875,-0.0390625,3.6253645,7.6059303,-0.10322214,-19.261326,-0.91412354,0.118774414,-0.39239502,-0.21191406,0.00390625,-0.08105469,1.1979564,5.3655906,-57.06087,-19.404198,-0.45251465,0.6560669,1.1955566,-0.020507812,0.038085938,0.06542969,20.177984,2.7139957,-129.01768,-20.385895,0.0,0.0,0.0,0.0,0.0,0.0,0.0,22.146646,-128.73018,-15.638868,0.0,0.0,0.0,0.0,0.0,0.0,0.0,-0.98036456,44.997593,-0.628271,
0.4921874853316697,21,-0.0015258789,-1.0187378,0.33184814,0.087890625,0.08886719,-0.016601562,0.0,0.0,0.0,0.0,0.0,0.0,0.0,0.0,0.0,0.0,0.0,-0.36621803,0.00567211,0.9307332,-0.8371582,-0.09313965,-0.4421997,-0.056640625,0.13671875,0.00390625,3.5435371,-7.581848,0.117430255,19.269064,-0.991272,0.020690918,-0.23162842,-0.07324219,0.026367188,0.07324219,1.6989266,-9.825584,-56.842575,18.928488,-0.40551758,-0.3546753,0.81933594,-0.022460938,0.028320312,0.0107421875,11.224633,-12.483221,-128.78206,21.090641,0.0,0.0,0.0,0.0,0.0,0.0,0.0,1.1484003,-128.26164,35.711517,0.0,0.0,0.0,0.0,0.0,0.0,0.0,0.36621803,-0.00567211,-0.9307332,0.8831787,0.08154297,-0.4746704,0.0625,0.0068359375,-0.078125,3.5682602,7.581848,-0.117430255,-19.269064,-0.9154053,0.049560547,-0.32196045,-0.23144531,0.00390625,-0.099609375,1.3014594,5.233267,-57.078194,-19.336514,-0.45355225,0.6589966,1.1965942,0.037109375,0.0390625,0.140625,20.290579,2.5131273,-129.02933,-20.393446,0.0,0.0,0.0,0.0,0.0,0.0,0.0,21.936153,-128.72682,-15.611549,0.0,0.0,0.0,0.0,0.0,0.0,0.0,-0.86734796,44.996704,-0.6154983,
0.5156249846331779,22,0.026428223,-1.0273438,0.30145264,0.16503906,0.14648438,-0.015625,0.0,0.0,0.0,0.0,0.0,0.0,0.0,0.0,0.0,0.0,0.0,-0.36302453,0.0063916957,0.9318974,-0.87402344,-0.11578369,-0.4486084,-0.15039062,0.17382812,0.005859375,3.5195866,-7.515734,0.13232791,19.293167,-0.9779053,0.037719727,-0.19805908,-0.111328125,0.0078125,0.0546875,1.6643636,-9.908892,-56.82405,18.973427,-0.43536377,-0.33758545,0.8535156,-0.060546875,0.029296875,0.029296875,11.042717,-12.498646,-128.7565,21.186237,0.0,0.0,0.0,0.0,0.0,0.0,0.0,1.1460638,-128.23814,35.79541,0.0,0.0,0.0,0.0,0.0,0.0,0.0,0.36302453,-0.0063916957,-0.9318974,0.8831787,0.12194824,-0.41455078,0.1953125,0.02734375,-0.13574219,3.4272556,7.515734,-0.13232791,-19.293167,-0.9383545,0.0703125,-0.31396484,-0.17285156,-0.015625,-0.10058594,1.3098526,5.149595,-57.084286,-19.374283,-0.44024658,0.6482544,1.1932983,0.055664062,0.07714844,0.140625,20.514668,2.567577,-129.04002,-20.510006,0.0,0.0,0.0,0.0,0.0,0.0,0.0,21.976898,-128.71463,-15.674974,0.0,0.0,0.0,0.0,0.0,0.0,0.0,-0.7409225,44.995796,-0.5972465,
0.5390624839346859,23,0.04663086,-0.9819946,0.34350586,0.14550781,0.18359375,-0.03515625,0.0,0.0,0.0,0.0,0.0,0.0,0.0,0.0,0.0,0.0,0.0,-0.35883024,0.008839728,0.93350303,-0.87841797,-0.080200195,-0.42333984,-0.16894531,0.13671875,0.024414062,3.3129256,-7.4288983,0.18300977,19.326406,-0.95581055,0.082458496,-0.15942383,-0.03515625,0.064453125,0.09277344,1.5902855,-9.876329,-56.774437,19.085213,-0.39709473,-0.32617188,0.8006592,-0.17285156,0.32128906,0.068359375,10.77448,-12.2816105,-128.7225,21.34334,0.0,0.0,0.0,0.0,0.0,0.0,0.0,1.3738441,-128.28026,35.942894,0.0,0.0,0.0,0.0,0.0,0.0,0.0,0.35883024,-0.008839728,-0.93350303,0.8952637,0.09472656,-0.43676758,0.21386719,0.046875,-0.13574219,3.2186885,7.4288983,-0.18300977,-19.326406,-0.958313,0.096069336,-0.3217163,-0.25,0.00390625,-0.08105469,1.2528893,5.0300226,-57.137707,-19.407434,-0.44036865,0.6647339,1.2043457,0.037109375,0.095703125,0.140625,20.578207,2.500043,-129.09375,-20.487986,0.0,0.0,0.0,0.0,0.0,0.0,0.0,21.888668,-128.76942,-15.569971,0.0,0.0,0.0,0.0,0.0,0.0,0.0,-0.5361291,44.998333,-0.6321912,
0.562499983236194,24,0.029663086,-0.9744873,0.31848145,0.12597656,0.21972656,-0.036132812,0.0,0.0,0.0,0.0,0.0,0.0,0.0,0.0,0.0,0.0,0.0,-0.35315084,0.010632093,0.93565595,-0.9423828,-0.1194458,-0.3945923,-0.12988281,-0.0126953125,0.0048828125,2.885273,-7.3113165,0.2201173,19.37098,-0.960083,0.080322266,-0.1486206,0.07910156,0.044921875,0.0546875,1.5023291,-9.57538,-56.73998,19.246264,-0.4375,-0.34838867,0.8604126,-0.13476562,0.32128906,0.030273438,10.310153,-11.738859,-128.6867,21.54786,0.0,0.0,0.0,0.0,0.0,0.0,0.0,1.9431219,-128.42238,36.130096,0.0,0.0,0.0,0.0,0.0,0.0,0.0,0.35315084,-0.010632093,-0.93565595,0.9038696,0.16088867,-0.46014404,0.21386719,0.08496094,-0.11621094,3.0320902,7.3113165,-0.2201173,-19.37098,-0.9415283,0.026794434,-0.26501465,-0.17285156,0.00390625,-0.08203125,0.9899203,4.916895,-57.176666,-19.565357,-0.43017578,0.65496826,1.1981201,0.0546875,0.07714844,0.064453125,20.795685,2.5381181,-129.14575,-20.473944,0.0,0.0,0.0,0.0,0.0,0.0,0.0,21.912762,-128.83572,-15.501411,0.0,0.0,0.0,0.0,0.0,0.0,0.0,-0.3531454,45.000313,-0.64463985,
0.5859374825377021,25,0.008728027,-0.9576416,0.34106445,0.087890625,0.14453125,-0.0546875,0.0,0.0,0.0,0.0,0.0,0.0,0.0,0.0,0.0,0.0,0.0,-0.34864357,0.011504864,0.93740195,-0.9517822,-0.11035156,-0.33874512,-0.072265625,-0.16210938,0.0029296875,2.3213618,-7.2180014,0.23818636,19.407125,-0.9737549,0.11340332,-0.14752197,0.15625,0.08300781,-0.01953125,1.5115494,-9.094184,-56.73466,19.36883,-0.44433594,-0.3352661,0.8280029,-0.041015625,0.13769531,0.0107421875,9.969459,-11.059999,-128.68982,21.75878,0.0,0.0,0.0,0.0,0.0,0.0,0.0,2.6553764,-128.53593,36.31046,0.0,0.0,0.0,0.0,0.0,0.0,0.0,0.34864357,-0.011504864,-0.93740195,0.90185547,0.21295166,-0.39593506,-0.0146484375,0.08203125,0.017578125,2.7118776,7.2180014,-0.23818636,-19.407125,-0.9346924,0.018371582,-0.30444336,-0.018554688,0.022460938,0.009765625,0.80137444,5.07238,-57.203716,-19.79689,-0.45465088,0.6687622,1.2036133,0.111328125,0.040039062,0.12109375,20.903774,2.9221773,-129.17989,-20.689981,0.0,0.0,0.0,0.0,0.0,0.0,0.0,22.287514,-128.85265,-15.678968,0.0,0.0,0.0,0.0,0.0,0.0,0.0,-0.21692598,45.004185,-0.6330229,
0.6093749818392101,26,0.010620117,-0.9833374,0.34106445,0.107421875,0.14550781,-0.07324219,0.0,0.0,0.0,0.0,0.0,0.0,0.0,0.0,0.0,0.0,0.0,-0.34532496,0.012258681,0.9386074,-0.90667725,-0.085876465,-0.37316895,-0.0703125,-0.27441406,0.020507812,1.6164052,-7.1492963,0.2537927,19.432085,-0.9169922,0.089416504,-0.13464355,0.15917969,0.140625,-0.11328125,1.5652307,-8.49133,-56.736534,19.60257,-0.42687988,-0.37597656,0.82836914,0.015625,0.08300781,0.0107421875,9.803172,-10.410557,-128.68204,22.08221,0.0,0.0,0.0,0.0,0.0,0.0,0.0,3.3158588,-128.57028,36.622234,0.0,0.0,0.0,0.0,0.0,0.0,0.0,0.34532496,-0.012258681,-0.9386074,0.8914795,0.14239502,-0.43432617,-0.2421875,0.021484375,0.07519531,2.6824124,7.1492963,-0.2537927,-19.432085,-0.9262085,0.1038208,-0.3531494,0.11621094,0.041992188,0.02734375,0.64315766,5.0298643,-57.21826,-20.056578,-0.42626953,0.6734619,1.2042236,0.09277344,0.021484375,0.08300781,20.69615,2.8995397,-129.1901,-21.035555,0.0,0.0,0.0,0.0,0.0,0.0,0.0,22.25948,-128.85663,-16.00766,0.0,0.0,0.0,0.0,0.0,0.0,0.0,-0.11010262,45.00411,-0.62828416,
0.6328124811407182,27,-4.272461E-4,-0.98553467,0.2814331,0.087890625,0.14550781,-0.09277344,0.0,0.0,0.0,0.0,0.0,0.0,0.0,0.0,0.0,0.0,0.0,-0.34427252,0.0122210365,0.9390045,-0.85028076,7.9345703E-4,-0.37939453,-0.087890625,-0.38671875,9.765625E-4,0.94273823,-7.1275086,0.25301334,19.440306,-0.98431396,0.090026855,-0.16638184,0.1796875,0.16015625,-0.15136719,1.7760803,-7.908594,-56.74534,20.010761,-0.41760254,-0.35845947,0.82836914,-0.022460938,0.15625,0.047851562,9.742856,-10.005321,-128.68982,22.471865,0.0,0.0,0.0,0.0,0.0,0.0,0.0,3.7325916,-128.60753,37.002045,0.0,0.0,0.0,0.0,0.0,0.0,0.0,0.34427252,-0.0122210365,-0.9390045,0.8526001,0.06726074,-0.4666748,-0.3173828,0.001953125,0.07519531,2.77904,7.1275086,-0.25301334,-19.440306,-0.9752197,0.1315918,-0.33624268,0.09765625,-0.015625,-0.0107421875,0.5712977,4.9375544,-57.21458,-20.152218,-0.42425537,0.6802368,1.2141724,0.09277344,0.040039062,0.10253906,20.352365,2.6682699,-129.18541,-21.126677,0.0,0.0,0.0,0.0,0.0,0.0,0.0,22.023527,-128.84464,-16.079151,0.0,0.0,0.0,0.0,0.0,0.0,0.0,-0.10346106,45.004612,-0.6236625,
0.6562499804422263,28,0.024597168,-0.9890747,0.277771,0.14648438,0.11035156,-0.091796875,0.0,0.0,0.0,0.0,0.0,0.0,0.0,0.0,0.0,0.0,0.0,-0.344012,0.014013391,0.9390616,-0.86224365,-0.024780273,-0.35461426,-0.08886719,-0.3486328,-0.036132812,0.31775185,-7.1221128,0.29012063,19.441486,-0.9550171,0.015014648,-0.17645264,0.14160156,0.1796875,-0.13183594,2.3357348,-7.355758,-56.704838,20.408348,-0.416687,-0.36535645,0.8283081,-0.0029296875,0.19238281,0.0107421875,9.661047,-9.721342,-128.6402,22.832487,0.0,0.0,0.0,0.0,0.0,0.0,0.0,4.0402765,-128.62332,37.34041,0.0,0.0,0.0,0.0,0.0,0.0,0.0,0.344012,-0.014013391,-0.9390616,0.86065674,0.046813965,-0.47979736,-0.203125,-0.07324219,-9.765625E-4,2.9071045,7.1221128,-0.29012063,-19.441486,-0.9255371,0.20153809,-0.35058594,0.020507812,-0.015625,-0.028320312,0.53449136,4.753545,-57.23965,-20.11899,-0.4475708,0.66967773,1.2045288,0.0546875,0.0390625,0.083984375,19.963873,2.241835,-129.19926,-20.990171,0.0,0.0,0.0,0.0,0.0,0.0,0.0,21.585268,-128.83699,-15.897871,0.0,0.0,0.0,0.0,0.0,0.0,0.0,-0.05528815,45.003136,-0.6918251,
0.6796874797437343,29,0.0015258789,-0.9918213,0.29333496,0.12695312,0.14648438,-0.09277344,0.0,0.0,0.0,0.0,0.0,0.0,0.0,0.0,0.0,0.0,0.0,-0.34285197,0.016297266,0.9394049,-0.8829346,-0.06323242,-0.36151123,-0.12695312,-0.29296875,-0.053710938,0.35165915,-7.098099,0.33740395,19.448595,-0.9691162,-0.043640137,-0.22302246,0.19921875,0.1796875,-0.15039062,3.147716,-6.8756,-56.656902,20.688625,-0.45593262,-0.3764038,0.8317871,-0.022460938,0.28320312,0.048828125,9.76515,-9.749063,-128.57648,23.019424,0.0,0.0,0.0,0.0,0.0,0.0,0.0,4.0627775,-128.67796,37.4787,0.0,0.0,0.0,0.0,0.0,0.0,0.0,0.34285197,-0.016297266,-0.9394049,0.86468506,0.06213379,-0.44781494,-0.06933594,-0.109375,-0.11621094,2.9936252,7.098099,-0.33740395,-19.448595,-0.9300537,0.101257324,-0.29412842,9.765625E-4,-0.015625,-0.083984375,0.5278605,4.54948,-57.2789,-20.030025,-0.46466064,0.649292,1.1966553,0.017578125,0.01953125,0.06542969,19.742563,1.9326358,-129.23898,-20.834072,0.0,0.0,0.0,0.0,0.0,0.0,0.0,21.268162,-128.86237,-15.711945,0.0,0.0,0.0,0.0,0.0,0.0,0.0,0.012070641,44.99993,-0.7762759,
0.7031249790452424,30,0.026611328,-0.98950195,0.291687,0.14550781,0.18359375,-0.07324219,0.0,0.0,0.0,0.0,0.0,0.0,0.0,0.0,0.0,0.0,0.0,-0.34156954,0.016953219,0.93989754,-0.923645,-0.12615967,-0.33355713,-0.0146484375,-0.27441406,-0.036132812,0.86840576,-7.0715494,0.35098422,19.458794,-0.93829346,0.02508545,-0.1930542,0.2919922,0.15917969,-0.09472656,3.894958,-6.3665423,-56.63549,20.784187,-0.41778564,-0.37524414,0.84106445,-0.0029296875,0.2109375,0.030273438,9.852153,-9.576069,-128.54187,23.061476,0.0,0.0,0.0,0.0,0.0,0.0,0.0,4.278122,-128.76666,37.48083,0.0,0.0,0.0,0.0,0.0,0.0,0.0,0.34156954,-0.016953219,-0.93989754,0.8829956,0.06866455,-0.44293213,0.043945312,-0.12695312,-0.11621094,3.100341,7.0715494,-0.35098422,-19.458794,-0.9273071,0.062194824,-0.2982788,0.07910156,-0.053710938,-0.12207031,0.5760729,4.34287,-57.282806,-20.065142,-0.39971924,0.6645508,1.2037354,0.055664062,0.05859375,0.10253906,19.63457,1.9549491,-129.25456,-20.964039,0.0,0.0,0.0,0.0,0.0,0.0,0.0,21.279737,-128.86816,-15.800703,0.0,0.0,0.0,0.0,0.0,0.0,0.0,0.07355033,45.0013,-0.78497314,
0.7265624783467505,31,0.0345459,-1.0064087,0.3303833,0.18457031,0.16601562,-0.053710938,0.0,0.0,0.0,0.0,0.0,0.0,0.0,0.0,0.0,0.0,0.0,-0.34007123,0.018153606,0.9403974,-0.92700195,-0.08959961,-0.3112793,-0.0146484375,-0.23730469,9.765625E-4,1.5828849,-7.0405293,0.37583593,19.469141,-0.97387695,0.048950195,-0.1665039,0.3125,0.19726562,-0.13183594,4.6237235,-5.804226,-56.599205,20.92703,-0.447937,-0.3765869,0.8306885,0.034179688,0.13671875,-0.0078125,10.029975,-9.258803,-128.49641,23.205374,0.0,0.0,0.0,0.0,0.0,0.0,0.0,4.5981016,-128.78781,37.62384,0.0,0.0,0.0,0.0,0.0,0.0,0.0,0.34007123,-0.018153606,-0.9403974,0.8781738,0.12219238,-0.4404297,0.119140625,-0.12597656,-0.115234375,3.2079656,7.0405293,-0.37583593,-19.469141,-0.93829346,0.085998535,-0.31585693,0.13867188,-0.091796875,-0.123046875,0.8423266,4.051517,-57.299942,-20.137836,-0.47039795,0.6065674,1.1685181,0.12988281,0.021484375,0.06347656,19.379028,1.8544784,-129.27151,-21.175413,0.0,0.0,0.0,0.0,0.0,0.0,0.0,21.168413,-128.87085,-15.978095,0.0,0.0,0.0,0.0,0.0,0.0,0.0,0.21400754,44.99985,-0.79129505,
0.7499999776482585,32,0.030456543,-1.020813,0.3154297,0.2626953,0.13183594,-0.07128906,0.0,0.0,0.0,0.0,0.0,0.0,0.0,0.0,0.0,0.0,0.0,-0.33745632,0.020137547,0.9413944,-0.8937988,-0.11236572,-0.3102417,-0.052734375,-0.23632812,-0.091796875,2.40916,-6.9863925,0.41690964,19.489782,-0.9484863,0.03289795,-0.17736816,0.29492188,0.21679688,-0.18847656,5.406859,-5.201716,-56.53695,21.068922,-0.4310913,-0.39361572,0.8312378,-0.00390625,0.1015625,0.0107421875,10.112096,-8.940135,-128.42642,23.2409,0.0,0.0,0.0,0.0,0.0,0.0,0.0,4.9260197,-128.76608,37.645954,0.0,0.0,0.0,0.0,0.0,0.0,0.0,0.33745632,-0.020137547,-0.9413944,0.8569946,0.15252686,-0.43902588,0.043945312,-0.14550781,-0.15429688,3.2711778,6.9863925,-0.41690964,-19.489782,-0.9211426,0.08459473,-0.29614258,0.15527344,-0.0146484375,-0.103515625,1.0761098,3.7864604,-57.32285,-20.34795,-0.45861816,0.6522217,1.1896362,0.14941406,0.059570312,0.12011719,19.021286,1.7437587,-129.29706,-21.552067,0.0,0.0,0.0,0.0,0.0,0.0,0.0,21.047977,-128.91818,-16.314756,0.0,0.0,0.0,0.0,0.0,0.0,0.0,0.43141472,45.002052,-0.8080007,
0.7734374769497666,33,0.026550293,-1.0032959,0.2906494,0.2626953,0.13183594,-0.051757812,0.0,0.0,0.0,0.0,0.0,0.0,0.0,0.0,0.0,0.0,0.0,-0.33783853,0.022090081,0.9412,-0.8339844,-0.040649414,-0.36828613,-0.10839844,-0.23632812,-0.072265625,3.0599825,-6.9943056,0.45733318,19.48576,-0.94781494,0.022033691,-0.27575684,0.3154297,0.21679688,-0.26367188,6.2307067,-4.82642,-56.484436,21.201601,-0.44909668,-0.3862915,0.8147583,-0.00390625,0.06542969,0.047851562,10.35408,-9.101761,-128.3433,23.310543,0.0,0.0,0.0,0.0,0.0,0.0,0.0,4.7734604,-128.71472,37.707146,0.0,0.0,0.0,0.0,0.0,0.0,0.0,0.33783853,-0.022090081,-0.9412,0.8730469,0.08935547,-0.47155762,0.044921875,-0.16503906,-0.19238281,3.4012215,6.9943056,-0.45733318,-19.48576,-0.9593506,0.08526611,-0.31878662,0.21386719,-0.034179688,-0.123046875,1.5239273,3.4907537,-57.34429,-20.47061,-0.427063,0.65301514,1.196106,0.16894531,0.11621094,0.15820312,18.56346,1.6901009,-129.31804,-21.819214,0.0,0.0,0.0,0.0,0.0,0.0,0.0,20.976755,-128.96295,-16.517601,0.0,0.0,0.0,0.0,0.0,0.0,0.0,0.6333277,44.998722,-0.828796,
0.7968749762512747,34,0.0637207,-0.9654541,0.2962036,0.2626953,0.15039062,-0.07128906,0.0,0.0,0.0,0.0,0.0,0.0,0.0,0.0,0.0,0.0,0.0,-0.33957037,0.025029495,0.9404248,-0.8496094,-0.05456543,-0.4177246,-0.053710938,-0.16210938,-0.072265625,3.4719234,-7.0301595,0.5181881,19.469707,-0.9750366,-0.061157227,-0.28607178,0.3154297,0.21679688,-0.26367188,7.1148567,-4.667638,-56.410442,21.251247,-0.44714355,-0.39135742,0.83148193,-0.041015625,0.046875,0.0107421875,11.001795,-9.790575,-128.21942,23.232748,0.0,0.0,0.0,0.0,0.0,0.0,0.0,4.088743,-128.58904,37.624317,0.0,0.0,0.0,0.0,0.0,0.0,0.0,0.33957037,-0.025029495,-0.9404248,0.869751,0.09094238,-0.40179443,0.044921875,-0.22167969,-0.19238281,3.5742364,7.0301595,-0.5181881,-19.469707,-0.95251465,0.0335083,-0.24133301,0.31054688,-0.053710938,-0.14257812,1.9863292,3.2900348,-57.39032,-20.626133,-0.43640137,0.67541504,1.2103271,0.24414062,0.09863281,0.1953125,18.031124,1.8214183,-129.37119,-22.094622,0.0,0.0,0.0,0.0,0.0,0.0,0.0,21.089779,-129.05267,-16.729927,0.0,0.0,0.0,0.0,0.0,0.0,0.0,0.8143943,44.991062,-0.90337837,
0.8203124755527827,35,0.08673096,-0.9656372,0.30932617,0.30078125,0.095703125,-0.06933594,0.0,0.0,0.0,0.0,0.0,0.0,0.0,0.0,0.0,0.0,0.0,-0.34117535,0.028747,0.93974245,-0.83551025,-0.06842041,-0.41912842,-0.018554688,0.0625,-0.052734375,3.4774454,-7.0633893,0.595152,19.455582,-0.94311523,-0.11773682,-0.31970215,0.35058594,0.15917969,-0.18847656,7.6490135,-4.8851085,-56.34148,21.155931,-0.46313477,-0.31121826,0.8137207,-0.041015625,0.06542969,0.0107421875,11.783382,-10.900177,-128.09134,22.924623,0.0,0.0,0.0,0.0,0.0,0.0,0.0,2.998767,-128.48059,37.295853,0.0,0.0,0.0,0.0,0.0,0.0,0.0,0.34117535,-0.028747,-0.93974245,0.89624023,0.13604736,-0.36669922,-0.03125,-0.2421875,-0.17285156,3.7674358,7.0633893,-0.595152,-19.455582,-0.9506836,0.003112793,-0.23168945,0.42578125,-0.0146484375,-0.125,2.5965366,3.1430888,-57.446217,-20.801012,-0.4446411,0.6842041,1.2164917,0.24316406,0.080078125,0.17578125,17.51281,2.2409656,-129.43388,-22.402546,0.0,0.0,0.0,0.0,0.0,0.0,0.0,21.497242,-129.13857,-16.987011,0.0,0.0,0.0,0.0,0.0,0.0,0.0,0.99158406,44.985313,-1.0161176,
0.8437499748542908,36,0.03869629,-0.958374,0.31170654,0.2626953,0.056640625,-0.0126953125,0.0,0.0,0.0,0.0,0.0,0.0,0.0,0.0,0.0,0.0,0.0,-0.34410122,0.032450072,0.93854743,-0.86639404,-0.12145996,-0.37042236,0.018554688,0.08105469,-0.072265625,3.6591249,-7.123963,0.67181706,19.430841,-0.9301758,0.0029296875,-0.23352051,0.3857422,0.10058594,-0.11425781,7.999516,-5.0097723,-56.27209,20.990005,-0.4477539,-0.36169434,0.8129883,-0.00390625,0.028320312,0.0107421875,12.486486,-11.542318,-127.97864,22.552526,0.0,0.0,0.0,0.0,0.0,0.0,0.0,2.348857,-128.38696,36.92921,0.0,0.0,0.0,0.0,0.0,0.0,0.0,0.34410122,-0.032450072,-0.93854743,0.93865967,0.10144043,-0.34729004,-0.18359375,-0.3203125,-0.115234375,3.842214,7.123963,-0.67181706,-19.430841,-0.942688,-0.026916504,-0.17871094,0.46289062,0.0234375,-0.032226562,3.088384,3.145225,-57.518074,-20.94548,-0.42260742,0.72595215,1.2404175,0.26171875,0.061523438,0.17578125,17.037169,2.8078718,-129.50859,-22.56388,0.0,0.0,0.0,0.0,0.0,0.0,0.0,22.052681,-129.2232,-17.109657,0.0,0.0,0.0,0.0,0.0,0.0,0.0,1.2022332,44.97756,-1.1143125,
0.8671874741557989,37,0.026794434,-0.9313965,0.33050537,0.24316406,-0.01953125,0.044921875,0.0,0.0,0.0,0.0,0.0,0.0,0.0,0.0,0.0,0.0,0.0,-0.34675482,0.035354655,0.93746245,-0.8701172,-0.035583496,-0.35754395,0.16796875,0.099609375,-0.07421875,3.8727736,-7.1789017,0.73195094,19.408379,-0.94104004,-0.0036621094,-0.29260254,0.33007812,0.12011719,-0.18945312,8.287568,-5.140501,-56.217514,20.94542,-0.4534912,-0.3428955,0.81622314,0.015625,0.009765625,-0.026367188,12.977118,-12.131458,-127.879105,22.504951,0.0,0.0,0.0,0.0,0.0,0.0,0.0,1.7739143,-128.29047,36.868664,0.0,0.0,0.0,0.0,0.0,0.0,0.0,0.34675482,-0.035354655,-0.93746245,0.9797363,0.04425049,-0.28430176,-0.14550781,-0.3388672,-0.115234375,3.7228377,7.1789017,-0.73195094,-19.408379,-0.9636841,-0.042236328,-0.09222412,0.43945312,0.15722656,-0.01171875,3.5370667,3.217658,-57.57835,-20.94598,-0.43371582,0.71624756,1.2374878,0.22363281,0.041992188,0.13867188,16.675642,3.4639685,-129.56755,-22.572187,0.0,0.0,0.0,0.0,0.0,0.0,0.0,22.69813,-129.29572,-17.078707,0.0,0.0,0.0,0.0,0.0,0.0,0.0,1.4318328,44.969406,-1.1663215,
0.890624973457307,38,0.0107421875,-0.9495239,0.33520508,0.16601562,-0.07714844,0.06347656,0.0,0.0,0.0,0.0,0.0,0.0,0.0,0.0,0.0,0.0,0.0,-0.34884137,0.03603787,0.9366154,-0.90283203,-0.079956055,-0.35632324,0.16796875,0.17382812,-0.055664062,4.008341,-7.222098,0.74609566,19.390842,-0.94281006,-0.029052734,-0.26812744,0.4248047,0.10058594,-0.20800781,8.690048,-5.2419143,-56.20887,20.853775,-0.46533203,-0.32580566,0.7918701,0.034179688,-0.009765625,-0.1015625,13.469394,-12.809213,-127.81922,22.301224,0.0,0.0,0.0,0.0,0.0,0.0,0.0,1.140338,-128.23691,36.62743,0.0,0.0,0.0,0.0,0.0,0.0,0.0,0.34884137,-0.03603787,-0.9366154,1.0535278,0.029418945,-0.22509766,0.005859375,-0.28027344,-0.115234375,3.3505921,7.222098,-0.74609566,-19.390842,-0.98132324,-0.15722656,-0.016113281,0.3203125,0.29101562,0.1015625,3.8742902,3.4785357,-57.60096,-20.790033,-0.4003296,0.7316284,1.2480469,0.12988281,0.021484375,0.12109375,16.718052,4.403116,-129.57768,-22.413677,0.0,0.0,0.0,0.0,0.0,0.0,0.0,23.632793,-129.30417,-16.90206,0.0,0.0,0.0,0.0,0.0,0.0,0.0,1.5845823,44.96299,-1.1398517,
0.914062472758815,39,0.0017700195,-0.93426514,0.31726074,0.06933594,-0.13769531,0.15722656,0.0,0.0,0.0,0.0,0.0,0.0,0.0,0.0,0.0,0.0,0.0,-0.35396588,0.033775765,0.9348145,-0.92193604,-0.07885742,-0.3449707,0.2421875,0.2109375,-0.038085938,3.9669914,-7.328191,0.6992631,19.353558,-0.9467163,-0.055664062,-0.23675537,0.40527344,0.08105469,-0.17089844,8.953942,-5.4241,-56.261124,20.672493,-0.40582275,-0.37731934,0.82403564,-0.041015625,0.028320312,-0.08203125,14.036585,-13.411907,-127.82136,21.899054,0.0,0.0,0.0,0.0,0.0,0.0,0.0,0.5595827,-128.1995,36.20479,0.0,0.0,0.0,0.0,0.0,0.0,0.0,0.35396588,-0.033775765,-0.9348145,1.1181641,0.038635254,-0.10986328,0.15820312,-0.18261719,-0.17285156,3.080768,7.328191,-0.6992631,-19.353558,-0.9729004,-0.28149414,0.071777344,0.12109375,0.5019531,0.19824219,4.2718678,3.7011533,-57.576332,-20.690973,-0.39215088,0.72576904,1.2438965,0.0546875,0.001953125,0.045898438,17.204128,5.2526846,-129.52917,-22.386087,0.0,0.0,0.0,0.0,0.0,0.0,0.0,24.478916,-129.25246,-16.866566,0.0,0.0,0.0,0.0,0.0,0.0,0.0,1.6121678,44.966675,-1.0142455,
0.9374999720603231,40,0.04071045,-0.9656372,0.35632324,-0.0078125,-0.12207031,0.19433594,0.0,0.0,0.0,0.0,0.0,0.0,0.0,0.0,0.0,0.0,0.0,-0.3598578,0.032348916,0.9326064,-0.8696289,-0.11541748,-0.33062744,0.22363281,0.2109375,-0.056640625,3.9145162,-7.4501715,0.6697229,19.307842,-0.9244995,-0.019226074,-0.2286377,0.40527344,0.08203125,-0.24609375,9.285863,-5.556282,-56.294598,20.463514,-0.46569824,-0.35443115,0.8034668,0.015625,-0.0087890625,-0.064453125,14.528412,-13.95751,-127.819305,21.324223,0.0,0.0,0.0,0.0,0.0,0.0,0.0,0.03888321,-128.18301,35.6039,0.0,0.0,0.0,0.0,0.0,0.0,0.0,0.3598578,-0.032348916,-0.9326064,1.1693115,-0.02368164,-0.030029297,0.21484375,0.0087890625,-0.17382812,3.1777987,7.4501715,-0.6697229,-19.307842,-0.97528076,-0.36431885,0.14019775,-0.2529297,0.75,0.3720703,4.790479,3.719165,-57.536213,-20.747458,-0.39038086,0.7559204,1.2620239,-0.15332031,-0.0390625,-0.046875,18.279013,5.795598,-129.46213,-22.51189,0.0,0.0,0.0,0.0,0.0,0.0,0.0,25.019627,-129.18034,-16.985697,0.0,0.0,0.0,0.0,0.0,0.0,0.0,1.5788628,44.968975,-0.95059574,
0.9609374713618312,41,0.07470703,-0.9729614,0.35076904,0.068359375,0.064453125,0.28808594,0.0,0.0,0.0,0.0,0.0,0.0,0.0,0.0,0.0,0.0,0.0,-0.36370006,0.03007939,0.93120915,-0.76446533,-0.05670166,-0.4215088,0.14746094,0.26757812,-0.11035156,3.5847385,-7.529717,0.62273663,19.278917,-0.8723755,-0.07147217,-0.3369751,0.27148438,0.043945312,-0.24707031,9.368337,-5.9406414,-56.35368,20.167141,-0.45111084,-0.31237793,0.8095703,0.09082031,-0.10058594,-0.045898438,15.005504,-14.838781,-127.815704,20.835146,0.0,0.0,0.0,0.0,0.0,0.0,0.0,-0.81878567,-128.17284,35.088768,0.0,0.0,0.0,0.0,0.0,0.0,0.0,0.36370006,-0.03007939,-0.93120915,1.2666626,-0.029785156,-0.0017700195,0.15625,0.48535156,-0.041015625,2.9835377,7.529717,-0.62273663,-19.278917,-1.0818481,-0.4449463,0.3050537,-0.6845703,1.0361328,0.6582031,3.3628407,4.1008954,-57.507004,-20.794357,-0.35906982,0.782959,1.2806396,-0.2861328,-0.001953125,-0.2734375,19.129232,4.666639,-129.48152,-23.109262,0.0,0.0,0.0,0.0,0.0,0.0,0.0,23.896784,-129.20036,-17.603401,0.0,0.0,0.0,0.0,0.0,0.0,0.0,1.5571684,44.972622,-0.8445007,
0.9843749706633392,42,0.11065674,-1.0059814,0.40960693,0.26171875,0.36523438,0.421875,0.0,0.0,0.0,0.0,0.0,0.0,0.0,0.0,0.0,0.0,0.0,-0.36191973,0.025700342,0.9320122,-0.8291626,0.015380859,-0.41937256,-0.001953125,0.2861328,-0.033203125,3.4130588,-7.49286,0.5320767,19.295544,-0.9125366,-0.093322754,-0.3607788,0.25390625,0.044921875,-0.2841797,9.561949,-6.2798605,-56.45573,20.115929,-0.4343872,-0.33740234,0.822876,-0.022460938,-0.15429688,-0.064453125,15.668195,-15.886604,-127.826004,20.662676,0.0,0.0,0.0,0.0,0.0,0.0,0.0,-1.8243389,-128.13405,34.87426,0.0,0.0,0.0,0.0,0.0,0.0,0.0,0.36191973,-0.025700342,-0.9320122,1.3912354,-0.0057373047,0.12023926,0.13476562,1.2285156,0.2626953,2.1150734,7.49286,-0.5320767,-19.295544,-1.2329712,-0.585083,0.13885498,-0.44433594,1.4570312,1.1240234,1.5913926,5.2724295,-57.4743,-20.675447,-0.28485107,0.7836304,1.2784424,-0.12207031,0.17480469,-0.82714844,20.415644,3.123035,-129.38849,-23.803534,0.0,0.0,0.0,0.0,0.0,0.0,0.0,22.400566,-129.21484,-18.46111,0.0,0.0,0.0,0.0,0.0,0.0,0.0,1.7218064,44.970016,-0.57144,
1.0078124699648474,43,0.079711914,-0.9772949,0.3637085,0.3388672,0.4814453,0.26953125,0.0,0.0,0.0,0.0,0.0,0.0,0.0,0.0,0.0,0.0,0.0,-0.3557429,0.021207012,0.9344931,-0.9503174,-0.21429443,-0.45690918,0.015625,0.39746094,0.11621094,3.3472013,-7.3649797,0.43905088,19.346905,-1.0214844,-0.12738037,-0.28656006,0.005859375,0.028320312,-0.26660156,9.404792,-6.721008,-56.554527,20.127975,-0.4206543,-0.29077148,0.88830566,-0.17285156,-0.0078125,-0.17480469,16.0885,-16.823385,-127.863464,20.439974,0.0,0.0,0.0,0.0,0.0,0.0,0.0,-2.7498245,-128.09474,34.640633,0.0,0.0,0.0,0.0,0.0,0.0,0.0,0.3557429,-0.021207012,-0.9344931,1.579834,0.17828369,0.17956543,-0.171875,2.0253906,0.7001953,3.054732,7.3649797,-0.43905088,-19.346905,-1.6086426,-0.51153564,-0.0025024414,0.734375,1.5703125,1.9296875,5.971661,7.5167575,-57.43749,-20.242886,-0.47106934,0.689209,1.2279053,0.7324219,1.0292969,-2.0751953,21.250116,1.8231745,-129.11864,-24.16801,0.0,0.0,0.0,0.0,0.0,0.0,0.0,21.222622,-129.51505,-19.295073,0.0,0.0,0.0,0.0,0.0,0.0,0.0,2.090719,44.957157,-0.22434461,
1.0312499692663555,44,-0.03173828,-1.0670166,0.28479004,0.1640625,0.4404297,0.20996094,0.0,0.0,0.0,0.0,0.0,0.0,0.0,0.0,0.0,0.0,0.0,-0.3513995,0.014039488,0.9363355,-0.83514404,-0.4335327,-0.51623535,0.18261719,0.5839844,0.15234375,2.8007205,-7.2750583,0.29066095,19.385046,-1.0099487,-0.30041504,-0.13586426,-0.16503906,0.009765625,-0.20996094,8.931754,-7.3144355,-56.713043,19.432909,-0.46105957,-0.45703125,0.8261719,-0.2861328,-0.07910156,-0.13769531,16.238546,-17.70662,-127.97269,19.153103,0.0,0.0,0.0,0.0,0.0,0.0,0.0,-3.6502304,-128.19438,33.370193,0.0,0.0,0.0,0.0,0.0,0.0,0.0,0.3513995,-0.014039488,-0.9363355,1.6219482,0.40942383,0.1295166,-0.32226562,3.2832031,0.6767578,6.732894,7.2750583,-0.29066095,-19.385046,-1.869873,-0.24346924,0.09350586,1.9160156,2.125,2.4423828,13.0736685,11.153362,-57.16325,-19.785936,-1.1408081,1.7236328,1.8231812,2.4951172,1.9873047,-2.4990234,21.308195,1.270277,-128.31819,-24.765993,0.0,0.0,0.0,0.0,0.0,0.0,0.0,20.811619,-130.0801,-20.853748,0.0,0.0,0.0,0.0,0.0,0.0,0.0,2.2213616,44.95393,0.15961719,
1.0546874685678636,45,-0.14544678,-0.9626465,0.2529297,0.06738281,0.45507812,0.26464844,0.0,0.0,0.0,0.0,0.0,0.0,0.0,0.0,0.0,0.0,0.0,-0.3546337,0.0019003171,0.9348052,-0.82006836,-0.2871704,-0.35925293,0.51953125,0.62109375,0.072265625,2.0211012,-7.3420177,0.039342493,19.353365,-0.91607666,-0.17651367,-0.15759277,0.021484375,0.0068359375,-0.001953125,8.5672655,-7.8925447,-56.953426,18.38055,-0.44610596,-0.46398926,0.7932739,-0.09765625,0.08300781,-0.10058594,16.567524,-18.500961,-128.17531,17.410246,0.0,0.0,0.0,0.0,0.0,0.0,0.0,-4.452985,-128.45422,31.636242,0.0,0.0,0.0,0.0,0.0,0.0,0.0,0.3546337,-0.0019003171,-0.9348052,1.2506714,-0.15344238,-0.24078369,-0.5341797,2.7070312,0.98535156,10.765268,7.3420177,-0.039342493,-19.353365,-1.3153076,-0.009887695,-0.15698242,2.1464844,2.1455078,2.2919922,21.254526,15.426483,-56.46598,-19.275923,-0.57592773,1.1806641,1.5618896,1.3134766,1.5253906,-4.232422,20.719456,0.77985764,-126.70855,-25.406141,0.0,0.0,0.0,0.0,0.0,0.0,0.0,20.28418,-130.2849,-22.74765,0.0,0.0,0.0,0.0,0.0,0.0,0.0,2.01821,44.941322,0.67428213,
1.0781249678693716,46,-0.2722168,-0.8635864,0.22875977,0.009765625,0.30566406,0.18945312,0.0,0.0,0.0,0.0,0.0,0.0,0.0,0.0,0.0,0.0,0.0,-0.36735895,-0.016590469,0.92894197,-0.8890381,-0.0847168,-0.30407715,0.31347656,0.5839844,0.11328125,1.0728316,-7.605469,-0.34347415,19.23198,-0.94854736,-0.061340332,-0.15612793,-0.12695312,0.06738281,-0.13378906,7.965037,-8.525687,-57.32377,17.877329,-0.41400146,-0.3869629,0.81225586,0.09082031,0.06347656,-0.026367188,16.261599,-18.850513,-128.58713,16.673534,0.0,0.0,0.0,0.0,0.0,0.0,0.0,-4.811372,-128.86139,30.908943,0.0,0.0,0.0,0.0,0.0,0.0,0.0,0.36735895,0.016590469,-0.92894197,1.1933594,-0.20355225,-0.20703125,-0.28808594,2.9199219,0.94628906,14.196617,7.605469,0.34347415,-19.23198,-1.0668945,0.49432373,-0.592041,1.0214844,2.1660156,1.6914062,28.834436,19.50283,-55.39961,-18.435013,-0.8600464,-1.9832153,-2.0,0.5625,0.14648438,-3.3857422,22.405165,0.5736332,-124.50856,-25.633574,0.0,0.0,0.0,0.0,0.0,0.0,0.0,20.011902,-129.1143,-24.565582,0.0,0.0,0.0,0.0,0.0,0.0,0.0,1.5008057,44.911873,1.3956128,
1.1015624671708797,47,-0.246521,-0.95758057,0.2119751,0.029296875,0.15917969,0.09667969,0.0,0.0,0.0,0.0,0.0,0.0,0.0,0.0,0.0,0.0,0.0,-0.38352254,-0.034305304,0.92198855,-0.88256836,-0.1350708,-0.32165527,-0.11816406,0.6035156,0.0078125,1.1386639,-7.9401054,-0.7102262,19.088024,-0.96954346,-0.09265137,-0.17211914,-0.068359375,0.10546875,-0.17089844,7.527542,-9.268597,-57.68288,17.620586,-0.4109497,-0.38513184,0.82507324,0.22265625,0.026367188,0.009765625,15.909928,-19.554996,-128.94598,15.972359,0.0,0.0,0.0,0.0,0.0,0.0,0.0,-5.493309,-129.20699,30.184414,0.0,0.0,0.0,0.0,0.0,0.0,0.0,0.38352254,0.034305304,-0.92198855,1.0617676,-0.115234375,-0.713501,0.453125,2.7578125,0.6220703,17.24986,7.9401054,0.7102262,-19.088024,-1.0401611,0.60705566,-0.64941406,-0.24023438,1.7441406,1.2910156,35.594845,23.311604,-54.161716,-17.581238,0.36291504,1.6964722,1.857666,0.48632812,0.7988281,-2.2236328,24.515831,0.78866005,-122.08008,-25.675838,0.0,0.0,0.0,0.0,0.0,0.0,0.0,20.072453,-127.40232,-25.721115,0.0,0.0,0.0,0.0,0.0,0.0,0.0,0.8694205,44.908012,2.0325909,
1.1249999664723878,48,-0.16986084,-1.069458,0.27905273,-0.125,0.041992188,0.20898438,0.0,0.0,0.0,0.0,0.0,0.0,0.0,0.0,0.0,0.0,0.0,-0.39473474,-0.044304363,0.9174558,-0.83306885,-0.12554932,-0.41088867,-0.28808594,0.734375,-0.0625,2.0767884,-8.172234,-0.91723776,18.994179,-0.9470215,-0.101501465,-0.19177246,-0.21777344,0.16503906,-0.20800781,6.975611,-10.178608,-57.86841,17.449928,-0.38549805,-0.35906982,0.829834,0.29785156,0.043945312,0.028320312,15.730832,-20.621687,-129.10094,15.561944,0.0,0.0,0.0,0.0,0.0,0.0,0.0,-6.537487,-129.29446,29.75364,0.0,0.0,0.0,0.0,0.0,0.0,0.0,0.39473474,0.044304363,-0.9174558,0.9338379,-0.07312012,-0.39562988,1.4013672,3.2089844,0.41015625,20.692545,8.172234,0.91723776,-18.994179,-0.7229004,0.206604,-0.5050659,-1.1464844,0.9970703,0.7363281,41.93197,27.157738,-52.776688,-16.600225,0.85272217,1.1287842,1.5397339,-0.016601562,1.6308594,-0.67578125,26.007313,1.696228,-119.65585,-24.653809,0.0,0.0,0.0,0.0,0.0,0.0,0.0,20.740036,-125.77505,-24.974274,0.0,0.0,0.0,0.0,0.0,0.0,0.0,0.40185556,44.92601,2.3423958,
1.1484374657738958,49,-0.09375,-1.0606079,0.2770996,-0.10449219,-0.12988281,0.4970703,0.0,0.0,0.0,0.0,0.0,0.0,0.0,0.0,0.0,0.0,0.0,-0.40121934,-0.05355423,0.9144757,-0.8498535,-0.039733887,-0.39770508,-0.70214844,0.8095703,-0.16796875,3.3609188,-8.306483,-1.1087384,18.93248,-0.951416,-0.072265625,-0.20440674,-0.5966797,0.16796875,-0.20800781,6.0562153,-11.310215,-58.01435,17.355486,-0.41229248,-0.3388672,0.8274536,0.109375,-0.0087890625,0.046875,14.941834,-21.857773,-129.22533,15.378622,0.0,0.0,0.0,0.0,0.0,0.0,0.0,-7.729065,-129.38121,29.523598,0.0,0.0,0.0,0.0,0.0,0.0,0.0,0.40121934,0.05355423,-0.9144757,0.8183594,-0.037353516,-0.1605835,2.0839844,2.359375,0.203125,24.009466,8.306483,1.1087384,-18.93248,-0.49786377,0.17871094,-0.43432617,-1.390625,0.07910156,0.09863281,46.337814,30.288166,-51.362385,-15.306435,0.9604492,1.008728,1.4494629,-0.3251953,1.3164062,0.43164062,26.50627,3.5914955,-117.79173,-23.039928,0.0,0.0,0.0,0.0,0.0,0.0,0.0,22.436398,-124.507706,-23.035816,0.0,0.0,0.0,0.0,0.0,0.0,0.0,0.17372549,44.920673,2.7068996,
1.171874965075404,50,-0.15032959,-0.9187622,0.23712158,-0.045898438,-0.22167969,0.5751953,0.0,0.0,0.0,0.0,0.0,0.0,0.0,0.0,0.0,0.0,0.0,-0.41722444,-0.067094035,0.9062779,-0.84710693,-0.0012817383,-0.40533447,-1.0029297,0.8847656,-0.19921875,5.1960673,-8.63784,-1.3890545,18.762762,-0.90753174,-0.09320068,-0.23291016,-0.765625,0.20898438,-0.28320312,5.1476502,-12.854697,-58.223064,17.36653,-0.4522705,-0.32635498,0.84802246,-0.13574219,-0.0234375,0.103515625,14.134979,-23.774372,-129.37944,15.406126,0.0,0.0,0.0,0.0,0.0,0.0,0.0,-9.626377,-129.53886,29.533852,0.0,0.0,0.0,0.0,0.0,0.0,0.0,0.41722444,0.067094035,-0.9062779,0.7249756,0.1060791,-0.23547363,1.6494141,1.8769531,0.12792969,26.623701,8.63784,1.3890545,-18.762762,-0.46875,0.1774292,-0.44122314,-1.3242188,-0.8964844,-0.5800781,48.5139,32.882355,-49.98486,-13.983103,1.0395508,0.91223145,1.3619385,-0.5654297,0.43652344,1.3671875,26.37753,6.6036415,-116.68063,-20.831066,0.0,0.0,0.0,0.0,0.0,0.0,0.0,25.389587,-123.52844,-20.192257,0.0,0.0,0.0,0.0,0.0,0.0,0.0,-0.13238603,44.87959,3.261602,
1.195312464376912,51,-0.10626221,-0.9157715,0.25354004,-0.045898438,-0.23730469,0.40429688,0.0,0.0,0.0,0.0,0.0,0.0,0.0,0.0,0.0,0.0,0.0,-0.4326666,-0.0779936,0.8981395,-0.7919922,-0.21655273,-0.4711914,-1.0966797,0.97753906,-0.12207031,6.8958015,-8.9575405,-1.6147094,18.59427,-0.98516846,-0.089782715,-0.24987793,-0.89746094,0.24902344,-0.24511719,4.0237494,-14.539513,-58.330315,17.15074,-0.47155762,-0.34057617,0.81951904,-0.25,-0.16796875,0.15917969,13.27947,-25.787436,-129.43466,15.242426,0.0,0.0,0.0,0.0,0.0,0.0,0.0,-11.688227,-129.61018,29.41727,0.0,0.0,0.0,0.0,0.0,0.0,0.0,0.4326666,0.0779936,-0.8981395,0.6956787,0.123046875,-0.2531128,1.2900391,1.453125,0.12890625,28.741928,8.9575405,1.6147094,-18.59427,-0.49273682,0.046875,-0.45477295,-1.0878906,-1.7763672,-1.4082031,48.46697,34.9115,-48.81752,-12.867511,0.78967285,0.8930664,1.3458252,-0.86328125,-0.5,2.1699219,25.882483,10.930737,-116.48641,-18.475525,0.0,0.0,0.0,0.0,0.0,0.0,0.0,29.812414,-122.92774,-16.996305,0.0,0.0,0.0,0.0,0.0,0.0,0.0,-0.34738547,44.842674,3.726748,
1.21874996367842,52,-0.117492676,-0.9777832,0.2750244,-0.045898438,-0.234375,0.23242188,0.0,0.0,0.0,0.0,0.0,0.0,0.0,0.0,0.0,0.0,0.0,-0.44686002,-0.08310364,0.89075416,-0.8273926,-0.26989746,-0.5196533,-0.7402344,0.9765625,0.020507812,8.037707,-9.251388,-1.720503,18.441372,-0.97906494,-0.17926025,-0.22174072,-0.78222656,0.26660156,-0.3203125,3.3221319,-15.949795,-58.297092,16.474255,-0.46795654,-0.37225342,0.83203125,-0.21191406,-0.34960938,0.21386719,13.158262,-27.789429,-129.30055,14.413786,0.0,0.0,0.0,0.0,0.0,0.0,0.0,-13.795754,-129.4099,28.694267,0.0,0.0,0.0,0.0,0.0,0.0,0.0,0.44686002,0.08310364,-0.89075416,0.7238159,0.09234619,-0.21166992,1.2900391,1.109375,0.091796875,30.25976,9.251388,1.720503,-18.441372,-0.501709,0.06866455,-0.4713745,-0.70410156,-2.4824219,-2.2177734,46.374542,36.45299,-47.93696,-11.840029,0.33605957,0.9224243,1.3811646,-1.1259766,-1.3974609,2.8007812,24.823486,16.692457,-117.05688,-16.090738,0.0,0.0,0.0,0.0,0.0,0.0,0.0,35.766,-122.56248,-13.615307,0.0,0.0,0.0,0.0,0.0,0.0,0.0,-0.5651653,44.827976,3.8987393,
1.242187462979928,53,-0.0871582,-0.89868164,0.2508545,-0.12402344,-0.14257812,0.13476562,0.0,0.0,0.0,0.0,0.0,0.0,0.0,0.0,0.0,0.0,0.0,-0.45917743,-0.08503349,0.88426334,-0.8311157,-0.3328247,-0.47454834,-0.4033203,1.0322266,0.109375,9.113242,-9.506395,-1.7604569,18.306993,-0.95355225,-0.09753418,-0.14160156,-0.6328125,0.26464844,-0.16992188,2.4717178,-17.262064,-58.17053,15.618492,-0.45300293,-0.45507812,0.80236816,-0.19335938,-0.3310547,0.1953125,12.957287,-29.357681,-129.13377,13.39191,0.0,0.0,0.0,0.0,0.0,0.0,0.0,-15.494277,-129.16864,27.803617,0.0,0.0,0.0,0.0,0.0,0.0,0.0,0.45917743,0.08503349,-0.88426334,0.6482544,0.031799316,-0.18884277,1.5566406,0.8076172,-0.041015625,31.244629,9.506395,1.7604569,-18.306993,-0.5664673,0.17578125,-0.541626,-0.45898438,-2.9980469,-2.819336,42.5826,37.52856,-47.319492,-10.844189,-0.1381836,0.9831543,1.4199829,-1.3505859,-2.0458984,3.2041016,23.382853,23.59628,-117.91727,-13.553223,0.0,0.0,0.0,0.0,0.0,0.0,0.0,42.846603,-122.045494,-10.001294,0.0,0.0,0.0,0.0,0.0,0.0,0.0,-0.79780436,44.823837,3.896117,
1.2656249622814362,54,-0.06591797,-0.8279419,0.20770264,-0.10449219,-0.16113281,0.13574219,0.0,0.0,0.0,0.0,0.0,0.0,0.0,0.0,0.0,0.0,0.0,-0.4655763,-0.087521,0.88090277,-0.8614502,-0.24859619,-0.3579712,0.06542969,0.9941406,0.19433594,9.919902,-9.638873,-1.811956,18.237417,-0.92578125,-0.11706543,-0.085510254,-0.3642578,0.3388672,-0.22460938,1.9670223,-18.097961,-58.078976,14.862928,-0.43920898,-0.399292,0.819458,0.013671875,-0.18652344,0.3251953,12.703227,-30.303053,-129.00542,12.266888,0.0,0.0,0.0,0.0,0.0,0.0,0.0,-16.57454,-129.01006,26.80334,0.0,0.0,0.0,0.0,0.0,0.0,0.0,0.4655763,0.087521,-0.88090277,0.57458496,0.13067627,-0.17364502,1.4257812,0.44335938,-0.21289062,31.809742,9.638873,1.811956,-18.237417,-0.5983887,0.20544434,-0.5336304,-0.546875,-3.3417969,-3.1748047,37.448334,38.06883,-46.92096,-10.063551,-0.47113037,1.0440674,1.4616089,-1.7099609,-2.3730469,3.1328125,21.995712,31.093061,-118.59123,-10.926341,0.0,0.0,0.0,0.0,0.0,0.0,0.0,50.4065,-121.04952,-6.3237867,0.0,0.0,0.0,0.0,0.0,0.0,0.0,-0.98941547,44.82636,3.9307399,
1.2890624615829442,55,-0.117126465,-0.8658447,0.20098877,-0.22070312,-0.12695312,0.11425781,0.0,0.0,0.0,0.0,0.0,0.0,0.0,0.0,0.0,0.0,0.0,-0.46866938,-0.09050712,0.8788712,-0.88739014,-0.16558838,-0.30895996,0.12109375,1.0693359,0.17480469,10.643774,-9.7029085,-1.873778,18.195358,-0.97546387,0.023925781,-0.16174316,-0.20898438,0.4345703,-0.28027344,1.7459642,-18.704868,-58.033092,14.419159,-0.41015625,-0.4029541,0.84265137,0.051757812,-0.07714844,0.36328125,12.545031,-31.065697,-128.92905,11.693439,0.0,0.0,0.0,0.0,0.0,0.0,0.0,-17.464886,-128.92146,26.349323,0.0,0.0,0.0,0.0,0.0,0.0,0.0,0.46866938,0.09050712,-0.8788712,0.5772095,0.30108643,-0.08648682,0.80078125,0.0546875,-0.115234375,31.89211,9.7029085,1.873778,-18.195358,-0.70806885,0.17218018,-0.49938965,-0.60253906,-3.4560547,-3.3603516,31.454056,38.18126,-46.75783,-9.617212,-0.79296875,0.88323975,1.3619385,-2.3134766,-2.2480469,2.6660156,20.978228,38.64177,-118.76097,-8.329435,0.0,0.0,0.0,0.0,0.0,0.0,0.0,57.840134,-119.4841,-2.7459064,0.0,0.0,0.0,0.0,0.0,0.0,0.0,-1.1661476,44.813126,3.9930418,
1.3124999608844523,56,-0.16552734,-0.9633789,0.20507812,-0.24023438,-0.18261719,0.095703125,0.0,0.0,0.0,0.0,0.0,0.0,0.0,0.0,0.0,0.0,0.0,-0.48323148,-0.09637266,0.870039,-0.93414307,-0.03161621,-0.37799072,-0.1796875,1.1816406,0.16210938,12.189889,-10.00439,-1.9952128,18.012503,-1.0429688,0.006958008,-0.21026611,-0.24316406,0.5126953,-0.4296875,1.4785643,-19.871002,-58.012753,14.155947,-0.49090576,-0.37023926,0.9055176,-0.0048828125,0.068359375,0.34570312,12.255638,-32.67517,-128.8327,11.4985895,0.0,0.0,0.0,0.0,0.0,0.0,0.0,-19.16674,-128.85924,26.240892,0.0,0.0,0.0,0.0,0.0,0.0,0.0,0.48323148,0.09637266,-0.870039,0.6231079,0.23669434,0.030212402,0.060546875,-0.08886719,0.076171875,31.285688,10.00439,1.9952128,-18.012503,-0.7938843,0.09259033,-0.45751953,-0.5527344,-3.2070312,-3.3955078,26.259161,38.39958,-46.657555,-9.273787,-1.3935547,0.86279297,1.3673096,-1.8261719,-2.4677734,2.868164,18.828127,45.165096,-118.274994,-6.525422,0.0,0.0,0.0,0.0,0.0,0.0,0.0,64.08075,-117.30907,-0.07656193,0.0,0.0,0.0,0.0,0.0,0.0,0.0,-1.7008619,44.782925,4.015843,
1.3359374601859604,57,-0.19464111,-0.9883423,0.17095947,-0.24023438,-0.23632812,9.765625E-4,0.0,0.0,0.0,0.0,0.0,0.0,0.0,0.0,0.0,0.0,0.0,-0.5013029,-0.101759925,0.85895324,-0.93359375,-0.0064086914,-0.515625,-0.4423828,1.1259766,0.11035156,14.275081,-10.378524,-2.106746,17.782995,-1.0836792,5.493164E-4,-0.25665283,-0.14550781,0.5888672,-0.46679688,1.1611271,-21.486933,-57.891335,13.9740095,-0.4052124,-0.33306885,0.8323364,-0.0234375,0.28710938,0.43945312,12.272985,-35.118484,-128.55771,11.281841,0.0,0.0,0.0,0.0,0.0,0.0,0.0,-21.730564,-128.6617,26.132294,0.0,0.0,0.0,0.0,0.0,0.0,0.0,0.5013029,0.101759925,-0.85895324,0.7368164,0.1451416,0.16918945,0.15527344,-0.10644531,0.076171875,30.33427,10.378524,2.106746,-17.782995,-0.94085693,-0.123413086,-0.3918457,-0.4296875,-2.8242188,-3.2822266,20.856756,38.6127,-46.63298,-9.036811,-1.3764038,0.76171875,1.2737427,-1.4140625,-1.7392578,2.3300781,17.521988,51.896057,-117.309685,-5.3103147,0.0,0.0,0.0,0.0,0.0,0.0,0.0,70.38701,-114.86991,1.9297247,0.0,0.0,0.0,0.0,0.0,0.0,0.0,-2.3510451,44.75417,3.9298942,
1.3593749594874684,58,-0.10467529,-1.0217896,0.13830566,-0.24023438,-0.27246094,-0.09375,0.0,0.0,0.0,0.0,0.0,0.0,0.0,0.0,0.0,0.0,0.0,-0.5205839,-0.10509323,0.8469114,-0.98461914,0.06878662,-0.44726562,-0.6640625,0.8457031,0.09375,16.43779,-10.777702,-2.1757557,17.533693,-1.2874756,-0.25775146,-0.27331543,-0.72265625,0.61816406,-1.2783203,0.8908735,-23.126724,-57.69204,13.69666,-0.35302734,0.07879639,1.2838745,0.2763672,0.6191406,1.1083984,11.840723,-38.13141,-128.06462,10.661354,0.0,0.0,0.0,0.0,0.0,0.0,0.0,-24.83362,-128.54175,25.5846,0.0,0.0,0.0,0.0,0.0,0.0,0.0,0.5205839,0.10509323,-0.8469114,0.96698,0.22094727,0.36773682,0.21289062,0.046875,-9.765625E-4,29.71943,10.777702,2.1757557,-17.533693,-0.99224854,-0.22271729,-0.18969727,0.08300781,-2.4609375,-2.7451172,16.213003,39.098717,-46.414917,-8.314638,-1.6223145,0.868042,1.3342285,-0.49023438,-1.1005859,2.46875,16.624353,58.57732,-115.6006,-3.8540506,0.0,0.0,0.0,0.0,0.0,0.0,0.0,76.59606,-112.10765,4.109429,0.0,0.0,0.0,0.0,0.0,0.0,0.0,-3.0674589,44.729893,3.6650107,
1.3828124587889765,59,-0.13220215,-1.1643066,0.2000122,-0.12402344,-0.17382812,-0.2265625,0.0,0.0,0.0,0.0,0.0,0.0,0.0,0.0,0.0,0.0,0.0,-0.52790797,-0.10121245,0.8433353,-0.9140625,-0.21539307,-0.48944092,-0.73828125,0.75390625,-0.18554688,17.661503,-10.92933,-2.0954115,17.459654,-0.7029419,0.35412598,-0.10021973,-0.037109375,0.7363281,0.3466797,1.7318966,-24.151428,-57.373924,13.136568,-1.283081,-0.12561035,0.92858887,-0.30664062,1.0205078,0.7402344,10.724218,-40.31588,-127.509766,10.561164,0.0,0.0,0.0,0.0,0.0,0.0,0.0,-27.164734,-128.47359,25.591164,0.0,0.0,0.0,0.0,0.0,0.0,0.0,0.52790797,0.10121245,-0.8433353,1.3120117,0.22265625,0.70440674,0.080078125,0.5986328,0.09277344,29.808239,10.92933,2.0954115,-17.459654,-1.0617676,-0.20025635,0.074157715,0.47070312,-1.7167969,-1.6650391,12.744502,39.660774,-46.198406,-7.89122,-1.842102,-0.050842285,0.7542114,-0.15917969,-0.46484375,1.4941406,16.130173,63.880375,-113.76677,-2.0567074,0.0,0.0,0.0,0.0,0.0,0.0,0.0,81.48453,-109.63221,6.503132,0.0,0.0,0.0,0.0,0.0,0.0,0.0,-3.3327787,44.759262,3.2855196,
1.4062499580904846,60,-0.19836426,-1.1825562,0.18920898,-0.06640625,-0.080078125,-0.16894531,0.0,0.0,0.0,0.0,0.0,0.0,0.0,0.0,0.0,0.0,0.0,-0.52890366,-0.096196234,0.84346193,-0.91064453,-0.026062012,-0.47564697,-0.6640625,0.8642578,0.07519531,18.42855,-10.949945,-1.9915602,17.462276,-1.0724487,-0.12432861,-0.30249023,-0.50683594,0.99902344,-0.95214844,2.0013473,-24.956242,-57.068092,12.935888,-0.152771,-0.36383057,0.87835693,-0.19140625,1.4160156,0.44433594,10.013471,-42.810448,-126.792885,10.328435,0.0,0.0,0.0,0.0,0.0,0.0,0.0,-29.88134,-128.1658,25.50135,0.0,0.0,0.0,0.0,0.0,0.0,0.0,0.52890366,0.096196234,-0.84346193,1.4639282,0.25012207,0.854187,-0.7558594,0.45410156,0.41796875,30.610336,10.949945,1.9915602,-17.462276,-1.0291748,-0.0847168,-0.071777344,-0.051757812,-0.80078125,-0.31347656,11.8611765,40.3788,-45.82444,-7.6081333,-1.9703369,-0.15234375,0.692688,-0.22558594,-0.45898438,0.44921875,15.236535,66.44066,-112.60514,-0.78232574,0.0,0.0,0.0,0.0,0.0,0.0,0.0,83.81981,-108.06741,8.032112,0.0,0.0,0.0,0.0,0.0,0.0,0.0,-3.287744,44.785755,3.0461617,
1.4296874573919927,61,-0.19036865,-1.1794434,0.12390137,-0.0859375,-0.064453125,-0.017578125,0.0,0.0,0.0,0.0,0.0,0.0,0.0,0.0,0.0,0.0,0.0,-0.5287811,-0.09453665,0.8437045,-1.0614624,-0.19543457,-0.48608398,-0.5878906,0.8261719,0.27929688,19.633482,-10.947406,-1.9572016,17.4673,-1.1552734,0.093322754,-0.16595459,0.2705078,1.1435547,-0.61035156,1.9727846,-26.124596,-56.721233,12.963614,-0.4230957,-0.32824707,0.9107666,-0.021484375,1.9794922,0.51953125,8.559697,-45.71982,-125.97073,10.252241,0.0,0.0,0.0,0.0,0.0,0.0,0.0,-32.76674,-128.11662,25.329447,0.0,0.0,0.0,0.0,0.0,0.0,0.0,0.5287811,0.09453665,-0.8437045,1.1087646,0.08984375,0.5579834,-0.47265625,0.3046875,0.4189453,30.993568,10.947406,1.9572016,-17.4673,-0.8817749,-0.2189331,-0.21130371,-0.03515625,0.05859375,0.64160156,12.448806,40.65898,-45.64095,-7.403756,-1.8990479,0.064331055,0.7998657,-0.029296875,-0.22167969,-0.6191406,15.232623,66.42032,-112.513824,-0.41851664,0.0,0.0,0.0,0.0,0.0,0.0,0.0,83.84425,-107.87269,8.251919,0.0,0.0,0.0,0.0,0.0,0.0,0.0,-3.274609,44.79123,2.9665136,
1.4531249566935007,62,-0.15661621,-1.2460938,0.08850098,-0.12402344,-0.14160156,0.09667969,0.0,0.0,0.0,0.0,0.0,0.0,0.0,0.0,0.0,0.0,0.0,-0.53054637,-0.09502751,0.8424794,-1.1257935,-0.07977295,-0.42199707,-0.3232422,0.5839844,0.16113281,20.895714,-10.983953,-1.9673641,17.441936,-1.2266846,0.061706543,-0.04437256,0.20117188,1.2998047,-0.8535156,2.4132996,-27.215563,-56.430885,12.955013,-0.58325195,-0.4459839,0.85498047,0.31835938,2.578125,0.7246094,7.021298,-49.208588,-124.944214,10.137537,0.0,0.0,0.0,0.0,0.0,0.0,0.0,-36.245895,-128.10513,25.034037,0.0,0.0,0.0,0.0,0.0,0.0,0.0,0.53054637,0.09502751,-0.8424794,0.78118896,-0.10003662,0.44171143,-0.66308594,0.03515625,0.515625,32.04039,10.983953,1.9673641,-17.441936,-0.6712036,0.07763672,-0.39068604,0.16015625,0.7470703,1.4443359,15.116494,41.261066,-45.01157,-6.2892303,-1.6496582,0.02520752,0.7716675,-0.034179688,0.16113281,-1.4179688,15.55463,65.08081,-112.60597,0.74271345,0.0,0.0,0.0,0.0,0.0,0.0,0.0,82.73749,-108.16208,9.038492,0.0,0.0,0.0,0.0,0.0,0.0,0.0,-3.3982086,44.783318,2.9113357,
1.4765624559950088,63,-0.15570068,-1.2672119,0.006225586,-0.18164062,-0.29296875,0.15527344,0.0,0.0,0.0,0.0,0.0,0.0,0.0,0.0,0.0,0.0,0.0,-0.5354744,-0.098303735,0.83899564,-1.1062622,-0.10107422,-0.29370117,-0.7519531,0.36035156,0.036132812,21.934414,-11.085979,-2.035192,17.36981,-1.126831,0.033203125,0.059143066,0.30371094,1.4912109,-0.98339844,3.5324137,-28.062855,-56.28105,12.989296,-0.5765381,-0.53204346,0.7344971,0.52441406,3.053711,1.2460938,5.118411,-52.7788,-123.85477,9.981266,0.0,0.0,0.0,0.0,0.0,0.0,0.0,-39.931683,-128.29149,24.650036,0.0,0.0,0.0,0.0,0.0,0.0,0.0,0.5354744,0.098303735,-0.83899564,0.5336914,-0.115356445,0.080444336,-1.5908203,-1.140625,0.57714844,31.124973,11.085979,2.035192,-17.36981,-0.6368408,0.44085693,-0.47320557,0.030273438,1.2441406,1.7294922,17.527147,40.734283,-45.36804,-6.268161,-1.3452759,-0.026855469,0.7286377,-0.41503906,0.2919922,-2.0976562,15.142193,60.619164,-114.14073,0.31281996,0.0,0.0,0.0,0.0,0.0,0.0,0.0,78.60711,-110.0917,8.078347,0.0,0.0,0.0,0.0,0.0,0.0,0.0,-3.604111,44.765686,2.9448597,
1.4999999552965169,64,-0.12225342,-1.2150879,0.56463623,-0.3173828,-0.20507812,0.18945312,0.0,0.0,0.0,0.0,0.0,0.0,0.0,0.0,0.0,0.0,0.0,-0.54241884,-0.101615846,0.83417076,-1.2037964,-0.23675537,-0.21069336,-1.1816406,0.13769531,-0.1640625,22.888681,-11.229752,-2.103763,17.269922,-1.1689453,0.09289551,0.09375,0.10253906,1.6494141,-1.2832031,5.2665586,-28.81522,-56.16943,13.127541,-0.61499023,-0.5609131,0.7467041,0.6357422,3.6591797,1.8984375,3.311566,-56.569542,-122.54076,9.821651,0.0,0.0,0.0,0.0,0.0,0.0,0.0,-44.0672,-128.48024,24.257385,0.0,0.0,0.0,0.0,0.0,0.0,0.0,0.54241884,0.101615846,-0.83417076,0.50860596,0.09008789,-0.23931885,-1.7421875,-1.5048828,0.578125,29.261292,11.229752,2.103763,-17.269922,-0.65722656,0.40386963,-0.101379395,-0.19726562,1.0527344,1.4882812,20.458189,39.61364,-46.17427,-6.631407,0.33099365,0.4423828,1.0231934,2.3632812,1.2451172,-2.0410156,14.825484,53.93019,-116.45667,-0.91213274,0.0,0.0,0.0,0.0,0.0,0.0,0.0,72.35625,-112.99558,6.075618,0.0,0.0,0.0,0.0,0.0,0.0,0.0,-3.854024,44.746555,2.9447973,
1.523437454598025,65,0.43725586,-1.4159546,0.24816895,-0.4736328,0.048828125,0.3173828,0.0,0.0,0.0,0.0,0.0,0.0,0.0,0.0,0.0,0.0,0.0,-0.54627824,-0.10981872,0.83056426,-1.6052246,-0.5249634,-0.19024658,-0.9550781,0.0068359375,-0.07519531,23.939268,-11.309654,-2.273588,17.195255,-1.3754883,0.14569092,-0.04937744,0.07324219,1.8808594,-1.375,7.7222495,-29.352495,-56.21298,13.358652,-0.69281006,-0.4498291,0.7015991,0.5966797,4.7929688,2.5351562,3.4829588,-60.567642,-121.00311,9.589136,0.0,0.0,0.0,0.0,0.0,0.0,0.0,-48.79809,-128.7561,23.775953,0.0,0.0,0.0,0.0,0.0,0.0,0.0,0.54627824,0.10981872,-0.83056426,1.999939,0.28790283,0.68603516,-1.6025391,1.2265625,0.01171875,28.925331,11.309654,2.273588,-17.195255,-2.0,-0.15563965,-0.28588867,0.56640625,1.1328125,0.68359375,21.339592,40.22703,-45.86332,-7.371148,-2.0,1.8682861,1.999939,-2.1796875,2.741211,-2.4902344,19.391735,54.00096,-116.362686,-2.2890048,0.0,0.0,0.0,0.0,0.0,0.0,0.0,72.82647,-114.056725,4.0830073,0.0,0.0,0.0,0.0,0.0,0.0,0.0,-4.303728,44.694965,3.0790038,
1.546874953899533,66,0.29284668,-1.2147827,0.1418457,0.026367188,0.9746094,0.20117188,0.0,0.0,0.0,0.0,0.0,0.0,0.0,0.0,0.0,0.0,0.0,-0.5338148,-0.12320672,0.8367868,-1.4858398,-0.078308105,-0.13061523,-1.2617188,-1.0947266,-0.24511719,24.17228,-11.051621,-2.550761,17.324081,-1.342041,0.79022217,-0.026489258,-0.84472656,2.0283203,-1.9404297,11.474628,-28.791111,-56.640926,14.273387,-0.7914429,-0.11218262,0.8703003,-0.5566406,6.088867,3.7333984,7.8026295,-63.765457,-119.44236,9.864844,0.0,0.0,0.0,0.0,0.0,0.0,0.0,-53.44246,-129.53122,23.713188,0.0,0.0,0.0,0.0,0.0,0.0,0.0,0.5338148,0.12320672,-0.8367868,0.91534424,-0.2548828,0.7114868,-0.17285156,-1.6386719,0.6376953,28.715921,11.051621,2.550761,-17.324081,-0.13494873,0.29907227,-0.31158447,-1.3945312,1.609375,1.2646484,24.53542,39.649845,-45.683662,-7.057701,-0.4154663,0.84069824,1.3098755,1.3554688,1.8095703,1.4726562,18.00205,48.99633,-116.89338,-1.9291029,0.0,0.0,0.0,0.0,0.0,0.0,0.0,67.9156,-115.71346,4.468043,0.0,0.0,0.0,0.0,0.0,0.0,0.0,-4.7088833,44.61863,3.5655956,
1.570312453201041,67,-0.3930664,-1.1085815,0.4366455,0.10449219,0.6904297,-0.4609375,0.0,0.0,0.0,0.0,0.0,0.0,0.0,0.0,0.0,0.0,0.0,-0.51630306,-0.12369838,0.84765023,-1.3405151,0.08178711,0.35998535,-1.0859375,-1.8017578,-0.5888672,22.912148,-10.689076,-2.5609403,17.54899,-1.2823486,1.1019897,0.19158936,-2.4501953,2.046875,-2.3945312,16.672167,-27.139805,-57.108986,15.678113,-0.46453857,-0.70196533,0.6224365,-0.21582031,8.255859,4.390625,14.847051,-65.92905,-117.52489,10.088912,0.0,0.0,0.0,0.0,0.0,0.0,0.0,-58.08812,-130.20172,23.388655,0.0,0.0,0.0,0.0,0.0,0.0,0.0,0.51630306,0.12369838,-0.84765023,-0.025268555,0.7739258,-0.9314575,-0.8544922,-0.8076172,0.69140625,26.868347,10.689076,2.5609403,-17.54899,-0.04486084,1.0252075,-0.74627686,-0.91308594,1.2802734,2.2773438,24.52503,37.068672,-46.83984,-6.901228,-0.694397,0.17419434,0.8532715,0.7548828,2.4013672,-0.91503906,19.116493,43.59315,-118.4131,-2.4055214,0.0,0.0,0.0,0.0,0.0,0.0,0.0,62.49395,-118.40759,4.1017404,0.0,0.0,0.0,0.0,0.0,0.0,0.0,-4.689763,44.614193,3.6540587,
1.5937499525025491,68,-0.30187988,-1.1126709,0.8222656,0.10644531,0.33789062,-0.45703125,0.0,0.0,0.0,0.0,0.0,0.0,0.0,0.0,0.0,0.0,0.0,-0.5050001,-0.11505918,0.8556483,-1.1801147,0.20098877,0.7288208,-0.5839844,-3.2021484,-0.58691406,20.185408,-10.45507,-2.3820817,17.714573,-1.303894,0.5910034,0.39764404,-2.2519531,2.352539,-2.390625,23.455742,-24.220211,-57.703617,17.51552,-2.0,-0.33203125,1.746582,1.7568359,6.9072266,5.9023438,24.383738,-66.5791,-115.52579,10.500807,0.0,0.0,0.0,0.0,0.0,0.0,0.0,-61.714336,-130.8856,22.357162,0.0,0.0,0.0,0.0,0.0,0.0,0.0,0.5050001,0.11505918,-0.8556483,0.8739624,0.13543701,-0.38250732,-2.875,-1.4228516,0.3466797,25.171976,10.45507,2.3820817,-17.714573,-1.7055054,-0.22924805,-0.8688965,-0.9472656,0.73046875,0.34179688,25.857813,35.55581,-47.786682,-7.6805925,-1.001709,0.34051514,1.0563354,0.5214844,-0.2939453,0.171875,20.233376,37.961708,-119.55785,-2.3152413,0.0,0.0,0.0,0.0,0.0,0.0,0.0,56.93731,-119.799385,4.011769,0.0,0.0,0.0,0.0,0.0,0.0,0.0,-4.556795,44.65478,3.315335,
1.6171874518040572,69,-0.0423584,-0.7382202,0.7284546,0.37890625,0.07910156,-0.030273438,0.0,0.0,0.0,0.0,0.0,0.0,0.0,0.0,0.0,0.0,0.0,-0.49526548,-0.10703292,0.86105084,-1.2456665,-0.79571533,-0.1739502,-2.0205078,-3.8720703,-1.0898438,16.710014,-10.253532,-2.2159133,17.826424,-0.9810791,-0.96899414,-0.42523193,-1.9570312,3.758789,-3.0898438,33.14503,-20.199055,-58.292,20.454138,-2.0,-1.1755981,1.999939,0.5859375,2.5048828,4.533203,26.209347,-67.02246,-112.16623,10.877841,0.0,0.0,0.0,0.0,0.0,0.0,0.0,-64.47526,-128.1749,22.591906,0.0,0.0,0.0,0.0,0.0,0.0,0.0,0.49526548,0.10703292,-0.86105084,1.5427246,-0.4368286,-0.80773926,-0.6904297,-1.375,-0.5332031,23.259277,10.253532,2.2159133,-17.826424,-1.1430054,0.08569336,-0.6052246,0.5839844,0.70996094,1.1240234,24.72973,33.66179,-48.990875,-8.918047,-0.75024414,0.5308838,1.1593628,0.35253906,0.026367188,-0.072265625,19.16066,34.84942,-120.82675,-4.055358,0.0,0.0,0.0,0.0,0.0,0.0,0.0,53.79779,-120.966774,2.35821,0.0,0.0,0.0,0.0,0.0,0.0,0.0,-4.1092644,44.656616,3.1874435,
1.6406249511055653,70,-0.18157959,-0.7665405,0.60375977,0.39941406,-0.07519531,0.35253906,0.0,0.0,0.0,0.0,0.0,0.0,0.0,0.0,0.0,0.0,0.0,-0.46879977,-0.10210715,0.8751448,-1.4182739,-0.86743164,-1.1401978,-1.765625,-3.4394531,-1.6708984,14.114254,-9.705607,-2.1139345,18.11821,-1.9395142,-1.4630127,-0.78393555,1.0029297,3.2285156,-2.9794922,43.520515,-16.065676,-58.550144,23.074524,-0.9387207,-0.54125977,-1.9332275,0.07910156,0.45996094,3.2080078,22.494104,-67.9613,-107.01674,11.084189,0.0,0.0,0.0,0.0,0.0,0.0,0.0,-66.80988,-122.71451,23.418373,0.0,0.0,0.0,0.0,0.0,0.0,0.0,0.46879977,0.10210715,-0.8751448,0.678833,0.17944336,-0.54034424,-0.8847656,-1.9892578,-0.051757812,21.616098,9.705607,2.1139345,-18.11821,-0.4857788,0.44152832,-0.3373413,1.2646484,0.51953125,0.9296875,23.13947,30.410591,-50.357265,-9.944847,-0.44848633,0.7776489,1.2700806,0.75097656,-0.06542969,0.4736328,16.87043,29.840755,-122.2433,-5.748584,0.0,0.0,0.0,0.0,0.0,0.0,0.0,48.76687,-122.333,0.7320976,0.0,0.0,0.0,0.0,0.0,0.0,0.0,-3.1468334,44.66236,3.5252593,
1.6640624504070733,71,-0.069885254,-0.8467407,0.49298096,0.49609375,-0.036132812,0.4111328,0.0,0.0,0.0,0.0,0.0,0.0,0.0,0.0,0.0,0.0,0.0,-0.45423302,-0.10366303,0.8839171,-1.4561768,0.31658936,-1.2213135,2.0214844,-3.5175781,-1.1933594,12.791,-9.404032,-2.146146,18.299822,-1.0855713,0.28015137,-0.7747803,2.2734375,1.8417969,-1.6367188,53.22588,-11.084528,-58.738575,24.98335,0.14855957,-2.0,1.4817505,0.11816406,0.23730469,2.7802734,18.328348,-66.18543,-102.82641,10.600507,0.0,0.0,0.0,0.0,0.0,0.0,0.0,-66.09768,-117.91561,23.723251,0.0,0.0,0.0,0.0,0.0,0.0,0.0,0.45423302,0.10366303,-0.8839171,0.82196045,-0.6079712,-0.58496094,-0.7861328,-1.7011719,-0.3984375,20.454897,9.404032,2.146146,-18.299822,-0.9939575,0.6976929,-0.13024902,0.6074219,0.46191406,0.6201172,21.447903,27.387407,-51.361885,-10.373414,-0.34210205,0.8178711,1.3074951,0.2998047,0.00390625,0.2890625,15.111792,25.197952,-123.19888,-5.995392,0.0,0.0,0.0,0.0,0.0,0.0,0.0,44.101288,-123.267715,0.5542083,0.0,0.0,0.0,0.0,0.0,0.0,0.0,-2.2717562,44.72069,4.077278,
1.6874999497085814,72,-0.07507324,-0.89849854,0.44024658,0.3798828,-0.08886719,-0.0087890625,0.0,0.0,0.0,0.0,0.0,0.0,0.0,0.0,0.0,0.0,0.0,-0.44759682,-0.0986846,0.88854027,-1.19104,0.12554932,-0.7022095,3.5458984,-4.0058594,-0.8300781,13.931583,-9.266641,-2.0430772,18.395536,-0.68548584,0.10992432,-0.76831055,-0.4951172,0.9199219,-0.5576172,61.304916,-4.7340374,-58.27447,26.611017,-0.14337158,-1.8146362,1.6097412,0.034179688,-1.0488281,-0.38378906,16.821762,-61.091904,-100.66993,12.052909,0.0,0.0,0.0,0.0,0.0,0.0,0.0,-61.115726,-115.510704,25.455338,0.0,0.0,0.0,0.0,0.0,0.0,0.0,0.44759682,0.0986846,-0.88854027,1.0172119,-0.51989746,-0.27056885,0.80566406,-1.6240234,-0.6464844,19.457178,9.266641,2.0430772,-18.395536,-1.2507935,0.48638916,-0.19348145,-0.4736328,0.48046875,0.6503906,20.372269,25.197803,-52.160652,-10.795317,-0.4138794,0.772522,1.2854004,-0.17089844,0.055664062,-0.045898438,14.941279,21.559303,-123.94966,-6.4461455,0.0,0.0,0.0,0.0,0.0,0.0,0.0,40.448986,-124.00205,0.13770676,0.0,0.0,0.0,0.0,0.0,0.0,0.0,-1.4913106,44.767406,4.220797,
1.7109374490100895,73,-0.07513428,-0.90875244,0.45214844,0.30273438,-0.23339844,-0.38964844,0.0,0.0,0.0,0.0,0.0,0.0,0.0,0.0,0.0,0.0,0.0,-0.44572014,-0.08498496,0.8912788,-1.208252,-0.026855469,-0.25305176,2.6757812,-3.2207031,-0.86621094,16.742043,-9.22779,-1.7594521,18.452234,-0.5571289,-0.6754761,-0.65356445,-0.3486328,-0.12695312,0.56152344,66.79492,0.9256239,-57.145584,27.356833,0.5098877,-0.7906494,1.1244507,-0.03515625,-2.2128906,-2.3017578,14.10774,-55.176136,-99.77327,12.475444,0.0,0.0,0.0,0.0,0.0,0.0,0.0,-54.18798,-114.45793,26.011505,0.0,0.0,0.0,0.0,0.0,0.0,0.0,0.44572014,0.08498496,-0.8912788,0.8671875,0.10546875,-0.24627686,0.91796875,-1.9277344,-0.6064453,17.811172,9.22779,1.7594521,-18.452234,-0.63378906,0.2084961,-0.23535156,-0.82128906,0.32910156,-0.109375,18.395216,22.402748,-53.1556,-10.671239,-0.38391113,0.7189331,1.2437134,-0.43554688,-0.080078125,-0.19433594,15.670522,17.739973,-124.881516,-6.249889,0.0,0.0,0.0,0.0,0.0,0.0,0.0,36.628136,-124.91519,0.3360777,0.0,0.0,0.0,0.0,0.0,0.0,0.0,-0.81904876,44.832237,3.8652318,
1.7343749483115976,74,-0.11645508,-0.71746826,0.38372803,0.16796875,-0.47851562,-0.3701172,0.0,0.0,0.0,0.0,0.0,0.0,0.0,0.0,0.0,0.0,0.0,-0.44683903,-0.07032551,0.8920875,-1.1495361,-0.1697998,-0.53552246,0.85839844,-3.2949219,-0.9667969,20.551268,-9.250953,-1.4559561,18.468975,-0.524292,-0.7860718,-0.6824951,0.044921875,-1.3085938,1.2451172,70.06566,5.543185,-55.62447,28.306221,0.38336182,-0.34680176,1.0772705,-0.5263672,-2.9189453,-2.5263672,11.983211,-49.591423,-99.82269,14.42416,0.0,0.0,0.0,0.0,0.0,0.0,0.0,-47.18621,-114.18065,28.133911,0.0,0.0,0.0,0.0,0.0,0.0,0.0,0.44683903,0.07032551,-0.8920875,0.8256836,0.1842041,-0.1696167,0.046875,-2.015625,-0.47265625,15.736915,9.250953,1.4559561,-18.468975,-1.0917969,-0.36975098,-0.22302246,-0.6064453,0.328125,0.22265625,16.033222,19.772648,-54.05835,-10.943058,-0.39562988,0.66259766,1.2056274,-0.5126953,-0.21289062,-0.32714844,17.556381,14.764143,-125.766945,-6.873469,0.0,0.0,0.0,0.0,0.0,0.0,0.0,33.67537,-125.73098,-0.3466282,0.0,0.0,0.0,0.0,0.0,0.0,0.0,-0.31627786,44.88151,3.379702,
1.7578124476131056,75,-0.06567383,-0.7675781,0.3010254,0.032226562,-0.5410156,-0.20019531,0.0,0.0,0.0,0.0,0.0,0.0,0.0,0.0,0.0,0.0,0.0,-0.45575926,-0.060050577,0.8882312,-1.0795898,-0.1842041,-0.6799927,0.87109375,-2.734375,-0.9638672,24.187761,-9.435629,-1.2432332,18.38914,-0.32580566,-0.63812256,-0.77459717,0.40625,-2.3554688,1.7988281,71.3117,9.333229,-53.990047,29.136112,-0.01361084,-0.3357544,1.1766968,-1.3583984,-4.1445312,-2.2675781,9.615705,-43.621563,-101.14755,16.521303,0.0,0.0,0.0,0.0,0.0,0.0,0.0,-39.80751,-114.69464,30.728745,0.0,0.0,0.0,0.0,0.0,0.0,0.0,0.45575926,0.060050577,-0.8882312,0.94433594,0.152771,-0.17755127,-0.484375,-2.3085938,-0.3955078,13.134373,9.435629,1.2432332,-18.38914,-0.9239502,0.09680176,-0.2468872,0.16796875,0.29003906,0.38183594,13.633548,17.212032,-54.808002,-11.523338,-0.43255615,0.69873047,1.2254028,-0.55078125,-0.2890625,-0.34570312,18.426142,11.669102,-126.5067,-7.7719927,0.0,0.0,0.0,0.0,0.0,0.0,0.0,30.616215,-126.35982,-1.355681,0.0,0.0,0.0,0.0,0.0,0.0,0.0,-0.17693746,44.90941,2.9453986,
1.7812499469146137,76,0.07141113,-0.76519775,0.27600098,-0.064453125,-0.453125,-0.107421875,0.0,0.0,0.0,0.0,0.0,0.0,0.0,0.0,0.0,0.0,0.0,-0.46470603,-0.0529673,0.88410985,-0.9296875,-0.16656494,-0.64733887,1.9160156,-2.2314453,-0.7167969,27.33767,-9.620855,-1.0965873,18.303816,-0.2919922,-0.19897461,-0.80389404,0.37402344,-3.2050781,2.4667969,70.82192,12.676298,-52.39856,29.292215,-0.1015625,-0.2935791,0.98187256,-1.6611328,-4.741211,-2.2314453,6.555952,-36.99608,-103.41419,18.49745,0.0,0.0,0.0,0.0,0.0,0.0,0.0,-31.702229,-115.21677,33.63703,0.0,0.0,0.0,0.0,0.0,0.0,0.0,0.46470603,0.0529673,-0.88410985,0.94085693,0.0056762695,-0.26348877,-0.67285156,-2.444336,-0.3955078,10.51846,9.620855,1.0965873,-18.303816,-0.93408203,0.37121582,-0.20690918,-0.6044922,0.328125,0.4267578,11.352201,14.364465,-55.38792,-12.238628,-0.49572754,0.7145996,1.2404785,-0.6640625,-0.27148438,-0.43847656,18.770008,7.476109,-126.9379,-7.983398,0.0,0.0,0.0,0.0,0.0,0.0,0.0,26.466503,-126.692375,-1.6958542,0.0,0.0,0.0,0.0,0.0,0.0,0.0,-0.13275927,44.93252,2.622141,
1.8046874462161218,77,0.06237793,-0.774292,0.24713135,-0.10449219,-0.3232422,-0.16699219,0.0,0.0,0.0,0.0,0.0,0.0,0.0,0.0,0.0,0.0,0.0,-0.47163567,-0.048097014,0.8806714,-0.6966553,-0.10296631,-0.6833496,2.8886719,-1.9541016,-0.20800781,28.65393,-9.764321,-0.99575734,18.232626,-0.23651123,-0.0024414062,-0.8362427,-0.58691406,-3.9511719,3.34375,66.67128,14.827779,-51.409763,27.746674,-0.5072632,-0.4790039,1.0352173,-1.9248047,-5.0341797,-2.640625,6.4458847,-29.444927,-107.605385,19.46732,0.0,0.0,0.0,0.0,0.0,0.0,0.0,-22.867643,-117.70808,35.407707,0.0,0.0,0.0,0.0,0.0,0.0,0.0,0.47163567,0.048097014,-0.8806714,0.8039551,-0.22052002,-0.3652954,-0.33007812,-2.2480469,-0.6455078,8.907041,9.764321,0.99575734,-18.232626,-0.98791504,-0.034301758,-0.16595459,-0.79785156,0.32714844,0.4658203,8.85845,11.408213,-55.698303,-12.5072775,-0.5343628,0.6010132,1.1724854,-0.7392578,-0.17773438,-0.5517578,20.767231,3.6237025,-127.12587,-7.8671136,0.0,0.0,0.0,0.0,0.0,0.0,0.0,22.653881,-126.80173,-1.7066731,0.0,0.0,0.0,0.0,0.0,0.0,0.0,-0.15318918,44.944714,2.3725731,
1.8281249455176298,78,0.0690918,-0.8425293,0.22125244,-0.14257812,-0.32226562,-0.30078125,0.0,0.0,0.0,0.0,0.0,0.0,0.0,0.0,0.0,0.0,0.0,-0.4764652,-0.04165597,0.8784071,-0.47106934,0.20355225,-0.61553955,3.1875,-1.6582031,0.31152344,29.89652,-9.864307,-0.8624076,18.18575,-0.26818848,-0.23999023,-0.81188965,-0.8339844,-4.489258,3.6953125,61.10343,16.81048,-50.551037,26.469501,-0.6100464,-0.37750244,1.1998291,-1.8662109,-4.966797,-3.178711,6.814976,-20.191225,-112.09328,21.075203,0.0,0.0,0.0,0.0,0.0,0.0,0.0,-12.434229,-120.349236,37.560333,0.0,0.0,0.0,0.0,0.0,0.0,0.0,0.4764652,0.04165597,-0.8784071,0.80755615,-0.14550781,-0.40252686,0.5058594,-1.9511719,-0.9902344,8.296117,9.864307,0.8624076,-18.18575,-0.9155884,-0.027160645,-0.18463135,-0.47070312,0.328125,0.3701172,6.171458,8.440174,-55.858364,-12.65886,-0.43170166,0.6005249,1.1688843,-0.6269531,-0.1953125,-0.47753906,22.999237,0.34185696,-127.256485,-8.197289,0.0,0.0,0.0,0.0,0.0,0.0,0.0,19.406605,-126.86273,-2.152358,0.0,0.0,0.0,0.0,0.0,0.0,0.0,-0.24460706,44.96285,1.999556,
1.851562444819138,79,0.03112793,-0.83691406,0.21685791,-0.08496094,-0.26367188,-0.35742188,0.0,0.0,0.0,0.0,0.0,0.0,0.0,0.0,0.0,0.0,0.0,-0.4794357,-0.033158407,0.8771164,-0.35113525,0.31402588,-0.54748535,2.1123047,-0.96777344,0.44628906,31.754372,-9.925806,-0.6864819,18.15903,-0.34277344,-0.46990967,-0.7896118,-0.5283203,-4.899414,4.1054688,56.12518,18.755672,-49.30282,26.15466,-0.7508545,-0.5708008,1.3910522,-1.6367188,-4.8671875,-3.8857422,7.921048,-10.912472,-114.91017,24.95221,0.0,0.0,0.0,0.0,0.0,0.0,0.0,-2.005272,-121.14741,41.74254,0.0,0.0,0.0,0.0,0.0,0.0,0.0,0.4794357,0.033158407,-0.8771164,0.9102783,-0.06536865,-0.34362793,0.96191406,-1.9453125,-1.1054688,8.329447,9.925806,0.6864819,-18.15903,-0.99816895,0.09814453,-0.19671631,-0.453125,0.40429688,0.4267578,4.0848527,5.8738337,-55.952847,-13.114651,-0.41241455,0.5994873,1.1625977,-0.47558594,-0.15527344,-0.36523438,24.5369,-2.7952986,-127.31746,-8.871919,0.0,0.0,0.0,0.0,0.0,0.0,0.0,16.30415,-126.86455,-2.9392905,0.0,0.0,0.0,0.0,0.0,0.0,0.0,-0.26106167,44.978836,1.557677,
1.874999944120646,80,0.08331299,-0.78344727,0.16809082,-0.16308594,-0.13769531,-0.265625,0.0,0.0,0.0,0.0,0.0,0.0,0.0,0.0,0.0,0.0,0.0,-0.4812951,-0.026330996,0.8763872,-0.29089355,0.27850342,-0.5253296,0.5107422,-0.27539062,0.14160156,32.334995,-9.9643,-0.5451333,18.14393,-0.54766846,-0.66174316,-0.8787842,0.00390625,-5.330078,4.5341797,48.5928,19.488962,-48.707584,26.051552,-0.9758301,-0.5377197,1.6983643,-0.9550781,-4.6435547,-4.463867,8.696217,-0.70700645,-117.79286,28.513302,0.0,0.0,0.0,0.0,0.0,0.0,0.0,9.4169655,-121.87389,45.27871,0.0,0.0,0.0,0.0,0.0,0.0,0.0,0.4812951,0.026330996,-0.8763872,0.9660034,0.11645508,-0.30749512,1.1669922,-1.8476562,-0.9140625,9.00678,9.9643,0.5451333,-18.14393,-1.007019,-0.035949707,-0.171875,-0.39648438,0.48046875,0.53808594,2.1423798,3.5760865,-55.930702,-13.846357,-0.42730713,0.56359863,1.1347046,-0.24902344,-0.11425781,-0.2734375,26.34905,-5.533666,-127.23104,-9.762467,0.0,0.0,0.0,0.0,0.0,0.0,0.0,13.596672,-126.74048,-3.9334912,0.0,0.0,0.0,0.0,0.0,0.0,0.0,-0.34444207,44.9925,1.1626358,
1.898437443422154,81,0.13928223,-0.8036499,0.20440674,-0.35742188,0.080078125,-0.25195312,0.0,0.0,0.0,0.0,0.0,0.0,0.0,0.0,0.0,0.0,0.0,-0.47946337,-0.022580555,0.8774754,-0.22747803,0.1918335,-0.46411133,-0.6953125,0.2685547,-0.18945312,31.78478,-9.92638,-0.46748745,18.166462,-0.55773926,-0.5913696,-0.8529053,0.5449219,-5.491211,4.8535156,38.933678,19.39259,-48.700134,26.140778,-1.7345581,-0.4307251,1.9182129,-0.9736328,-4.826172,-4.5566406,9.293014,10.5954,-119.97205,31.668676,0.0,0.0,0.0,0.0,0.0,0.0,0.0,21.757568,-121.69651,48.18186,0.0,0.0,0.0,0.0,0.0,0.0,0.0,0.47946337,0.022580555,-0.8774754,0.96447754,0.2088623,-0.31762695,1.1279297,-1.8867188,-0.7216797,10.402573,9.92638,0.46748745,-18.166462,-0.95910645,-0.06958008,-0.19274902,-0.3232422,0.63378906,0.76171875,1.1720302,1.4162617,-55.786144,-14.688225,-0.48199463,0.53375244,1.1144409,-0.059570312,0.13378906,-0.18066406,28.076614,-8.480402,-126.99428,-11.034135,0.0,0.0,0.0,0.0,0.0,0.0,0.0,10.672201,-126.544655,-5.274621,0.0,0.0,0.0,0.0,0.0,0.0,0.0,-0.5895917,44.996433,0.8357576,
1.921874942723662,82,0.115356445,-0.78619385,0.20513916,-0.5332031,0.22363281,-0.25683594,0.0,0.0,0.0,0.0,0.0,0.0,0.0,0.0,0.0,0.0,0.0,-0.47470355,-0.02140227,0.8800811,-0.23968506,0.062805176,-0.42053223,-0.98046875,0.51171875,-0.31445312,30.4602,-9.827834,-0.44309336,18.22041,-0.6715088,-0.4459839,-0.62927246,0.54589844,-5.2441406,5.3847656,29.778818,18.87672,-49.04444,26.221138,-2.0,-0.38885498,1.5197754,-1.4072266,-4.4941406,-4.479492,11.984082,20.33365,-120.44979,35.232918,0.0,0.0,0.0,0.0,0.0,0.0,0.0,32.128246,-119.75368,51.377747,0.0,0.0,0.0,0.0,0.0,0.0,0.0,0.47470355,0.02140227,-0.8800811,0.99890137,0.17932129,-0.3260498,0.51953125,-1.9716797,-0.47265625,12.4092655,9.827834,0.44309336,-18.22041,-1.0053711,-0.07281494,-0.20458984,0.00390625,0.69140625,0.8886719,1.8095918,-0.7190466,-55.511227,-15.664409,-0.45465088,0.5491333,1.125061,0.2783203,0.23339844,-0.18554688,29.65871,-11.411451,-126.64365,-12.741601,0.0,0.0,0.0,0.0,0.0,0.0,0.0,7.7619896,-126.292465,-7.0415454,0.0,0.0,0.0,0.0,0.0,0.0,0.0,-1.0224802,44.99286,0.5426481,
1.9453124420251702,83,0.0690918,-0.8521118,0.21130371,-0.5917969,0.33203125,-0.18261719,0.0,0.0,0.0,0.0,0.0,0.0,0.0,0.0,0.0,0.0,0.0,-0.4682734,-0.023202378,0.88349617,-0.5181885,-0.062316895,-0.20959473,0.15722656,1.1074219,-0.030273438,28.372475,-9.69471,-0.4803612,18.29111,-1.2437744,0.08074951,-0.26763916,0.8779297,-4.399414,5.0371094,20.328943,18.022072,-49.70806,25.91736,-2.0,-0.4755249,0.4944458,-1.0117188,-3.5302734,-4.125,14.837425,29.72402,-119.84856,37.297672,0.0,0.0,0.0,0.0,0.0,0.0,0.0,41.866596,-117.02506,52.94199,0.0,0.0,0.0,0.0,0.0,0.0,0.0,0.4682734,0.023202378,-0.88349617,1.0303345,0.34039307,-0.34472656,-0.24121094,-1.6572266,-0.11035156,15.209417,9.69471,0.4803612,-18.29111,-1.0856323,-0.11846924,-0.04736328,0.11425781,0.9013672,1.0566406,2.6427138,-3.0707693,-55.048965,-16.477552,-0.55493164,0.6245117,1.1779785,0.54003906,0.50390625,-0.3984375,30.464437,-15.371155,-125.946495,-14.136333,0.0,0.0,0.0,0.0,0.0,0.0,0.0,3.836563,-125.85194,-8.548145,0.0,0.0,0.0,0.0,0.0,0.0,0.0,-1.6517234,44.97728,0.30574194,
1.9687499413266782,84,0.11633301,-1.0700073,0.24700928,-0.5722656,0.29492188,-0.18164062,0.0,0.0,0.0,0.0,0.0,0.0,0.0,0.0,0.0,0.0,0.0,-0.4672524,-0.022361383,0.8838805,-2.0,-0.014282227,1.4741821,0.8613281,-1.2851562,0.57714844,27.260319,-9.673573,-0.46294993,18.299068,-1.3921509,0.17285156,-0.18896484,-0.15332031,-3.008789,2.6582031,13.413948,17.908005,-49.784424,25.809364,-2.0,0.55682373,-0.6184082,-1.296875,-2.1513672,-2.8730469,15.39367,37.95649,-117.79929,38.38932,0.0,0.0,0.0,0.0,0.0,0.0,0.0,50.22944,-113.441376,53.569458,0.0,0.0,0.0,0.0,0.0,0.0,0.0,0.4672524,0.022361383,-0.8838805,1.1317749,0.32086182,-0.35546875,-1.0761719,-1.4199219,0.21386719,17.785498,9.673573,0.46294993,-18.299068,-1.2132568,-0.12286377,-0.043518066,0.26367188,1.0927734,1.3173828,2.9510796,-4.9134502,-54.630157,-17.070288,-0.5772705,0.506897,1.1116943,0.7636719,0.94628906,-0.85839844,31.143675,-19.152203,-125.20111,-15.515256,0.0,0.0,0.0,0.0,0.0,0.0,0.0,0.1145916,-125.575554,-10.146159,0.0,0.0,0.0,0.0,0.0,0.0,0.0,-2.2928529,44.943054,-0.07506919,
1.9921874406281863,85,0.041748047,-1.2217407,0.2694702,-0.5517578,0.055664062,-0.23632812,0.0,0.0,0.0,0.0,0.0,0.0,0.0,0.0,0.0,0.0,0.0,-0.46280557,-0.023431588,0.8864158,-1.7581177,-0.26226807,1.4505615,0.8574219,-1.0605469,0.4296875,29.030254,-9.5815115,-0.4851066,18.351555,-0.9324951,-0.30804443,-0.340271,-0.4951172,-1.2226562,0.6425781,13.295444,20.021652,-48.488525,26.663666,-2.0,1.4579468,-0.6555786,-0.375,-0.18457031,-1.6054688,15.664122,42.98884,-115.71466,38.237083,0.0,0.0,0.0,0.0,0.0,0.0,0.0,55.43698,-110.72763,53.072945,0.0,0.0,0.0,0.0,0.0,0.0,0.0,0.46280557,0.023431588,-0.8864158,1.3081665,-0.15881348,-0.41149902,-1.7578125,-1.2568359,0.2705078,19.911406,9.5815115,0.4851066,-18.351555,-1.3163452,-0.04699707,-0.0725708,0.38964844,1.4179688,1.5976562,2.030665,-6.3825884,-54.23207,-17.809374,-0.27850342,0.7449341,1.2045288,0.61035156,1.6865234,-1.7119141,31.426609,-23.57722,-124.16028,-17.310078,0.0,0.0,0.0,0.0,0.0,0.0,0.0,-4.272949,-125.25449,-12.217998,0.0,0.0,0.0,0.0,0.0,0.0,0.0,-2.8626566,44.918423,-0.3072412,
2.0156249399296944,86,-0.09686279,-1.3254395,0.05731201,-0.2607422,0.099609375,-0.17480469,0.0,0.0,0.0,0.0,0.0,0.0,0.0,0.0,0.0,0.0,0.0,-0.4610773,-0.022204872,0.8873195,-0.85614014,-0.41522217,0.59643555,-0.20605469,-0.08496094,-0.5175781,29.434025,-9.545729,-0.45970964,18.370264,-0.5952759,-0.14801025,-0.3383789,0.34960938,0.56640625,-0.75,15.335643,20.917788,-47.927807,26.66699,-2.0,1.961853,-0.79022217,0.23828125,-0.09277344,0.80859375,16.66258,42.754135,-115.75302,37.141518,0.0,0.0,0.0,0.0,0.0,0.0,0.0,55.27242,-110.656235,51.883514,0.0,0.0,0.0,0.0,0.0,0.0,0.0,0.4610773,0.022204872,-0.8873195,1.335022,-0.23413086,-0.3824463,-1.3798828,-0.5078125,0.3251953,21.377821,9.545729,0.45970964,-18.370264,-1.2646484,-0.32855225,0.051757812,0.26464844,1.6865234,1.5087891,1.3445026,-7.323698,-53.99432,-18.38185,-0.40966797,0.6392822,1.2006226,0.7080078,2.2167969,-1.6943359,32.03477,-27.547132,-123.102585,-19.341784,0.0,0.0,0.0,0.0,0.0,0.0,0.0,-8.227831,-125.334404,-14.652212,0.0,0.0,0.0,0.0,0.0,0.0,0.0,-3.2593932,44.887684,-0.57037723,
2.0390624392312025,87,0.05206299,-1.3699951,-0.04095459,-0.06738281,0.21289062,0.07519531,0.0,0.0,0.0,0.0,0.0,0.0,0.0,0.0,0.0,0.0,0.0,-0.45710087,-0.022178695,0.88935345,-0.52911377,-0.21783447,0.18878174,-0.7841797,1.3525391,-0.5361328,28.25356,-9.463405,-0.45916772,18.412374,-0.44256592,-0.2053833,-0.59490967,-0.35742188,1.8125,-2.055664,16.919012,20.206787,-48.51408,26.156704,-2.0,0.5239868,-0.72839355,-0.57910156,1.0625,2.803711,18.359697,38.94861,-117.29205,36.410835,0.0,0.0,0.0,0.0,0.0,0.0,0.0,51.025566,-112.856316,51.72267,0.0,0.0,0.0,0.0,0.0,0.0,0.0,0.45710087,0.022178695,-0.88935345,1.3735962,0.17346191,-0.066345215,-0.94628906,-0.140625,0.47753906,21.70034,9.463405,0.45916772,-18.412374,-1.25,-0.35620117,-0.03302002,0.25976562,1.953125,2.03125,3.602664,-7.6260138,-53.924458,-18.541435,-0.645874,0.68322754,1.2316284,0.890625,2.9824219,-2.647461,32.76813,-31.672352,-121.75708,-21.081226,0.0,0.0,0.0,0.0,0.0,0.0,0.0,-12.447226,-125.5242,-17.025665,0.0,0.0,0.0,0.0,0.0,0.0,0.0,-3.3260436,44.881668,-0.5902273,
2.0624999385327105,88,0.16821289,-1.6967163,0.53338623,-0.72558594,-0.0859375,0.12402344,0.0,0.0,0.0,0.0,0.0,0.0,0.0,0.0,0.0,0.0,0.0,-0.45852023,-0.027459402,0.88847774,-0.69677734,0.20214844,-0.5452881,-2.7539062,-0.029296875,-0.23144531,27.144306,-9.492789,-0.5684948,18.394243,-1.9390869,0.9137573,-0.3338623,2.7773438,0.875,-1.7431641,20.735733,19.332916,-48.971825,26.785069,1.9111328,-2.0,-1.993103,-0.9013672,6.361328,5.166992,21.23212,32.459793,-119.2673,35.317616,0.0,0.0,0.0,0.0,0.0,0.0,0.0,44.53625,-117.109344,51.121967,0.0,0.0,0.0,0.0,0.0,0.0,0.0,0.45852023,0.027459402,-0.88847774,1.5628662,-0.0028076172,0.11230469,-1.3056641,0.06542969,0.49609375,21.953302,9.492789,0.5684948,-18.394243,-1.520935,-0.5460205,0.19415283,0.25976562,2.0283203,2.421875,7.5236564,-7.4235125,-53.867638,-18.487396,-0.32055664,0.9102173,1.3596802,0.8125,4.008789,-3.711914,34.094707,-35.8199,-119.92585,-22.493637,0.0,0.0,0.0,0.0,0.0,0.0,0.0,-16.90136,-125.68743,-19.465986,0.0,0.0,0.0,0.0,0.0,0.0,0.0,-3.6707535,44.855904,-0.5080583,
2.0859374378342186,89,-0.7522583,-1.6131592,0.29400635,-0.2578125,-0.7363281,-0.107421875,0.0,0.0,0.0,0.0,0.0,0.0,0.0,0.0,0.0,0.0,0.0,-0.47022384,-0.030192083,0.8821872,-2.0,-0.20172119,1.1398926,1.1962891,-1.3203125,0.01171875,26.302332,-9.735091,-0.6250698,18.264008,-1.8757324,-0.42474365,-0.39318848,1.6455078,2.1875,-3.7841797,23.109852,18.742214,-49.167233,27.330856,-2.0,-1.9794312,0.3017578,3.3759766,3.7480469,0.6435547,20.822409,28.396404,-119.95096,36.458694,0.0,0.0,0.0,0.0,0.0,0.0,0.0,41.412254,-118.94495,51.613884,0.0,0.0,0.0,0.0,0.0,0.0,0.0,0.47022384,0.030192083,-0.8821872,1.6364746,-0.099121094,-0.14398193,-1.5908203,0.5576172,0.6660156,22.169203,9.735091,0.6250698,-18.264008,-1.8618774,-0.77349854,-0.09063721,-0.055664062,2.2011719,2.296875,12.096572,-6.7678747,-53.936245,-18.519115,-0.5966797,0.64001465,1.2294312,-0.10644531,5.798828,-5.1064453,36.07591,-39.821625,-117.681145,-23.986471,0.0,0.0,0.0,0.0,0.0,0.0,0.0,-21.719213,-126.022156,-22.229475,0.0,0.0,0.0,0.0,0.0,0.0,0.0,-4.166304,44.80769,-0.68722165,
2.1093749371357267,90,-0.027954102,-1.1271973,0.2529297,0.671875,-0.41210938,-0.13378906,0.0,0.0,0.0,0.0,0.0,0.0,0.0,0.0,0.0,0.0,0.0,-0.48213732,-0.01984226,0.8761141,-0.673645,-0.49383545,-0.46966553,1.8818359,0.8671875,-0.6220703,27.072186,-9.981737,-0.41079623,18.138277,0.557251,-0.6187744,-0.51678467,1.4287109,1.4082031,-1.7568359,29.82511,19.07179,-48.608696,25.691038,1.260376,-0.5285034,-1.9689331,2.1396484,0.71875,2.0126953,20.547804,21.12726,-120.045235,34.137707,0.0,0.0,0.0,0.0,0.0,0.0,0.0,34.615646,-119.98854,48.90483,0.0,0.0,0.0,0.0,0.0,0.0,0.0,0.48213732,0.01984226,-0.8761141,1.4685669,-0.040527344,0.55773926,-0.7392578,2.2285156,0.6611328,19.271053,9.981737,0.41079623,-18.138277,-1.7718506,-1.3533936,0.45910645,1.6318359,2.1220703,3.1699219,18.64084,-4.3294744,-54.762657,-18.34959,-0.30963135,0.58917236,1.1688232,0.30859375,8.253906,-6.5771484,38.504658,-41.978745,-115.76816,-25.165442,0.0,0.0,0.0,0.0,0.0,0.0,0.0,-25.635431,-127.31528,-25.272362,0.0,0.0,0.0,0.0,0.0,0.0,0.0,-3.666473,44.84881,-1.0019721,
2.1328124364372347,91,0.48339844,-0.8828125,0.5276489,0.47558594,0.17382812,0.0087890625,0.0,0.0,0.0,0.0,0.0,0.0,0.0,0.0,0.0,0.0,0.0,-0.4828238,-0.014472944,0.87581825,-0.15734863,1.2018433,-0.6395874,-0.2919922,1.2177734,0.2763672,25.601109,-9.99595,-0.29963484,18.132154,-0.8237915,-0.41149902,-0.6984863,2.8300781,1.5732422,-2.866211,32.248455,17.673428,-49.84591,23.523264,-2.0,-1.9797974,0.37091064,-0.70703125,-0.64453125,1.1445312,23.87508,14.414573,-121.37791,31.151127,0.0,0.0,0.0,0.0,0.0,0.0,0.0,27.551392,-121.039955,46.228382,0.0,0.0,0.0,0.0,0.0,0.0,0.0,0.4828238,0.014472944,-0.87581825,1.2373047,-0.13684082,0.07519531,-0.6640625,3.7167969,0.7705078,14.163284,9.99595,0.29963484,-18.132154,-1.487793,-0.32183838,0.7702637,3.4169922,1.9306641,3.6689453,27.349937,-0.1323452,-55.79754,-18.079948,-0.8399658,1.3794556,1.6761475,0.25,10.191406,-8.135742,41.905125,-42.417862,-113.59349,-25.671902,0.0,0.0,0.0,0.0,0.0,0.0,0.0,-29.425909,-128.54893,-28.489628,0.0,0.0,0.0,0.0,0.0,0.0,0.0,-3.0479145,44.895557,-0.9383621,
2.156249935738743,92,0.20275879,-0.73498535,0.5918579,0.26171875,0.2685547,-0.47265625,0.0,0.0,0.0,0.0,0.0,0.0,0.0,0.0,0.0,0.0,0.0,-0.4616738,0.0065060407,0.8857276,-0.6206665,-0.33154297,-0.89172363,-1.7626953,1.8730469,-0.03125,24.25723,-9.558077,0.13469517,18.337305,-1.2042847,0.057250977,-0.4958496,0.119140625,1.0693359,-0.87597656,32.85443,15.984077,-50.4411,24.598318,0.18988037,0.94592285,0.8779297,0.6738281,-0.24707031,0.3232422,24.80021,8.989686,-121.79251,31.41556,0.0,0.0,0.0,0.0,0.0,0.0,0.0,22.247467,-121.18064,46.365326,0.0,0.0,0.0,0.0,0.0,0.0,0.0,0.4616738,-0.0065060407,-0.8857276,1.1523438,-0.3544922,-0.83966064,-3.0429688,2.75,2.1328125,8.645474,9.558077,-0.13469517,-18.337305,-1.1384277,0.97906494,-0.767334,2.7314453,4.0859375,1.3027344,36.467384,3.9676657,-56.868828,-18.025566,-2.0,1.0408325,1.3031006,-1.3623047,3.0175781,-5.0703125,45.442657,-42.260864,-111.12535,-28.279648,0.0,0.0,0.0,0.0,0.0,0.0,0.0,-32.711315,-127.82655,-33.768173,0.0,0.0,0.0,0.0,0.0,0.0,0.0,-2.249364,44.866726,-1.5020158,
2.179687435040251,93,0.059509277,-0.7734375,0.5661621,0.30078125,0.18066406,-0.7373047,0.0,0.0,0.0,0.0,0.0,0.0,0.0,0.0,0.0,0.0,0.0,-0.43226227,0.033420987,0.8998227,-1.3946533,-0.56451416,-0.74871826,-0.22265625,1.6113281,0.053710938,22.316153,-8.949167,0.6919181,18.62912,-1.0531006,-0.18707275,-0.55059814,-1.7529297,1.109375,-1.1416016,32.0095,14.175264,-51.086063,24.476103,-0.76812744,-0.23828125,0.805542,0.65625,-0.103515625,0.17480469,23.424372,4.815959,-122.12286,31.66554,0.0,0.0,0.0,0.0,0.0,0.0,0.0,18.085224,-121.332405,46.59722,0.0,0.0,0.0,0.0,0.0,0.0,0.0,0.43226227,-0.033420987,-0.8998227,1.4594727,-0.4109497,-1.8200073,0.12011719,2.65625,1.7333984,4.148362,8.949167,-0.6919181,-18.62912,-0.7059326,-1.8908081,-1.3311768,-0.296875,2.7246094,0.6894531,44.880833,6.9813976,-57.646427,-17.18606,-1.7756958,1.0938721,1.5741577,4.3916016,-5.1835938,-2.3554688,46.105225,-42.37172,-108.0652,-31.609146,0.0,0.0,0.0,0.0,0.0,0.0,0.0,-32.249535,-123.9008,-38.463245,0.0,0.0,0.0,0.0,0.0,0.0,0.0,-1.4603398,44.86089,-2.3677385,
2.203124934341759,94,-0.121154785,-0.9254761,0.52679443,0.24316406,0.02734375,-0.5654297,0.0,0.0,0.0,0.0,0.0,0.0,0.0,0.0,0.0,0.0,0.0,-0.40868843,0.05087059,0.9104723,-0.73773193,0.023925781,-0.4827881,-0.6035156,2.1523438,0.15722656,20.079052,-8.461117,1.0531789,18.8496,-0.64611816,-1.2536621,-0.3890381,-0.5830078,0.8671875,-1.2753906,30.894934,12.026279,-51.906605,23.825024,-0.41656494,-0.4343872,0.8474121,0.2607422,-0.15625,-0.046875,21.558113,0.47603512,-122.61647,31.054363,0.0,0.0,0.0,0.0,0.0,0.0,0.0,13.719295,-121.7149,45.9965,0.0,0.0,0.0,0.0,0.0,0.0,0.0,0.40868843,-0.05087059,-0.9104723,1.7024536,0.42175293,-0.727417,3.1982422,4.5478516,0.5029297,3.0098636,8.461117,-1.0531789,-18.8496,-1.52594,-0.6188965,-0.7540283,-0.328125,0.8251953,0.93066406,53.79621,12.3516865,-57.86182,-16.1404,1.0588379,-2.0,1.9985352,2.647461,-4.9833984,-2.7490234,51.40088,-39.5746,-105.57233,-30.748568,0.0,0.0,0.0,0.0,0.0,0.0,0.0,-27.898428,-119.38877,-39.293674,0.0,0.0,0.0,0.0,0.0,0.0,0.0,-0.82688797,44.86808,-2.8780725,
2.226562433643267,95,-0.11993408,-1.1182251,0.43615723,0.24316406,0.12890625,0.04296875,0.0,0.0,0.0,0.0,0.0,0.0,0.0,0.0,0.0,0.0,0.0,-0.40353885,0.057631485,0.91327125,-0.8112793,-0.4746704,-0.42089844,-0.9609375,2.3574219,0.29492188,15.980923,-8.354506,1.1931505,18.907545,-1.2058105,-0.6871338,-0.30755615,1.3837891,0.7128906,-1.2558594,28.56957,7.940954,-53.247776,22.449417,-0.38891602,-0.46435547,0.829895,0.22265625,-0.13671875,0.1015625,22.891806,-6.1667194,-123.56848,29.00315,0.0,0.0,0.0,0.0,0.0,0.0,0.0,7.0087776,-122.62706,44.0087,0.0,0.0,0.0,0.0,0.0,0.0,0.0,0.40353885,-0.057631485,-0.91327125,1.0693359,0.35803223,-0.43548584,3.2138672,2.9638672,0.68066406,7.945618,8.354506,-1.1931505,-18.907545,-0.42163086,0.26391602,-0.7192383,1.3017578,0.1796875,-0.81933594,58.852665,16.809052,-57.355324,-14.066486,1.0714111,-1.9926147,-2.0,-0.14355469,-3.0527344,1.2080078,51.073494,-34.555847,-105.11255,-30.36567,0.0,0.0,0.0,0.0,0.0,0.0,0.0,-21.579136,-117.66135,-38.987007,0.0,0.0,0.0,0.0,0.0,0.0,0.0,-0.5109454,44.898174,-3.0590415,
2.249999932944775,96,0.05230713,-1.0893555,0.39971924,0.22363281,0.21289062,0.55566406,0.0,0.0,0.0,0.0,0.0,0.0,0.0,0.0,0.0,0.0,0.0,-0.40237382,0.050697476,0.91425186,-0.92767334,-0.46710205,-0.57214355,-0.38671875,2.899414,0.02734375,12.161034,-8.330387,1.049595,18.927847,-1.0309448,0.22149658,-0.2652588,0.32226562,0.48632812,-0.24121094,25.721907,3.9785452,-54.571056,21.093163,-0.4036255,-0.44055176,0.8510742,0.29785156,-0.08203125,0.1015625,24.562666,-11.606578,-124.59105,27.476414,0.0,0.0,0.0,0.0,0.0,0.0,0.0,1.4647741,-123.62016,42.573235,0.0,0.0,0.0,0.0,0.0,0.0,0.0,0.40237382,-0.050697476,-0.91425186,0.9847412,0.20629883,-0.5628052,0.8828125,2.6865234,1.1210938,12.294446,8.330387,-1.049595,-18.927847,-0.19708252,0.78430176,-0.71917725,-0.375,-1.3125,-2.0605469,61.606182,20.257278,-56.36877,-12.060896,0.48687744,-1.9897461,-2.0,-0.17675781,-2.3388672,4.689453,47.754036,-30.025196,-105.34235,-28.147766,0.0,0.0,0.0,0.0,0.0,0.0,0.0,-15.7881565,-117.423386,-35.328854,0.0,0.0,0.0,0.0,0.0,0.0,0.0,-0.28086513,44.93054,-2.6151195,
2.273437432246283,97,-0.0020141602,-0.8809204,0.34710693,-0.06738281,0.22265625,0.6269531,0.0,0.0,0.0,0.0,0.0,0.0,0.0,0.0,0.0,0.0,0.0,-0.40724307,0.03576445,0.9128263,-0.9108887,-0.0524292,-0.38659668,-0.80371094,3.3476562,0.18652344,7.750765,-8.431193,0.740435,18.898335,-0.9313965,-0.38061523,-0.39764404,-1.1181641,0.4814453,-0.22363281,21.744888,-0.5764637,-55.70402,20.12667,-0.4359131,-0.30700684,0.85284424,0.4296875,0.15429688,0.25097656,23.744211,-16.532295,-125.57233,27.23517,0.0,0.0,0.0,0.0,0.0,0.0,0.0,-3.5312748,-124.63779,42.39756,0.0,0.0,0.0,0.0,0.0,0.0,0.0,0.40724307,-0.03576445,-0.9128263,0.8522949,0.13775635,-0.55267334,-0.53808594,2.3251953,1.3125,15.963237,8.431193,-0.740435,-18.898335,-0.43572998,0.8825073,-0.763916,-0.6074219,-2.4824219,-2.2001953,61.342598,23.25645,-55.18344,-10.925541,0.13970947,1.0593872,1.4987183,-0.08886719,-2.194336,5.8867188,43.154778,-24.157547,-107.29321,-25.833916,0.0,0.0,0.0,0.0,0.0,0.0,0.0,-8.779812,-119.13754,-30.679298,0.0,0.0,0.0,0.0,0.0,0.0,0.0,-0.19540972,44.970074,-1.8491025,
2.296874931547791,98,-0.015991211,-0.6038208,0.3258667,-0.14453125,0.14941406,0.43652344,0.0,0.0,0.0,0.0,0.0,0.0,0.0,0.0,0.0,0.0,0.0,-0.40736097,0.02252445,0.91318315,-0.97021484,-0.18133545,-0.34106445,-0.83984375,3.3447266,0.6357422,2.913427,-8.433637,0.4663259,18.905722,-1.2191162,-0.5401001,-0.31671143,-0.060546875,0.3173828,-0.31933594,17.88915,-5.182888,-56.441975,19.877821,-0.47039795,-0.3348999,0.8502197,0.25976562,0.3935547,0.3828125,22.916481,-21.902994,-126.121826,27.0928,0.0,0.0,0.0,0.0,0.0,0.0,0.0,-8.918694,-125.328094,42.281258,0.0,0.0,0.0,0.0,0.0,0.0,0.0,0.40736097,-0.02252445,-0.91318315,0.71899414,0.05114746,-0.60546875,-0.083984375,1.5859375,1.2392578,17.883568,8.433637,-0.4663259,-18.905722,-0.052124023,0.8435669,-0.7591553,-1.9443359,-3.5,-2.2519531,58.277676,24.685528,-54.344788,-9.990435,-0.25335693,0.6685791,1.2312012,-0.018554688,-2.8173828,5.885742,38.454334,-18.729397,-110.419754,-22.519152,0.0,0.0,0.0,0.0,0.0,0.0,0.0,-2.2665596,-121.55729,-24.808456,0.0,0.0,0.0,0.0,0.0,0.0,0.0,-0.33202356,44.989155,-1.2578083,
2.3203124308492993,99,0.05822754,-0.55126953,0.31604004,-0.0087890625,0.044921875,0.2109375,0.0,0.0,0.0,0.0,0.0,0.0,0.0,0.0,0.0,0.0,0.0,-0.40735528,0.015418867,0.91331315,-1.0707397,-0.16290283,-0.48657227,0.10058594,3.0830078,0.7861328,1.7246497,-8.433518,0.3192183,18.908415,-1.0881958,0.12365723,-0.27178955,-0.043945312,0.31640625,-0.14941406,14.219561,-9.534915,-56.673206,19.73355,-0.46166992,-0.28607178,0.8880615,-0.0048828125,0.63378906,0.5517578,22.922592,-26.827831,-126.20082,27.058235,0.0,0.0,0.0,0.0,0.0,0.0,0.0,-13.899132,-125.70577,42.304058,0.0,0.0,0.0,0.0,0.0,0.0,0.0,0.40735528,-0.015418867,-0.91331315,0.5159302,-0.05529785,-0.7715454,1.8154297,1.1533203,0.5332031,18.9708,8.433518,-0.3192183,-18.908415,-0.1463623,-0.0032958984,-0.81921387,-1.9111328,-4.091797,-3.038086,53.387455,24.869473,-53.818474,-8.266029,-0.73950195,0.8109741,1.3236694,-0.43847656,-3.5214844,5.5878906,35.497616,-13.749729,-113.96985,-16.972319,0.0,0.0,0.0,0.0,0.0,0.0,0.0,3.690525,-123.77372,-16.84874,0.0,0.0,0.0,0.0,0.0,0.0,0.0,-0.44943967,44.994644,-0.9600738,
2.3437499301508073,100,-0.016418457,-0.701416,0.28796387,0.16601562,0.091796875,-0.052734375,0.0,0.0,0.0,0.0,0.0,0.0,0.0,0.0,0.0,0.0,0.0,-0.4072391,0.015166722,0.9134,-0.9303589,-0.010925293,-0.36791992,0.25390625,2.7470703,0.6875,5.211618,-8.43111,0.31399813,18.910212,-1.0566406,0.30810547,-0.057373047,-1.1943359,0.34960938,-0.50878906,11.518664,-13.116611,-56.50007,19.536722,-0.5333252,-0.5332031,0.788147,-1.2880859,0.7949219,0.8544922,21.90339,-31.098564,-125.83546,26.96708,0.0,0.0,0.0,0.0,0.0,0.0,0.0,-18.34834,-125.82143,42.363052,0.0,0.0,0.0,0.0,0.0,0.0,0.0,0.4072391,-0.015166722,-0.9134,0.30114746,-0.02709961,-0.84973145,3.3955078,1.2890625,-0.44335938,19.889172,8.43111,-0.31399813,-18.910212,-0.10498047,0.20220947,-0.8859253,-0.97753906,-4.4902344,-3.9238281,47.579517,24.21551,-53.491474,-6.0006857,-1.0738525,0.9225464,1.3935547,-0.43554688,-3.8652344,6.120117,29.829739,-8.853136,-117.08911,-10.656648,0.0,0.0,0.0,0.0,0.0,0.0,0.0,9.342314,-125.02937,-8.166982,0.0,0.0,0.0,0.0,0.0,0.0,0.0,-0.36951813,44.997643,-0.91192126,
2.3671874294523154,101,-0.085510254,-0.71276855,0.24542236,0.26367188,-0.107421875,-0.20117188,0.0,0.0,0.0,0.0,0.0,0.0,0.0,0.0,0.0,0.0,0.0,-0.40671104,0.020232158,0.91351485,-0.88134766,-0.2559204,-0.18304443,-0.4765625,2.6191406,0.23242188,7.4992566,-8.420178,0.41886842,18.91259,-0.94091797,-0.19195557,-0.16656494,-1.2617188,0.5439453,-0.7519531,9.433277,-15.660427,-56.114338,19.375395,-0.42889404,-0.076293945,0.77679443,-0.43847656,0.9111328,0.5732422,19.153759,-34.138924,-125.38275,26.260618,0.0,0.0,0.0,0.0,0.0,0.0,0.0,-21.56121,-125.877235,41.799114,0.0,0.0,0.0,0.0,0.0,0.0,0.0,0.40671104,-0.020232158,-0.91351485,0.11022949,0.35333252,-0.58929443,3.4589844,0.69921875,-1.0546875,21.318447,8.420178,-0.41886842,-18.91259,-0.1385498,0.19720459,-0.6546631,-1.1132812,-4.6416016,-4.7041016,41.790337,25.13195,-53.17444,-5.2341022,-1.3432617,0.57373047,1.1880493,-0.9970703,-3.6279297,5.9570312,23.650232,-0.7894211,-120.35004,-6.306107,0.0,0.0,0.0,0.0,0.0,0.0,0.0,17.720284,-126.125145,-1.3704996,0.0,0.0,0.0,0.0,0.0,0.0,0.0,-0.11882126,44.995087,-1.0494341,
2.3906249287538235,102,-0.16168213,-0.7451172,0.24041748,0.14746094,-0.28222656,0.045898438,0.0,0.0,0.0,0.0,0.0,0.0,0.0,0.0,0.0,0.0,0.0,-0.40989906,0.024550423,0.9120231,-0.8843994,-0.011291504,-0.1605835,-0.9238281,2.3017578,0.06933594,9.860013,-8.486179,0.50826985,18.881706,-0.97216797,0.022949219,-0.07122803,-0.91796875,0.7128906,-0.6171875,8.099534,-18.303993,-55.647526,18.831797,-0.48590088,-0.21722412,0.81988525,-0.15625,0.8017578,0.7763672,17.890596,-37.470917,-124.70157,25.916746,0.0,0.0,0.0,0.0,0.0,0.0,0.0,-25.118336,-125.68805,41.607475,0.0,0.0,0.0,0.0,0.0,0.0,0.0,0.40989906,-0.024550423,-0.9120231,0.17675781,0.43530273,-0.605896,2.2460938,0.2265625,-0.82421875,21.73956,8.486179,-0.50826985,-18.881706,-0.5391846,0.34765625,-0.5504761,0.23339844,-4.5810547,-5.1064453,33.08092,25.252823,-53.16751,-4.9117565,-1.6008911,0.7394409,1.2671509,-1.5712891,-4.2373047,5.2226562,18.985838,9.821379,-123.483505,-3.1930113,0.0,0.0,0.0,0.0,0.0,0.0,0.0,28.269642,-126.7597,3.82943,0.0,0.0,0.0,0.0,0.0,0.0,0.0,0.13573597,44.994236,-1.1501786,
2.4140624280553316,103,-0.093688965,-0.7581787,0.20953369,-0.21972656,-0.49902344,0.1953125,0.0,0.0,0.0,0.0,0.0,0.0,0.0,0.0,0.0,0.0,0.0,-0.41921446,0.024489854,0.9077864,-1.0499268,0.017578125,-0.14483643,-1.0136719,2.040039,0.25683594,12.255526,-8.679039,0.50701594,18.793995,-1.0088501,0.16552734,1.8310547E-4,-0.6855469,0.7890625,-0.8613281,6.1831374,-20.849697,-55.1804,18.90111,-0.5280762,-0.3649292,0.7905884,-0.13769531,0.7470703,0.7939453,15.314232,-40.543816,-124.14432,25.363197,0.0,0.0,0.0,0.0,0.0,0.0,0.0,-28.436565,-125.56951,41.209015,0.0,0.0,0.0,0.0,0.0,0.0,0.0,0.41921446,-0.024489854,-0.9077864,0.21722412,0.30963135,-0.47576904,0.9707031,0.3232422,-0.078125,22.069124,8.679039,-0.50701594,-18.793995,-0.8960571,1.0463257,-0.8397827,-0.076171875,-4.524414,-4.935547,24.851332,25.614267,-53.025986,-4.5028934,-2.0,1.2411499,1.6108398,-2.633789,-4.6064453,4.0966797,14.629801,20.790257,-124.747345,-0.14581299,0.0,0.0,0.0,0.0,0.0,0.0,0.0,38.881744,-125.25377,8.397622,0.0,0.0,0.0,0.0,0.0,0.0,0.0,0.11628476,44.994274,-1.160135,
2.4374999273568396,104,-0.017700195,-0.7730713,0.17871094,-0.6269531,-0.5488281,0.2265625,0.0,0.0,0.0,0.0,0.0,0.0,0.0,0.0,0.0,0.0,0.0,-0.4318212,0.02026492,0.9018819,-1.1228027,-0.3015747,-0.08514404,-1.2763672,2.0029297,0.1484375,15.2376,-8.940039,0.4195467,18.671753,-0.99560547,0.18133545,0.045532227,-0.92578125,0.96484375,-0.9345703,4.819182,-23.425957,-54.714924,18.784948,-0.54522705,-0.3027954,0.8250122,-0.025390625,0.7480469,1.0537109,12.537403,-43.688175,-123.5401,24.932665,0.0,0.0,0.0,0.0,0.0,0.0,0.0,-31.849342,-125.40913,40.937393,0.0,0.0,0.0,0.0,0.0,0.0,0.0,0.4318212,-0.02026492,-0.9018819,0.3630371,0.26715088,-0.17120361,-0.016601562,0.0048828125,0.26757812,21.932997,8.940039,-0.4195467,-18.671753,-0.6846924,0.06842041,-0.5147095,-0.81152344,-3.9677734,-5.2753906,17.174776,25.92906,-52.793156,-3.9211254,-2.0,0.7190552,1.2593994,-2.1914062,-3.9873047,3.0253906,12.686567,31.257168,-124.25481,3.1699624,0.0,0.0,0.0,0.0,0.0,0.0,0.0,48.70891,-122.27127,12.766344,0.0,0.0,0.0,0.0,0.0,0.0,0.0,-0.35713398,44.98916,-1.181884,
2.4609374266583477,105,0.03515625,-0.815979,0.14758301,-0.74316406,-0.5126953,0.12890625,0.0,0.0,0.0,0.0,0.0,0.0,0.0,0.0,0.0,0.0,0.0,-0.4441994,0.01472057,0.8960353,-1.1645508,-0.028076172,0.007873535,-0.89941406,1.7802734,-0.12109375,18.920786,-9.196303,0.30476144,18.550709,-1.1720581,0.22491455,0.17303467,-0.7050781,1.2714844,-1.1572266,4.388428,-26.255104,-54.08788,18.216537,-0.5880127,-0.3501587,0.81640625,-0.044921875,1.1152344,1.3896484,11.025249,-48.133896,-122.46863,23.866756,0.0,0.0,0.0,0.0,0.0,0.0,0.0,-36.73021,-124.878784,40.112286,0.0,0.0,0.0,0.0,0.0,0.0,0.0,0.4441994,-0.01472057,-0.8960353,1.2785034,-0.15734863,0.16638184,-0.7314453,1.4091797,-0.026367188,21.707275,9.196303,-0.30476144,-18.550709,-1.2822266,-0.5217285,-0.42474365,0.3955078,-2.8398438,-4.0146484,11.446354,27.004047,-52.448967,-3.9442844,-2.0,-0.16870117,0.67614746,-0.94628906,-3.4091797,1.6757812,12.358769,41.540283,-122.45977,4.5947056,0.0,0.0,0.0,0.0,0.0,0.0,0.0,58.325542,-118.439964,14.718401,0.0,0.0,0.0,0.0,0.0,0.0,0.0,-1.1047684,44.977245,-1.286588,
2.4843749259598558,106,-0.013000488,-1.1342163,0.23034668,-0.3564453,-0.3330078,0.0,0.0,0.0,0.0,0.0,0.0,0.0,0.0,0.0,0.0,0.0,0.0,-0.46598935,0.012363511,0.8844661,-1.1618042,0.007385254,0.006225586,-1.4960938,1.4824219,-0.26171875,22.071453,-9.647424,0.255963,18.31119,-0.9746704,0.38983154,0.12530518,-0.3310547,1.6738281,-1.3779297,4.583813,-28.819149,-53.421192,17.447638,-0.47631836,-0.40496826,0.8960571,0.125,1.6777344,1.4472656,10.174538,-53.139122,-120.99858,22.742632,0.0,0.0,0.0,0.0,0.0,0.0,0.0,-42.222614,-124.08606,39.1997,0.0,0.0,0.0,0.0,0.0,0.0,0.0,0.46598935,-0.012363511,-0.8844661,1.999939,-0.7173462,1.6702881,1.1650391,1.2617188,-0.5419922,23.206535,9.647424,-0.255963,-18.31119,-1.0140381,-0.21575928,-0.08630371,2.5009766,-1.8486328,-1.7978516,9.598843,30.13572,-51.411007,-3.7423983,-2.0,-1.1654663,0.044189453,0.7519531,-2.5791016,0.5107422,11.109131,50.950737,-119.72662,5.53187,0.0,0.0,0.0,0.0,0.0,0.0,0.0,67.44627,-114.296936,15.469723,0.0,0.0,0.0,0.0,0.0,0.0,0.0,-1.7539314,44.929527,-1.5521228,
2.507812425261364,107,0.045837402,-1.1726074,0.08929443,-0.27929688,-0.23535156,-0.1328125,0.0,0.0,0.0,0.0,0.0,0.0,0.0,0.0,0.0,0.0,0.0,-0.47122815,0.013578942,0.8820917,-1.1599731,-0.23669434,-0.16699219,-2.0332031,0.97753906,0.024414062,24.50978,-9.755883,0.28112623,18.262035,-1.0255127,0.4359131,-0.034973145,0.15722656,2.0361328,-1.6933594,4.1711493,-30.852135,-52.671192,17.48246,-0.5812988,-0.30682373,0.96191406,0.48535156,2.5644531,1.3193359,8.292921,-57.640404,-119.336716,22.382208,0.0,0.0,0.0,0.0,0.0,0.0,0.0,-47.081528,-123.380005,38.8719,0.0,0.0,0.0,0.0,0.0,0.0,0.0,0.47122815,-0.013578942,-0.8820917,1.1594849,0.38842773,0.7296753,0.9003906,0.4765625,-0.5966797,22.98426,9.755883,-0.28112623,-18.262035,-0.5871582,0.26062012,-0.22033691,1.3476562,0.17578125,0.25683594,8.826369,30.613438,-51.33941,-3.8407793,-2.0,-1.161438,0.024353027,0.43945312,-1.5507812,-1.4814453,10.788428,53.49636,-118.991234,5.3906565,0.0,0.0,0.0,0.0,0.0,0.0,0.0,70.150894,-112.851295,14.624314,0.0,0.0,0.0,0.0,0.0,0.0,0.0,-2.0412447,44.92569,-1.7820542,
2.531249924562872,108,0.08538818,-1.3011475,0.07556152,-0.22167969,-0.068359375,-0.01953125,0.0,0.0,0.0,0.0,0.0,0.0,0.0,0.0,0.0,0.0,0.0,-0.47370446,0.013219768,0.8808447,-1.2072754,-0.22076416,-0.14202881,-1.2587891,0.45410156,0.026367188,26.146015,-9.807151,0.27369016,18.236216,-1.2542725,0.22290039,-0.14300537,0.5644531,2.2451172,-1.9550781,4.107133,-32.19258,-52.151535,17.791153,-0.6069946,-0.28375244,0.9822998,0.9394531,3.7070312,1.5263672,7.263959,-63.31234,-116.99939,21.440817,0.0,0.0,0.0,0.0,0.0,0.0,0.0,-53.01585,-122.45749,37.69448,0.0,0.0,0.0,0.0,0.0,0.0,0.0,0.47370446,-0.013219768,-0.8808447,0.8375244,0.4126587,0.24365234,-0.8671875,-0.08105469,0.1328125,23.188034,9.807151,-0.27369016,-18.236216,-0.6402588,0.24169922,-0.49597168,0.60253906,1.4365234,1.7441406,10.722309,30.950432,-51.044,-3.4924011,-2.0,-1.9882202,-0.047851562,1.984375,0.05078125,-5.2695312,13.190852,51.67124,-119.47644,5.0827866,0.0,0.0,0.0,0.0,0.0,0.0,0.0,68.97763,-113.443695,13.11338,0.0,0.0,0.0,0.0,0.0,0.0,0.0,-2.2551546,44.914158,-1.8868611,
2.55468742386438,109,0.39190674,-1.8364868,0.7280884,-0.3984375,0.53027344,0.52246094,0.0,0.0,0.0,0.0,0.0,0.0,0.0,0.0,0.0,0.0,0.0,-0.46979648,0.0018086992,0.8829489,-1.5247803,-0.7133789,-0.15826416,-0.84277344,0.17285156,0.2421875,27.520933,-9.726243,0.03744572,18.279781,-1.4039917,0.32995605,0.12060547,1.1210938,2.546875,-1.7998047,6.455855,-32.82149,-52.08201,18.284262,-0.70703125,-0.42462158,1.1624756,1.46875,5.3046875,1.7900391,7.0462027,-68.49882,-114.59477,20.633196,0.0,0.0,0.0,0.0,0.0,0.0,0.0,-58.620926,-121.98945,36.373688,0.0,0.0,0.0,0.0,0.0,0.0,0.0,0.46979648,-0.0018086992,-0.8829489,1.999939,1.3474731,0.017028809,-5.560547,3.6386719,0.55566406,24.914307,9.726243,-0.03744572,-18.279781,-2.0,-1.034668,-1.1954346,-4.34375,3.6523438,3.1904297,15.928766,33.165733,-49.90194,-3.6506538,-2.0,-1.9993286,1.999939,-1.5166016,5.2666016,-5.3339844,17.201426,48.21399,-119.81729,4.799342,0.0,0.0,0.0,0.0,0.0,0.0,0.0,66.62539,-116.83126,12.070665,0.0,0.0,0.0,0.0,0.0,0.0,0.0,-2.7886963,44.892864,-1.5757623,
2.578124923165888,110,0.97906494,-1.5453491,0.0079956055,-0.36328125,1.3730469,1.2558594,0.0,0.0,0.0,0.0,0.0,0.0,0.0,0.0,0.0,0.0,0.0,-0.45885447,-0.029847262,0.8882473,-1.8839722,-0.5570679,0.12188721,-0.60253906,-1.2636719,0.07910156,28.439518,-9.49971,-0.61793095,18.389471,-1.8886719,0.80822754,0.31506348,0.5390625,2.5927734,-2.1953125,10.988204,-32.368114,-52.82599,19.28349,-0.52349854,-0.5050049,1.1656494,0.82421875,7.0351562,3.2861328,9.741524,-72.755905,-112.439255,20.398193,0.0,0.0,0.0,0.0,0.0,0.0,0.0,-63.98678,-122.33862,35.409683,0.0,0.0,0.0,0.0,0.0,0.0,0.0,0.45885447,0.029847262,-0.8882473,0.383667,0.2571411,-1.8348389,-1.8798828,-5.0947266,0.83984375,26.656878,9.49971,0.61793095,-18.389471,-0.8461914,1.0403442,-0.9736328,-0.07128906,3.0009766,3.9199219,24.378849,35.18077,-48.219433,-4.0786734,1.4000854,-0.8240967,0.19598389,-0.86328125,3.8300781,-0.9111328,15.07394,41.758232,-119.52388,3.6123142,0.0,0.0,0.0,0.0,0.0,0.0,0.0,60.145298,-118.17943,11.392999,0.0,0.0,0.0,0.0,0.0,0.0,0.0,-3.7545042,44.850533,-0.43243057,
2.601562422467396,111,-0.73876953,-0.97717285,0.6218872,-0.14746094,0.78027344,0.41015625,0.0,0.0,0.0,0.0,0.0,0.0,0.0,0.0,0.0,0.0,0.0,-0.44552806,-0.056386765,0.8934754,-1.4962769,0.109680176,1.0024414,0.1015625,-2.475586,-0.44433594,26.759026,-9.22381,-1.1673806,18.497711,-1.9529419,1.3901367,0.576355,-2.3916016,2.4550781,-3.2001953,18.144266,-29.891565,-54.254562,20.562862,-0.5217285,0.20471191,0.5032959,1.5380859,11.469727,5.6416016,17.390234,-74.80203,-110.545494,19.60214,0.0,0.0,0.0,0.0,0.0,0.0,0.0,-68.7225,-123.592415,33.484913,0.0,0.0,0.0,0.0,0.0,0.0,0.0,0.44552806,0.056386765,-0.8934754,-2.0,0.4319458,-1.8702393,-1.5859375,-0.7998047,1.8984375,25.915503,9.22381,1.1673806,-18.497711,1.9387817,1.9550781,-0.805603,-0.9824219,1.7851562,0.33398438,26.549494,32.40355,-48.44185,-2.6417103,-2.0,1.7460938,1.6999512,0.7939453,-1.6083984,-3.3320312,18.597252,34.430885,-120.19949,3.0202374,0.0,0.0,0.0,0.0,0.0,0.0,0.0,53.169228,-119.99224,10.033612,0.0,0.0,0.0,0.0,0.0,0.0,0.0,-4.1715274,44.79939,0.7471499,
