TOTAL_TIME,0m7s
TOTAL_FRAMES,293
SELECTED_FRAMES,293
NO_OF_JOINTS,12
FREQUENCY,42.666668
DESCRIPTION,Capture 6
TIME_STAMP,Jul 8, 2010

Time,Frame,Pelvis_accelX_Pelvis,Pelvis_accelY_Pelvis,Pelvis_accelZ_Pelvis,Pelvis_gyroX_Pelvis,Pelvis_gyroY_Pelvis,Pelvis_gyroZ_Pelvis,Pelvis_Joint angle_Pelvis,Pelvis_Relative pos X_Pelvis,Pelvis_Relative pos Y_Pelvis,Pelvis_Relative pos Z_Pelvis,RightPelvis_accelX_RightPelvis,RightPelvis_accelY_RightPelvis,RightPelvis_accelZ_RightPelvis,RightPelvis_gyroX_RightPelvis,RightPelvis_gyroY_RightPelvis,RightPelvis_gyroZ_RightPelvis,RightPelvis_Joint angle_RightPelvis,RightPelvis_Relative pos X_RightPelvis,RightPelvis_Relative pos Y_RightPelvis,RightPelvis_Relative pos Z_RightPelvis,RightUpLeg_accelX_RightUpLeg,RightUpLeg_accelY_RightUpLeg,RightUpLeg_accelZ_RightUpLeg,RightUpLeg_gyroX_RightUpLeg,RightUpLeg_gyroY_RightUpLeg,RightUpLeg_gyroZ_RightUpLeg,RightUpLeg_Joint angle_RightUpLeg,RightUpLeg_Relative pos X_RightUpLeg,RightUpLeg_Relative pos Y_RightUpLeg,RightUpLeg_Relative pos Z_RightUpLeg,RightLeg_accelX_RightLeg,RightLeg_accelY_RightLeg,RightLeg_accelZ_RightLeg,RightLeg_gyroX_RightLeg,RightLeg_gyroY_RightLeg,RightLeg_gyroZ_RightLeg,RightLeg_Joint angle_RightLeg,RightLeg_Relative pos X_RightLeg,RightLeg_Relative pos Y_RightLeg,RightLeg_Relative pos Z_RightLeg,RightFoot_accelX_RightFoot,RightFoot_accelY_RightFoot,RightFoot_accelZ_RightFoot,RightFoot_gyroX_RightFoot,RightFoot_gyroY_RightFoot,RightFoot_gyroZ_RightFoot,RightFoot_Joint angle_RightFoot,RightFoot_Relative pos X_RightFoot,RightFoot_Relative pos Y_RightFoot,RightFoot_Relative pos Z_RightFoot,RightFootEnd_accelX_RightFootEnd,RightFootEnd_accelY_RightFootEnd,RightFootEnd_accelZ_RightFootEnd,RightFootEnd_gyroX_RightFootEnd,RightFootEnd_gyroY_RightFootEnd,RightFootEnd_gyroZ_RightFootEnd,RightFootEnd_Joint angle_RightFootEnd,RightFootEnd_Relative pos X_RightFootEnd,RightFootEnd_Relative pos Y_RightFootEnd,RightFootEnd_Relative pos Z_RightFootEnd,LeftPelvis_accelX_LeftPelvis,LeftPelvis_accelY_LeftPelvis,LeftPelvis_accelZ_LeftPelvis,LeftPelvis_gyroX_LeftPelvis,LeftPelvis_gyroY_LeftPelvis,LeftPelvis_gyroZ_LeftPelvis,LeftPelvis_Joint angle_LeftPelvis,LeftPelvis_Relative pos X_LeftPelvis,LeftPelvis_Relative pos Y_LeftPelvis,LeftPelvis_Relative pos Z_LeftPelvis,LeftUpLeg_accelX_LeftUpLeg,LeftUpLeg_accelY_LeftUpLeg,LeftUpLeg_accelZ_LeftUpLeg,LeftUpLeg_gyroX_LeftUpLeg,LeftUpLeg_gyroY_LeftUpLeg,LeftUpLeg_gyroZ_LeftUpLeg,LeftUpLeg_Joint angle_LeftUpLeg,LeftUpLeg_Relative pos X_LeftUpLeg,LeftUpLeg_Relative pos Y_LeftUpLeg,LeftUpLeg_Relative pos Z_LeftUpLeg,LeftLeg_accelX_LeftLeg,LeftLeg_accelY_LeftLeg,LeftLeg_accelZ_LeftLeg,LeftLeg_gyroX_LeftLeg,LeftLeg_gyroY_LeftLeg,LeftLeg_gyroZ_LeftLeg,LeftLeg_Joint angle_LeftLeg,LeftLeg_Relative pos X_LeftLeg,LeftLeg_Relative pos Y_LeftLeg,LeftLeg_Relative pos Z_LeftLeg,LeftFoot_accelX_LeftFoot,LeftFoot_accelY_LeftFoot,LeftFoot_accelZ_LeftFoot,LeftFoot_gyroX_LeftFoot,LeftFoot_gyroY_LeftFoot,LeftFoot_gyroZ_LeftFoot,LeftFoot_Joint angle_LeftFoot,LeftFoot_Relative pos X_LeftFoot,LeftFoot_Relative pos Y_LeftFoot,LeftFoot_Relative pos Z_LeftFoot,LeftFootEnd_accelX_LeftFootEnd,LeftFootEnd_accelY_LeftFootEnd,LeftFootEnd_accelZ_LeftFootEnd,LeftFootEnd_gyroX_LeftFootEnd,LeftFootEnd_gyroY_LeftFootEnd,LeftFootEnd_gyroZ_LeftFootEnd,LeftFootEnd_Joint angle_LeftFootEnd,LeftFootEnd_Relative pos X_LeftFootEnd,LeftFootEnd_Relative pos Y_LeftFootEnd,LeftFootEnd_Relative pos Z_LeftFootEnd,Spine_accelX_Spine,Spine_accelY_Spine,Spine_accelZ_Spine,Spine_gyroX_Spine,Spine_gyroY_Spine,Spine_gyroZ_Spine,Spine_Joint angle_Spine,Spine_Relative pos X_Spine,Spine_Relative pos Y_Spine,Spine_Relative pos Z_Spine,
0.0,0,0.0,0.0,0.0,0.0,0.0,0.0,0.0,0.0,0.0,0.0,0.0,0.0,0.0,0.0,0.0,0.0,0.0,0.0,0.0,0.0,0.0,0.0,0.0,0.0,0.0,0.0,NaN,0.0,0.0,0.0,0.0,0.0,0.0,0.0,0.0,0.0,NaN,0.0,0.0,0.0,0.0,0.0,0.0,0.0,0.0,0.0,NaN,0.0,0.0,0.0,0.0,0.0,0.0,0.0,0.0,0.0,0.0,0.0,0.0,0.0,0.0,0.0,0.0,0.0,0.0,0.0,0.0,0.0,0.0,0.0,0.0,0.0,0.0,0.0,0.0,0.0,NaN,0.0,0.0,0.0,0.0,0.0,0.0,0.0,0.0,0.0,NaN,0.0,0.0,0.0,0.0,0.0,0.0,0.0,0.0,0.0,NaN,0.0,0.0,0.0,0.0,0.0,0.0,0.0,0.0,0.0,0.0,0.0,0.0,0.0,0.0,0.0,0.0,0.0,0.0,0.0,0.0,0.0,0.0,0.0,
0.02343749930150809,1,0.0,0.0,0.0,0.0,0.0,0.0,0.0,0.0,0.0,0.0,0.0,0.0,0.0,0.0,0.0,0.0,0.0,0.0,0.0,0.0,0.0,0.0,0.0,0.0,0.0,0.0,NaN,0.0,0.0,0.0,0.0,0.0,0.0,0.0,0.0,0.0,NaN,0.0,0.0,0.0,0.0,0.0,0.0,0.0,0.0,0.0,NaN,0.0,0.0,0.0,0.0,0.0,0.0,0.0,0.0,0.0,0.0,0.0,0.0,0.0,0.0,0.0,0.0,0.0,0.0,0.0,0.0,0.0,0.0,0.0,0.0,0.0,0.0,0.0,0.0,0.0,NaN,0.0,0.0,0.0,0.0,0.0,0.0,0.0,0.0,0.0,NaN,0.0,0.0,0.0,0.0,0.0,0.0,0.0,0.0,0.0,NaN,0.0,0.0,0.0,0.0,0.0,0.0,0.0,0.0,0.0,0.0,0.0,0.0,0.0,0.0,0.0,0.0,0.0,0.0,0.0,0.0,0.0,0.0,0.0,
0.04687499860301618,2,0.0,0.0,0.0,0.0,0.0,0.0,0.0,0.0,0.0,0.0,0.0,0.0,0.0,0.0,0.0,0.0,0.0,0.0,0.0,0.0,0.0,0.0,0.0,0.0,0.0,0.0,NaN,0.0,0.0,0.0,0.0,0.0,0.0,0.0,0.0,0.0,NaN,0.0,0.0,0.0,0.0,0.0,0.0,0.0,0.0,0.0,NaN,0.0,0.0,0.0,0.0,0.0,0.0,0.0,0.0,0.0,0.0,0.0,0.0,0.0,0.0,0.0,0.0,0.0,0.0,0.0,0.0,0.0,0.0,0.0,0.0,0.0,0.0,0.0,0.0,0.0,NaN,0.0,0.0,0.0,0.0,0.0,0.0,0.0,0.0,0.0,NaN,0.0,0.0,0.0,0.0,0.0,0.0,0.0,0.0,0.0,NaN,0.0,0.0,0.0,0.0,0.0,0.0,0.0,0.0,0.0,0.0,0.0,0.0,0.0,0.0,0.0,0.0,0.0,0.0,0.0,0.0,0.0,0.0,0.0,
0.07031249790452426,3,0.0115356445,-1.0066528,0.29840088,0.049804688,-0.024414062,0.00390625,0.0,0.0,0.0,0.0,0.0,0.0,0.0,0.0,0.0,0.0,0.0,-0.37070864,0.019676322,0.92873424,-0.8607178,-0.06530762,-0.3947754,-0.037109375,0.09863281,0.022460938,1.3533518,-7.6748185,0.40736085,19.227676,-0.9584961,0.029724121,-0.2088623,-0.03515625,0.026367188,0.036132812,3.5564432,-6.7820144,-56.54845,21.415295,-0.40576172,-0.37347412,0.8399048,-0.022460938,0.0107421875,0.0107421875,12.150184,-9.26327,-128.47443,24.004368,0.0,0.0,0.0,0.0,0.0,0.0,0.0,3.7713232,-128.01039,39.1589,0.0,0.0,0.0,0.0,0.0,0.0,0.0,0.37070864,-0.019676322,-0.92873424,0.8740845,0.11633301,-0.43548584,0.0234375,0.005859375,0.017578125,5.7400975,7.6748185,-0.40736085,-19.227676,-0.9404297,0.055419922,-0.29241943,-0.017578125,-0.015625,0.009765625,1.9875112,5.2032347,-57.344822,-20.358068,-0.40753174,0.63201904,1.2730713,-0.07714844,-0.01953125,0.009765625,16.50161,5.33971,-129.35257,-20.87203,0.0,0.0,0.0,0.0,0.0,0.0,0.0,24.367666,-128.5203,-14.756572,0.0,0.0,0.0,0.0,0.0,0.0,0.0,-1.7653956,44.94292,-1.6568344,
0.09374999720603236,4,0.022521973,-0.9998779,0.27478027,0.030273438,-0.025390625,0.041015625,0.0,0.0,0.0,0.0,0.0,0.0,0.0,0.0,0.0,0.0,0.0,-0.37218985,0.019750293,0.9281143,-0.87664795,-0.03491211,-0.45166016,-0.018554688,0.09863281,0.041015625,1.5337833,-7.7054844,0.40889227,19.214844,-0.9451294,0.03253174,-0.2078247,-0.053710938,0.026367188,0.03515625,3.4525833,-6.931802,-56.54801,21.442371,-0.40740967,-0.3479004,0.84313965,-0.022460938,-0.0078125,0.0107421875,12.055206,-9.429133,-128.4739,24.079618,0.0,0.0,0.0,0.0,0.0,0.0,0.0,3.627246,-128.01195,39.21859,0.0,0.0,0.0,0.0,0.0,0.0,0.0,0.37218985,-0.019750293,-0.9281143,0.8668823,0.097961426,-0.43756104,0.0234375,0.025390625,0.017578125,5.7978554,7.7054844,-0.40889227,-19.214844,-0.9545288,0.053710938,-0.30029297,-0.037109375,0.00390625,0.028320312,2.0132422,5.217412,-57.350918,-20.301237,-0.4401245,0.63360596,1.1861572,-0.021484375,-0.037109375,-0.0107421875,16.564157,5.3703876,-129.35931,-20.806114,0.0,0.0,0.0,0.0,0.0,0.0,0.0,24.398178,-128.52693,-14.687734,0.0,0.0,0.0,0.0,0.0,0.0,0.0,-1.8128633,44.938965,-1.6832917,
0.11718749650754046,5,0.0015258789,-0.99786377,0.29730225,0.049804688,-0.04296875,0.00390625,0.0,0.0,0.0,0.0,0.0,0.0,0.0,0.0,0.0,0.0,0.0,-0.37245646,0.019554071,0.92804563,-0.8978882,-0.031799316,-0.41345215,-0.017578125,0.024414062,0.021484375,1.6312288,-7.7110033,0.40482992,19.21342,-0.96868896,0.033813477,-0.20690918,-0.053710938,0.026367188,0.03515625,3.3583548,-7.0065985,-56.551712,21.48649,-0.4024048,-0.34887695,0.82818604,-0.041015625,0.029296875,0.029296875,11.933005,-9.468612,-128.47818,24.170656,0.0,0.0,0.0,0.0,0.0,0.0,0.0,3.608735,-128.012,39.292183,0.0,0.0,0.0,0.0,0.0,0.0,0.0,0.37245646,-0.019554071,-0.92804563,0.8831177,0.10455322,-0.42565918,-0.013671875,0.025390625,-0.020507812,5.8011675,7.7110033,-0.40482992,-19.21342,-0.9333496,0.05126953,-0.27374268,0.01953125,0.041992188,0.06542969,2.0530937,5.2185984,-57.342213,-20.263247,-0.4230957,0.6588745,1.1940918,-0.0390625,0.038085938,0.046875,16.650272,5.422283,-129.34862,-20.80801,0.0,0.0,0.0,0.0,0.0,0.0,0.0,24.450073,-128.51624,-14.68963,0.0,0.0,0.0,0.0,0.0,0.0,0.0,-1.8323517,44.93964,-1.682271,
0.14062499580904855,6,-0.005432129,-0.9800415,0.29327393,0.030273438,-0.09863281,0.00390625,0.0,0.0,0.0,0.0,0.0,0.0,0.0,0.0,0.0,0.0,0.0,-0.37359095,0.018862907,0.9275888,-0.8668823,-0.041625977,-0.39337158,-0.018554688,0.061523438,0.0029296875,1.7042171,-7.7344913,0.39052063,19.203966,-0.97210693,0.055480957,-0.23730469,-0.07324219,0.045898438,0.0546875,3.2907498,-7.0779543,-56.562862,21.509857,-0.39318848,-0.33544922,0.8568115,-0.041015625,0.0107421875,0.029296875,11.801764,-9.517339,-128.48842,24.256443,0.0,0.0,0.0,0.0,0.0,0.0,0.0,3.5751963,-128.01202,39.362568,0.0,0.0,0.0,0.0,0.0,0.0,0.0,0.37359095,-0.018862907,-0.9275888,0.88726807,0.10076904,-0.45458984,-0.013671875,-0.032226562,-0.020507812,5.7995453,7.7344913,-0.39052063,-19.203966,-0.95440674,0.06829834,-0.2923584,0.036132812,0.11816406,0.046875,1.9880036,5.2190413,-57.33436,-20.219055,-0.43322754,0.65893555,1.1972656,-0.001953125,9.765625E-4,0.02734375,16.67275,5.315314,-129.34366,-20.788256,0.0,0.0,0.0,0.0,0.0,0.0,0.0,24.343103,-128.51128,-14.669875,0.0,0.0,0.0,0.0,0.0,0.0,0.0,-1.8468032,44.939342,-1.6576693,
0.16406249511055665,7,-0.018493652,-0.9940796,0.29504395,0.01171875,-0.17382812,0.0234375,0.0,0.0,0.0,0.0,0.0,0.0,0.0,0.0,0.0,0.0,0.0,-0.37625247,0.018519752,0.92656535,-0.9139404,-0.028808594,-0.42004395,-0.09277344,0.061523438,0.00390625,1.8076441,-7.789594,0.3834163,19.182775,-0.9765625,0.051757812,-0.20092773,-0.053710938,0.026367188,0.03515625,3.156411,-7.245379,-56.57071,21.547398,-0.41259766,-0.35961914,0.84606934,-0.041015625,0.046875,0.0107421875,11.669928,-9.645377,-128.49338,24.323223,0.0,0.0,0.0,0.0,0.0,0.0,0.0,3.4631128,-128.01074,39.415413,0.0,0.0,0.0,0.0,0.0,0.0,0.0,0.37625247,-0.018519752,-0.92656535,0.8629761,0.1194458,-0.44830322,-0.051757812,-0.07128906,-0.0390625,5.8060646,7.789594,-0.3834163,-19.182775,-0.95043945,0.06347656,-0.29925537,0.0390625,0.041992188,0.046875,2.030376,5.2284336,-57.325363,-20.188772,-0.3996582,0.65582275,1.1917114,-0.001953125,0.01953125,0.02734375,16.72482,5.3193636,-129.33511,-20.724297,0.0,0.0,0.0,0.0,0.0,0.0,0.0,24.347153,-128.50273,-14.605916,0.0,0.0,0.0,0.0,0.0,0.0,0.0,-1.831444,44.942463,-1.6419874,
0.18749999441206475,8,0.0045166016,-0.99780273,0.29730225,0.01171875,-0.19238281,0.0234375,0.0,0.0,0.0,0.0,0.0,0.0,0.0,0.0,0.0,0.0,0.0,-0.38011664,0.018655539,0.92498255,-0.8911743,-0.012023926,-0.38861084,-0.13085938,0.061523438,0.0048828125,1.8206968,-7.8695927,0.3862275,19.150007,-0.9515991,0.07324219,-0.19488525,-0.07324219,0.0078125,-0.021484375,3.116087,-7.335543,-56.56452,21.642029,-0.411438,-0.34674072,0.83135986,-0.07910156,0.029296875,0.0107421875,11.449863,-9.682297,-128.48674,24.511923,0.0,0.0,0.0,0.0,0.0,0.0,0.0,3.4465342,-128.00562,39.58747,0.0,0.0,0.0,0.0,0.0,0.0,0.0,0.38011664,-0.018655539,-0.92498255,0.86395264,0.09631348,-0.47943115,-0.0703125,-0.051757812,-0.020507812,5.882866,7.8695927,-0.3862275,-19.150007,-0.92211914,0.082336426,-0.26861572,0.0390625,0.041992188,0.028320312,2.129276,5.193941,-57.3198,-20.132713,-0.44641113,0.6531372,1.1983643,-0.05859375,-0.018554688,-0.009765625,16.75387,5.2642846,-129.331,-20.61229,0.0,0.0,0.0,0.0,0.0,0.0,0.0,24.292074,-128.49861,-14.493909,0.0,0.0,0.0,0.0,0.0,0.0,0.0,-1.8166118,44.942596,-1.6529531,
0.21093749371357284,9,0.010437012,-1.0296631,0.30718994,0.0703125,-0.22851562,0.025390625,0.0,0.0,0.0,0.0,0.0,0.0,0.0,0.0,0.0,0.0,0.0,-0.38376245,0.019874433,0.92345583,-0.8859863,-0.022949219,-0.4076538,-0.16796875,0.0625,-0.032226562,1.8341905,-7.9450703,0.41146243,19.118399,-0.9523926,0.028625488,-0.2088623,-0.07324219,0.0078125,0.03515625,3.0538347,-7.468151,-56.536,21.725403,-0.44049072,-0.34521484,0.8288574,-0.041015625,0.0107421875,0.0107421875,11.172742,-9.775829,-128.45613,24.614122,0.0,0.0,0.0,0.0,0.0,0.0,0.0,3.3745766,-127.981895,39.666534,0.0,0.0,0.0,0.0,0.0,0.0,0.0,0.38376245,-0.019874433,-0.92345583,0.8720093,0.08642578,-0.46557617,0.0048828125,-0.05078125,-0.020507812,5.8992367,7.9450703,-0.41146243,-19.118399,-0.9605713,0.052856445,-0.3022461,-0.01953125,0.060546875,0.028320312,2.1613886,5.1706743,-57.343346,-19.996336,-0.43121338,0.6598511,1.1992188,-0.05859375,0.01953125,0.0087890625,16.780138,5.1601186,-129.3535,-20.42892,0.0,0.0,0.0,0.0,0.0,0.0,0.0,24.187908,-128.52112,-14.31054,0.0,0.0,0.0,0.0,0.0,0.0,0.0,-1.7730808,44.94265,-1.7040896,
0.23437499301508094,10,0.022460938,-1.024292,0.29748535,0.05078125,-0.19238281,0.0625,0.0,0.0,0.0,0.0,0.0,0.0,0.0,0.0,0.0,0.0,0.0,-0.3882027,0.021951608,0.9215041,-0.8787842,-0.06427002,-0.38146973,-0.16796875,0.024414062,0.0048828125,1.8238114,-8.037001,0.45446634,19.077993,-0.9716797,0.037841797,-0.20690918,-0.055664062,-0.03125,0.015625,3.0281494,-7.585896,-56.490685,21.754042,-0.41662598,-0.3614502,0.83721924,-0.022460938,0.028320312,-0.026367188,11.049758,-9.870842,-128.40805,24.649878,0.0,0.0,0.0,0.0,0.0,0.0,0.0,3.2931252,-127.938995,39.692856,0.0,0.0,0.0,0.0,0.0,0.0,0.0,0.3882027,-0.021951608,-0.9215041,0.8902588,0.07849121,-0.46673584,0.0625,-0.01171875,-0.078125,5.901595,8.037001,-0.45446634,-19.077993,-0.95062256,0.03314209,-0.2984619,9.765625E-4,0.022460938,0.028320312,2.1981122,5.27157,-57.38819,-19.87429,-0.42913818,0.6520996,1.1911621,-0.040039062,0.01953125,0.0087890625,16.917814,5.317354,-129.40082,-20.342604,0.0,0.0,0.0,0.0,0.0,0.0,0.0,24.345144,-128.56844,-14.224223,0.0,0.0,0.0,0.0,0.0,0.0,0.0,-1.7565502,44.9372,-1.8104546,
0.25781249231658904,11,0.008605957,-0.98101807,0.29937744,0.0703125,-0.22851562,0.043945312,0.0,0.0,0.0,0.0,0.0,0.0,0.0,0.0,0.0,0.0,0.0,-0.3922582,0.024286345,0.91975725,-0.8706665,-0.055480957,-0.41131592,-0.16796875,0.005859375,-0.032226562,1.8090509,-8.120959,0.50280267,19.041826,-0.9413452,0.07598877,-0.18988037,-0.07324219,0.02734375,0.016601562,2.912352,-7.751172,-56.437946,21.778292,-0.39422607,-0.33929443,0.84295654,-0.041015625,0.028320312,-0.0078125,10.887341,-9.974339,-128.36649,24.709187,0.0,0.0,0.0,0.0,0.0,0.0,0.0,3.1988077,-127.89489,39.74542,0.0,0.0,0.0,0.0,0.0,0.0,0.0,0.3922582,-0.024286345,-0.91975725,0.8814087,0.12915039,-0.47625732,0.0625,0.0068359375,-0.05859375,5.945178,8.120959,-0.50280267,-19.041826,-0.91619873,0.071899414,-0.30413818,-9.765625E-4,0.080078125,0.028320312,2.2173495,5.28598,-57.435543,-19.820076,-0.42791748,0.62872314,1.1809692,-0.05859375,0.038085938,-0.009765625,16.988613,5.2629647,-129.44975,-20.373034,0.0,0.0,0.0,0.0,0.0,0.0,0.0,24.290754,-128.61737,-14.254653,0.0,0.0,0.0,0.0,0.0,0.0,0.0,-1.6901381,44.937016,-1.9073796,
0.2812499916180971,12,0.0017089844,-0.958313,0.29736328,0.06933594,-0.15429688,0.024414062,0.0,0.0,0.0,0.0,0.0,0.0,0.0,0.0,0.0,0.0,0.0,-0.39618367,0.026093304,0.9179519,-0.8590698,-0.11871338,-0.4300537,-0.16796875,0.0625,-0.05078125,1.7427106,-8.2022295,0.5402123,19.004448,-0.97332764,0.01171875,-0.19915771,-0.091796875,0.02734375,-0.001953125,2.8233442,-7.8642597,-56.399654,21.697624,-0.40325928,-0.33813477,0.8441162,-0.060546875,0.029296875,0.0107421875,10.657762,-10.044325,-128.31917,24.677837,0.0,0.0,0.0,0.0,0.0,0.0,0.0,3.1426296,-127.85191,39.700756,0.0,0.0,0.0,0.0,0.0,0.0,0.0,0.39618367,-0.026093304,-0.9179519,0.87127686,0.13702393,-0.4730835,0.0625,0.064453125,-0.05859375,6.0275655,8.2022295,-0.5402123,-19.004448,-0.9404907,0.056640625,-0.31207275,-0.057617188,0.041992188,0.0107421875,2.2118704,5.2851834,-57.461533,-19.834969,-0.42913818,0.6530762,1.1941528,-0.05859375,0.038085938,0.0087890625,17.027433,5.1523476,-129.46902,-20.431517,0.0,0.0,0.0,0.0,0.0,0.0,0.0,24.180138,-128.63664,-14.313136,0.0,0.0,0.0,0.0,0.0,0.0,0.0,-1.6276325,44.933224,-1.9797306,
0.3046874909196052,13,0.04071045,-0.96588135,0.29986572,0.03125,-0.11816406,0.041992188,0.0,0.0,0.0,0.0,0.0,0.0,0.0,0.0,0.0,0.0,0.0,-0.3978955,0.028016284,0.91721356,-0.8770752,-0.13238525,-0.41394043,-0.07421875,0.0625,-0.033203125,1.6809773,-8.23767,0.58002394,18.989164,-0.97662354,-1.8310547E-4,-0.19921875,-0.03515625,0.026367188,0.016601562,2.756266,-7.939752,-56.36992,21.532354,-0.4286499,-0.36120605,0.83343506,-0.060546875,0.0107421875,0.029296875,10.474483,-10.128249,-128.29282,24.47661,0.0,0.0,0.0,0.0,0.0,0.0,0.0,3.0786476,-127.83196,39.47982,0.0,0.0,0.0,0.0,0.0,0.0,0.0,0.3978955,-0.028016284,-0.91721356,0.8612671,0.13641357,-0.5098877,0.04296875,0.0068359375,-0.0390625,6.140216,8.23767,-0.58002394,-18.989164,-0.9421387,0.11364746,-0.3373413,-0.0390625,0.061523438,0.0107421875,2.253596,5.1655474,-57.496723,-19.841894,-0.44433594,0.65216064,1.1953735,-0.095703125,0.018554688,0.009765625,17.039022,4.887029,-129.50113,-20.525099,0.0,0.0,0.0,0.0,0.0,0.0,0.0,23.914488,-128.66853,-14.400875,0.0,0.0,0.0,0.0,0.0,0.0,0.0,-1.5548097,44.93523,-2.0470366,
0.32812499022111324,14,0.04663086,-0.98339844,0.2939453,0.049804688,-0.04296875,0.022460938,0.0,0.0,0.0,0.0,0.0,0.0,0.0,0.0,0.0,0.0,0.0,-0.39835653,0.029317353,0.9169346,-0.85772705,-0.1640625,-0.4345703,-0.018554688,0.061523438,0.0029296875,1.6105834,-8.247215,0.6069602,18.983389,-0.93688965,0.036376953,-0.20678711,-0.07324219,0.02734375,0.016601562,2.744523,-7.8933144,-56.347916,21.327333,-0.4276123,-0.35925293,0.83148193,-0.022460938,-0.025390625,0.0107421875,10.39508,-10.052165,-128.26688,24.260433,0.0,0.0,0.0,0.0,0.0,0.0,0.0,3.165392,-127.81959,39.25889,0.0,0.0,0.0,0.0,0.0,0.0,0.0,0.39835653,-0.029317353,-0.9169346,0.8614502,0.17327881,-0.5036011,0.061523438,-0.0126953125,-0.0390625,6.3009224,8.247215,-0.6069602,-18.983389,-0.9326782,0.03137207,-0.3378296,-0.01953125,0.041992188,0.028320312,2.2696064,5.024253,-57.51241,-19.899357,-0.4482422,0.6298218,1.1783447,-0.07714844,0.018554688,0.009765625,17.004606,4.5724034,-129.51712,-20.713196,0.0,0.0,0.0,0.0,0.0,0.0,0.0,23.599861,-128.68452,-14.588972,0.0,0.0,0.0,0.0,0.0,0.0,0.0,-1.5197791,44.93255,-2.0968971,
0.3515624895226213,15,0.049682617,-0.9640503,0.30792236,0.030273438,0.032226562,-0.0546875,0.0,0.0,0.0,0.0,0.0,0.0,0.0,0.0,0.0,0.0,0.0,-0.3984107,0.030831609,0.91693515,-0.86499023,-0.15209961,-0.40057373,0.09375,0.09863281,0.0390625,1.6821411,-8.248338,0.6383099,18.983398,-0.97979736,0.045776367,-0.19903564,-0.053710938,0.02734375,0.016601562,2.6815364,-7.8923783,-56.329887,21.08418,-0.40771484,-0.37249756,0.8399048,-0.022460938,0.0107421875,0.029296875,10.288072,-10.011331,-128.25214,23.976837,0.0,0.0,0.0,0.0,0.0,0.0,0.0,3.216834,-127.8139,38.966812,0.0,0.0,0.0,0.0,0.0,0.0,0.0,0.3984107,-0.030831609,-0.91693515,0.876709,0.17797852,-0.5036621,-0.08984375,-0.0146484375,0.017578125,6.504211,8.248338,-0.6383099,-18.983398,-0.91241455,0.058532715,-0.3395996,0.0390625,0.022460938,0.0087890625,2.4120016,4.919981,-57.532883,-20.048597,-0.44024658,0.64727783,1.18927,-0.021484375,0.01953125,-0.0107421875,17.128199,4.518403,-129.54001,-21.017506,0.0,0.0,0.0,0.0,0.0,0.0,0.0,23.54586,-128.70741,-14.893282,0.0,0.0,0.0,0.0,0.0,0.0,0.0,-1.501435,44.93307,-2.1632357,
0.3749999888241294,16,0.02166748,-0.9581299,0.29864502,-0.0087890625,0.14160156,-0.018554688,0.0,0.0,0.0,0.0,0.0,0.0,0.0,0.0,0.0,0.0,0.0,-0.39652693,0.031593025,0.91763705,-0.9091797,-0.13922119,-0.3955078,0.09375,0.13574219,0.076171875,1.7541275,-8.209337,0.65407354,18.997932,-0.9213867,0.056396484,-0.17419434,-0.015625,0.045898438,0.036132812,2.5930667,-7.866515,-56.319744,20.922485,-0.4194336,-0.3496704,0.8511963,-0.00390625,0.028320312,0.0107421875,10.15199,-9.907742,-128.25562,23.78759,0.0,0.0,0.0,0.0,0.0,0.0,0.0,3.3304243,-127.82419,38.768646,0.0,0.0,0.0,0.0,0.0,0.0,0.0,0.39652693,-0.031593025,-0.91763705,0.85321045,0.16168213,-0.4967041,-0.14746094,0.061523438,0.07519531,6.6919312,8.209337,-0.65407354,-18.997932,-0.92022705,0.07788086,-0.31195068,0.040039062,0.00390625,0.02734375,2.4464865,4.74957,-57.544067,-20.21542,-0.4300537,0.642334,1.1870728,-0.040039062,0.0,0.0087890625,17.080742,4.2363267,-129.54935,-21.242212,0.0,0.0,0.0,0.0,0.0,0.0,0.0,23.263784,-128.71675,-15.117989,0.0,0.0,0.0,0.0,0.0,0.0,0.0,-1.4761192,44.92922,-2.18471,
0.39843748812563745,17,0.024658203,-0.973999,0.3015747,-0.047851562,0.21582031,-0.057617188,0.0,0.0,0.0,0.0,0.0,0.0,0.0,0.0,0.0,0.0,0.0,-0.39162207,0.031217841,0.91978997,-0.899353,-0.095947266,-0.4290161,0.07519531,0.080078125,0.076171875,1.9283366,-8.107792,0.64630604,19.042505,-0.956604,0.038879395,-0.17340088,0.059570312,0.025390625,0.036132812,2.4039547,-7.8852882,-56.335194,20.809597,-0.4225464,-0.35430908,0.81463623,-0.022460938,0.0107421875,-0.0078125,9.984479,-9.845797,-128.2702,23.629074,0.0,0.0,0.0,0.0,0.0,0.0,0.0,3.4092903,-127.84339,38.59725,0.0,0.0,0.0,0.0,0.0,0.0,0.0,0.39162207,-0.031217841,-0.91978997,0.86016846,0.15655518,-0.4649048,-0.18554688,0.022460938,0.07519531,6.836613,8.107792,-0.64630604,-19.042505,-0.9316406,0.02331543,-0.31622314,9.765625E-4,0.022460938,0.009765625,2.4856946,4.578374,-57.52247,-20.428179,-0.41986084,0.642334,1.1849365,-0.05859375,-0.018554688,0.028320312,17.12306,4.029754,-129.52753,-21.486654,0.0,0.0,0.0,0.0,0.0,0.0,0.0,23.057213,-128.69493,-15.362431,0.0,0.0,0.0,0.0,0.0,0.0,0.0,-1.4838957,44.93181,-2.1567972,
0.4218749874271455,18,0.024658203,-0.9708252,0.29370117,-0.009765625,0.2529297,-0.01953125,0.0,0.0,0.0,0.0,0.0,0.0,0.0,0.0,0.0,0.0,0.0,-0.38738385,0.029795006,0.9215691,-0.89746094,-0.10467529,-0.3864746,0.16894531,0.080078125,0.07519531,1.9468207,-8.020048,0.616849,19.079338,-0.94537354,0.023376465,-0.20098877,0.022460938,0.044921875,0.017578125,2.3575044,-7.78345,-56.367794,20.735994,-0.42578125,-0.368042,0.8145752,-0.041015625,0.0107421875,0.0107421875,9.84872,-9.664656,-128.30263,23.536413,0.0,0.0,0.0,0.0,0.0,0.0,0.0,3.6011639,-127.88476,38.491608,0.0,0.0,0.0,0.0,0.0,0.0,0.0,0.38738385,-0.029795006,-0.9215691,0.87823486,0.10876465,-0.47442627,-0.20410156,0.0029296875,0.09472656,6.8098803,8.020048,-0.616849,-19.079338,-0.9404907,0.06976318,-0.35040283,0.0390625,0.022460938,0.02734375,2.4421623,4.4521995,-57.490696,-20.42788,-0.4522705,0.6259155,1.1783447,-0.020507812,0.0390625,0.0087890625,17.08308,3.8050227,-129.49214,-21.560915,0.0,0.0,0.0,0.0,0.0,0.0,0.0,22.832481,-128.65955,-15.436691,0.0,0.0,0.0,0.0,0.0,0.0,0.0,-1.5028706,44.932056,-2.0844219,
0.4453124867286536,19,0.0026245117,-0.97961426,0.28344727,-0.009765625,0.27148438,-0.01953125,0.0,0.0,0.0,0.0,0.0,0.0,0.0,0.0,0.0,0.0,0.0,-0.38352484,0.027944226,0.92322844,-0.89733887,-0.08514404,-0.44476318,0.16992188,0.061523438,0.11230469,2.0166419,-7.9401526,0.5785321,19.11369,-0.9714966,0.054382324,-0.18713379,0.060546875,0.064453125,0.036132812,2.267708,-7.778276,-56.401745,20.743807,-0.4095459,-0.35968018,0.8479614,0.015625,0.028320312,0.029296875,9.774408,-9.639152,-128.33582,23.515182,0.0,0.0,0.0,0.0,0.0,0.0,0.0,3.6291924,-127.91623,38.46817,0.0,0.0,0.0,0.0,0.0,0.0,0.0,0.38352484,-0.027944226,-0.92322844,0.8833618,0.12805176,-0.45733643,-0.12792969,0.0234375,0.055664062,6.8694124,7.9401526,-0.5785321,-19.11369,-0.93255615,0.039001465,-0.31610107,0.040039062,0.00390625,0.0087890625,2.4744089,4.3235745,-57.455185,-20.535606,-0.44610596,0.61712646,1.1712036,-0.001953125,0.01953125,0.046875,17.104319,3.6579266,-129.45172,-21.674925,0.0,0.0,0.0,0.0,0.0,0.0,0.0,22.685385,-128.61913,-15.550701,0.0,0.0,0.0,0.0,0.0,0.0,0.0,-1.5411956,44.934116,-2.0003023,
0.46874998603016166,20,-0.02142334,-0.9859009,0.2861328,-0.009765625,0.25390625,-0.057617188,0.0,0.0,0.0,0.0,0.0,0.0,0.0,0.0,0.0,0.0,0.0,-0.37935346,0.025593814,0.925054,-0.90130615,-0.07336426,-0.46936035,0.13183594,0.061523438,0.09375,2.0435388,-7.853794,0.5298713,19.151487,-0.965271,0.055541992,-0.19891357,0.04296875,0.12207031,0.055664062,2.1915133,-7.749344,-56.452866,20.763884,-0.40478516,-0.37646484,0.83587646,0.015625,0.009765625,-0.0078125,9.668024,-9.582378,-128.39807,23.543865,0.0,0.0,0.0,0.0,0.0,0.0,0.0,3.7023554,-127.97743,38.485966,0.0,0.0,0.0,0.0,0.0,0.0,0.0,0.37935346,-0.025593814,-0.925054,0.87323,0.106933594,-0.48535156,-0.18554688,-0.015625,0.07519531,6.8898263,7.853794,-0.5298713,-19.151487,-0.9423828,0.061279297,-0.28845215,0.07910156,-0.015625,0.0087890625,2.55313,4.193891,-57.396416,-20.64787,-0.46166992,0.6541748,1.1956787,-0.001953125,0.01953125,0.046875,17.117191,3.5716267,-129.39453,-21.785406,0.0,0.0,0.0,0.0,0.0,0.0,0.0,22.599085,-128.56194,-15.661182,0.0,0.0,0.0,0.0,0.0,0.0,0.0,-1.5654616,44.939743,-1.8853416,
0.4921874853316697,21,-0.013366699,-0.97283936,0.28131104,-0.009765625,0.234375,-0.01953125,0.0,0.0,0.0,0.0,0.0,0.0,0.0,0.0,0.0,0.0,0.0,-0.37582573,0.022995763,0.92655456,-0.8834839,-0.08013916,-0.41625977,0.07519531,0.1171875,0.11425781,2.122371,-7.780756,0.47608358,19.182552,-0.9417114,0.048461914,-0.2097168,0.041015625,0.025390625,0.036132812,2.1682596,-7.746076,-56.507896,20.767332,-0.41967773,-0.36541748,0.85009766,-0.00390625,0.028320312,0.0107421875,9.7085705,-9.633786,-128.44757,23.529762,0.0,0.0,0.0,0.0,0.0,0.0,0.0,3.6649714,-128.03018,38.45686,0.0,0.0,0.0,0.0,0.0,0.0,0.0,0.37582573,-0.022995763,-0.92655456,0.8800659,0.093933105,-0.43865967,-0.07128906,0.024414062,0.07519531,6.8140554,7.780756,-0.47608358,-19.182552,-0.9482422,0.087890625,-0.2980957,0.001953125,-0.015625,0.02734375,2.488292,4.1240797,-57.34811,-20.60874,-0.44836426,0.64733887,1.1904297,-0.020507812,0.038085938,0.046875,17.07993,3.4262254,-129.34653,-21.67416,0.0,0.0,0.0,0.0,0.0,0.0,0.0,22.453684,-128.51393,-15.549936,0.0,0.0,0.0,0.0,0.0,0.0,0.0,-1.6112264,44.942585,-1.7689505,
0.5156249846331779,22,-0.012390137,-0.9696045,0.27337646,-0.009765625,0.21582031,0.0,0.0,0.0,0.0,0.0,0.0,0.0,0.0,0.0,0.0,0.0,0.0,-0.37203005,0.020721044,0.92818916,-0.8595581,-0.08013916,-0.4019165,0.09375,0.09863281,0.11328125,2.2581077,-7.7021756,0.42898992,19.216393,-0.9703369,0.035705566,-0.24822998,-0.016601562,0.026367188,0.036132812,2.0832808,-7.7920165,-56.554585,20.737436,-0.4257202,-0.37023926,0.8580322,0.015625,-0.0078125,0.029296875,9.730821,-9.723061,-128.49222,23.4832,0.0,0.0,0.0,0.0,0.0,0.0,0.0,3.5821304,-128.06966,38.406517,0.0,0.0,0.0,0.0,0.0,0.0,0.0,0.37203005,-0.020721044,-0.92818916,0.86590576,0.081726074,-0.4725952,-0.09082031,0.061523438,0.07519531,6.7227206,7.7021756,-0.42898992,-19.216393,-0.95861816,0.035095215,-0.29052734,-0.018554688,0.00390625,0.009765625,2.5436826,4.0536146,-57.301937,-20.559036,-0.42913818,0.65496826,1.1951294,-0.0390625,0.038085938,0.028320312,17.136047,3.4387875,-129.30426,-21.616684,0.0,0.0,0.0,0.0,0.0,0.0,0.0,22.466246,-128.47166,-15.49246,0.0,0.0,0.0,0.0,0.0,0.0,0.0,-1.6413937,44.947716,-1.6613116,
0.5390624839346859,23,-0.009399414,-0.98223877,0.29919434,-0.047851562,0.17773438,-0.01953125,0.0,0.0,0.0,0.0,0.0,0.0,0.0,0.0,0.0,0.0,0.0,-0.3684137,0.018683475,0.92961454,-0.85546875,-0.06640625,-0.4315796,0.056640625,0.061523438,0.076171875,2.4187274,-7.627307,0.3868058,19.245903,-0.9571533,0.038085938,-0.22851562,-0.015625,0.045898438,0.0546875,1.9729831,-7.884318,-56.599674,20.7147,-0.3939209,-0.38848877,0.8395386,-0.00390625,0.028320312,0.029296875,9.75534,-9.880272,-128.54128,23.451689,0.0,0.0,0.0,0.0,0.0,0.0,0.0,3.440134,-128.12648,38.360863,0.0,0.0,0.0,0.0,0.0,0.0,0.0,0.3684137,-0.018683475,-0.92961454,0.88397217,0.08404541,-0.41888428,0.0048828125,0.043945312,-9.765625E-4,6.5481105,7.627307,-0.3868058,-19.245903,-0.9594116,0.070373535,-0.2952881,-0.05859375,0.041992188,-0.026367188,2.4756742,4.06327,-57.268993,-20.491997,-0.42303467,0.6559448,1.1940918,-0.07714844,0.0,0.028320312,17.217815,3.468842,-129.27022,-21.513264,0.0,0.0,0.0,0.0,0.0,0.0,0.0,22.494343,-128.43738,-15.384618,0.0,0.0,0.0,0.0,0.0,0.0,0.0,-1.6539767,44.948444,-1.5588621,
0.562499983236194,24,0.008605957,-0.9783325,0.3083496,-0.0087890625,0.15917969,0.01953125,0.0,0.0,0.0,0.0,0.0,0.0,0.0,0.0,0.0,0.0,0.0,-0.36303446,0.016837018,0.93179435,-0.8654175,-0.086120605,-0.41967773,0.018554688,0.13574219,0.07714844,2.5409107,-7.5159383,0.34857848,19.291033,-0.9561157,0.003479004,-0.19720459,-0.056640625,-0.03125,0.091796875,1.8513949,-7.9335737,-56.63833,20.652208,-0.3932495,-0.340271,0.84594727,-0.00390625,0.0107421875,0.029296875,9.759632,-9.95917,-128.57173,23.373163,0.0,0.0,0.0,0.0,0.0,0.0,0.0,3.3684282,-128.15662,38.272682,0.0,0.0,0.0,0.0,0.0,0.0,0.0,0.36303446,-0.016837018,-0.93179435,0.8900757,0.06762695,-0.440979,0.061523438,0.025390625,-9.765625E-4,6.307454,7.5159383,-0.34857848,-19.291033,-0.91833496,0.05029297,-0.29437256,-0.17285156,0.022460938,-0.0068359375,2.3727312,4.0497894,-57.235363,-20.414246,-0.42004395,0.6588745,1.1940308,-0.095703125,0.037109375,0.028320312,17.330431,3.4467695,-129.23753,-21.342539,0.0,0.0,0.0,0.0,0.0,0.0,0.0,22.465221,-128.40218,-15.191989,0.0,0.0,0.0,0.0,0.0,0.0,0.0,-1.6305289,44.954315,-1.447567,
0.5859374825377021,25,0.025512695,-1.006958,0.28167725,-0.0087890625,0.140625,0.0390625,0.0,0.0,0.0,0.0,0.0,0.0,0.0,0.0,0.0,0.0,0.0,-0.36013827,0.01590975,0.932897,-0.8746948,-0.045654297,-0.42700195,0.018554688,0.09863281,0.040039062,2.763217,-7.4559784,0.32938117,19.313862,-0.96240234,0.028320312,-0.23449707,-0.09375,0.0078125,0.091796875,1.6888753,-8.081235,-56.65963,20.644543,-0.4216919,-0.36730957,0.8491211,0.034179688,-0.026367188,0.029296875,9.732377,-10.13697,-128.59373,23.433014,0.0,0.0,0.0,0.0,0.0,0.0,0.0,3.2035484,-128.18431,38.320778,0.0,0.0,0.0,0.0,0.0,0.0,0.0,0.36013827,-0.01590975,-0.932897,0.88531494,0.11730957,-0.45446777,0.13769531,0.026367188,-0.020507812,6.2309265,7.4559784,-0.32938117,-19.313862,-0.9527588,0.0154418945,-0.2886963,-0.09667969,0.022460938,-0.026367188,2.3549292,4.012028,-57.22335,-20.33082,-0.46228027,0.6104126,1.168457,-0.095703125,0.056640625,-0.009765625,17.559744,3.4108264,-129.23016,-21.178122,0.0,0.0,0.0,0.0,0.0,0.0,0.0,22.421963,-128.38797,-15.007536,0.0,0.0,0.0,0.0,0.0,0.0,0.0,-1.6475544,44.953564,-1.4026709,
0.6093749818392101,26,0.022521973,-1.0010986,0.28167725,-0.0087890625,0.12207031,0.0390625,0.0,0.0,0.0,0.0,0.0,0.0,0.0,0.0,0.0,0.0,0.0,-0.35942495,0.0149564855,0.9331873,-0.87353516,-0.068359375,-0.42132568,0.055664062,0.2109375,0.040039062,2.986161,-7.44121,0.3096456,19.31987,-0.9677124,0.03753662,-0.19506836,-0.11230469,-0.01171875,0.07324219,1.5318683,-8.230113,-56.678383,20.62053,-0.4095459,-0.35772705,0.8460083,-0.022460938,0.028320312,0.0107421875,9.685193,-10.259945,-128.60553,23.459297,0.0,0.0,0.0,0.0,0.0,0.0,0.0,3.0824718,-128.18945,38.346237,0.0,0.0,0.0,0.0,0.0,0.0,0.0,0.35942495,-0.0149564855,-0.9331873,0.8933716,0.1104126,-0.45056152,0.13769531,0.0078125,-0.05859375,6.1441097,7.44121,-0.3096456,-19.31987,-0.9254761,0.039733887,-0.30133057,-0.05859375,0.080078125,0.06640625,2.3251529,4.097078,-57.205345,-20.254814,-0.42596436,0.642334,1.184082,-0.020507812,9.765625E-4,0.0087890625,17.76504,3.56192,-129.21143,-21.200932,0.0,0.0,0.0,0.0,0.0,0.0,0.0,22.573057,-128.36923,-15.030346,0.0,0.0,0.0,0.0,0.0,0.0,0.0,-1.6964302,44.952618,-1.3738642,
0.6328124811407182,27,-0.0134887695,-1.0021973,0.30499268,-0.0087890625,0.103515625,0.0390625,0.0,0.0,0.0,0.0,0.0,0.0,0.0,0.0,0.0,0.0,0.0,-0.3588711,0.014290178,0.93344474,-0.88165283,-0.05255127,-0.42694092,0.055664062,0.13671875,0.05859375,3.1366885,-7.429744,0.29585096,19.3252,-0.96276855,0.06402588,-0.2244873,-0.07519531,-0.01171875,0.091796875,1.383808,-8.357978,-56.692173,20.626913,-0.40826416,-0.34002686,0.85009766,-0.041015625,0.029296875,0.0107421875,9.549337,-10.32375,-128.61653,23.572681,0.0,0.0,0.0,0.0,0.0,0.0,0.0,3.02839,-128.19754,38.455097,0.0,0.0,0.0,0.0,0.0,0.0,0.0,0.3588711,-0.014290178,-0.93344474,0.8652344,0.14581299,-0.4640503,-0.052734375,0.08203125,0.037109375,6.164402,7.429744,-0.29585096,-19.3252,-0.9242554,0.08203125,-0.32965088,-9.765625E-4,0.080078125,0.028320312,2.233006,4.1219773,-57.194283,-20.380665,-0.43811035,0.63171387,1.1811523,-0.020507812,0.01953125,0.02734375,17.795683,3.5282767,-129.19852,-21.379784,0.0,0.0,0.0,0.0,0.0,0.0,0.0,22.539413,-128.35632,-15.209198,0.0,0.0,0.0,0.0,0.0,0.0,0.0,-1.7099924,44.954384,-1.3456318,
0.6562499804422263,28,0.0025024414,-1.0036011,0.29229736,-0.0087890625,0.08496094,0.0390625,0.0,0.0,0.0,0.0,0.0,0.0,0.0,0.0,0.0,0.0,0.0,-0.35846534,0.013794758,0.9336222,-0.8786011,-0.09088135,-0.3817749,0.0546875,0.2109375,0.021484375,3.2784712,-7.4213433,0.28559425,19.328875,-0.9602051,0.06097412,-0.1772461,-0.111328125,0.0078125,0.0546875,1.2101457,-8.499256,-56.69802,20.589813,-0.43243408,-0.34545898,0.84851074,-0.041015625,-0.0068359375,0.029296875,9.302588,-10.366671,-128.62848,23.565887,0.0,0.0,0.0,0.0,0.0,0.0,0.0,2.9932537,-128.21144,38.439075,0.0,0.0,0.0,0.0,0.0,0.0,0.0,0.35846534,-0.013794758,-0.9336222,0.87231445,0.12451172,-0.49212646,-0.08984375,-0.07128906,0.018554688,6.1056685,7.4213433,-0.28559425,-19.328875,-0.9362793,0.096191406,-0.36108398,-0.057617188,0.041992188,0.047851562,2.0309541,4.2018847,-57.18459,-20.478771,-0.45544434,0.6395874,1.1854858,-0.001953125,0.0390625,0.02734375,17.714098,3.469755,-129.18404,-21.538689,0.0,0.0,0.0,0.0,0.0,0.0,0.0,22.480892,-128.34184,-15.368103,0.0,0.0,0.0,0.0,0.0,0.0,0.0,-1.7035142,44.95603,-1.3183151,
0.6796874797437343,29,-0.025512695,-1.001709,0.28405762,0.0107421875,0.06738281,0.040039062,0.0,0.0,0.0,0.0,0.0,0.0,0.0,0.0,0.0,0.0,0.0,-0.35997728,0.01320235,0.93303466,-0.8835449,-0.0791626,-0.40930176,0.018554688,0.13671875,0.040039062,3.3945951,-7.4526453,0.27332956,19.31671,-0.9272461,0.07141113,-0.1741333,-0.09375,0.0078125,0.091796875,1.1364275,-8.592686,-56.70839,20.55008,-0.42071533,-0.3692627,0.84313965,-0.041015625,0.0107421875,0.0107421875,9.107354,-10.348797,-128.63956,23.60401,0.0,0.0,0.0,0.0,0.0,0.0,0.0,3.0182247,-128.22768,38.468376,0.0,0.0,0.0,0.0,0.0,0.0,0.0,0.35997728,-0.01320235,-0.93303466,0.8446045,0.08105469,-0.48242188,-0.08984375,-0.109375,-9.765625E-4,6.258398,7.4526453,-0.27332956,-19.31671,-0.920105,0.099487305,-0.31774902,-0.038085938,0.022460938,0.028320312,1.988102,4.0991697,-57.164883,-20.447535,-0.43621826,0.64923096,1.1902466,-0.001953125,0.057617188,0.02734375,17.610643,3.1465814,-129.15952,-21.486435,0.0,0.0,0.0,0.0,0.0,0.0,0.0,22.157719,-128.31732,-15.315849,0.0,0.0,0.0,0.0,0.0,0.0,0.0,-1.7446103,44.95413,-1.3091904,
0.7031249790452424,30,-0.002380371,-0.9701538,0.29431152,-0.0087890625,0.06640625,0.05859375,0.0,0.0,0.0,0.0,0.0,0.0,0.0,0.0,0.0,0.0,0.0,-0.3600994,0.013030594,0.93301964,-0.8621826,-0.0793457,-0.46929932,-0.056640625,0.13671875,0.00390625,3.5344086,-7.455175,0.2697737,19.316399,-0.98461914,0.0635376,-0.18914795,-0.09277344,0.0078125,0.0546875,1.088944,-8.731855,-56.71199,20.439274,-0.41168213,-0.36853027,0.8479614,-0.041015625,0.029296875,0.029296875,8.962605,-10.412744,-128.64072,23.517088,0.0,0.0,0.0,0.0,0.0,0.0,0.0,2.9553366,-128.22374,38.380013,0.0,0.0,0.0,0.0,0.0,0.0,0.0,0.3600994,-0.013030594,-0.93301964,0.8640747,0.08105469,-0.5223999,-0.051757812,-0.033203125,-9.765625E-4,6.344461,7.455175,-0.2697737,-19.316399,-0.93640137,0.057495117,-0.30615234,-0.05859375,0.041992188,-0.026367188,2.082623,3.9414349,-57.160145,-20.347097,-0.5177002,0.6690674,1.2056274,-0.07714844,0.038085938,-0.009765625,17.601938,2.8948274,-129.15791,-21.38526,0.0,0.0,0.0,0.0,0.0,0.0,0.0,21.905964,-128.31572,-15.214674,0.0,0.0,0.0,0.0,0.0,0.0,0.0,-1.7371018,44.955975,-1.2982925,
0.7265624783467505,31,-0.018371582,-0.9741821,0.32183838,0.0107421875,0.048828125,0.040039062,0.0,0.0,0.0,0.0,0.0,0.0,0.0,0.0,0.0,0.0,0.0,-0.36019972,0.012444991,0.9330172,-0.8970947,-0.13824463,-0.40667725,-0.09277344,0.024414062,0.00390625,3.612162,-7.457251,0.2576499,19.316349,-0.9598999,0.09686279,-0.13085938,-0.0546875,0.0078125,0.07324219,1.1132907,-8.805391,-56.72225,20.303509,-0.33850098,-0.3656006,0.78552246,-0.32421875,0.4326172,0.10644531,8.799286,-10.293911,-128.66013,23.42409,0.0,0.0,0.0,0.0,0.0,0.0,0.0,3.070178,-128.32797,38.293385,0.0,0.0,0.0,0.0,0.0,0.0,0.0,0.36019972,-0.012444991,-0.9330172,0.8932495,0.08898926,-0.4487915,0.099609375,0.064453125,0.017578125,6.331963,7.457251,-0.2576499,-19.316349,-0.91815186,0.06060791,-0.25201416,-0.13574219,0.041992188,-0.044921875,2.1517687,3.8844028,-57.142967,-20.244741,-0.4300537,0.6452637,1.1881104,-0.078125,-0.018554688,-0.047851562,17.64603,2.8523734,-129.1423,-21.140347,0.0,0.0,0.0,0.0,0.0,0.0,0.0,21.859022,-128.29512,-14.956932,0.0,0.0,0.0,0.0,0.0,0.0,0.0,-1.7301117,44.958313,-1.2675989,
0.7499999776482585,32,0.0015869141,-0.98895264,0.32904053,0.030273438,0.06738281,0.021484375,0.0,0.0,0.0,0.0,0.0,0.0,0.0,0.0,0.0,0.0,0.0,-0.3594857,0.0123933945,0.93322414,-0.9291382,-0.1784668,-0.34985352,-0.12988281,0.005859375,0.0048828125,3.4238834,-7.442468,0.2565817,19.320633,-0.9047241,0.099609375,-0.10601807,0.17382812,0.043945312,0.0546875,1.1653327,-8.636742,-56.726368,20.221947,-0.54467773,-0.41027832,0.85565186,-0.17285156,0.5390625,0.0126953125,8.580917,-9.890673,-128.66888,23.330439,0.0,0.0,0.0,0.0,0.0,0.0,0.0,3.4833717,-128.63551,38.193718,0.0,0.0,0.0,0.0,0.0,0.0,0.0,0.3594857,-0.0123933945,-0.93322414,0.97021484,0.09643555,-0.37841797,0.15625,0.1796875,-0.001953125,5.9281735,7.442468,-0.2565817,-19.320633,-0.9753418,-0.06970215,-0.2557373,-0.19335938,0.060546875,0.01171875,2.031436,4.1820064,-57.164906,-20.09735,-0.4147339,0.63549805,1.1818237,0.015625,-0.055664062,-0.0107421875,18.14705,3.3570056,-129.16833,-20.98562,0.0,0.0,0.0,0.0,0.0,0.0,0.0,22.363655,-128.32115,-14.802206,0.0,0.0,0.0,0.0,0.0,0.0,0.0,-1.6917775,44.957397,-1.2487295,
0.7734374769497666,33,-0.01550293,-1.0145264,0.31781006,0.087890625,0.06933594,0.060546875,0.0,0.0,0.0,0.0,0.0,0.0,0.0,0.0,0.0,0.0,0.0,-0.35941094,0.012506585,0.9332519,-0.9262085,-0.18334961,-0.33013916,-0.053710938,-0.125,0.021484375,2.9647791,-7.4409213,0.25892508,19.32121,-0.9746094,0.13092041,-0.12579346,0.23242188,0.08203125,-0.01953125,1.3787078,-8.191577,-56.73684,20.173208,-0.37475586,-0.3809204,0.8255005,-0.059570312,0.15625,0.01171875,8.430584,-9.231606,-128.68234,23.359903,0.0,0.0,0.0,0.0,0.0,0.0,0.0,4.1823425,-128.79053,38.18785,0.0,0.0,0.0,0.0,0.0,0.0,0.0,0.35941094,-0.012506585,-0.9332519,0.9208374,0.1505127,-0.3945923,-0.034179688,0.27246094,0.09375,5.347934,7.4409213,-0.25892508,-19.32121,-0.9751587,-0.050231934,-0.24578857,-0.13671875,0.09863281,0.0859375,1.6608325,4.796563,-57.201454,-20.13466,-0.43200684,0.63360596,1.1820679,0.016601562,9.765625E-4,0.045898438,18.796938,4.248816,-129.20088,-21.133556,0.0,0.0,0.0,0.0,0.0,0.0,0.0,23.255465,-128.3537,-14.950142,0.0,0.0,0.0,0.0,0.0,0.0,0.0,-1.6645403,44.95858,-1.2435359,
0.7968749762512747,34,-0.02960205,-1.0233765,0.28094482,0.107421875,0.051757812,0.00390625,0.0,0.0,0.0,0.0,0.0,0.0,0.0,0.0,0.0,0.0,0.0,-0.3618115,0.0128338775,0.9323464,-0.89227295,-0.13427734,-0.37994385,-0.051757812,-0.23730469,0.0390625,2.4043617,-7.490619,0.26570106,19.30246,-0.95874023,0.048217773,-0.14190674,0.29101562,0.12011719,-0.09472656,1.6447294,-7.791496,-56.731777,20.155012,-0.45629883,-0.4039917,0.83447266,-0.022460938,0.0107421875,0.0107421875,8.504614,-8.866003,-128.67218,23.298058,0.0,0.0,0.0,0.0,0.0,0.0,0.0,4.5544147,-128.80893,38.11895,0.0,0.0,0.0,0.0,0.0,0.0,0.0,0.3618115,-0.0128338775,-0.9323464,0.91845703,0.12884521,-0.34100342,-0.09082031,0.23339844,0.11328125,4.622792,7.490619,-0.26570106,-19.30246,-0.9242554,0.08190918,-0.31585693,-0.19726562,0.19433594,0.125,0.92788416,5.4922695,-57.230762,-20.044037,-0.44232178,0.65216064,1.1913452,0.0546875,0.020507812,0.045898438,19.048481,4.647481,-129.23045,-21.113598,0.0,0.0,0.0,0.0,0.0,0.0,0.0,23.654129,-128.38327,-14.930183,0.0,0.0,0.0,0.0,0.0,0.0,0.0,-1.567579,44.96364,-1.2272542,
0.8203124755527827,35,-0.032470703,-0.9925537,0.2730713,0.12695312,0.034179688,0.00390625,0.0,0.0,0.0,0.0,0.0,0.0,0.0,0.0,0.0,0.0,0.0,-0.36392844,0.012371781,0.9315291,-0.8903198,-0.008972168,-0.3618164,0.025390625,-0.42382812,0.07421875,1.6965059,-7.5344477,0.25613424,19.285542,-0.9517212,0.09387207,-0.13476562,0.3095703,0.12011719,-0.056640625,1.9477253,-7.3554955,-56.736835,20.460922,-0.42889404,-0.37683105,0.81256104,-0.07910156,0.083984375,0.029296875,8.712374,-8.555491,-128.66905,23.623592,0.0,0.0,0.0,0.0,0.0,0.0,0.0,4.886935,-128.8414,38.423317,0.0,0.0,0.0,0.0,0.0,0.0,0.0,0.36392844,-0.012371781,-0.9315291,0.835022,0.20727539,-0.44940186,-0.2421875,0.15527344,0.11328125,4.32264,7.5344477,-0.25613424,-19.285542,-0.94647217,0.07879639,-0.36901855,-0.080078125,0.13769531,0.123046875,0.6199199,5.7543983,-57.231228,-20.131392,-0.4442749,0.6405029,1.1833496,0.091796875,0.059570312,-0.01171875,19.244005,4.4290733,-129.22072,-21.35388,0.0,0.0,0.0,0.0,0.0,0.0,0.0,23.435871,-128.37363,-15.173395,0.0,0.0,0.0,0.0,0.0,0.0,0.0,-1.452402,44.969208,-1.1646652,
0.8437499748542908,36,-0.06439209,-0.96154785,0.2489624,0.068359375,0.06933594,0.021484375,0.0,0.0,0.0,0.0,0.0,0.0,0.0,0.0,0.0,0.0,0.0,-0.36863506,0.010572016,0.9297147,-0.87091064,-0.035705566,-0.3972168,0.024414062,-0.38671875,-9.765625E-4,1.194685,-7.6318884,0.21887353,19.247974,-0.9507446,-0.034484863,-0.19732666,0.27246094,0.13964844,-0.038085938,2.6001527,-6.9316483,-56.762638,20.754547,-0.425354,-0.3366089,0.82476807,-0.0029296875,0.119140625,-0.0078125,9.144497,-8.474361,-128.69864,23.892294,0.0,0.0,0.0,0.0,0.0,0.0,0.0,4.9851704,-128.92506,38.677994,0.0,0.0,0.0,0.0,0.0,0.0,0.0,0.36863506,-0.010572016,-0.9297147,0.84106445,0.14257812,-0.5286865,-0.28027344,0.040039062,0.11328125,4.5007157,7.6318884,-0.21887353,-19.247974,-0.90582275,0.16467285,-0.39904785,-0.020507812,0.09863281,0.103515625,0.6489125,5.745035,-57.183315,-20.267092,-0.44537354,0.6483154,1.1873779,0.091796875,0.040039062,0.064453125,19.153614,3.8594337,-129.15622,-21.708782,0.0,0.0,0.0,0.0,0.0,0.0,0.0,22.871132,-128.31125,-15.542879,0.0,0.0,0.0,0.0,0.0,0.0,0.0,-1.4870977,44.97034,-1.1010082,
0.8671874741557989,37,-0.045410156,-0.9780884,0.27893066,0.087890625,0.051757812,-0.015625,0.0,0.0,0.0,0.0,0.0,0.0,0.0,0.0,0.0,0.0,0.0,-0.37209806,0.00873622,0.9283756,-0.8609619,-0.15899658,-0.3908081,-0.14746094,-0.087890625,0.11621094,1.0394816,-7.7035813,0.18086684,19.220253,-0.97772217,-0.007019043,-0.2052002,0.34765625,0.13867188,0.0,3.0575507,-6.806142,-56.794434,20.897665,-0.47943115,-0.33251953,0.8157959,-0.11621094,0.083984375,-0.0078125,9.624696,-8.715662,-128.71887,23.99257,0.0,0.0,0.0,0.0,0.0,0.0,0.0,4.7675266,-129.00783,38.75527,0.0,0.0,0.0,0.0,0.0,0.0,0.0,0.37209806,-0.00873622,-0.9283756,0.86920166,0.13409424,-0.4671631,-0.20410156,-0.015625,0.09472656,4.5594764,7.7035813,-0.18086684,-19.220253,-0.93792725,0.15679932,-0.35577393,-0.038085938,0.041992188,0.083984375,0.78384626,5.6662416,-57.142113,-20.275955,-0.46166992,0.6561279,1.1956787,0.091796875,0.078125,-0.01171875,18.952387,3.2276418,-129.09901,-21.73797,0.0,0.0,0.0,0.0,0.0,0.0,0.0,22.240496,-128.26253,-15.572651,0.0,0.0,0.0,0.0,0.0,0.0,0.0,-1.4617873,44.974262,-1.0091101,
0.890624973457307,38,-0.01953125,-1.017273,0.30981445,0.22363281,0.072265625,0.0625,0.0,0.0,0.0,0.0,0.0,0.0,0.0,0.0,0.0,0.0,0.0,-0.37284404,0.0078042736,0.92806244,-0.89697266,-0.1854248,-0.35754395,-0.053710938,-0.05078125,0.15234375,0.8221055,-7.7190285,0.16157264,19.21377,-0.97302246,0.041931152,-0.16461182,0.29101562,0.13867188,0.0,3.3152885,-6.704405,-56.812798,20.848185,-0.41015625,-0.4017334,0.8041382,-0.060546875,0.029296875,0.029296875,10.057605,-8.789141,-128.7384,23.91777,0.0,0.0,0.0,0.0,0.0,0.0,0.0,4.672614,-129.0679,38.697357,0.0,0.0,0.0,0.0,0.0,0.0,0.0,0.37284404,-0.0078042736,-0.92806244,0.8903198,0.11517334,-0.42956543,-0.14746094,0.00390625,0.07519531,4.372869,7.7190285,-0.16157264,-19.21377,-0.9265747,0.025146484,-0.30737305,-0.07714844,0.060546875,0.08496094,0.8166127,5.645961,-57.122013,-20.269531,-0.42797852,0.6355591,1.184021,0.07324219,0.040039062,0.0068359375,19.02553,3.0672185,-129.07243,-21.693718,0.0,0.0,0.0,0.0,0.0,0.0,0.0,22.080227,-128.23604,-15.531324,0.0,0.0,0.0,0.0,0.0,0.0,0.0,-1.3223128,44.979782,-0.90947646,
0.914062472758815,39,-0.02758789,-1.022522,0.31762695,0.28222656,0.09277344,0.06347656,0.0,0.0,0.0,0.0,0.0,0.0,0.0,0.0,0.0,0.0,0.0,-0.37393817,0.008885153,0.9275772,-0.9178467,-0.08483887,-0.3550415,0.09667969,-0.087890625,0.09375,0.56266993,-7.7416787,0.18395025,19.203724,-0.9625244,0.0115356445,-0.14996338,0.40527344,0.1953125,0.038085938,3.580968,-6.574234,-56.785854,20.823755,-0.43200684,-0.383667,0.8106079,0.034179688,-0.0078125,0.0107421875,10.419185,-8.811169,-128.70581,23.756542,0.0,0.0,0.0,0.0,0.0,0.0,0.0,4.643362,-129.0407,38.54461,0.0,0.0,0.0,0.0,0.0,0.0,0.0,0.37393817,-0.008885153,-0.9275772,0.9043579,0.10998535,-0.40185547,-0.109375,0.0048828125,0.09472656,4.01171,7.7416787,-0.18395025,-19.203724,-0.9546509,0.051208496,-0.3357544,-0.05859375,0.060546875,0.08496094,0.88911456,5.7628107,-57.143948,-20.26464,-0.46246338,0.6317749,1.1865234,0.0546875,0.040039062,0.0078125,19.179878,3.2120628,-129.09654,-21.730305,0.0,0.0,0.0,0.0,0.0,0.0,0.0,22.22507,-128.26015,-15.567911,0.0,0.0,0.0,0.0,0.0,0.0,0.0,-1.0860983,44.985435,-0.8687537,
0.9374999720603231,40,-0.057495117,-0.994812,0.33520508,0.2626953,0.055664062,0.025390625,0.0,0.0,0.0,0.0,0.0,0.0,0.0,0.0,0.0,0.0,0.0,-0.3751024,0.009702248,0.9270928,-0.9118042,-0.091674805,-0.34136963,0.13378906,-0.125,0.111328125,0.932722,-7.7657824,0.20086661,19.193697,-0.9326782,0.065979004,-0.14959717,0.3876953,0.19628906,-0.037109375,4.1318536,-6.2091484,-56.756298,20.98382,-0.41705322,-0.39093018,0.82507324,0.07128906,-0.044921875,0.028320312,10.785618,-8.652778,-128.66846,24.002544,0.0,0.0,0.0,0.0,0.0,0.0,0.0,4.8113203,-128.99611,38.780266,0.0,0.0,0.0,0.0,0.0,0.0,0.0,0.3751024,-0.009702248,-0.9270928,0.89953613,0.11425781,-0.45654297,0.060546875,-0.0126953125,0.056640625,3.667303,7.7657824,-0.20086661,-19.193697,-0.8960571,0.10046387,-0.3482666,-0.15429688,0.060546875,0.0859375,1.073561,5.8061404,-57.1601,-20.247467,-0.4239502,0.6442871,1.1870117,0.017578125,0.07714844,0.045898438,19.300688,2.9656847,-129.10146,-21.655937,0.0,0.0,0.0,0.0,0.0,0.0,0.0,21.978693,-128.26506,-15.493544,0.0,0.0,0.0,0.0,0.0,0.0,0.0,-0.8231728,44.99197,-0.80390805,
0.9609374713618312,41,-0.07940674,-0.96606445,0.32507324,0.22363281,0.036132812,0.024414062,0.0,0.0,0.0,0.0,0.0,0.0,0.0,0.0,0.0,0.0,0.0,-0.37633368,0.00900221,0.9265959,-0.86834717,-0.09692383,-0.41973877,0.13378906,-0.125,0.07421875,1.5246975,-7.7912755,0.18637365,19.183409,-0.96362305,-0.034362793,-0.24261475,0.25585938,0.19726562,-0.07519531,4.6944,-6.001438,-56.7587,21.107134,-0.4439087,-0.37451172,0.79901123,0.109375,-0.0087890625,0.028320312,11.198005,-8.855076,-128.64667,24.250805,0.0,0.0,0.0,0.0,0.0,0.0,0.0,4.6221457,-128.9455,39.01599,0.0,0.0,0.0,0.0,0.0,0.0,0.0,0.37633368,-0.00900221,-0.9265959,0.9014282,0.11212158,-0.42767334,0.13671875,0.0078125,-9.765625E-4,3.2778144,7.7912755,-0.18637365,-19.183409,-0.9172363,0.07098389,-0.31201172,-0.2705078,0.060546875,0.12402344,1.2536699,5.8270016,-57.148563,-20.183949,-0.44213867,0.6287842,1.18219,-0.057617188,0.056640625,0.028320312,19.54522,2.7153435,-129.08221,-21.503654,0.0,0.0,0.0,0.0,0.0,0.0,0.0,21.727686,-128.25227,-15.338115,0.0,0.0,0.0,0.0,0.0,0.0,0.0,-0.57026994,44.9979,-0.6687838,
0.9843749706633392,42,-0.0413208,-0.95544434,0.31469727,0.22363281,0.111328125,-0.0146484375,0.0,0.0,0.0,0.0,0.0,0.0,0.0,0.0,0.0,0.0,0.0,-0.37656128,0.008329105,0.92651975,-0.83673096,-0.11694336,-0.49102783,-0.016601562,0.0048828125,0.15234375,1.7273709,-7.795985,0.17243828,19.181833,-0.958313,-0.05303955,-0.30371094,0.21777344,0.21679688,-0.018554688,5.012704,-6.1630163,-56.774075,21.126144,-0.43463135,-0.35803223,0.8187866,0.015625,0.028320312,0.0107421875,11.753343,-9.606119,-128.6342,24.417418,0.0,0.0,0.0,0.0,0.0,0.0,0.0,3.8940277,-128.92177,39.164654,0.0,0.0,0.0,0.0,0.0,0.0,0.0,0.37656128,-0.008329105,-0.92651975,0.899353,0.11303711,-0.4136963,0.13671875,-0.068359375,0.037109375,2.9050837,7.795985,-0.17243828,-19.181833,-0.9564209,0.08337402,-0.32373047,-0.26953125,0.041015625,0.10546875,1.3768613,5.8424387,-57.132065,-20.085175,-0.43762207,0.6939697,1.2185059,-0.095703125,0.056640625,-0.009765625,19.891962,2.5495372,-129.06155,-21.214941,0.0,0.0,0.0,0.0,0.0,0.0,0.0,21.55988,-128.22824,-15.037952,0.0,0.0,0.0,0.0,0.0,0.0,0.0,-0.35745928,45.002117,-0.5498346,
1.0078124699648474,43,-0.03149414,-0.9990845,0.32458496,0.2626953,0.1484375,0.04296875,0.0,0.0,0.0,0.0,0.0,0.0,0.0,0.0,0.0,0.0,0.0,-0.3764962,0.008497277,0.9265974,-0.80700684,-0.10699463,-0.44299316,0.018554688,0.15429688,0.18945312,1.7545737,-7.7946396,0.17592,19.183441,-0.9515381,-0.0635376,-0.28308105,0.08300781,0.1796875,0.018554688,5.1453657,-6.5152154,-56.778927,21.1549,-0.46313477,-0.38604736,0.8199463,0.034179688,-0.026367188,0.009765625,12.253433,-10.564251,-128.60995,24.530775,0.0,0.0,0.0,0.0,0.0,0.0,0.0,2.9573574,-128.90425,39.257076,0.0,0.0,0.0,0.0,0.0,0.0,0.0,0.3764962,-0.008497277,-0.9265974,0.88726807,0.13452148,-0.41345215,0.09863281,-0.14550781,0.038085938,2.7509344,7.7946396,-0.17592,-19.183441,-0.91516113,0.093811035,-0.3453369,-0.34765625,0.060546875,0.125,1.43763,5.6941004,-57.134357,-20.06681,-0.4605713,0.649292,1.1916504,-0.1328125,0.055664062,-0.0087890625,20.184072,2.0709538,-129.04753,-20.93816,0.0,0.0,0.0,0.0,0.0,0.0,0.0,21.074314,-128.20639,-14.742166,0.0,0.0,0.0,0.0,0.0,0.0,0.0,-0.15553293,45.006313,-0.47592258,
1.0312499692663555,44,-0.022399902,-0.97753906,0.33270264,0.28125,0.16796875,0.024414062,0.0,0.0,0.0,0.0,0.0,0.0,0.0,0.0,0.0,0.0,0.0,-0.37581944,0.009044946,0.92683345,-0.86505127,-0.14129639,-0.40637207,0.055664062,0.20996094,0.17089844,1.7922047,-7.7806273,0.18725842,19.188326,-0.9733887,-0.051696777,-0.21911621,0.043945312,0.16015625,0.09375,5.1064153,-6.8247366,-56.77756,21.113134,-0.43914795,-0.39642334,0.83032227,0.034179688,-0.0078125,0.0107421875,12.52226,-11.223366,-128.57858,24.532936,0.0,0.0,0.0,0.0,0.0,0.0,0.0,2.3015976,-128.86719,39.257282,0.0,0.0,0.0,0.0,0.0,0.0,0.0,0.37581944,-0.009044946,-0.92683345,0.88513184,0.13140869,-0.3815918,0.022460938,-0.12792969,0.076171875,2.494263,7.7806273,-0.18725842,-19.188326,-0.9104614,0.042785645,-0.33184814,-0.3857422,0.060546875,0.125,1.5149117,5.6269326,-57.139576,-20.107979,-0.43829346,0.6530762,1.1923218,-0.15136719,0.055664062,-0.0087890625,20.694931,1.814915,-129.04507,-20.891428,0.0,0.0,0.0,0.0,0.0,0.0,0.0,20.811348,-128.19614,-14.67639,0.0,0.0,0.0,0.0,0.0,0.0,0.0,0.097638816,45.00582,-0.39961946,
1.0546874685678636,45,-0.02355957,-1.022644,0.32263184,0.22363281,0.16601562,0.00390625,0.0,0.0,0.0,0.0,0.0,0.0,0.0,0.0,0.0,0.0,0.0,-0.37459227,0.009479366,0.92733467,-0.8781738,-0.052246094,-0.32977295,0.13085938,0.2109375,0.15136719,1.9703029,-7.755222,0.19625226,19.198702,-0.97436523,0.042541504,-0.23937988,-0.0126953125,0.16113281,0.07519531,4.971851,-7.038126,-56.770817,21.198645,-0.43475342,-0.3659668,0.82263184,0.034179688,-0.0078125,0.047851562,12.508312,-11.556419,-128.55873,24.851313,0.0,0.0,0.0,0.0,0.0,0.0,0.0,1.9762392,-128.83867,39.567142,0.0,0.0,0.0,0.0,0.0,0.0,0.0,0.37459227,-0.009479366,-0.92733467,0.87286377,0.09680176,-0.41571045,0.060546875,-0.12695312,0.09472656,2.28559,7.755222,-0.19625226,-19.198702,-0.9041748,0.085754395,-0.33551025,-0.4248047,0.07910156,0.12597656,1.5037613,5.433088,-57.14894,-20.04703,-0.47052002,0.6240845,1.1756592,-0.15136719,0.036132812,0.048828125,21.20506,1.4210877,-129.04556,-20.728748,0.0,0.0,0.0,0.0,0.0,0.0,0.0,20.408495,-128.18689,-14.491713,0.0,0.0,0.0,0.0,0.0,0.0,0.0,0.3382936,45.005642,-0.32340288,
1.0781249678693716,46,-0.04547119,-0.9954834,0.29766846,0.18457031,0.12890625,-0.034179688,0.0,0.0,0.0,0.0,0.0,0.0,0.0,0.0,0.0,0.0,0.0,-0.37542883,0.008487325,0.92697746,-0.90234375,-0.062927246,-0.28674316,0.09375,0.19140625,0.15136719,2.273053,-7.7725396,0.17571397,19.191307,-0.9359741,0.058044434,-0.14764404,-0.068359375,0.20019531,0.056640625,4.943992,-7.0697513,-56.78686,21.344847,-0.43170166,-0.36108398,0.82562256,0.015625,-0.043945312,0.029296875,12.237606,-11.56979,-128.55704,25.203167,0.0,0.0,0.0,0.0,0.0,0.0,0.0,1.972332,-128.83234,39.90912,0.0,0.0,0.0,0.0,0.0,0.0,0.0,0.37542883,-0.008487325,-0.92697746,0.8666382,0.0715332,-0.40594482,0.19335938,-0.125,0.038085938,2.1476717,7.7725396,-0.17571397,-19.191307,-0.93914795,0.124572754,-0.3579712,-0.54003906,0.07910156,0.18261719,1.713379,5.2843256,-57.12182,-19.853676,-0.46466064,0.6503296,1.1936646,-0.16992188,0.0546875,0.048828125,21.756252,0.80703926,-128.99133,-20.386803,0.0,0.0,0.0,0.0,0.0,0.0,0.0,19.788332,-128.12541,-14.132369,0.0,0.0,0.0,0.0,0.0,0.0,0.0,0.45460206,45.004013,-0.2279376,
1.1015624671708797,47,-0.0043945312,-0.97180176,0.31414795,0.107421875,0.18359375,-0.09277344,0.0,0.0,0.0,0.0,0.0,0.0,0.0,0.0,0.0,0.0,0.0,-0.37511694,0.0088432105,0.92711526,-0.9716797,-0.09112549,-0.19628906,0.18652344,0.20996094,0.16894531,2.6096954,-7.766085,0.18308188,19.194159,-0.9697876,0.12164307,-0.117004395,-0.009765625,0.2578125,0.01953125,4.9976335,-6.894062,-56.765896,21.555147,-0.44299316,-0.3795166,0.817688,0.072265625,-0.0087890625,0.028320312,11.748044,-11.2578535,-128.53856,25.603603,0.0,0.0,0.0,0.0,0.0,0.0,0.0,2.288207,-128.80777,40.309856,0.0,0.0,0.0,0.0,0.0,0.0,0.0,0.37511694,-0.0088432105,-0.92711526,0.8727417,0.02532959,-0.4810791,0.3642578,-0.08496094,-0.01953125,2.1493113,7.766085,-0.18308188,-19.194159,-0.91400146,0.10723877,-0.32165527,-0.63671875,0.041015625,0.109375,1.9130526,5.0447645,-57.126472,-19.521358,-0.4260254,0.6452637,1.1890259,-0.20703125,-0.0029296875,0.08691406,22.403454,0.056151867,-128.96336,-19.84758,0.0,0.0,0.0,0.0,0.0,0.0,0.0,19.027113,-128.08215,-13.561926,0.0,0.0,0.0,0.0,0.0,0.0,0.0,0.52873605,45.003883,-0.21533567,
1.1249999664723878,48,0.04071045,-0.94958496,0.28405762,0.10644531,0.25878906,-0.15136719,0.0,0.0,0.0,0.0,0.0,0.0,0.0,0.0,0.0,0.0,0.0,-0.37362725,0.01197716,0.92764884,-1.0117798,-0.010986328,-0.11419678,0.16894531,0.15429688,0.11230469,2.9832754,-7.735243,0.24796437,19.205206,-0.93603516,0.20898438,-0.023986816,0.013671875,0.35351562,-0.07324219,5.095084,-6.5412607,-56.67919,21.919905,-0.4290161,-0.383667,0.8006592,0.07128906,-0.026367188,0.046875,10.976086,-10.629097,-128.44193,26.367,0.0,0.0,0.0,0.0,0.0,0.0,0.0,2.924347,-128.71155,41.06748,0.0,0.0,0.0,0.0,0.0,0.0,0.0,0.37362725,-0.01197716,-0.92764884,0.8796387,0.014282227,-0.43737793,0.53515625,-0.21582031,-0.076171875,2.2326555,7.735243,-0.24796437,-19.205206,-0.942749,0.1661377,-0.30749512,-0.7529297,0.07910156,0.12890625,2.1906202,4.8165517,-57.18201,-19.057205,-0.46368408,0.6541748,1.1966553,-0.37597656,0.013671875,0.032226562,23.171394,-0.68954754,-128.981,-19.130241,0.0,0.0,0.0,0.0,0.0,0.0,0.0,18.264183,-128.06839,-12.793875,0.0,0.0,0.0,0.0,0.0,0.0,0.0,0.5673111,45.001186,-0.35252953,
1.1484374657738958,49,0.04663086,-0.97717285,0.31573486,0.18359375,0.31640625,-0.16992188,0.0,0.0,0.0,0.0,0.0,0.0,0.0,0.0,0.0,0.0,0.0,-0.3699195,0.016562073,0.92909706,-1.0986328,-0.066345215,0.107299805,0.24414062,0.13574219,0.1484375,3.34726,-7.6584806,0.34288627,19.23519,-0.9406738,0.269104,0.059936523,0.15332031,0.54589844,-0.203125,5.2495284,-6.1605315,-56.56283,22.28567,-0.43603516,-0.38861084,0.8323364,0.12792969,-0.0087890625,0.06542969,9.972476,-10.057325,-128.29742,27.23521,0.0,0.0,0.0,0.0,0.0,0.0,0.0,3.4998322,-128.55087,41.92976,0.0,0.0,0.0,0.0,0.0,0.0,0.0,0.3699195,-0.016562073,-0.92909706,0.8543701,0.04949951,-0.43096924,0.7050781,-0.1953125,-0.076171875,2.4313185,7.6584806,-0.34288627,-19.23519,-0.9110718,0.0914917,-0.31677246,-0.9277344,0.09863281,0.056640625,2.3904827,4.401303,-57.247337,-18.581133,-0.45318604,0.6152344,1.1773071,-0.37597656,-0.005859375,0.051757812,24.057798,-1.6856899,-129.00275,-18.32663,0.0,0.0,0.0,0.0,0.0,0.0,0.0,17.249369,-128.05434,-11.938631,0.0,0.0,0.0,0.0,0.0,0.0,0.0,0.6634276,44.999454,-0.5380164,
1.171874965075404,50,0.02355957,-1.0046997,0.33422852,0.28125,0.28320312,-0.22460938,0.0,0.0,0.0,0.0,0.0,0.0,0.0,0.0,0.0,0.0,0.0,-0.3647385,0.022302765,0.93097425,-1.2372437,0.0357666,0.21844482,0.021484375,-0.087890625,0.076171875,3.3582964,-7.5512176,0.46173638,19.274054,-0.9467163,0.49517822,0.22131348,0.37304688,0.79589844,-0.5205078,5.177633,-6.073415,-56.440018,22.354942,-0.40093994,-0.39135742,0.84851074,0.22265625,-0.0087890625,0.15820312,9.087613,-9.82275,-128.12967,27.978542,0.0,0.0,0.0,0.0,0.0,0.0,0.0,3.6937218,-128.3425,42.71062,0.0,0.0,0.0,0.0,0.0,0.0,0.0,0.3647385,-0.022302765,-0.93097425,0.87127686,0.17462158,-0.4239502,0.5917969,-0.21582031,-0.076171875,2.5133376,7.5512176,-0.46173638,-19.274054,-0.92437744,0.08251953,-0.3729248,-0.8125,0.09863281,0.07421875,2.3177333,3.968863,-57.35235,-18.425488,-0.47021484,0.58807373,1.15448,-0.32128906,-0.041992188,-0.005859375,25.194176,-2.3139286,-129.08826,-18.157091,0.0,0.0,0.0,0.0,0.0,0.0,0.0,16.60062,-128.10909,-11.716157,0.0,0.0,0.0,0.0,0.0,0.0,0.0,0.85695124,44.991222,-0.7420888,
1.195312464376912,51,0.026672363,-0.9788208,0.39276123,0.37890625,0.17578125,-0.27929688,0.0,0.0,0.0,0.0,0.0,0.0,0.0,0.0,0.0,0.0,0.0,-0.35728726,0.030490045,0.93367416,-1.2293701,0.0064086914,0.2923584,-0.3857422,-0.609375,-0.107421875,4.097442,-7.3969526,0.63123846,19.329948,-0.9885864,0.57489014,0.15863037,0.44335938,1.0859375,-0.9501953,7.081859,-5.4818554,-56.24432,22.66754,-0.38024902,-0.41833496,0.84991455,0.296875,0.08300781,0.28808594,9.471892,-11.136424,-127.81833,28.255568,0.0,0.0,0.0,0.0,0.0,0.0,0.0,2.291871,-127.97311,43.068943,0.0,0.0,0.0,0.0,0.0,0.0,0.0,0.35728726,-0.030490045,-0.93367416,0.880188,0.1451416,-0.39239502,0.25097656,-0.2578125,-0.07714844,2.3648818,7.3969526,-0.63123846,-19.329948,-0.90405273,0.109558105,-0.36297607,-0.65722656,0.09863281,0.18359375,2.353183,3.5117607,-57.49723,-18.56592,-0.4338379,0.6132202,1.1620483,-0.20800781,-0.059570312,0.08691406,26.059687,-3.26343,-129.19176,-18.298628,0.0,0.0,0.0,0.0,0.0,0.0,0.0,15.633047,-128.18213,-11.810513,0.0,0.0,0.0,0.0,0.0,0.0,0.0,1.2524066,44.97914,-0.98958176,
1.21874996367842,52,-0.015319824,-0.9685669,0.36450195,0.37890625,0.02734375,-0.27734375,0.0,0.0,0.0,0.0,0.0,0.0,0.0,0.0,0.0,0.0,0.0,-0.35428464,0.038978744,0.9345689,-1.2210693,-0.053222656,0.13781738,-0.6074219,-0.9082031,-0.1796875,5.3980083,-7.3347907,0.80698085,19.348473,-1.0874023,0.3968506,-0.081604004,0.20898438,1.3222656,-1.4199219,10.28677,-4.536604,-56.0065,23.138565,-0.34539795,-0.52093506,0.93536377,0.3720703,0.4482422,0.5683594,10.283653,-13.127511,-127.32564,28.211882,0.0,0.0,0.0,0.0,0.0,0.0,0.0,0.16001987,-127.52707,43.149513,0.0,0.0,0.0,0.0,0.0,0.0,0.0,0.35428464,-0.038978744,-0.9345689,0.859375,-0.0056152344,-0.4862671,0.024414062,-0.4326172,-0.095703125,2.403792,7.3347907,-0.80698085,-19.348473,-0.92852783,0.15136719,-0.22296143,-0.5800781,0.09863281,0.14648438,2.1904414,2.99125,-57.63981,-18.56964,-0.4381714,0.64434814,1.1882324,-0.24511719,-0.041015625,0.049804688,26.77363,-4.2557535,-129.28241,-18.031826,0.0,0.0,0.0,0.0,0.0,0.0,0.0,14.628871,-128.24797,-11.508978,0.0,0.0,0.0,0.0,0.0,0.0,0.0,1.6529949,44.96256,-1.2486541,
1.242187462979928,53,0.0026245117,-0.98724365,0.3369751,0.26367188,-0.12597656,-0.23925781,0.0,0.0,0.0,0.0,0.0,0.0,0.0,0.0,0.0,0.0,0.0,-0.35397923,0.046391934,0.93429637,-1.3580322,-0.17938232,0.08782959,-0.734375,-1.3554688,-0.21777344,7.1486635,-7.328466,0.96045685,19.34283,-1.3994751,0.038085938,-0.36376953,0.046875,1.4794922,-1.7949219,14.456522,-3.2632408,-55.731617,23.762615,-0.51623535,-0.33148193,1.098938,0.5419922,1.2861328,0.7939453,10.167479,-15.36012,-126.60278,27.933418,0.0,0.0,0.0,0.0,0.0,0.0,0.0,-2.1041145,-127.21043,42.892525,0.0,0.0,0.0,0.0,0.0,0.0,0.0,0.35397923,-0.046391934,-0.93429637,0.89501953,-0.19824219,-0.51501465,0.30859375,-0.41015625,-0.15234375,2.4875052,7.328466,-0.96045685,-19.34283,-0.98968506,0.31707764,-0.20037842,-0.5214844,0.09863281,0.21972656,2.1307461,2.3695636,-57.733376,-18.07888,-0.4260254,0.6452637,1.1890259,-0.32128906,-0.022460938,-0.043945312,27.17255,-5.573816,-129.29733,-16.92731,0.0,0.0,0.0,0.0,0.0,0.0,0.0,13.294363,-128.23965,-10.362623,0.0,0.0,0.0,0.0,0.0,0.0,0.0,2.0216756,44.938854,-1.465455,
1.2656249622814362,54,0.0256958,-0.9573364,0.30664062,0.08984375,-0.25976562,-0.25976562,0.0,0.0,0.0,0.0,0.0,0.0,0.0,0.0,0.0,0.0,0.0,-0.3611359,0.053835228,0.931134,-1.3717651,-0.3161621,-0.14746094,-0.2626953,-1.6542969,-0.33984375,9.232674,-7.4766326,1.1145563,19.277359,-1.3325195,0.12310791,-0.32476807,0.028320312,1.6132812,-1.4912109,19.502813,-1.4803567,-55.349274,24.36182,-1.2959595,0.25616455,1.0182495,-1.0439453,2.4541016,1.6035156,9.743804,-17.256908,-125.5349,27.77899,0.0,0.0,0.0,0.0,0.0,0.0,0.0,-4.111377,-127.069466,42.766075,0.0,0.0,0.0,0.0,0.0,0.0,0.0,0.3611359,-0.053835228,-0.931134,0.9143677,-0.15887451,-0.4699707,0.57421875,-0.42578125,-0.19042969,2.825285,7.4766326,-1.1145563,-19.277359,-0.93548584,0.1550293,-0.19146729,-0.6591797,0.13671875,0.07324219,2.1517687,1.9691854,-57.817867,-17.305475,-0.42999268,0.63842773,1.1880493,-0.39746094,-0.041992188,-0.13867188,27.854774,-6.5138965,-129.30843,-15.60573,0.0,0.0,0.0,0.0,0.0,0.0,0.0,12.344454,-128.23329,-9.016471,0.0,0.0,0.0,0.0,0.0,0.0,0.0,2.1443179,44.92158,-1.7655607,
1.2890624615829442,55,0.066711426,-0.9649658,0.28033447,-0.0068359375,-0.3359375,-0.35546875,0.0,0.0,0.0,0.0,0.0,0.0,0.0,0.0,0.0,0.0,0.0,-0.37077463,0.063421465,0.9266763,-1.1904907,-0.37493896,-0.24517822,0.734375,-1.9912109,-0.171875,11.385914,-7.6761856,1.3130211,19.185074,-1.236084,0.15686035,-0.14819336,-0.15234375,1.7519531,-1.9238281,25.265034,0.679615,-54.804882,24.699772,0.33880615,-0.52386475,1.0230103,0.6542969,2.8769531,1.8027344,8.78568,-19.073626,-124.01373,27.241724,0.0,0.0,0.0,0.0,0.0,0.0,0.0,-6.2606373,-126.9078,42.322304,0.0,0.0,0.0,0.0,0.0,0.0,0.0,0.37077463,-0.063421465,-0.9266763,0.8886719,0.035217285,-0.38842773,0.6689453,-0.3857422,-0.19042969,3.4154098,7.6761856,-1.3130211,-19.185074,-1.0061035,0.107788086,-0.17596436,-0.6220703,0.19433594,0.14746094,1.9298584,1.7201076,-57.96016,-16.873108,-0.4602661,0.6123657,1.1704102,-0.5107422,-0.043945312,-0.23144531,28.884024,-6.8737206,-129.42729,-14.890797,0.0,0.0,0.0,0.0,0.0,0.0,0.0,11.985186,-128.34082,-8.3036175,0.0,0.0,0.0,0.0,0.0,0.0,0.0,2.0596404,44.901623,-2.2489672,
1.3124999608844523,56,0.118896484,-0.92230225,0.26330566,-0.103515625,-0.35742188,-0.2998047,0.0,0.0,0.0,0.0,0.0,0.0,0.0,0.0,0.0,0.0,0.0,-0.38231704,0.07390871,0.9211723,-1.1904907,-0.37493896,-0.24517822,0.734375,-1.9912109,-0.171875,11.0898485,-7.9151483,1.5301394,19.071121,-1.0368652,0.010986328,-0.30859375,-0.34179688,1.8105469,-1.7539062,28.449017,0.44065237,-54.587765,24.58582,-1.2371826,-0.69573975,1.2930908,0.82128906,2.7705078,2.2294922,7.481468,-23.03893,-122.6461,26.205973,0.0,0.0,0.0,0.0,0.0,0.0,0.0,-10.60545,-126.861534,41.293053,0.0,0.0,0.0,0.0,0.0,0.0,0.0,0.38231704,-0.07390871,-0.9211723,0.9319458,0.18884277,-0.32263184,0.4033203,-0.3515625,-0.13378906,3.8631546,7.9151483,-1.5301394,-19.071121,-0.91937256,0.022216797,-0.22766113,-0.6230469,0.25195312,0.22265625,1.970005,1.8517308,-58.16258,-16.842976,-0.41644287,0.5946045,1.1606445,-0.54785156,-0.025390625,-0.21191406,30.028595,-7.0127597,-129.59453,-14.886432,0.0,0.0,0.0,0.0,0.0,0.0,0.0,11.845736,-128.49632,-8.303036,0.0,0.0,0.0,0.0,0.0,0.0,0.0,1.9404563,44.875393,-2.795148,
1.3359374601859604,57,0.1628418,-0.9501343,0.2855835,-0.123046875,-0.3408203,-0.24316406,0.0,0.0,0.0,0.0,0.0,0.0,0.0,0.0,0.0,0.0,0.0,-0.3921842,0.08436027,0.91606474,-0.98791504,0.15789795,-0.33911133,1.9970703,-2.5166016,0.21484375,16.942326,-8.11943,1.7465191,18.96538,-1.1322632,-0.33172607,-0.5023804,-0.5888672,1.6796875,-2.0195312,38.06251,6.311309,-53.076584,24.926197,-0.46929932,-0.6889038,1.6293945,0.009765625,1.5576172,2.0419922,6.892786,-20.995228,-119.714645,25.506142,0.0,0.0,0.0,0.0,0.0,0.0,0.0,-9.132454,-124.9406,40.73574,0.0,0.0,0.0,0.0,0.0,0.0,0.0,0.3921842,-0.08436027,-0.91606474,0.87854004,0.24987793,-0.35662842,-0.052734375,-0.453125,0.0,4.766003,8.11943,-1.7465191,-18.96538,-0.939209,0.087768555,-0.302063,-0.3720703,0.2890625,0.44335938,2.013631,1.970418,-58.39351,-17.225191,-0.42016602,0.55578613,1.1245728,-0.30273438,0.03515625,-0.12011719,31.071213,-7.3315935,-129.77713,-15.481252,0.0,0.0,0.0,0.0,0.0,0.0,0.0,11.528909,-128.6693,-8.903078,0.0,0.0,0.0,0.0,0.0,0.0,0.0,1.7088398,44.841236,-3.3978372,
1.3593749594874684,58,0.13543701,-1.0587769,0.33746338,-0.06542969,-0.22753906,-0.28125,0.0,0.0,0.0,0.0,0.0,0.0,0.0,0.0,0.0,0.0,0.0,-0.39814812,0.09358716,0.9126743,-1.0237427,0.17449951,-0.40563965,1.4755859,-2.703125,0.296875,20.39876,-8.2429,1.9375442,18.895185,-0.9258423,0.056030273,-0.4761963,-0.84472656,0.9472656,-1.3876953,44.158554,9.58373,-51.813534,25.425163,1.0507202,-0.2998047,1.6072388,-0.3544922,0.005859375,2.836914,7.220805,-20.388573,-117.294525,24.73565,0.0,0.0,0.0,0.0,0.0,0.0,0.0,-9.31638,-123.00489,40.382042,0.0,0.0,0.0,0.0,0.0,0.0,0.0,0.39814812,-0.09358716,-0.9126743,0.85980225,0.10101318,-0.44250488,-0.46972656,-0.6484375,0.07714844,5.878833,8.2429,-1.9375442,-18.895185,-0.91638184,0.20800781,-0.32104492,-0.08203125,0.30859375,0.5703125,2.2331812,1.6958733,-58.556664,-17.738842,-0.46618652,0.592041,1.1455078,-0.0390625,0.17089844,-0.0859375,31.44411,-8.587104,-129.81595,-16.21408,0.0,0.0,0.0,0.0,0.0,0.0,0.0,10.281819,-128.75887,-9.655085,0.0,0.0,0.0,0.0,0.0,0.0,0.0,1.63552,44.808224,-3.881226,
1.3828124587889765,59,0.072509766,-1.0309448,0.37139893,-0.0078125,-0.26171875,-0.31835938,0.0,0.0,0.0,0.0,0.0,0.0,0.0,0.0,0.0,0.0,0.0,-0.40165955,0.10204327,0.91025245,-1.0030518,0.29992676,-0.3413086,0.640625,-1.8066406,0.18554688,23.509659,-8.3155985,2.1126118,18.845047,-0.5177002,0.38354492,-0.46936035,-1.6191406,0.06542969,-0.56933594,48.154087,12.385758,-50.553192,25.756763,0.9658203,-1.1863403,0.9345093,-0.8984375,-0.67089844,1.9072266,8.306358,-18.52219,-115.597664,24.598412,0.0,0.0,0.0,0.0,0.0,0.0,0.0,-8.430128,-121.224686,40.923367,0.0,0.0,0.0,0.0,0.0,0.0,0.0,0.40165955,-0.10204327,-0.91025245,0.81622314,-0.033203125,-0.6555786,-0.46875,-0.8964844,-0.017578125,7.213031,8.3155985,-2.1126118,-18.845047,-0.98999023,0.36364746,-0.4362793,-0.025390625,0.328125,0.53222656,1.9453121,0.59221363,-58.582756,-17.898287,-0.48675537,0.6144409,1.1638794,0.09277344,0.34375,-0.12597656,31.364445,-10.788821,-129.68146,-16.660799,0.0,0.0,0.0,0.0,0.0,0.0,0.0,8.088136,-128.76347,-10.102552,0.0,0.0,0.0,0.0,0.0,0.0,0.0,1.6762344,44.771526,-4.279426,
1.4062499580904846,60,0.04260254,-0.99835205,0.36120605,0.0703125,-0.296875,-0.29785156,0.0,0.0,0.0,0.0,0.0,0.0,0.0,0.0,0.0,0.0,0.0,-0.4076781,0.10971556,0.90665776,-0.85266113,0.19458008,-0.21069336,-0.3779297,-1.2451172,9.765625E-4,25.053019,-8.4402,2.271452,18.770628,-0.659729,-0.07086182,-0.40509033,-2.078125,-0.91796875,0.5498047,48.74966,13.586034,-49.71563,26.60601,0.99676514,-1.2723389,0.8937378,-1.0439453,-0.9951172,0.2890625,7.9908977,-16.206928,-115.2749,25.829988,0.0,0.0,0.0,0.0,0.0,0.0,0.0,-6.6469555,-120.60454,42.569054,0.0,0.0,0.0,0.0,0.0,0.0,0.0,0.4076781,-0.10971556,-0.90665776,0.7984619,-0.034973145,-0.7949219,-0.087890625,-0.8720703,-0.20898438,8.654466,8.4402,-2.271452,-18.770628,-0.96173096,0.39508057,-0.4833374,-0.17871094,0.25195312,0.34765625,1.2592766,-0.7299719,-58.53096,-17.886051,-0.4743042,0.5871582,1.1465454,0.017578125,0.4560547,-0.18164062,31.419844,-12.974149,-129.48254,-16.8304,0.0,0.0,0.0,0.0,0.0,0.0,0.0,5.909074,-128.77466,-10.264654,0.0,0.0,0.0,0.0,0.0,0.0,0.0,1.7182689,44.73314,-4.640583,
1.4296874573919927,61,0.037719727,-0.96325684,0.34240723,0.0703125,-0.41210938,-0.08691406,0.0,0.0,0.0,0.0,0.0,0.0,0.0,0.0,0.0,0.0,0.0,-0.41693565,0.115133315,0.9017569,-0.8331299,-0.20013428,-0.28863525,-0.7949219,-0.9082031,-0.21386719,26.326021,-8.63186,2.3836167,18.669163,-0.9085083,-0.60583496,-0.3789673,-0.89746094,-1.8183594,1.0869141,47.4413,14.424052,-49.089863,26.829397,0.51031494,-1.1247559,1.0106812,-1.0195312,-1.3916016,-1.1992188,7.0726013,-12.530356,-115.87465,26.588627,0.0,0.0,0.0,0.0,0.0,0.0,0.0,-2.9730768,-120.73786,43.468616,0.0,0.0,0.0,0.0,0.0,0.0,0.0,0.41693565,-0.115133315,-0.9017569,0.8262329,-0.10864258,-0.7220459,0.61621094,-0.88183594,-0.5917969,9.93268,8.63186,-2.3836167,-18.669163,-0.9734497,0.2965088,-0.48687744,-0.21582031,0.19433594,0.19921875,0.6867107,-1.7075548,-58.440144,-18.215813,-0.49865723,0.583374,1.1469116,-0.13183594,0.5292969,-0.19921875,31.393766,-14.792709,-129.24654,-17.388794,0.0,0.0,0.0,0.0,0.0,0.0,0.0,4.0906677,-128.77359,-10.801285,0.0,0.0,0.0,0.0,0.0,0.0,0.0,1.8224149,44.7049,-4.865163,
1.4531249566935007,62,0.0859375,-0.90997314,0.29858398,0.032226562,-0.45410156,0.14160156,0.0,0.0,0.0,0.0,0.0,0.0,0.0,0.0,0.0,0.0,0.0,-0.42812684,0.1158316,0.89641196,-0.81970215,-0.3034668,-0.22058105,-0.23632812,-0.5722656,-0.14648438,26.320791,-8.863554,2.3980732,18.558506,-0.71014404,-0.3630371,-0.4725952,0.9160156,-2.5126953,1.5712891,44.3007,14.233034,-49.228363,25.497253,0.16375732,-0.9403076,1.0901489,-0.9394531,-1.6962891,-2.4082031,8.066063,-9.214205,-117.31809,25.417795,0.0,0.0,0.0,0.0,0.0,0.0,0.0,0.7856941,-121.48441,42.228966,0.0,0.0,0.0,0.0,0.0,0.0,0.0,0.42812684,-0.1158316,-0.89641196,0.9329834,-0.09039307,-0.7284546,0.86328125,-0.7832031,-0.72558594,11.130381,8.863554,-2.3980732,-18.558506,-1.048706,0.3552246,-0.5899048,-0.16210938,0.34765625,0.3857422,0.08156469,-2.6081429,-58.238976,-18.583923,-0.38531494,1.1126709,1.5055542,0.47753906,0.05859375,1.1425781,31.592255,-16.355728,-128.92761,-17.982021,0.0,0.0,0.0,0.0,0.0,0.0,0.0,2.5373268,-128.75273,-11.405094,0.0,0.0,0.0,0.0,0.0,0.0,0.0,1.8631259,44.701088,-4.8863072,
1.4765624559950088,63,0.10986328,-0.91552734,0.23248291,-0.044921875,-0.45996094,0.3876953,0.0,0.0,0.0,0.0,0.0,0.0,0.0,0.0,0.0,0.0,0.0,-0.44636363,0.11420958,0.8874866,-0.7213745,-0.23638916,-0.16046143,0.5126953,-0.51660156,-0.009765625,26.928621,-9.241112,2.3644924,18.373724,-0.6930542,-0.008117676,-0.42456055,1.3330078,-2.8671875,2.3027344,40.660656,14.508957,-48.9889,25.315891,-0.22137451,-0.56811523,1.1937256,-0.5595703,-1.8544922,-3.3398438,8.663539,-3.7429981,-118.655426,25.918621,0.0,0.0,0.0,0.0,0.0,0.0,0.0,7.051779,-121.90384,42.437805,0.0,0.0,0.0,0.0,0.0,0.0,0.0,0.44636363,-0.11420958,-0.8874866,0.8130493,0.19171143,-0.56689453,0.7685547,-0.9560547,-0.7451172,12.491524,9.241112,-2.3644924,-18.373724,-1.0535889,0.14886475,-0.3961792,-0.0625,0.1953125,0.14160156,1.2799302,-3.3389845,-57.95987,-19.015017,-1.0809937,0.33618164,1.0227661,-0.3388672,0.94433594,-0.6142578,31.54525,-17.085098,-128.6436,-18.546474,0.0,0.0,0.0,0.0,0.0,0.0,0.0,1.8098316,-128.91359,-11.979988,0.0,0.0,0.0,0.0,0.0,0.0,0.0,1.7797339,44.699787,-4.8572407,
1.4999999552965169,64,0.14581299,-0.9345093,0.2210083,-0.045898438,-0.42285156,0.40625,0.0,0.0,0.0,0.0,0.0,0.0,0.0,0.0,0.0,0.0,0.0,-0.4659645,0.10995062,0.8778886,-0.6782837,-0.07885742,-0.20935059,0.51171875,-0.38671875,0.028320312,27.411572,-9.646909,2.2763186,18.175014,-0.78063965,0.024658203,-0.4109497,0.6816406,-2.9023438,2.8486328,36.29849,14.765866,-48.79149,24.945248,-0.47399902,-0.18652344,1.2576904,-0.29589844,-2.0185547,-3.1552734,8.671879,2.5861702,-119.745865,26.953766,0.0,0.0,0.0,0.0,0.0,0.0,0.0,14.244297,-121.88969,43.06161,0.0,0.0,0.0,0.0,0.0,0.0,0.0,0.4659645,-0.10995062,-0.8778886,0.79400635,0.22155762,-0.33148193,0.9169922,-0.82128906,-0.45703125,13.733147,9.646909,-2.2763186,-18.175014,-0.89923096,0.19256592,-0.26800537,-0.08105469,0.1953125,0.14160156,2.211428,-3.8814182,-57.642143,-19.316158,-0.54241943,0.5913086,1.1715088,-0.28125,0.98339844,-0.5390625,31.365137,-17.823055,-128.29166,-18.943106,0.0,0.0,0.0,0.0,0.0,0.0,0.0,1.0652428,-128.9668,-12.386088,0.0,0.0,0.0,0.0,0.0,0.0,0.0,1.5845087,44.71727,-4.7595634,
1.523437454598025,65,0.17077637,-0.96099854,0.22521973,-0.0078125,-0.19824219,0.328125,0.0,0.0,0.0,0.0,0.0,0.0,0.0,0.0,0.0,0.0,0.0,-0.48246285,0.10551047,0.8695132,-0.7210083,0.0134887695,-0.030883789,0.32421875,-0.34960938,0.087890625,27.55139,-9.988477,2.1843941,18.00162,-0.84381104,-0.049865723,-0.38494873,-0.111328125,-2.741211,2.90625,31.667086,14.834273,-48.69775,24.687899,-0.7720337,-0.046936035,1.2736816,-0.65722656,-2.4091797,-2.5234375,8.728299,8.743164,-120.34282,28.735613,0.0,0.0,0.0,0.0,0.0,0.0,0.0,20.962126,-121.26291,44.542,0.0,0.0,0.0,0.0,0.0,0.0,0.0,0.48246285,-0.10551047,-0.8695132,0.78582764,0.33874512,-0.4100952,0.29101562,-0.9628906,-0.28515625,15.10106,9.988477,-2.1843941,-18.00162,-0.8699951,0.05706787,-0.25299072,0.015625,0.17578125,0.12207031,3.2750058,-4.384884,-57.30857,-19.8857,-0.5667114,0.57403564,1.1399536,-0.038085938,0.83496094,-0.44726562,31.61627,-18.30753,-127.96004,-19.729061,0.0,0.0,0.0,0.0,0.0,0.0,0.0,0.58110046,-129.08746,-13.235561,0.0,0.0,0.0,0.0,0.0,0.0,0.0,1.3352371,44.734295,-4.6873746,
1.546874953899533,66,0.19293213,-0.9172363,0.19091797,0.030273438,0.046875,0.17382812,0.0,0.0,0.0,0.0,0.0,0.0,0.0,0.0,0.0,0.0,0.0,-0.49332666,0.103734404,0.8637082,-0.7180176,-0.034606934,0.04095459,0.17480469,-0.4423828,0.034179688,27.86472,-10.213392,2.1476238,17.881437,-0.7606201,0.0024414062,-0.41003418,-0.54296875,-2.602539,2.9453125,27.15018,15.145901,-48.468964,24.562403,-0.8027344,-0.14526367,1.0124512,-0.7919922,-2.4921875,-1.9472656,9.137102,15.283604,-120.23793,30.585726,0.0,0.0,0.0,0.0,0.0,0.0,0.0,27.669544,-119.907425,46.28469,0.0,0.0,0.0,0.0,0.0,0.0,0.0,0.49332666,-0.103734404,-0.8637082,0.8483887,0.22375488,-0.46624756,-0.24023438,-0.85546875,-0.11328125,16.361925,10.213392,-2.1476238,-17.881437,-0.89849854,-0.03326416,-0.1807251,0.0146484375,0.2705078,0.4013672,4.057241,-4.6604958,-57.10268,-20.76283,-0.5651245,0.50982666,1.1016235,-9.765625E-4,0.8359375,-0.46679688,32.010185,-18.695503,-127.720505,-20.848259,0.0,0.0,0.0,0.0,0.0,0.0,0.0,0.19106483,-129.2943,-14.443237,0.0,0.0,0.0,0.0,0.0,0.0,0.0,1.1111828,44.738815,-4.738612,
1.570312453201041,67,0.23510742,-0.86486816,0.17474365,-0.06738281,0.19335938,0.15136719,0.0,0.0,0.0,0.0,0.0,0.0,0.0,0.0,0.0,0.0,0.0,-0.4971577,0.10459304,0.8613059,-0.6588135,0.02178955,0.12164307,0.09667969,-0.16308594,0.09277344,28.039608,-10.2927065,2.1654003,17.831701,-0.83862305,-0.08343506,-0.3585205,-0.86035156,-2.4638672,2.8144531,22.735062,15.410155,-48.270664,24.593674,-0.84539795,-0.24072266,0.8067627,-0.8671875,-1.9804688,-1.7402344,9.548164,21.422035,-119.57251,32.67069,0.0,0.0,0.0,0.0,0.0,0.0,0.0,33.839592,-118.158455,48.285473,0.0,0.0,0.0,0.0,0.0,0.0,0.0,0.4971577,-0.10459304,-0.8613059,0.8769531,0.059143066,-0.46484375,-0.4111328,-0.6855469,-0.018554688,17.227804,10.2927065,-2.1654003,-17.831701,-0.92993164,0.081726074,-0.20172119,0.03125,0.40429688,0.7001953,4.349291,-4.917514,-56.99906,-21.240582,-0.5680542,0.4961548,1.0985718,0.017578125,0.93066406,-0.5058594,32.624813,-19.24588,-127.56028,-21.566784,0.0,0.0,0.0,0.0,0.0,0.0,0.0,-0.36971283,-129.59499,-15.259428,0.0,0.0,0.0,0.0,0.0,0.0,0.0,0.9493266,44.723152,-4.8830104,
1.5937499525025491,68,0.21099854,-0.89227295,0.12683105,-0.10644531,0.32128906,0.16796875,0.0,0.0,0.0,0.0,0.0,0.0,0.0,0.0,0.0,0.0,0.0,-0.498153,0.102887295,0.86084384,-0.70184326,-0.018432617,0.17272949,-0.057617188,0.26660156,0.080078125,27.534662,-10.313312,2.1300862,17.822136,-0.9020996,-0.16040039,-0.3109131,-0.46972656,-2.1777344,2.5732422,18.821629,15.195958,-48.387936,24.66465,-1.1733398,-0.29022217,0.5824585,-1.5058594,-1.3417969,-2.1259766,10.86323,25.76632,-118.98895,34.083954,0.0,0.0,0.0,0.0,0.0,0.0,0.0,38.242504,-116.79697,49.559723,0.0,0.0,0.0,0.0,0.0,0.0,0.0,0.498153,-0.102887295,-0.86084384,0.8319702,-0.049560547,-0.5492554,-0.37402344,-0.7050781,9.765625E-4,18.00183,10.313312,-2.1300862,-17.822136,-0.9454346,0.1940918,-0.27093506,0.029296875,0.46191406,0.66308594,4.15176,-5.43221,-56.80515,-21.285711,-0.5845947,0.5293579,1.1170044,0.0546875,0.9511719,-0.60058594,33.101887,-20.625288,-127.19043,-21.860302,0.0,0.0,0.0,0.0,0.0,0.0,0.0,-1.7665806,-129.70474,-15.680441,0.0,0.0,0.0,0.0,0.0,0.0,0.0,0.7206365,44.718914,-4.9277477,
1.6171874518040572,69,0.14263916,-0.9801636,0.16436768,-0.12597656,0.35742188,0.18652344,0.0,0.0,0.0,0.0,0.0,0.0,0.0,0.0,0.0,0.0,0.0,-0.50161225,0.09752593,0.8593722,-1.0014648,0.045166016,0.49719238,-0.48632812,0.024414062,-0.044921875,27.005785,-10.38493,2.0190892,17.79167,-0.90545654,-0.20428467,-0.26293945,0.171875,-1.7773438,2.1455078,16.06134,15.0732,-48.457222,25.094566,-1.5997925,-0.36523438,0.5116577,-0.48632812,-0.49902344,-2.2753906,12.285895,28.981956,-118.37884,35.163193,0.0,0.0,0.0,0.0,0.0,0.0,0.0,41.76159,-115.63693,50.301098,0.0,0.0,0.0,0.0,0.0,0.0,0.0,0.50161225,-0.09752593,-0.8593722,0.784729,0.054748535,-0.5201416,-0.27929688,-0.74121094,-0.017578125,19.020155,10.38493,-2.0190892,-17.79167,-0.89611816,0.21417236,-0.28363037,0.10253906,0.5761719,0.7011719,3.887208,-5.978794,-56.511475,-21.374792,-0.60961914,0.4827881,1.0861816,0.12988281,1.0664062,-0.6591797,33.536774,-22.201483,-126.665726,-22.336447,0.0,0.0,0.0,0.0,0.0,0.0,0.0,-3.365385,-129.70496,-16.322947,0.0,0.0,0.0,0.0,0.0,0.0,0.0,0.3224554,44.724648,-4.887365,
1.6406249511055653,70,0.045166016,-1.0985718,0.18658447,-0.08691406,0.26660156,0.13085938,0.0,0.0,0.0,0.0,0.0,0.0,0.0,0.0,0.0,0.0,0.0,-0.50465596,0.09130569,0.85842615,-1.1054688,-0.07647705,0.65093994,-0.7294922,-0.123046875,-0.28515625,26.594713,-10.447943,1.8903109,17.772083,-0.96447754,0.055419922,-0.05529785,0.5996094,-1.0458984,1.4375,13.805806,14.97147,-48.594814,25.206793,-1.93927,0.67492676,0.21655273,0.5097656,-0.041992188,-1.0507812,12.728966,31.594902,-117.945755,35.21559,0.0,0.0,0.0,0.0,0.0,0.0,0.0,44.78087,-114.72833,49.903976,0.0,0.0,0.0,0.0,0.0,0.0,0.0,0.50465596,-0.09130569,-0.85842615,0.87945557,0.1138916,-0.5172119,-0.5253906,-0.7451172,0.020507812,19.820827,10.447943,-1.8903109,-17.772083,-0.9694824,0.16278076,-0.14807129,0.13867188,0.671875,0.8125,3.639272,-6.2883186,-56.237804,-21.763855,-0.65252686,0.6279297,1.173645,0.2763672,1.1464844,-0.984375,34.28334,-23.50214,-126.14523,-23.079605,0.0,0.0,0.0,0.0,0.0,0.0,0.0,-4.692129,-129.79808,-17.33115,0.0,0.0,0.0,0.0,0.0,0.0,0.0,0.0168612,44.74661,-4.7495184,
1.6640624504070733,71,0.033996582,-1.1525879,0.3289795,-0.009765625,0.25097656,0.1328125,0.0,0.0,0.0,0.0,0.0,0.0,0.0,0.0,0.0,0.0,0.0,-0.50385296,0.08622862,0.8596471,-1.3527832,-0.1687622,0.97265625,-0.35351562,-0.23535156,-0.2919922,26.467966,-10.43132,1.7851996,17.797361,-0.71209717,0.18231201,-0.0390625,0.6875,0.05859375,-0.057617188,13.042501,14.999516,-48.685333,25.244938,-2.0,1.921875,-1.8922119,0.5390625,1.0556641,1.4248047,13.878518,32.56273,-117.79038,35.33972,0.0,0.0,0.0,0.0,0.0,0.0,0.0,45.81151,-114.61445,49.980698,0.0,0.0,0.0,0.0,0.0,0.0,0.0,0.50385296,-0.08622862,-0.8596471,1.0029907,0.049316406,-0.51348877,-0.77246094,-0.6142578,0.15332031,20.559427,10.43132,-1.7851996,-17.797361,-1.0545044,0.061950684,-0.1348877,0.2705078,0.7871094,0.86816406,3.591287,-6.855524,-55.92569,-22.198097,-0.69921875,0.4987793,1.1016235,0.40820312,1.4335938,-1.1572266,35.26987,-24.938652,-125.59388,-23.93941,0.0,0.0,0.0,0.0,0.0,0.0,0.0,-6.1775513,-129.96089,-18.54463,0.0,0.0,0.0,0.0,0.0,0.0,0.0,-0.11333138,44.775154,-4.557687,
1.6874999497085814,72,0.013244629,-1.399292,0.6293335,0.03125,-0.17285156,0.0048828125,0.0,0.0,0.0,0.0,0.0,0.0,0.0,0.0,0.0,0.0,0.0,-0.5045849,0.0860269,0.8592994,-2.0,-0.1975708,0.87701416,0.7871094,-1.5810547,0.03515625,28.067333,-10.446473,1.7810235,17.790161,-1.5901489,0.25646973,-0.19415283,1.4941406,1.8378906,-3.0341797,17.746931,16.396954,-47.944427,25.295448,-2.0,-1.9666748,-1.9290771,0.86328125,3.1445312,1.4873047,15.642049,30.224707,-118.03646,34.39189,0.0,0.0,0.0,0.0,0.0,0.0,0.0,43.635857,-116.50311,49.149742,0.0,0.0,0.0,0.0,0.0,0.0,0.0,0.5045849,-0.0860269,-0.8592994,1.1628418,-0.1171875,-0.5935669,-0.8300781,-0.7294922,0.21191406,21.340822,10.446473,-1.7810235,-17.790161,-1.2172852,0.076049805,-0.16729736,0.24707031,0.9404297,1.0185547,3.0203168,-7.5139093,-55.67711,-22.49622,-0.60498047,0.6538696,1.204895,0.27734375,1.9433594,-1.4794922,36.178844,-27.028828,-124.943436,-25.05042,0.0,0.0,0.0,0.0,0.0,0.0,0.0,-8.371689,-130.21814,-20.119154,0.0,0.0,0.0,0.0,0.0,0.0,0.0,-0.11927986,44.77802,-4.5528965,
1.7109374490100895,73,-0.21936035,-1.4481201,0.11291504,0.0703125,-0.29882812,-0.20214844,0.0,0.0,0.0,0.0,0.0,0.0,0.0,0.0,0.0,0.0,0.0,-0.50951517,0.0895365,0.8559822,-0.94140625,-0.1873169,-0.67108154,-1.0039062,1.015625,-0.23632812,28.88154,-10.548542,1.8536834,17.721483,-1.5386353,0.36914062,-0.31347656,-0.59472656,1.0419922,-1.4804688,21.898125,17.014961,-47.46763,25.275723,1.9344482,-0.5336304,0.7677002,1.5263672,1.4501953,-0.0087890625,15.449381,26.84719,-118.383766,33.08173,0.0,0.0,0.0,0.0,0.0,0.0,0.0,40.44126,-117.68079,47.732773,0.0,0.0,0.0,0.0,0.0,0.0,0.0,0.50951517,-0.0895365,-0.8559822,1.3079224,-0.0018310547,-0.6511841,-0.67871094,-0.2890625,0.20996094,22.001438,10.548542,-1.8536834,-17.721483,-1.2866821,-0.036376953,-0.27624512,0.3017578,1.0546875,1.0566406,1.7387757,-7.8891735,-55.569576,-22.619225,-0.68048096,0.56866455,1.1536255,0.22070312,2.6269531,-1.9726562,37.095734,-29.377855,-124.204575,-26.303148,0.0,0.0,0.0,0.0,0.0,0.0,0.0,-10.948343,-130.66699,-21.962418,0.0,0.0,0.0,0.0,0.0,0.0,0.0,-0.11511761,44.75587,-4.7500277,
1.7343749483115976,74,0.23565674,-1.2425537,-0.0036010742,0.24414062,-0.09082031,-0.10644531,0.0,0.0,0.0,0.0,0.0,0.0,0.0,0.0,0.0,0.0,0.0,-0.51169264,0.096019484,0.8539914,-0.08758545,0.7104492,-0.4100952,-1.1494141,0.41992188,-0.6855469,27.401495,-10.593623,1.987901,17.680267,0.079589844,-0.65045166,-0.32177734,-0.640625,1.0,-0.91503906,22.258738,15.462197,-48.2084,24.863438,-2.0,0.12646484,0.77264404,0.05078125,1.6933594,1.0947266,12.797153,22.691586,-119.50404,31.966936,0.0,0.0,0.0,0.0,0.0,0.0,0.0,36.614883,-119.45065,46.302814,0.0,0.0,0.0,0.0,0.0,0.0,0.0,0.51169264,-0.096019484,-0.8539914,1.1881104,0.3652954,-0.41119385,-0.54785156,0.36132812,0.4189453,21.644411,10.593623,-1.987901,-17.680267,-1.2385864,-0.2300415,-0.2310791,0.8408203,1.1308594,1.3115234,0.98238003,-7.6556025,-55.780388,-22.463184,-0.6627197,0.5102539,1.1071167,0.37109375,3.4453125,-2.5263672,38.191154,-31.193607,-123.66412,-27.367897,0.0,0.0,0.0,0.0,0.0,0.0,0.0,-13.190393,-131.64699,-23.851929,0.0,0.0,0.0,0.0,0.0,0.0,0.0,0.11753833,44.73367,-4.9592547,
1.7578124476131056,75,0.36791992,-1.2276611,0.20220947,0.08886719,0.0087890625,0.30859375,0.0,0.0,0.0,0.0,0.0,0.0,0.0,0.0,0.0,0.0,0.0,-0.5126312,0.09415123,0.85366744,0.078063965,-0.96417236,-1.0361938,-1.375,0.62402344,-0.4189453,26.02055,-10.613054,1.9492224,17.673563,-0.95983887,-1.0593872,-0.59576416,1.3339844,1.1816406,-2.3251953,24.135765,14.054049,-48.96948,24.54501,-0.04748535,-0.08758545,1.1044312,0.6357422,1.3789062,1.1464844,12.337211,16.997051,-120.653076,30.827898,0.0,0.0,0.0,0.0,0.0,0.0,0.0,30.991245,-121.27358,45.085342,0.0,0.0,0.0,0.0,0.0,0.0,0.0,0.5126312,-0.09415123,-0.85366744,1.2271118,0.4303589,-0.16479492,-1.0810547,0.25878906,0.6875,20.827347,10.613054,-1.9492224,-17.673563,-1.2381592,-0.22485352,-0.076538086,1.421875,1.1494141,1.5839844,3.4993348,-7.217211,-55.905655,-22.151094,-0.71661377,0.51831055,1.1149902,0.40820312,4.376953,-3.211914,39.305996,-33.052395,-122.838104,-28.29052,0.0,0.0,0.0,0.0,0.0,0.0,0.0,-15.778833,-132.64716,-25.904259,0.0,0.0,0.0,0.0,0.0,0.0,0.0,0.2593044,44.75376,-4.7801924,
1.7812499469146137,76,-0.0059814453,-1.161377,0.53356934,0.05078125,-0.3095703,0.42578125,0.0,0.0,0.0,0.0,0.0,0.0,0.0,0.0,0.0,0.0,0.0,-0.5184543,0.08775287,0.8507754,-2.0,-0.3024292,0.14581299,-0.25097656,0.5878906,-0.5878906,24.145483,-10.733611,1.8167565,17.61369,-1.5231934,0.07385254,-0.4171753,1.9433594,0.390625,0.28808594,23.817986,12.2389765,-50.043335,23.234526,-1.3101196,-0.9265137,0.7457886,1.1455078,-0.23535156,0.20996094,14.409526,13.108259,-121.85184,28.702522,0.0,0.0,0.0,0.0,0.0,0.0,0.0,26.966385,-122.51637,43.099716,0.0,0.0,0.0,0.0,0.0,0.0,0.0,0.5184543,-0.08775287,-0.8507754,1.3136597,0.3143921,-0.11755371,-2.0859375,0.703125,0.953125,19.726442,10.733611,-1.8167565,-17.61369,-1.3548584,-0.4529419,0.07861328,1.8125,1.0527344,1.8574219,6.662973,-6.276208,-56.05431,-21.903753,-0.7694092,0.6226196,1.1833496,0.9082031,5.2626953,-4.416992,41.52518,-34.5227,-121.90297,-29.114613,0.0,0.0,0.0,0.0,0.0,0.0,0.0,-18.430475,-133.76825,-28.381617,0.0,0.0,0.0,0.0,0.0,0.0,0.0,0.29204816,44.78643,-4.4415054,
1.8046874462161218,77,-0.28814697,-0.8725586,0.47827148,0.515625,-0.22265625,0.45117188,0.0,0.0,0.0,0.0,0.0,0.0,0.0,0.0,0.0,0.0,0.0,-0.5249822,0.0806302,0.8471553,-0.92077637,-0.31610107,-0.21258545,0.4091797,2.078125,0.045898438,22.34558,-10.86876,1.6692952,17.53874,-1.5231934,0.07385254,-0.4171753,1.9433594,0.390625,0.28808594,21.596642,10.121423,-51.10767,22.311232,-0.1484375,0.09692383,1.0376587,0.65625,-0.08496094,0.19335938,13.690774,10.9907055,-122.91617,27.779228,0.0,0.0,0.0,0.0,0.0,0.0,0.0,24.980406,-123.312515,42.042103,0.0,0.0,0.0,0.0,0.0,0.0,0.0,0.5249822,-0.0806302,-0.8471553,1.230957,-0.0335083,0.032287598,-2.4277344,1.6914062,1.1601562,17.30673,10.86876,-1.6692952,-17.53874,-1.3200073,-0.57647705,-0.10913086,3.305664,0.9375,2.3613281,10.971385,-4.219714,-56.473415,-21.764418,-0.76361084,0.6623535,1.2233887,1.2773438,6.2216797,-5.6015625,45.113888,-35.041023,-121.08066,-29.613853,0.0,0.0,0.0,0.0,0.0,0.0,0.0,-20.787512,-135.02936,-31.232353,0.0,0.0,0.0,0.0,0.0,0.0,0.0,0.5783036,44.821312,-3.9076097,
1.8281249455176298,78,0.04711914,-0.876709,0.48449707,0.6699219,0.045898438,0.203125,0.0,0.0,0.0,0.0,0.0,0.0,0.0,0.0,0.0,0.0,0.0,-0.5141615,0.07642387,0.853832,-0.651001,0.13806152,-0.20568848,-0.45410156,2.0976562,-0.12597656,20.612663,-10.644739,1.582211,17.67697,-0.795166,0.18035889,-0.26464844,-0.068359375,0.53125,-0.7128906,21.177055,7.7790527,-52.236397,21.447311,-0.6161499,-0.7258911,0.8430176,-0.022460938,-0.0087890625,-0.08203125,14.266062,5.675003,-124.01576,26.92532,0.0,0.0,0.0,0.0,0.0,0.0,0.0,19.73695,-124.31537,41.130657,0.0,0.0,0.0,0.0,0.0,0.0,0.0,0.5141615,-0.07642387,-0.853832,1.336792,-0.26617432,-0.09289551,-2.1279297,2.6484375,1.4824219,13.091246,10.644739,-1.582211,-17.67697,-1.116333,-0.503479,-0.035827637,3.5791016,2.086914,2.6669922,17.19252,-1.2843504,-57.185715,-21.627422,-2.0,-1.0509644,0.16540527,-2.7851562,5.6035156,-5.1259766,47.31654,-35.243168,-120.072815,-30.467592,0.0,0.0,0.0,0.0,0.0,0.0,0.0,-23.318493,-135.6969,-34.205696,0.0,0.0,0.0,0.0,0.0,0.0,0.0,1.3798745,44.848713,-3.1833353,
1.851562444819138,79,0.20953369,-0.789978,0.48779297,0.49414062,0.22949219,0.045898438,0.0,0.0,0.0,0.0,0.0,0.0,0.0,0.0,0.0,0.0,0.0,-0.5016103,0.08617432,0.8605176,-0.8765259,-0.1920166,-0.23999023,-0.37597656,1.9287109,0.020507812,19.169949,-10.384886,1.7840754,17.815382,-1.0420532,-0.58691406,-0.29278564,-0.072265625,0.45410156,-0.60058594,19.84925,5.596817,-52.835102,21.044613,-0.47973633,-0.3604126,0.8718262,0.20507812,0.11621094,-0.13867188,13.808783,1.9327488,-124.56091,26.345634,0.0,0.0,0.0,0.0,0.0,0.0,0.0,16.07925,-124.838524,40.47456,0.0,0.0,0.0,0.0,0.0,0.0,0.0,0.5016103,-0.08617432,-0.8605176,1.2056885,-0.7731323,-0.50994873,-1.7353516,2.7285156,1.8466797,8.851861,10.384886,-1.7840754,-17.815382,-1.3826294,1.1365356,-0.39935303,2.1582031,2.9501953,2.3554688,26.033766,2.6191006,-58.158905,-21.08686,-2.0,1.7774048,1.8740234,2.0195312,0.9716797,-4.3759766,48.155937,-35.814583,-118.06058,-32.04032,0.0,0.0,0.0,0.0,0.0,0.0,0.0,-25.206547,-134.0049,-37.826656,0.0,0.0,0.0,0.0,0.0,0.0,0.0,2.2573195,44.8206,-3.1726131,
1.874999944120646,80,0.19476318,-0.7104492,0.40356445,0.26171875,0.33496094,0.0029296875,0.0,0.0,0.0,0.0,0.0,0.0,0.0,0.0,0.0,0.0,0.0,-0.4932802,0.08990159,0.8652033,-0.9829712,-0.13378906,-0.27679443,-0.15136719,1.8916016,-0.0390625,17.0718,-10.212428,1.8612417,17.912392,-0.97143555,-0.15698242,-0.33374023,1.1376953,0.32714844,-0.6386719,18.480442,3.2099504,-53.49105,20.3072,-0.4928589,-0.3619995,0.8453369,0.5625,0.095703125,-0.046875,14.622159,-2.0530443,-125.15637,25.048212,0.0,0.0,0.0,0.0,0.0,0.0,0.0,12.174933,-125.44368,39.09509,0.0,0.0,0.0,0.0,0.0,0.0,0.0,0.4932802,-0.08990159,-0.8652033,1.1504517,-0.3706665,-0.89453125,-0.31445312,2.8798828,1.65625,6.2047243,10.212428,-1.8612417,-17.912392,-1.4326172,0.93237305,-0.5471802,0.07910156,2.5878906,1.3896484,34.77886,6.6312933,-58.714848,-20.099329,-1.9692993,1.2595215,1.6125488,1.5273438,0.4921875,-4.5595703,50.33851,-35.93313,-115.390976,-32.804817,0.0,0.0,0.0,0.0,0.0,0.0,0.0,-26.016094,-130.88995,-40.65659,0.0,0.0,0.0,0.0,0.0,0.0,0.0,2.6575294,44.811157,-3.1410968,
1.898437443422154,81,0.014831543,-0.66937256,0.41229248,0.2421875,0.38867188,0.09667969,0.0,0.0,0.0,0.0,0.0,0.0,0.0,0.0,0.0,0.0,0.0,-0.48660037,0.088770516,0.869301,-0.78674316,-0.13897705,-0.2522583,-0.49121094,2.1894531,0.19238281,14.535394,-10.074136,1.837825,17.997225,-0.92071533,0.22381592,-0.2107544,0.16601562,0.23925781,-0.47070312,16.258196,0.53538036,-54.144108,19.892017,-0.39752197,-0.20910645,0.81359863,0.5625,0.059570312,0.045898438,14.758416,-5.528519,-125.75688,24.456902,0.0,0.0,0.0,0.0,0.0,0.0,0.0,8.770956,-125.96813,38.433655,0.0,0.0,0.0,0.0,0.0,0.0,0.0,0.48660037,-0.088770516,-0.869301,1.1882935,0.041015625,-0.9110718,2.53125,2.9355469,0.8339844,5.933891,10.074136,-1.837825,-17.997225,-0.802124,0.6829834,-0.8900757,-0.57910156,2.0507812,1.2421875,42.514694,10.505051,-58.8378,-18.490017,-1.6943359,1.9152832,1.999939,2.040039,-2.334961,-1.8085938,53.306145,-35.08356,-112.78633,-32.545654,0.0,0.0,0.0,0.0,0.0,0.0,0.0,-25.140354,-127.45953,-41.82271,0.0,0.0,0.0,0.0,0.0,0.0,0.0,2.9008615,44.816998,-2.9527953,
1.921874942723662,82,-0.0012817383,-0.6936035,0.4229126,0.22167969,0.515625,0.20996094,0.0,0.0,0.0,0.0,0.0,0.0,0.0,0.0,0.0,0.0,0.0,-0.47856694,0.08340649,0.8743078,-0.8626709,-0.21258545,-0.1829834,-0.7529297,2.0966797,0.083984375,11.868452,-9.90782,1.7267729,18.100882,-0.9145508,0.03845215,-0.18017578,-0.8574219,0.28710938,-0.3388672,13.544068,-2.1518793,-54.722313,19.775236,-0.38427734,-0.26641846,0.8138428,0.27929688,-0.064453125,0.10253906,13.4804735,-8.3974,-126.30855,24.505823,0.0,0.0,0.0,0.0,0.0,0.0,0.0,5.87745,-126.433,38.50495,0.0,0.0,0.0,0.0,0.0,0.0,0.0,0.47856694,-0.08340649,-0.8743078,1.3095093,0.26849365,-0.68566895,3.540039,3.8847656,0.3330078,9.085969,9.90782,-1.7267729,-18.100882,-0.99334717,0.095214844,-0.6572876,-1.2597656,0.97753906,0.94140625,50.136497,14.857128,-58.49306,-16.537916,0.881958,-2.0,1.999939,0.005859375,-3.4863281,1.4726562,52.79022,-33.31808,-110.140915,-30.597626,0.0,0.0,0.0,0.0,0.0,0.0,0.0,-21.920452,-123.72756,-39.85679,0.0,0.0,0.0,0.0,0.0,0.0,0.0,3.0933127,44.82814,-2.5833015,
1.9453124420251702,83,0.021972656,-0.9057007,0.4543457,0.046875,0.5830078,0.3388672,0.0,0.0,0.0,0.0,0.0,0.0,0.0,0.0,0.0,0.0,0.0,-0.46603337,0.07347735,0.88189423,-0.8633423,-0.16760254,-0.30749512,-0.82910156,2.2089844,0.048828125,9.2051325,-9.648335,1.521209,18.257946,-1.0574951,-0.45562744,-0.21643066,-0.3232422,0.30273438,-0.5644531,11.33972,-4.757609,-55.262417,19.473192,-0.5091553,-0.30456543,0.8451538,0.109375,-0.099609375,0.046875,12.746778,-11.810715,-126.795456,23.906055,0.0,0.0,0.0,0.0,0.0,0.0,0.0,2.4185724,-126.8625,37.952564,0.0,0.0,0.0,0.0,0.0,0.0,0.0,0.46603337,-0.07347735,-0.88189423,1.2059937,0.41131592,-0.5005493,2.3828125,3.5644531,0.6777344,13.97601,9.648335,-1.521209,-18.257946,-0.72680664,0.017700195,-0.7512207,-1.2363281,0.00390625,-0.2939453,56.049236,19.283092,-57.58063,-14.507688,0.41381836,1.3305664,1.625,-0.34277344,-2.1230469,2.9990234,51.73421,-29.579174,-108.56065,-28.541344,0.0,0.0,0.0,0.0,0.0,0.0,0.0,-17.15717,-121.823105,-36.909496,0.0,0.0,0.0,0.0,0.0,0.0,0.0,3.2865422,44.842567,-1.9994177,
1.9687499413266782,84,-0.06524658,-0.95214844,0.453125,-0.087890625,0.5595703,0.41308594,0.0,0.0,0.0,0.0,0.0,0.0,0.0,0.0,0.0,0.0,0.0,-0.45961136,0.058718294,0.8863304,-0.901001,-0.20605469,-0.3269043,-0.45507812,2.3017578,0.19238281,6.2190843,-9.51538,1.2156508,18.349785,-0.9155884,0.013793945,-0.23730469,0.41210938,0.27441406,-0.33789062,9.340708,-7.5403185,-55.757473,18.944874,-0.46228027,-0.25042725,0.85876465,-0.13574219,-0.13378906,0.047851562,13.380771,-15.677712,-127.20775,22.839235,0.0,0.0,0.0,0.0,0.0,0.0,0.0,-1.4427233,-127.21391,36.881424,0.0,0.0,0.0,0.0,0.0,0.0,0.0,0.45961136,-0.058718294,-0.8863304,1.0159302,0.24401855,-0.43615723,1.3574219,3.3789062,1.0419922,18.80265,9.51538,-1.2156508,-18.349785,-0.46435547,0.20428467,-0.75994873,-0.7988281,-1.1816406,-1.3310547,59.24047,23.40009,-56.179726,-12.346763,0.7490845,0.88616943,1.387146,-0.045898438,-2.1464844,4.536133,48.90696,-23.426758,-108.68142,-27.689121,0.0,0.0,0.0,0.0,0.0,0.0,0.0,-9.8717165,-121.81007,-34.32902,0.0,0.0,0.0,0.0,0.0,0.0,0.0,3.2537827,44.86994,-1.2853119,
1.9921874406281863,85,-0.008666992,-0.78778076,0.3988037,-0.087890625,0.3935547,0.3203125,0.0,0.0,0.0,0.0,0.0,0.0,0.0,0.0,0.0,0.0,0.0,-0.45560634,0.043878365,0.88925064,-0.8812866,-0.08026123,-0.4569702,-0.15429688,2.3378906,0.35546875,2.9367166,-9.432465,0.9084182,18.410242,-1.0198975,0.22839355,-0.22387695,-0.609375,0.3046875,-0.3955078,6.7739577,-10.523735,-56.08786,18.592884,-0.48138428,-0.3317871,0.85827637,-0.17382812,-0.095703125,0.15917969,12.68142,-18.868313,-127.49513,22.818365,0.0,0.0,0.0,0.0,0.0,0.0,0.0,-4.6746235,-127.49689,36.902424,0.0,0.0,0.0,0.0,0.0,0.0,0.0,0.45560634,-0.043878365,-0.88925064,0.92541504,0.034118652,-0.43249512,1.1894531,2.9003906,0.81347656,22.538311,9.432465,-0.9084182,-18.410242,-0.37677002,0.37524414,-0.7550049,-0.671875,-2.234375,-1.9736328,59.89557,26.462309,-54.760803,-10.755535,0.23449707,0.91223145,1.3727417,0.6152344,-2.6533203,5.515625,44.746742,-17.327662,-109.84026,-26.052689,0.0,0.0,0.0,0.0,0.0,0.0,0.0,-2.6280756,-122.64115,-30.559536,0.0,0.0,0.0,0.0,0.0,0.0,0.0,3.116384,44.893772,-0.6185219,
2.0156249399296944,86,-0.05230713,-0.6744995,0.36187744,-0.08691406,0.24707031,0.2265625,0.0,0.0,0.0,0.0,0.0,0.0,0.0,0.0,0.0,0.0,0.0,-0.45281866,0.035285234,0.8910866,-0.8508911,-0.12567139,-0.45513916,-0.265625,2.1699219,0.31933594,0.612617,-9.374749,0.73051375,18.448256,-0.98083496,-0.26501465,-0.22216797,-0.7050781,0.24804688,-0.5283203,4.4192944,-13.543625,-56.121094,18.337101,-0.44677734,-0.36779785,0.8435669,-0.080078125,0.0859375,0.21582031,11.711625,-22.535107,-127.485054,21.939577,0.0,0.0,0.0,0.0,0.0,0.0,0.0,-8.409804,-127.56065,36.09111,0.0,0.0,0.0,0.0,0.0,0.0,0.0,0.45281866,-0.035285234,-0.8910866,0.75561523,0.06524658,-0.5935669,1.4960938,2.4091797,0.41308594,24.877396,9.374749,-0.73051375,-18.448256,-0.2593994,0.4769287,-0.7091675,-0.953125,-3.209961,-2.6123047,57.575584,28.267563,-53.72931,-9.475588,-0.064575195,0.46453857,1.0723877,0.17578125,-3.243164,5.0078125,41.181637,-11.285812,-112.417114,-22.784897,0.0,0.0,0.0,0.0,0.0,0.0,0.0,4.5724087,-124.38811,-25.119583,0.0,0.0,0.0,0.0,0.0,0.0,0.0,2.96933,44.908455,-0.26937592,
2.0390624392312025,87,-0.05218506,-0.651001,0.36889648,-0.06738281,0.13671875,0.15234375,0.0,0.0,0.0,0.0,0.0,0.0,0.0,0.0,0.0,0.0,0.0,-0.45102423,0.03017839,0.89218724,-0.90844727,-0.26818848,-0.33935547,-0.11425781,2.0019531,0.2783203,2.9081817,-9.337599,0.62478626,18.47104,-0.98687744,-0.038513184,-0.17388916,-0.28710938,0.28222656,-0.45214844,3.1019194,-15.80476,-56.005356,17.818905,-0.48535156,-0.32763672,0.83862305,-0.080078125,0.123046875,0.27148438,11.640124,-25.574802,-127.30053,20.635412,0.0,0.0,0.0,0.0,0.0,0.0,0.0,-11.526523,-127.480736,34.864426,0.0,0.0,0.0,0.0,0.0,0.0,0.0,0.45102423,-0.03017839,-0.89218724,0.5509033,0.14727783,-0.59765625,1.5927734,2.1621094,0.18359375,27.214317,9.337599,-0.62478626,-18.47104,-0.1395874,0.39318848,-0.7824707,-0.78222656,-3.8408203,-3.2509766,54.295994,30.029564,-52.753025,-8.255406,-0.69781494,0.8128052,1.3081055,-9.765625E-4,-4.303711,4.991211,37.840797,-4.3656807,-115.1698,-18.521921,0.0,0.0,0.0,0.0,0.0,0.0,0.0,12.667044,-125.659256,-18.871866,0.0,0.0,0.0,0.0,0.0,0.0,0.0,2.9026003,44.913734,-0.0518741,
2.0624999385327105,88,-0.13250732,-0.71643066,0.34588623,-0.047851562,0.028320312,0.020507812,0.0,0.0,0.0,0.0,0.0,0.0,0.0,0.0,0.0,0.0,0.0,-0.4498716,0.02876052,0.8927936,-0.9869995,-0.11706543,-0.29241943,-0.040039062,2.1513672,0.2783203,4.917172,-9.313737,0.5954319,18.483595,-1.0042725,0.06536865,-0.16851807,-0.7402344,0.34472656,-0.4892578,2.6427877,-17.722702,-55.770798,17.408192,-0.44763184,-0.28326416,0.868103,-0.19335938,0.14355469,0.40234375,10.5752735,-27.857885,-127.02142,19.953644,0.0,0.0,0.0,0.0,0.0,0.0,0.0,-13.923418,-127.325356,34.288765,0.0,0.0,0.0,0.0,0.0,0.0,0.0,0.4498716,-0.02876052,-0.8927936,0.36419678,0.24017334,-0.50909424,1.4248047,1.5888672,-0.08203125,29.711678,9.313737,-0.5954319,-18.483595,-0.2078247,0.4348755,-0.8550415,-0.8095703,-4.298828,-3.9238281,50.907833,32.01321,-51.67071,-7.2897673,-0.7315674,0.95391846,1.4102783,-0.5566406,-4.1464844,5.4365234,32.835297,3.2456684,-117.27864,-13.863308,0.0,0.0,0.0,0.0,0.0,0.0,0.0,21.26946,-125.78188,-12.077244,0.0,0.0,0.0,0.0,0.0,0.0,0.0,2.8925292,44.91352,0.010674953,
2.0859374378342186,89,-0.18597412,-0.83935547,0.3399048,-0.06640625,-0.12011719,-0.03515625,0.0,0.0,0.0,0.0,0.0,0.0,0.0,0.0,0.0,0.0,0.0,-0.45479178,0.025837779,0.8901317,-0.9963379,-0.175354,-0.3334961,-0.1328125,2.0390625,0.33496094,6.9665504,-9.4156,0.5349221,18.428484,-0.9324341,0.12225342,-0.16802979,-0.9433594,0.48242188,-0.6201172,3.1511967,-19.762035,-55.503685,16.999218,-0.4036255,-0.22021484,0.88275146,-0.4765625,0.1640625,0.34765625,9.184594,-30.359749,-126.69128,19.37318,0.0,0.0,0.0,0.0,0.0,0.0,0.0,-16.527594,-127.09965,33.80375,0.0,0.0,0.0,0.0,0.0,0.0,0.0,0.45479178,-0.025837779,-0.8901317,0.3283081,0.29937744,-0.5890503,0.91308594,0.6660156,-0.041015625,31.020695,9.4156,-0.5349221,-18.428484,-0.22796631,0.40118408,-0.78930664,-0.8066406,-4.544922,-4.6503906,46.16683,33.121956,-51.01439,-6.633012,-1.2209473,1.0048828,1.4602661,-0.6044922,-3.7919922,6.0273438,26.056057,10.545662,-119.21927,-9.538534,0.0,0.0,0.0,0.0,0.0,0.0,0.0,29.078165,-125.556206,-5.448406,0.0,0.0,0.0,0.0,0.0,0.0,0.0,2.8310428,44.90697,0.1429435,
2.1093749371357267,90,-0.14935303,-0.92974854,0.27374268,-0.20117188,-0.2890625,-0.13085938,0.0,0.0,0.0,0.0,0.0,0.0,0.0,0.0,0.0,0.0,0.0,-0.47737426,0.018237058,0.8777601,-1.065918,-0.015930176,-0.4761963,-0.4501953,1.890625,0.20898438,9.830314,-9.883128,0.37756363,18.172356,-1.1745605,0.007080078,-0.04046631,-1.1259766,0.6386719,-0.8066406,4.1834326,-22.386614,-55.209213,16.372297,-1.0006714,-0.22796631,0.8262329,-1.5146484,0.33984375,0.6308594,7.9798355,-33.936146,-126.259636,18.601357,0.0,0.0,0.0,0.0,0.0,0.0,0.0,-20.298351,-126.9057,33.208847,0.0,0.0,0.0,0.0,0.0,0.0,0.0,0.47737426,-0.018237058,-0.8777601,0.33422852,0.2788086,-0.57336426,0.3251953,0.29589844,0.15136719,31.092844,9.883128,-0.37756363,-18.172356,-0.4241333,0.29803467,-0.6117554,-0.12792969,-4.7158203,-4.993164,38.284035,33.960346,-50.586563,-5.9598694,-1.5962524,1.0261841,1.4753418,-0.94433594,-3.7578125,5.7470703,21.22054,21.210907,-121.46683,-5.887891,0.0,0.0,0.0,0.0,0.0,0.0,0.0,39.78362,-125.43402,0.4187956,0.0,0.0,0.0,0.0,0.0,0.0,0.0,2.309926,44.9098,0.32318246,
2.1328124364372347,91,-0.15966797,-1.0176392,0.23773193,-0.23925781,-0.43652344,-0.24414062,0.0,0.0,0.0,0.0,0.0,0.0,0.0,0.0,0.0,0.0,0.0,-0.50486565,0.016428802,0.8618202,-0.9723511,-0.27508545,-0.36584473,-0.60058594,1.9101562,0.13671875,12.939959,-10.452285,0.34012705,17.84235,-1.0912476,-0.1262207,-0.15692139,-1.0253906,0.7734375,-0.9375,4.734248,-25.007275,-54.734375,15.7127075,-0.38842773,-0.20251465,0.8352661,-0.5517578,0.6376953,0.42382812,7.295734,-38.17679,-125.512115,17.449581,0.0,0.0,0.0,0.0,0.0,0.0,0.0,-24.808794,-126.44324,32.283764,0.0,0.0,0.0,0.0,0.0,0.0,0.0,0.50486565,-0.016428802,-0.8618202,0.3244629,0.25665283,-0.43798828,-0.32128906,0.19238281,0.41992188,30.516558,10.452285,-0.34012705,-17.84235,-0.7276001,0.62005615,-0.66900635,0.97558594,-4.8310547,-4.96875,30.093817,34.736626,-50.361073,-5.2675133,-1.9663086,1.1525269,1.5449219,-1.2607422,-4.1132812,4.381836,16.012003,32.368927,-122.25844,-2.3126101,0.0,0.0,0.0,0.0,0.0,0.0,0.0,50.672016,-123.73375,5.6447434,0.0,0.0,0.0,0.0,0.0,0.0,0.0,1.5872396,44.92448,0.07343471,
2.156249935738743,92,-0.1305542,-0.9767456,0.20446777,-0.5488281,-0.6689453,-0.22753906,0.0,0.0,0.0,0.0,0.0,0.0,0.0,0.0,0.0,0.0,0.0,-0.5370806,0.014109547,0.842303,-1.1359253,-0.15136719,-0.29956055,-0.52441406,1.7421875,0.022460938,16.324594,-11.119234,0.29211137,17.438282,-1.1413574,0.17919922,-0.03955078,-1.2636719,1.0263672,-1.0478516,6.1208687,-27.70985,-54.186863,14.846393,-0.31640625,-0.37353516,0.8878174,-0.30664062,1.0751953,0.77734375,5.602941,-41.94529,-124.75774,16.788311,0.0,0.0,0.0,0.0,0.0,0.0,0.0,-28.80025,-126.1658,31.78212,0.0,0.0,0.0,0.0,0.0,0.0,0.0,0.5370806,-0.014109547,-0.842303,0.3289795,0.24029541,-0.32165527,-0.7001953,-0.23242188,0.42089844,29.420643,11.119234,-0.29211137,-17.438282,-0.9206543,0.9182129,-0.7145386,0.21386719,-5.024414,-4.479492,21.153496,35.442497,-50.241577,-4.6671066,-2.0,1.8273926,1.999939,-1.3066406,-4.791992,4.001953,13.366168,44.10382,-121.473366,1.4982109,0.0,0.0,0.0,0.0,0.0,0.0,0.0,61.94303,-120.18376,10.481817,0.0,0.0,0.0,0.0,0.0,0.0,0.0,0.6950923,44.95144,-0.30977437,
2.179687435040251,93,-0.15545654,-0.954834,0.18835449,-0.7998047,-0.734375,-0.059570312,0.0,0.0,0.0,0.0,0.0,0.0,0.0,0.0,0.0,0.0,0.0,-0.5729054,0.006864338,0.81826454,-1.1746826,0.035827637,-0.06463623,-0.9140625,1.3876953,-0.0107421875,20.026264,-11.860919,0.14211306,16.940613,-1.1637573,0.24353027,0.09051514,-0.80371094,1.2333984,-0.9873047,6.308231,-30.425259,-53.678146,14.051979,-0.59277344,-0.40515137,0.81500244,-0.36328125,1.5126953,0.8535156,4.425583,-46.91785,-123.765495,15.572175,0.0,0.0,0.0,0.0,0.0,0.0,0.0,-34.018414,-125.83667,30.708256,0.0,0.0,0.0,0.0,0.0,0.0,0.0,0.5729054,-0.006864338,-0.81826454,0.8966675,-0.3668213,-0.13305664,-0.6972656,0.45507812,0.20703125,27.919107,11.860919,-0.14211306,-16.940613,-1.0882568,-0.107910156,-0.29925537,0.8779297,-4.046875,-4.198242,13.424837,36.238647,-50.042034,-4.1025743,-2.0,0.50720215,1.0925903,-0.1953125,-3.7519531,3.8720703,10.781091,54.344406,-119.17087,4.751683,0.0,0.0,0.0,0.0,0.0,0.0,0.0,71.47467,-115.51677,14.437236,0.0,0.0,0.0,0.0,0.0,0.0,0.0,-0.4962763,44.94245,-0.7244839,
2.203124934341759,94,-0.1720581,-1.1154785,0.26501465,-0.80078125,-0.69921875,0.03515625,0.0,0.0,0.0,0.0,0.0,0.0,0.0,0.0,0.0,0.0,0.0,-0.60020244,-3.9501302E-4,0.7996316,-1.104248,-0.07342529,0.043823242,-1.53125,1.1835938,-0.31933594,23.429989,-12.426052,-0.0081780385,16.554853,-0.9397583,0.35638428,0.26593018,-0.5449219,1.5585938,-1.1914062,6.79226,-32.802956,-53.158714,13.504836,-0.5621338,-0.36431885,0.79803467,-0.2685547,1.8945312,0.89160156,2.1129441,-51.058266,-122.79901,14.976351,0.0,0.0,0.0,0.0,0.0,0.0,0.0,-38.414574,-125.69937,30.192902,0.0,0.0,0.0,0.0,0.0,0.0,0.0,0.60020244,3.9501302E-4,-0.7996316,1.9899902,-0.87371826,1.3751221,-0.017578125,2.3134766,0.41210938,28.748068,12.426052,0.0081780385,-16.554853,-1.3120728,-0.098083496,-0.23626709,1.1494141,-2.6699219,-2.9804688,9.56758,38.86827,-48.74734,-3.384739,-2.0,-1.00177,0.09637451,-0.4658203,-3.2265625,0.94628906,10.298353,64.6732,-115.19063,6.9053726,0.0,0.0,0.0,0.0,0.0,0.0,0.0,81.27641,-109.75809,16.666275,0.0,0.0,0.0,0.0,0.0,0.0,0.0,-1.5822966,44.949272,-1.1654651,
2.226562433643267,95,0.079589844,-1.2589722,0.21136475,-0.6660156,-0.45507812,0.11035156,0.0,0.0,0.0,0.0,0.0,0.0,0.0,0.0,0.0,0.0,0.0,-0.61090994,-0.0030868053,0.7918749,-1.1682129,-0.11029053,-0.11590576,-2.0136719,0.8105469,-0.2578125,25.461725,-12.647728,-0.06390643,16.394264,-1.0220947,0.19104004,0.16748047,0.03515625,1.8623047,-1.4316406,6.496579,-34.15941,-52.783813,13.604857,-0.60894775,-0.5625,0.83551025,0.10839844,2.3310547,1.2451172,1.1741987,-53.89808,-122.02945,14.659227,0.0,0.0,0.0,0.0,0.0,0.0,0.0,-41.53128,-125.97063,29.869816,0.0,0.0,0.0,0.0,0.0,0.0,0.0,0.61090994,0.0030868053,-0.7918749,1.8606567,-0.32128906,0.91656494,2.1074219,-0.54003906,-0.36132812,28.305328,12.647728,0.06390643,-16.394264,-0.8666382,-0.26141357,-0.09741211,0.6191406,-0.74121094,-0.67285156,7.729541,39.22976,-48.43251,-2.5699635,-2.0,-1.4227295,-0.010803223,0.0625,-2.3154297,-1.1152344,10.750815,68.718605,-113.26035,8.073344,0.0,0.0,0.0,0.0,0.0,0.0,0.0,85.25943,-106.598755,17.153532,0.0,0.0,0.0,0.0,0.0,0.0,0.0,-2.2159197,44.925663,-1.534397,
2.249999932944775,96,0.26550293,-1.2848511,-0.02911377,-0.5888672,-0.25195312,0.2998047,0.0,0.0,0.0,0.0,0.0,0.0,0.0,0.0,0.0,0.0,0.0,-0.6186335,-0.010379814,0.7857701,-1.2271118,-0.4925537,-0.35076904,-1.4833984,0.3984375,-0.044921875,27.489914,-12.807632,-0.21489435,16.267878,-1.1362305,0.11126709,-0.08514404,0.6328125,2.1083984,-1.6923828,4.601173,-35.51125,-52.455822,13.926092,-0.677124,-0.49072266,0.9064331,0.42871094,3.0585938,1.6367188,2.692682,-58.48874,-120.70914,13.63405,0.0,0.0,0.0,0.0,0.0,0.0,0.0,-46.476757,-125.89325,28.753887,0.0,0.0,0.0,0.0,0.0,0.0,0.0,0.6186335,0.010379814,-0.7857701,1.3434448,0.15124512,0.87890625,0.6904297,-0.42382812,-0.45898438,26.93926,12.807632,0.21489435,-16.267878,-0.47888184,-0.059020996,-0.25952148,-0.20507812,1.2832031,1.4160156,8.15856,38.729282,-48.575554,-2.215495,-2.0,-0.49609375,0.4099121,-0.39160156,0.2705078,-1.640625,11.890898,67.222115,-113.88748,8.188006,0.0,0.0,0.0,0.0,0.0,0.0,0.0,84.07044,-107.13087,16.60324,0.0,0.0,0.0,0.0,0.0,0.0,0.0,-2.8573413,44.884262,-1.6566637,
2.273437432246283,97,0.10498047,-1.3953247,-0.09588623,-0.29882812,-0.15136719,0.3798828,0.0,0.0,0.0,0.0,0.0,0.0,0.0,0.0,0.0,0.0,0.0,-0.6235863,-0.020272028,0.7817167,-1.2266846,-0.12628174,-0.20904541,-0.86035156,-0.048828125,-0.16992188,28.567022,-12.91017,-0.41969377,16.18396,-1.3170166,0.4118042,-0.02923584,0.5810547,2.2441406,-1.8222656,1.1720302,-36.079872,-52.46898,14.13854,-0.5886841,-0.26245117,0.9802246,0.578125,4.2089844,2.2353516,4.0708294,-63.387524,-119.08195,12.399069,0.0,0.0,0.0,0.0,0.0,0.0,0.0,-51.955666,-125.85618,27.340668,0.0,0.0,0.0,0.0,0.0,0.0,0.0,0.6235863,0.020272028,-0.7817167,1.1871948,0.45611572,0.74005127,-0.95703125,2.265625,-0.125,27.037233,12.91017,0.41969377,-16.18396,-0.78985596,0.16412354,-1.0220337,-0.9267578,2.5039062,3.421875,12.232837,39.621254,-48.05844,-2.5436459,-2.0,0.37329102,0.9631958,0.08300781,1.8310547,-2.1425781,12.308328,62.85016,-115.49677,7.0732765,0.0,0.0,0.0,0.0,0.0,0.0,0.0,80.19256,-109.60812,15.128155,0.0,0.0,0.0,0.0,0.0,0.0,0.0,-3.3692257,44.855736,-1.5244478,
2.296874931547791,98,0.20751953,-1.8838501,0.52941895,0.029296875,0.30078125,0.5136719,0.0,0.0,0.0,0.0,0.0,0.0,0.0,0.0,0.0,0.0,0.0,-0.6254748,-0.032684952,0.77985024,-1.5773926,-0.3126831,-0.08251953,-1.0058594,-0.47851562,-0.11425781,28.790445,-12.949266,-0.67667997,16.145317,-1.3778076,0.5795288,0.051086426,0.49609375,2.4394531,-2.178711,3.3491895,-35.978043,-52.80037,14.59687,-0.7102051,-0.493042,0.90893555,0.76660156,5.870117,3.0585938,7.4836974,-67.77236,-117.33693,11.3163595,0.0,0.0,0.0,0.0,0.0,0.0,0.0,-57.336227,-126.28642,25.846436,0.0,0.0,0.0,0.0,0.0,0.0,0.0,0.6254748,0.032684952,-0.77985024,1.024231,1.86969,-0.29345703,-3.9882812,-2.6572266,0.10058594,27.70717,12.949266,0.67667997,-16.145317,-2.0,-1.8721924,-1.5123291,-3.1826172,0.6142578,0.2705078,16.394117,40.18856,-47.298523,-1.97087,1.999939,-2.0,1.9433594,1.0556641,2.0,-2.2695312,13.770571,58.248253,-116.160095,8.8822365,0.0,0.0,0.0,0.0,0.0,0.0,0.0,76.2424,-112.12835,16.650335,0.0,0.0,0.0,0.0,0.0,0.0,0.0,-3.7650077,44.837955,-1.1404637,
2.3203124308492993,99,0.7449341,-1.2996216,0.27618408,-0.12792969,0.7421875,0.5439453,0.0,0.0,0.0,0.0,0.0,0.0,0.0,0.0,0.0,0.0,0.0,-0.62073386,-0.048727892,0.7827374,-1.7705078,-0.15032959,0.023498535,-1.6875,-1.6337891,-0.57714844,28.427683,-12.851116,-1.0088185,16.205091,-2.0,0.91223145,0.1430664,-0.028320312,2.4667969,-2.6503906,9.13308,-35.111675,-53.486176,15.59019,-0.5892334,-0.8475952,0.3484497,1.5,8.240234,4.4960938,12.986482,-71.628174,-115.32674,10.22015,0.0,0.0,0.0,0.0,0.0,0.0,0.0,-63.130104,-126.925995,24.054588,0.0,0.0,0.0,0.0,0.0,0.0,0.0,0.62073386,0.048727892,-0.7827374,1.2969971,-0.51434326,1.710022,-2.9482422,3.2666016,2.131836,28.62446,12.851116,1.0088185,-16.205091,-0.9692993,0.4645996,-0.84710693,1.8789062,2.3886719,3.9121094,21.307632,41.65314,-46.361618,-2.9220943,-2.0,0.35717773,1.0554199,1.9443359,1.5107422,2.4541016,17.686758,55.731365,-116.40898,6.0685787,0.0,0.0,0.0,0.0,0.0,0.0,0.0,74.41428,-114.388145,12.950316,0.0,0.0,0.0,0.0,0.0,0.0,0.0,-4.2430415,44.80402,-0.57566416,
2.3437499301508073,100,-0.4729004,-1.0541382,0.52893066,-0.0107421875,0.58691406,0.0146484375,0.0,0.0,0.0,0.0,0.0,0.0,0.0,0.0,0.0,0.0,0.0,-0.6091341,-0.05813947,0.7912156,-1.2888184,0.24816895,0.9468994,-0.78222656,-2.3417969,-0.8964844,26.273321,-12.610965,-1.2036673,16.380615,-1.3898315,1.2571411,0.4192505,-0.5966797,2.1875,-3.3339844,16.937027,-32.694847,-54.552433,17.154943,-2.0,-1.7285767,1.4699097,-1.1972656,8.685547,4.5634766,21.520514,-73.71013,-113.13626,8.631925,0.0,0.0,0.0,0.0,0.0,0.0,0.0,-68.3163,-127.82343,21.095028,0.0,0.0,0.0,0.0,0.0,0.0,0.0,0.6091341,0.05813947,-0.7912156,-0.1920166,0.062805176,-1.8839722,-2.3710938,-2.6201172,0.96484375,26.733612,12.610965,1.2036673,-16.380615,0.9760742,1.998352,-0.9255371,0.77734375,1.9355469,1.5615234,23.005741,39.046524,-47.31106,-2.342679,1.975647,0.5758667,1.163208,0.4091797,2.5458984,-3.6298828,17.33951,48.717926,-118.320404,4.685995,0.0,0.0,0.0,0.0,0.0,0.0,0.0,67.5732,-117.24793,11.297937,0.0,0.0,0.0,0.0,0.0,0.0,0.0,-4.4212,44.79224,-0.112366915,
2.3671874294523154,101,-0.3095703,-1.0248413,0.791687,0.14550781,0.3154297,-0.16992188,0.0,0.0,0.0,0.0,0.0,0.0,0.0,0.0,0.0,0.0,0.0,-0.6011974,-0.05720278,0.79727876,-1.0440674,-0.704895,-0.36480713,-2.0039062,-3.6308594,-0.8457031,22.669811,-12.44665,-1.1842748,16.506142,-1.3898315,1.2571411,0.4192505,-0.5966797,2.1875,-3.3339844,21.193926,-29.025934,-55.65191,19.40458,-2.0,1.5959473,1.999939,-0.5205078,5.602539,4.1777344,30.608833,-70.041214,-114.23574,10.88156,0.0,0.0,0.0,0.0,0.0,0.0,0.0,-67.41821,-130.4713,22.261654,0.0,0.0,0.0,0.0,0.0,0.0,0.0,0.6011974,0.05720278,-0.79727876,0.34942627,-0.9234619,-0.416687,-3.4003906,-2.3261719,-0.0146484375,26.301815,12.44665,1.1842748,-16.506142,-1.1973267,0.8529053,-1.0594482,-1.2773438,1.3349609,2.8945312,27.797995,38.500946,-47.56796,-2.692459,-1.1813965,0.08959961,1.0667725,0.30859375,0.53125,0.7080078,16.005936,40.42709,-119.02374,5.985489,0.0,0.0,0.0,0.0,0.0,0.0,0.0,59.41096,-118.349754,12.261341,0.0,0.0,0.0,0.0,0.0,0.0,0.0,-4.3731284,44.79515,-0.08366746,
2.3906249287538235,102,0.090148926,-0.8936157,0.66137695,0.3779297,0.2763672,0.3486328,0.0,0.0,0.0,0.0,0.0,0.0,0.0,0.0,0.0,0.0,0.0,-0.5962358,-0.059837844,0.80079794,-1.1915283,-1.2924805,-1.3458862,-2.2421875,-2.65625,-1.5273438,20.206657,-12.34393,-1.238829,16.578999,-1.6062622,-1.5477905,-0.67108154,0.034179688,2.7910156,-2.3066406,35.844975,-26.269005,-56.302967,21.511772,-1.4761963,-1.9407349,-1.9373779,-0.60058594,1.9638672,3.9042969,27.006025,-76.71895,-105.755516,7.5097494,0.0,0.0,0.0,0.0,0.0,0.0,0.0,-76.6273,-122.193184,18.899372,0.0,0.0,0.0,0.0,0.0,0.0,0.0,0.5962358,0.059837844,-0.80079794,1.5675659,-1.2730103,-0.78338623,1.0595703,-1.2753906,-1.3759766,23.797377,12.34393,1.238829,-16.578999,-1.531311,1.5571289,-0.70306396,-1.015625,1.0947266,0.4951172,26.51232,36.35201,-48.96761,-4.218484,-1.4034424,1.652771,1.8098145,-0.07714844,-0.15234375,0.123046875,15.429626,36.681988,-120.581055,3.3534765,0.0,0.0,0.0,0.0,0.0,0.0,0.0,55.621223,-119.657875,9.6712,0.0,0.0,0.0,0.0,0.0,0.0,0.0,-4.1910768,44.81185,0.2279908,
2.4140624280553316,103,-0.15515137,-0.9144287,0.60369873,0.359375,0.12207031,0.6738281,0.0,0.0,0.0,0.0,0.0,0.0,0.0,0.0,0.0,0.0,0.0,-0.595343,-0.07067349,0.80053973,-1.5731201,-0.380188,-1.1695557,3.2451172,-3.9853516,-1.0673828,16.301907,-12.325445,-1.4631603,16.573652,-1.4171753,-0.2076416,-0.6621094,-0.6796875,1.5976562,-0.9267578,44.137955,-21.493164,-57.36718,22.923182,-0.7776489,-1.9902344,-1.9492188,-2.0703125,-1.8037109,2.0927734,24.166965,-74.597084,-103.64218,7.9526253,0.0,0.0,0.0,0.0,0.0,0.0,0.0,-75.49606,-119.48383,20.122986,0.0,0.0,0.0,0.0,0.0,0.0,0.0,0.595343,0.07067349,-0.80053973,0.7314453,0.6046753,-0.41741943,2.0019531,-2.008789,-1.1425781,21.55431,12.325445,1.4631603,-16.573652,-0.73132324,-0.2897339,-0.5246582,-0.23242188,0.71191406,0.2783203,25.110903,33.452698,-50.026344,-4.8328342,-0.409729,0.4071045,1.0028687,0.033203125,-0.1484375,-0.08691406,17.388933,31.615818,-121.457085,1.9352121,0.0,0.0,0.0,0.0,0.0,0.0,0.0,50.44352,-120.459,8.491402,0.0,0.0,0.0,0.0,0.0,0.0,0.0,-4.0132713,44.81673,0.97194725,
2.4374999273568396,104,-0.1829834,-0.85650635,0.5420532,0.22460938,-0.043945312,0.40625,0.0,0.0,0.0,0.0,0.0,0.0,0.0,0.0,0.0,0.0,0.0,-0.57612836,-0.079472184,0.8121256,-1.3551636,0.16400146,-0.7816162,4.7802734,-3.6152344,-0.51171875,11.7502575,-11.927643,-1.6453207,16.813519,-0.8138428,-0.26593018,-0.5620117,-0.8339844,0.57421875,-0.034179688,51.43493,-14.501099,-58.177807,23.733978,0.6168213,-1.3547974,1.2745972,-0.5732422,-2.600586,0.1328125,20.917763,-68.34094,-103.53236,8.542889,0.0,0.0,0.0,0.0,0.0,0.0,0.0,-69.07233,-118.62494,21.64053,0.0,0.0,0.0,0.0,0.0,0.0,0.0,0.57612836,0.079472184,-0.8121256,0.6320801,0.5042114,-0.3340454,-0.25390625,-2.0947266,-0.6455078,19.978123,11.927643,1.6453207,-16.813519,-0.5563965,0.09118652,-0.324646,0.6591797,0.7294922,0.9013672,22.694191,30.032211,-51.19604,-5.5852375,-0.29351807,0.49090576,1.0991211,0.22167969,-0.08984375,-0.013671875,17.844225,27.29165,-122.9241,0.18851519,0.0,0.0,0.0,0.0,0.0,0.0,0.0,46.18283,-121.89101,6.675581,0.0,0.0,0.0,0.0,0.0,0.0,0.0,-3.4554226,44.7756,1.9303017,
2.4609374266583477,105,-0.09716797,-0.92352295,0.5380249,0.22460938,-0.109375,-0.1640625,0.0,0.0,0.0,0.0,0.0,0.0,0.0,0.0,0.0,0.0,0.0,-0.5630893,-0.078010194,0.82206565,-1.1914062,0.3375244,-0.38250732,3.1982422,-2.9785156,-0.7050781,9.698359,-11.657695,-1.6150528,17.019308,-0.5780029,-0.43182373,-0.5117798,-0.5957031,-0.53222656,1.1982422,55.283882,-8.646162,-58.146843,23.714699,0.044677734,-1.0562134,0.9329834,-0.53125,-3.2890625,-1.3935547,18.231806,-61.43228,-104.80966,8.782491,0.0,0.0,0.0,0.0,0.0,0.0,0.0,-61.236694,-119.25804,22.606813,0.0,0.0,0.0,0.0,0.0,0.0,0.0,0.5630893,0.078010194,-0.82206565,0.94055176,-0.17108154,-0.43041992,-0.7285156,-2.3876953,-0.53027344,18.037975,11.657695,1.6150528,-17.019308,-1.5314941,0.49731445,-0.34796143,0.4091797,0.8613281,1.6474609,21.885733,26.805248,-52.337765,-6.595129,-0.41485596,0.76678467,1.2634888,0.296875,-0.14550781,0.099609375,16.912968,20.763882,-123.85591,-0.72227097,0.0,0.0,0.0,0.0,0.0,0.0,0.0,39.678093,-122.80088,5.706564,0.0,0.0,0.0,0.0,0.0,0.0,0.0,-2.8473077,44.82694,2.3035505,
2.4843749259598558,106,0.07171631,-0.7062988,0.47833252,0.24316406,0.0078125,-0.46972656,0.0,0.0,0.0,0.0,0.0,0.0,0.0,0.0,0.0,0.0,0.0,-0.55266297,-0.06456156,0.83084774,-0.9767456,0.14154053,-0.52801514,0.875,-3.0341797,-0.7792969,10.717812,-11.441838,-1.3366245,17.201122,-0.43078613,-0.5393677,-0.61413574,-0.2705078,-1.5390625,1.7138672,57.555565,-3.8352385,-57.409317,24.137838,0.04840088,-0.75756836,0.68865967,-0.7373047,-3.8388672,-1.9707031,14.75202,-55.113476,-106.088394,10.446768,0.0,0.0,0.0,0.0,0.0,0.0,0.0,-53.501156,-119.525375,25.021685,0.0,0.0,0.0,0.0,0.0,0.0,0.0,0.55266297,0.06456156,-0.83084774,0.9234009,-0.24291992,-0.569397,-0.23828125,-2.7441406,-0.3935547,15.598571,11.441838,1.3366245,-17.201122,-0.6520996,0.78808594,-0.28027344,0.0068359375,0.44433594,0.16210938,19.674633,23.249596,-53.548824,-7.3067627,-0.465271,0.7192993,1.2479858,-0.119140625,-0.036132812,-0.40820312,16.87836,15.496233,-124.8598,-1.3753943,0.0,0.0,0.0,0.0,0.0,0.0,0.0,34.44684,-123.84386,4.9504323,0.0,0.0,0.0,0.0,0.0,0.0,0.0,-2.2280486,44.898014,2.0067766,
2.507812425261364,107,0.12719727,-0.58392334,0.40698242,0.06933594,0.01953125,-0.33984375,0.0,0.0,0.0,0.0,0.0,0.0,0.0,0.0,0.0,0.0,0.0,-0.55049855,-0.054983206,0.83319557,-0.93774414,-0.1586914,-0.64312744,0.043945312,-2.5107422,-0.9482422,13.234556,-11.397027,-1.138323,17.249731,-0.40942383,-0.6046753,-0.74523926,0.2841797,-2.546875,1.984375,58.29455,-0.05707836,-56.494625,24.797907,-0.20916748,-0.90423584,0.87231445,-0.90527344,-4.333008,-2.4736328,11.591073,-49.15519,-107.868355,13.129744,0.0,0.0,0.0,0.0,0.0,0.0,0.0,-46.000546,-120.27039,28.44946,0.0,0.0,0.0,0.0,0.0,0.0,0.0,0.55049855,0.054983206,-0.83319557,0.7406616,-0.02142334,-0.53448486,-0.21777344,-3.1064453,-0.5263672,13.040913,11.397027,1.138323,-17.249731,-0.88323975,0.2208252,-0.37017822,-0.453125,0.32910156,0.0546875,16.151377,18.506443,-54.529797,-7.282078,-0.4729004,0.66485596,1.21875,-0.28710938,-0.01953125,-0.40625,17.107384,9.376425,-125.70126,-1.2522912,0.0,0.0,0.0,0.0,0.0,0.0,0.0,28.371737,-124.7327,4.9481745,0.0,0.0,0.0,0.0,0.0,0.0,0.0,-2.0024328,44.931885,1.642067,
2.531249924562872,108,0.15496826,-0.6416626,0.3378296,-0.06640625,0.01171875,-0.15136719,0.0,0.0,0.0,0.0,0.0,0.0,0.0,0.0,0.0,0.0,0.0,-0.5492009,-0.049685016,0.8344264,-0.93530273,-0.15405273,-0.7402954,0.4892578,-2.0996094,-0.9716797,15.623837,-11.37016,-1.0286338,17.275213,-0.42608643,-0.46551514,-0.8508911,1.1230469,-3.4824219,2.540039,57.24223,3.069728,-55.626022,25.052702,-0.34088135,-0.8514404,0.86901855,-0.8828125,-4.5810547,-3.5898438,9.087223,-42.81688,-110.43047,16.266499,0.0,0.0,0.0,0.0,0.0,0.0,0.0,-37.96501,-121.547646,32.165688,0.0,0.0,0.0,0.0,0.0,0.0,0.0,0.5492009,0.049685016,-0.8344264,0.9180298,0.14324951,-0.4673462,-0.46191406,-3.1464844,-0.73828125,10.888986,11.37016,1.0286338,-17.275213,-1.0889282,0.184021,-0.5377197,0.072265625,0.2890625,0.53125,12.087262,13.783932,-55.206303,-8.251217,-0.48858643,0.5911865,1.1448364,-0.2109375,0.11328125,-0.35058594,17.847145,3.749566,-126.27205,-2.3529081,0.0,0.0,0.0,0.0,0.0,0.0,0.0,22.789593,-125.39133,3.719584,0.0,0.0,0.0,0.0,0.0,0.0,0.0,-1.9410753,44.944416,1.3985939,
2.55468742386438,109,0.0034179688,-0.75665283,0.29296875,-0.22167969,0.022460938,0.055664062,0.0,0.0,0.0,0.0,0.0,0.0,0.0,0.0,0.0,0.0,0.0,-0.54925287,-0.05028513,0.83434314,-0.7672119,-0.118896484,-0.7633667,1.9521484,-2.1201172,-0.6044922,17.77975,-11.371236,-1.0410581,17.273489,-0.510437,-0.15533447,-0.7906494,0.8671875,-4.158203,3.2861328,54.379723,5.9872255,-54.768566,24.671597,-0.7769165,-0.5409546,1.0765991,-1.1816406,-4.676758,-4.4072266,7.7115173,-34.767933,-113.87437,19.039864,0.0,0.0,0.0,0.0,0.0,0.0,0.0,-28.074095,-123.45303,35.274696,0.0,0.0,0.0,0.0,0.0,0.0,0.0,0.54925287,0.05028513,-0.83434314,0.84265137,0.13513184,-0.42614746,-0.4404297,-3.241211,-0.9863281,10.57425,11.371236,1.0410581,-17.273489,-0.9584961,0.26550293,-0.4407959,0.30664062,0.13769531,0.19335938,7.845328,9.277132,-55.408344,-9.601385,-0.4827881,0.6281128,1.1669312,0.0146484375,0.28710938,-0.33398438,17.714443,-1.3188152,-126.39555,-3.8210282,0.0,0.0,0.0,0.0,0.0,0.0,0.0,17.752234,-125.64797,2.1705122,0.0,0.0,0.0,0.0,0.0,0.0,0.0,-2.072329,44.93972,1.3442516,
2.578124923165888,110,-0.10070801,-0.76123047,0.27282715,-0.22167969,0.078125,0.07421875,0.0,0.0,0.0,0.0,0.0,0.0,0.0,0.0,0.0,0.0,0.0,-0.5488646,-0.052178152,0.8344807,-0.4570923,-0.06616211,-0.7753906,3.1523438,-2.0302734,-0.06347656,18.016476,-11.363201,-1.0802495,17.276337,-0.39624023,-0.45922852,-0.7424927,0.3017578,-4.5585938,3.6767578,49.02198,7.5058327,-54.4834,22.792433,-0.9152832,-0.3267212,1.2695312,-1.1259766,-4.7666016,-4.2216797,7.604007,-26.764027,-117.78668,20.905724,0.0,0.0,0.0,0.0,0.0,0.0,0.0,-18.403332,-125.52793,37.346222,0.0,0.0,0.0,0.0,0.0,0.0,0.0,0.5488646,0.052178152,-0.8344807,0.8126831,0.06781006,-0.6427002,0.24609375,-3.0410156,-1.4277344,12.65769,11.363201,1.0802495,-17.276337,-1.0667725,-0.06958008,-0.25280762,0.54003906,0.11816406,0.3388672,3.4642456,4.5711374,-55.169624,-10.959553,-0.51330566,0.63012695,1.1773682,0.20214844,0.4609375,-0.46972656,17.934212,-6.1643734,-126.13481,-5.580044,0.0,0.0,0.0,0.0,0.0,0.0,0.0,12.9508915,-125.63135,0.29695463,0.0,0.0,0.0,0.0,0.0,0.0,0.0,-2.2996433,44.929993,1.2968197,
