nodeID,seqNumber,status,gyroTick,gyroX,gyroY,gyroZ,accelTick,accelX,accelY,accelZ,magTick,magX,magY,magZ,currentTime
2,251,0,20728,-17,-17,-45,21213,7104,-224,4304,20168,290,73,227,1389808434.327839
3,251,0,36245,-15,9,-3,36193,7376,1408,-4144,35204,271,-219,-435,1389808434.331113
2,252,0,22718,-11,-14,-43,23093,7040,-256,4208,22729,289,72,225,1389808434.331123
3,252,0,37245,-16,10,-1,38070,7424,1456,-4192,37781,269,-221,-434,1389808434.331125
2,253,0,24707,1,-7,-32,24973,6992,-368,4176,25290,299,74,227,1389808434.331127
3,253,0,39244,-12,4,-9,39947,7392,1456,-4144,37781,269,-221,-434,1389808434.331140
2,254,0,26697,11,7,-41,26854,6992,-208,4112,25290,299,74,227,1389808434.331142
3,254,0,41244,-27,-9,18,41824,7472,1392,-4176,40358,278,-219,-438,1389808434.331143
2,255,0,28686,7,20,-42,28733,7024,-240,4096,27850,290,74,231,1389808434.331145
3,255,0,43243,-41,-15,19,43701,7472,1440,-4080,42937,277,-219,-438,1389808434.331147
2,0,0,30676,-6,20,-46,30614,6992,-256,4096,30411,289,73,225,1389808434.331149
3,0,0,45243,-49,-20,9,45579,7472,1424,-4064,45516,272,-222,-437,1389808434.331150
2,1,0,32666,-8,13,-45,32493,7088,-288,4176,30411,289,73,225,1389808434.331152
3,1,0,47242,-63,-17,-2,47455,7456,1424,-4048,45516,272,-222,-437,1389808434.331154
2,2,0,34655,-4,3,-55,34373,7136,-304,4208,32971,293,73,228,1389808434.331155
3,2,0,49242,-45,3,-16,49333,7520,1392,-4096,48094,277,-221,-430,1389808434.331157
2,3,0,35650,-9,-1,-46,36252,7136,-304,4160,35532,293,76,222,1389808434.331159
3,3,0,51241,-37,3,-21,51210,7472,1440,-4128,50673,277,-223,-437,1389808434.331160
2,4,0,37640,-15,9,-51,38133,7088,-304,4160,38092,291,73,223,1389808434.331162
3,4,0,52241,-38,0,-6,53087,7424,1456,-4192,50673,277,-223,-437,1389808434.331164
2,5,0,39629,-26,16,-51,40013,7104,-240,4192,38092,291,73,223,1389808434.331165
3,5,0,54240,-32,3,8,54965,7376,1488,-4192,53250,270,-223,-434,1389808434.331167
2,6,0,41619,-46,23,-62,41893,7104,-272,4208,40653,296,75,225,1389808434.331169
3,6,0,56240,-43,-7,4,56842,7328,1504,-4192,55829,275,-225,-434,1389808434.331170
2,7,0,43609,-53,13,-65,43773,7056,-240,4320,43213,297,75,224,1389808434.331172
3,7,0,58239,-42,-2,22,58719,7328,1472,-4176,58407,280,-219,-434,1389808434.331174
2,8,0,45598,-53,19,-72,45654,7040,-272,4304,45773,291,70,224,1389808434.331175
3,8,0,60239,-43,-6,20,60596,7280,1536,-4192,58407,280,-219,-434,1389808434.331177
2,9,0,47588,-28,19,-64,47533,7008,-224,4368,45773,291,70,224,1389808434.331179
3,9,0,62238,-30,-12,21,62474,7328,1584,-4192,60985,273,-222,-436,1389808434.331180
2,10,0,49577,-14,30,-46,49413,6992,-272,4400,48334,296,73,225,1389808434.331182
3,10,0,64238,-14,-12,4,64350,7392,1680,-4176,63563,274,-222,-434,1389808434.331184
2,11,0,51567,-2,35,-45,51294,6976,-320,4304,50896,295,74,226,1389808434.331185
3,11,0,701,3,-30,1,692,7440,1680,-4256,604,279,-222,-437,1389808434.331187
2,12,0,52562,8,41,-45,53174,6896,-384,4304,53457,291,70,222,1389808434.331189
3,12,0,1701,4,-40,0,2569,7376,1632,-4320,604,279,-222,-437,1389808434.331191
2,13,0,54551,-2,37,-48,55055,6896,-272,4272,53457,291,70,222,1389808434.331192
3,13,0,3700,-3,-25,1,4446,7280,1616,-4400,3183,274,-222,-432,1389808434.331194
2,14,0,56541,-22,37,-73,56935,6880,-288,4304,56017,297,70,222,1389808434.331196
3,14,0,5700,-18,-22,5,6322,7264,1584,-4256,5760,275,-224,-432,1389808434.331197
2,15,0,58531,-44,22,-70,58815,6960,-256,4464,58578,297,75,224,1389808434.331199
3,15,0,7699,-37,-27,8,8200,7168,1600,-4144,5760,275,-224,-432,1389808434.331201
2,16,0,60520,-51,7,-58,60695,6864,-320,4464,58578,297,75,224,1389808434.331202
3,16,0,9699,-39,-21,32,10076,7232,1632,-4112,8338,278,-223,-435,1389808434.331204
2,17,0,62510,-34,16,-76,62575,6848,-256,4576,61138,292,74,221,1389808434.331206
3,17,0,11698,-23,-3,64,11953,7168,1696,-4096,10916,276,-220,-432,1389808434.331207
2,18,0,64499,-23,19,-65,64454,6784,-256,4576,63698,297,74,221,1389808434.331209
3,18,0,13698,-9,17,76,13830,7328,1728,-4128,13493,274,-223,-433,1389808434.331210
2,19,0,953,1,19,-61,799,6752,-224,4544,721,299,74,222,1389808434.331212
3,19,0,15697,13,10,74,15706,7344,1760,-4240,13493,274,-223,-433,1389808434.331214
2,20,0,2943,41,27,-35,2678,6784,-256,4496,721,299,74,222,1389808434.331255
3,20,0,16697,21,20,63,17584,7328,1664,-4336,16072,283,-220,-434,1389808434.331257
2,21,0,3938,58,30,-34,4558,6928,-304,4400,3282,291,72,220,1389808434.331259
3,21,0,18696,25,15,67,19460,7408,1632,-4320,18649,280,-220,-437,1389808434.331260
2,22,0,5927,75,33,-24,6440,6976,-256,4240,5841,299,68,220,1389808434.331262
3,22,0,20696,29,3,70,21337,7392,1632,-4384,21227,273,-218,-433,1389808434.331264
2,23,0,7917,87,28,-17,8320,6960,-240,4160,8402,299,72,223,1389808434.331265
3,23,0,22695,22,-10,70,23213,7360,1648,-4352,21227,273,-218,-433,1389808434.331267
2,24,0,9906,69,23,-18,10201,7104,-224,4208,8402,299,72,223,1389808434.331269
3,24,0,24695,26,-10,75,25090,7280,1600,-4304,23805,280,-216,-430,1389808434.331270
2,25,0,11896,36,17,-32,12082,7088,-240,4224,10963,295,71,223,1389808434.331272
3,25,0,26694,31,-5,64,26967,7264,1600,-4320,26383,279,-217,-434,1389808434.331274
2,26,0,13886,25,15,-27,13962,7120,-224,4240,13523,302,68,221,1389808434.331275
3,26,0,28694,25,-20,51,28843,7184,1536,-4224,26383,279,-217,-434,1389808434.331277
2,27,0,15875,22,16,-14,15842,7120,-240,4240,13523,302,68,221,1389808434.331278
3,27,0,30693,13,-25,51,30719,7152,1712,-4208,28961,274,-217,-435,1389808434.331280
2,28,0,17865,16,20,-58,17723,6960,-192,4288,16083,302,71,224,1389808434.331282
3,28,0,31693,13,-27,56,32595,7200,1648,-4176,31540,281,-220,-433,1389808434.331283
2,29,0,18860,12,17,-57,19603,6896,-224,4304,18643,296,74,221,1389808434.331285
3,29,0,33693,3,-21,60,34472,7152,1680,-4208,34118,283,-214,-432,1389808434.331287
2,30,0,20849,9,9,-48,21483,6768,-176,4304,21204,298,68,220,1389808434.331288
3,30,0,35692,14,-8,65,36349,7264,1648,-4192,34118,283,-214,-432,1389808434.331290
2,31,0,22839,15,4,-48,23363,6784,-144,4288,21204,298,68,220,1389808434.331291
3,31,0,37691,11,0,69,38227,7120,1600,-4192,36698,276,-215,-434,1389808434.331293
2,32,0,24828,46,7,-32,25243,6960,-176,4272,23764,300,68,220,1389808434.331295
3,32,0,39691,25,24,62,40104,7136,1648,-4336,39277,282,-214,-434,1389808434.331296
2,33,0,26818,64,13,-24,27123,7088,-208,4160,26324,299,70,220,1389808434.331298
3,33,0,41690,28,41,61,41981,7216,1616,-4304,41856,284,-214,-437,1389808434.331300
2,34,0,28808,76,-6,-26,29003,7136,-128,4064,28886,295,67,219,1389808434.331301
3,34,0,43690,25,42,49,43858,7216,1664,-4256,41856,284,-214,-437,1389808434.331303
2,35,0,30797,67,-14,-32,30883,7120,-112,4080,28886,295,67,219,1389808434.331305
3,35,0,45689,33,59,28,45736,7280,1712,-4288,44434,277,-213,-430,1389808434.331306
2,36,0,32787,46,-18,-34,32764,7184,-96,4128,31446,300,64,219,1389808434.331308
3,36,0,46689,45,75,21,47612,7264,1632,-4368,47012,274,-210,-435,1389808434.331310
2,37,0,34776,50,-9,-44,34645,7152,-128,4016,34006,300,70,222,1389808434.331311
3,37,0,48689,46,79,11,49489,7136,1664,-4496,47012,274,-210,-435,1389808434.331313
2,38,0,35771,55,-6,-41,36524,7216,16,3888,36567,302,69,219,1389808434.331315
3,38,0,50688,65,74,-13,51366,7136,1584,-4672,49591,283,-212,-435,1389808434.331316
2,39,0,37761,47,-1,-41,38404,7280,112,3776,36567,302,69,219,1389808434.331318
3,39,0,52688,62,87,-32,53244,7024,1520,-4832,52169,278,-209,-435,1389808434.331320
2,40,0,39751,47,14,-57,40284,7408,320,3600,39128,302,64,219,1389808434.331321
3,40,0,54687,59,90,-53,55121,7040,1488,-5056,54747,272,-209,-436,1389808434.331323
2,41,0,41740,53,16,-63,42163,7584,256,3392,41689,299,69,223,1389808434.331325
3,41,0,56686,58,124,-96,56998,6832,1440,-5248,54747,272,-209,-436,1389808434.331326
2,42,0,43730,15,30,-91,44043,7632,272,3216,41689,299,69,223,1389808434.331328
3,42,0,58686,33,140,-117,58875,6752,1456,-5536,57325,282,-214,-439,1389808434.331330
2,43,0,45719,-48,39,-112,45922,7744,176,3168,44250,297,67,217,1389808434.331331
3,43,0,60685,-13,143,-142,60753,6816,1552,-5616,59903,278,-211,-440,1389808434.331333
2,44,0,47709,-149,20,-144,47802,7744,48,3264,46810,299,64,220,1389808434.331335
3,44,0,61685,-43,145,-150,62630,6848,1392,-5536,62482,271,-214,-438,1389808434.331336
2,45,0,49699,-274,12,-178,49682,7632,-64,3536,49371,306,68,218,1389808434.331362
3,45,0,63685,-136,122,-158,64507,7072,1440,-5312,62482,271,-214,-438,1389808434.331377
2,46,0,51688,-394,22,-225,51561,7296,-272,4080,49371,306,68,218,1389808434.331379
3,46,0,148,-271,89,-158,849,7392,1344,-4896,65061,279,-217,-440,1389808434.331381
2,47,0,52683,-439,40,-239,53441,6816,-336,4656,51931,298,65,216,1389808434.331383
3,47,0,2148,-431,55,-160,2726,7680,1312,-4336,2103,273,-217,-440,1389808434.331385
2,48,0,54673,-471,85,-254,55321,6336,-288,4960,54492,303,64,213,1389808434.331386
3,48,0,4147,-514,14,-99,4603,7824,1392,-3840,2103,273,-217,-440,1389808434.331388
2,49,0,56662,-435,106,-225,57201,6208,-272,5120,57053,303,66,214,1389808434.331390
3,49,0,6146,-516,1,-44,6481,7792,1424,-3440,4681,270,-223,-436,1389808434.331392
2,50,0,58652,-338,120,-164,59081,6272,-208,5216,57053,303,66,214,1389808434.331393
3,50,0,8146,-440,26,-24,8358,7616,1424,-3216,7259,273,-223,-434,1389808434.331395
2,51,0,60641,-204,103,-115,60961,6496,-224,5216,59614,299,67,215,1389808434.331397
3,51,0,10145,-310,79,-30,10235,7504,1472,-3152,9838,275,-227,-435,1389808434.331398
2,52,0,62631,-83,90,-52,62842,6752,-208,5056,62174,303,66,212,1389808434.331401
3,52,0,11145,-238,110,-21,12113,7456,1392,-3168,9838,275,-227,-435,1389808434.331402
2,53,0,64621,18,64,-9,64722,6912,-192,4784,64735,302,69,212,1389808434.331404
3,53,0,13145,-82,155,-27,13990,7568,1152,-3376,12415,268,-231,-439,1389808434.331406
2,54,0,1074,88,40,42,1065,7024,-240,4544,64735,302,69,212,1389808434.331407
3,54,0,15144,46,178,-77,15868,7776,1040,-3536,14994,270,-229,-436,1389808434.331409
2,55,0,2069,109,35,59,2945,7024,-176,4368,1759,302,70,215,1389808434.331411
3,55,0,17144,132,184,-117,17745,7856,1040,-3728,17572,274,-230,-441,1389808434.331413
2,56,0,4059,116,18,67,4825,6944,-240,4240,4320,307,64,212,1389808434.331414
3,56,0,19143,195,149,-161,19622,7760,1008,-3952,17572,274,-230,-441,1389808434.331416
2,57,0,6048,105,4,76,6705,6960,-256,4224,4320,307,64,212,1389808434.331418
3,57,0,21143,212,89,-161,21500,7472,1088,-4160,20151,267,-228,-435,1389808434.331420
2,58,0,8038,80,-13,56,8586,6944,-224,4288,6880,309,67,208,1389808434.331422
3,58,0,23142,195,41,-153,23377,7248,1136,-4112,22729,268,-228,-442,1389808434.331424
2,59,0,10028,68,-24,45,10466,6896,-176,4336,9440,302,71,213,1389808434.331425
2,148,0,57941,188,-64,-27,57755,8240,-224,-1712,56550,333,-293,-17,1389808434.331667
3,148,0,7148,268,45,27,7244,8336,1456,-1904,5062,409,38,73,1389808434.331675
2,149,0,59931,155,-32,-42,59635,8192,-288,-1616,59109,333,-291,-15,1389808434.349645
3,149,0,9148,175,81,68,9121,8192,1408,-1376,7640,412,34,78,1389808434.349654
2,150,0,60925,147,-19,-64,61515,8144,-352,-1280,61669,338,-293,-21,1389808434.349922
3,150,0,10147,138,103,88,10999,8080,1248,-464,10220,411,33,80,1389808434.349928
2,151,0,62915,144,-11,-98,63396,8160,-176,-1008,61669,338,-293,-21,1389808434.367077
3,151,0,12147,122,133,157,12876,8096,1312,16,12799,409,38,73,1389808434.367086
2,152,0,64905,145,-10,-110,65275,8144,112,-1008,64229,335,-295,-19,1389808434.378817
3,152,0,14146,204,122,155,14753,8176,1392,64,12799,409,38,73,1389808434.378826
2,153,0,1358,155,-52,-83,1619,8112,-48,-1120,1253,330,-294,-18,1389808434.379095
3,153,0,16146,262,104,133,16631,8352,1504,-448,15378,412,38,71,1389808434.379101
2,154,0,3348,146,-74,-38,3500,8176,-64,-1328,1253,330,-294,-18,1389808434.396507
3,154,0,18146,290,46,71,18509,8576,1600,-1344,17957,414,34,78,1389808434.396521
2,155,0,5338,127,-76,-33,5380,8304,-128,-1472,3814,337,-295,-17,1389808434.408784
3,155,0,20145,236,-31,-7,20385,8864,1472,-2112,17957,414,34,78,1389808434.408793
2,156,0,7327,85,-62,-48,7261,8240,-80,-1568,6375,334,-297,-18,1389808434.409065
3,156,0,22145,137,-74,-42,22263,8864,1408,-2384,20537,409,33,75,1389808434.409071
2,157,0,9317,65,-42,-53,9141,8128,64,-1568,8936,331,-293,-17,1389808434.425769
3,157,0,24144,18,-74,-24,24140,8544,1472,-2160,23115,411,38,76,1389808434.425778
2,158,0,10312,71,-27,-46,11021,8032,-208,-1520,8936,331,-293,-17,1389808434.437183
3,158,0,25144,-23,-58,-9,26017,8176,1536,-1440,25693,415,32,77,1389808434.437192
2,159,0,12302,9,-21,-47,12902,8080,-224,-1328,11497,336,-296,-21,1389808434.449282
3,159,0,27143,-88,-11,45,27894,7936,1376,-432,25693,415,32,77,1389808434.449297
2,160,0,14291,-2,-37,-44,14782,8032,-144,-1184,14058,336,-298,-20,1389808434.449630
3,160,0,29143,-76,41,109,29771,7904,1120,128,28272,410,34,78,1389808434.449641
2,161,0,16281,25,-41,-45,16662,8128,-224,-1200,16619,330,-292,-17,1389808434.467985
3,161,0,31142,-8,48,133,31647,8128,976,304,30851,413,40,74,1389808434.468000
2,162,0,18271,41,-47,-16,18544,8272,-288,-1264,16619,330,-292,-17,1389808434.474115
3,162,0,33142,55,38,121,33524,8464,992,144,33429,414,40,76,1389808434.474371
2,163,0,20260,42,-42,-7,20424,8480,-240,-1392,19180,335,-299,-19,1389808434.485979
3,163,0,35141,101,19,100,35400,8816,1024,-384,33429,414,40,76,1389808434.485994
2,164,0,22250,4,-47,-46,22305,8480,-112,-1328,21740,336,-297,-20,1389808434.498163
3,164,0,37141,155,-28,34,37277,9024,1072,-992,36006,410,38,81,1389808434.498172
2,165,0,24240,-29,-51,-82,24184,8336,112,-1184,24301,330,-299,-19,1389808434.498418
3,165,0,39140,157,-95,-31,39154,9056,1216,-1424,38585,407,40,76,1389808434.510469
2,166,0,26229,-44,-66,-98,26064,8144,400,-1136,24301,330,-299,-19,1389808434.510745
3,166,0,41140,111,-151,-81,41031,8960,1296,-1712,38585,407,40,76,1389808434.510751
2,167,0,27224,-41,-63,-100,27943,7952,544,-1088,26860,335,-299,-17,1389808434.528160
3,167,0,42140,76,-167,-96,42908,8720,1360,-1824,41165,412,41,78,1389808434.528169
2,168,0,29214,-11,-58,-75,29823,7824,544,-992,29421,334,-299,-16,1389808434.528409
3,168,0,44139,12,-181,-104,44784,8384,1504,-1696,43743,410,38,84,1389808434.540527
2,169,0,31203,-4,-62,-38,31703,7808,416,-976,29421,334,-299,-16,1389808434.540809
3,169,0,46139,-28,-153,-105,46660,8176,1520,-1376,46320,404,40,83,1389808434.540816
2,170,0,33193,14,-66,2,33582,7872,304,-944,31983,329,-300,-14,1389808434.558276
3,170,0,48138,-43,-114,-94,48537,8048,1616,-1104,46320,404,40,83,1389808434.558285
2,171,0,35183,30,-71,30,35462,8000,224,-1008,34544,334,-297,-16,1389808434.558486
3,171,0,50138,-54,-86,-74,50414,8016,1616,-960,48898,409,38,83,1389808434.569525
2,172,0,37172,39,-73,50,37343,8064,240,-1072,37105,334,-296,-17,1389808434.569781
3,172,0,52137,-62,-61,-50,52292,8000,1568,-848,51477,410,36,84,1389808434.569789
2,173,0,39162,34,-79,63,39222,8112,48,-1232,37105,334,-296,-17,1389808434.587286
3,173,0,54137,-53,-50,-32,54168,8096,1632,-896,54055,405,38,83,1389808434.587295
2,174,0,41152,10,-76,66,41102,8192,144,-1184,39665,331,-296,-15,1389808434.599434
3,174,0,56136,-48,-46,-22,56045,8144,1472,-912,54055,405,38,83,1389808434.599443
2,175,0,43141,-7,-70,60,42982,8240,208,-1200,42225,330,-293,-10,1389808434.599712
3,175,0,57136,-52,-30,-13,57923,8208,1424,-1008,56633,411,39,80,1389808434.599719
2,176,0,44136,-8,-71,51,44862,8192,224,-1200,44785,337,-295,-16,1389808434.617239
3,176,0,59136,-46,-14,-8,59800,8336,1328,-944,59210,411,35,86,1389808434.617248
2,177,0,46126,-31,-72,37,46742,8176,192,-1200,44785,337,-295,-16,1389808434.629448
3,177,0,61135,-36,-6,1,61677,8432,1376,-960,59210,411,35,86,1389808434.629463
2,178,0,48116,-37,-72,46,48623,8176,224,-1136,47347,329,-298,-9,1389808434.629791
3,178,0,63135,-36,-4,-6,63554,8384,1376,-960,61788,407,38,84,1389808434.629802
2,179,0,50105,-56,-75,41,50503,8176,288,-1088,49908,329,-292,-12,1389808434.647331
3,179,0,65134,-47,13,5,65431,8416,1392,-928,64368,407,40,78,1389808434.647346
2,180,0,52095,-58,-70,49,52384,8224,320,-1088,52469,338,-293,-12,1389808434.658873
3,180,0,1598,-51,35,10,1772,8400,1424,-928,1410,412,36,83,1389808434.658880
2,181,0,54085,-33,-67,49,54264,8288,304,-1120,52469,338,-293,-12,1389808434.659081
3,181,0,3597,-46,32,24,3649,8416,1456,-912,1410,412,36,83,1389808434.659086
2,182,0,56074,-17,-75,67,56144,8320,352,-1216,55031,331,-296,-8,1389808434.674779
3,182,0,5597,-35,31,18,5527,8352,1424,-912,3989,407,37,86,1389808434.674785
2,183,0,58064,-38,-66,50,58024,8272,352,-1216,57591,337,-292,-8,1389808434.685707
3,183,0,6596,-24,37,22,7403,8288,1344,-912,6568,409,40,78,1389808434.685723
2,184,0,59059,-42,-68,38,59904,8240,144,-1120,57591,337,-292,-8,1389808434.696359
3,184,0,8596,-26,31,43,9280,8256,1280,-960,9146,412,39,83,1389808434.696395
2,185,0,61048,-43,-72,38,61783,8176,320,-1104,60152,337,-290,-9,1389808434.707386
3,185,0,10596,-27,34,52,11157,8272,1312,-880,9146,412,39,83,1389808434.707391
2,186,0,63038,-44,-73,25,63663,8128,176,-1088,62713,335,-294,-8,1389808434.718500
3,186,0,12595,-22,39,50,13034,8272,1264,-752,11726,410,39,85,1389808434.718505
2,187,0,65028,-5,-68,34,7,8080,192,-992,65273,331,-290,-9,1389808434.718610
3,187,0,14595,-13,42,51,14912,8304,1296,-768,14304,410,44,79,1389808434.718760
2,188,0,1481,-30,-63,35,1888,8032,352,-976,65273,331,-290,-9,1389808434.735542
3,188,0,16594,-5,52,36,16789,8256,1328,-848,14304,410,44,79,1389808434.735549
2,189,0,3471,-32,-62,23,3767,8032,384,-1024,2298,338,-289,-8,1389808434.747092
3,189,0,18594,-4,63,32,18665,8304,1424,-864,16883,408,43,83,1389808434.747095
2,190,0,5461,-45,-65,25,5647,8000,480,-992,4860,336,-291,-9,1389808434.758649
3,190,0,20593,-4,62,41,20542,8368,1360,-864,19462,408,39,82,1389808434.758653
2,191,0,7450,-36,-58,34,7528,8000,464,-912,7421,332,-290,-7,1389808434.758854
3,191,0,21593,3,68,41,22420,8384,1520,-944,22040,407,44,79,1389808434.758857
2,192,0,9440,-22,-43,52,9409,8064,384,-912,7421,332,-290,-7,1389808434.775246
3,192,0,23592,27,68,33,24297,8416,1440,-1024,22040,407,44,79,1389808434.775252
2,193,0,10435,-8,-46,63,11289,8144,320,-1072,9983,334,-289,-4,1389808434.786662
3,193,0,25592,27,72,19,26174,8400,1408,-1168,24619,410,44,80,1389808434.786677
2,194,0,12425,3,-36,80,13168,8256,208,-1232,12543,340,-289,-10,1389808434.798779
3,194,0,27591,20,80,22,28051,8368,1280,-1216,27198,408,42,84,1389808434.798788
2,195,0,14414,-15,-28,74,15049,8320,208,-1280,15105,332,-289,-4,1389808434.799038
3,195,0,29591,-14,89,20,29928,8336,1248,-1184,29777,409,43,74,1389808434.799044
2,196,0,16404,-43,-37,62,16930,8240,224,-1184,15105,332,-289,-4,1389808434.816878
3,196,0,31590,-38,95,33,31804,8352,1280,-1040,29777,409,43,74,1389808434.816888
2,197,0,18394,-56,-45,56,18810,8176,336,-1104,17666,337,-285,-5,1389808434.828527
3,197,0,33590,-49,89,18,33682,8400,1312,-912,32356,409,45,77,1389808434.828537
2,198,0,20383,-62,-39,50,20691,8096,336,-1104,20228,336,-287,-8,1389808434.828861
3,198,0,35589,-47,93,11,35559,8368,1296,-832,34935,408,42,79,1389808434.829038
2,199,0,22373,-50,-31,57,22571,8080,368,-1056,20228,336,-287,-8,1389808434.846411
3,199,0,36589,-43,100,2,37436,8400,1312,-800,34935,408,42,79,1389808434.846420
2,200,0,24363,-47,-25,60,24451,8128,368,-1024,22789,336,-287,-6,1389808434.858250
3,200,0,38589,-30,94,-2,39313,8432,1312,-880,37514,407,45,75,1389808434.858259
2,201,0,26352,-33,-23,63,26331,8160,464,-992,25349,337,-284,-1,1389808434.858439
3,201,0,40588,-17,86,-13,41190,8368,1344,-1008,40093,406,46,71,1389808434.870551
2,202,0,27347,-37,-21,64,28211,8128,384,-1040,27911,339,-284,-4,1389808434.870953
3,202,0,42588,-9,73,-23,43067,8272,1424,-1072,42671,411,45,76,1389808434.870963
2,203,0,29337,-21,-22,56,30091,8112,288,-1040,27911,339,-284,-4,1389808434.889098
3,203,0,44587,-9,72,-26,44944,8272,1360,-1104,42671,411,45,76,1389808434.889113
2,204,0,31326,-18,-23,53,31971,8224,320,-992,30471,336,-282,-6,1389808434.889448
3,204,0,46587,-17,75,-41,46821,8192,1376,-1088,45250,406,47,75,1389808434.889465
2,205,0,33316,-13,-11,50,33851,8208,320,-1040,33033,336,-285,-3,1389808434.907470
3,205,0,48586,-24,80,-34,48699,8240,1312,-928,47829,405,47,70,1389808434.907479
2,206,0,35306,-23,-14,38,35731,8160,304,-1072,35594,340,-282,-5,1389808434.919292
3,206,0,50586,-21,71,-25,50577,8256,1360,-832,50408,413,43,69,1389808434.919307
2,207,0,37295,-8,-19,39,37611,8224,288,-960,35594,340,-282,-5,1389808434.919627
3,207,0,51586,-14,62,-28,52453,8304,1312,-784,50408,413,43,69,1389808434.919637
2,208,0,39285,-3,-17,30,39491,8224,256,-976,38155,335,-281,-5,1389808434.936832
3,208,0,53585,-8,53,-32,54330,8336,1360,-720,52986,411,45,77,1389808434.936841
2,209,0,41275,-7,-13,17,41370,8272,176,-1024,40714,335,-280,-4,1389808434.949000
3,209,0,55585,-9,42,-30,56208,8368,1312,-720,55566,409,46,71,1389808434.949016
2,210,0,42269,-1,-5,21,43249,8288,48,-1008,40714,335,-280,-4,1389808434.949391
3,210,0,57584,-13,31,-42,58085,8336,1280,-784,55566,409,46,71,1389808434.949402
2,211,0,44259,21,-6,14,45130,8352,-16,-992,43275,337,-280,-5,1389808434.967306
3,211,0,59584,-6,15,-50,59963,8320,1328,-784,58145,409,44,73,1389808434.967315
2,212,0,46249,2,-2,0,47010,8336,160,-1056,45835,337,-285,-5,1389808434.979406
3,212,0,61583,-10,20,-52,61841,8352,1408,-640,60723,408,40,75,1389808434.979415
2,213,0,48238,0,-11,-22,48420,8288,160,-976,48396,336,-277,-1,1389808434.979671
3,213,0,63583,-13,9,-49,63718,8352,1360,-688,63303,406,45,68,1389808434.979677
2,214,0,50228,-3,-8,-38,50301,8272,16,-960,48396,336,-277,-1,1389808434.997228
3,214,0,46,7,-14,-49,59,8352,1440,-688,63303,406,45,68,1389808434.997237
2,215,0,52218,-1,-11,-44,52181,8208,64,-880,50957,340,-281,-6,1389808435.9107
3,215,0,1046,11,-11,-50,1468,8272,1552,-720,345,406,43,69,1389808435.9116
2,216,0,54207,-1,-4,-52,54060,8208,144,-912,53517,340,-284,-4,1389808435.9319
3,216,0,3046,12,-11,-68,3345,8272,1520,-768,2924,408,41,72,1389808435.9324
2,217,0,56197,5,-5,-53,55940,8176,160,-960,56079,335,-281,-4,1389808435.27177
3,217,0,5045,14,-10,-56,5222,8208,1504,-704,5502,408,45,71,1389808435.27185
2,218,0,58187,11,-13,-55,57820,8208,160,-1072,56079,335,-281,-4,1389808435.39051
3,218,0,7045,5,-6,-32,7098,8192,1504,-720,5502,408,45,71,1389808435.39060
2,219,0,59182,10,-9,-55,59701,8240,32,-1024,58640,338,-285,-2,1389808435.39329
3,219,0,9044,14,0,-20,8975,8240,1536,-736,8081,413,42,72,1389808435.39336
2,220,0,61171,15,-16,-44,61581,8208,48,-1072,61201,338,-284,-6,1389808435.56973
3,220,0,11044,23,4,-13,10851,8272,1568,-848,10660,413,40,72,1389808435.56982
2,221,0,63161,13,-10,-47,63461,8256,112,-1024,63761,334,-284,-1,1389808435.68878
3,221,0,13043,21,-1,-19,12727,8320,1472,-800,10660,413,40,72,1389808435.68887
2,222,0,65151,3,-19,-46,65341,8288,48,-1072,63761,334,-284,-1,1389808435.69128
3,222,0,15043,9,1,-9,14603,8400,1456,-880,13238,408,43,72,1389808435.69135
2,223,0,1604,-7,-14,-46,1686,8272,64,-944,787,340,-283,-1,1389808435.86592
3,223,0,16042,0,16,0,16480,8368,1424,-816,15818,408,44,67,1389808435.86607
2,224,0,3594,-24,-12,-57,3567,8224,96,-960,3348,340,-286,-4,1389808435.98877
3,224,0,18042,-3,22,-7,18357,8336,1408,-768,18397,408,42,72,1389808435.98886
2,225,0,5584,-25,-16,-53,5446,8144,80,-976,3348,340,-286,-4,1389808435.99152
3,225,0,20041,-6,16,-13,20234,8336,1392,-720,18397,408,42,72,1389808435.99159
2,226,0,7573,-25,-24,-47,7326,8112,96,-976,5909,336,-284,-3,1389808435.116903
3,226,0,22041,-2,19,-19,22112,8256,1440,-736,20975,408,40,73,1389808435.116911
2,227,0,9563,-21,-22,-39,9205,8080,160,-896,8470,337,-281,0,1389808435.128527
3,227,0,24040,-6,6,-15,23990,8368,1440,-752,23554,414,45,66,1389808435.128534
2,228,0,10558,-18,-22,-36,11085,8096,144,-912,11032,339,-284,-3,1389808435.128817
3,228,0,26040,2,-8,-23,25867,8336,1456,-800,26133,414,40,70,1389808435.128975
2,229,0,12547,-20,-13,-31,12965,8144,64,-1008,11032,339,-284,-3,1389808435.145394
3,229,0,28040,7,-7,-36,27744,8336,1440,-752,26133,414,40,70,1389808435.145402
2,230,0,14537,-16,-14,-35,14846,8192,112,-976,13593,335,-285,-4,1389808435.157118
3,230,0,30039,8,-13,-37,29620,8320,1392,-768,28712,408,41,76,1389808435.157125
2,231,0,16527,-18,-5,-35,16726,8208,96,-960,16153,336,-281,-1,1389808435.169151
3,231,0,31039,7,-3,-37,31498,8320,1376,-752,31290,408,45,67,1389808435.169162
2,232,0,18516,-15,-10,-37,18606,8176,80,-928,18713,341,-285,-1,1389808435.169402
3,232,0,33038,5,-10,-35,33375,8336,1408,-720,31290,408,45,67,1389808435.169410
2,233,0,20506,-19,-8,-42,20486,8192,64,-928,18713,341,-285,-1,1389808435.187096
3,233,0,35038,2,-4,-48,35252,8304,1376,-816,33869,412,44,70,1389808435.187122
2,234,0,22496,-10,-9,-49,22367,8160,112,-912,21274,335,-282,1,1389808435.199120
3,234,0,37037,13,-14,-50,37130,8320,1392,-720,36447,412,43,74,1389808435.199128
2,235,0,24485,-4,-13,-41,24247,8160,48,-992,23835,337,-282,0,1389808435.199394
3,235,0,39037,16,3,-59,39008,8384,1360,-624,39027,413,44,68,1389808435.199400
2,236,0,25480,-1,-9,-47,26127,8096,96,-976,26397,340,-279,-1,1389808435.217571
3,236,0,41036,23,-1,-58,40885,8416,1328,-608,39027,413,44,68,1389808435.217586
2,237,0,27470,4,-1,-33,28007,8192,144,-912,26397,340,-279,-1,1389808435.229135
3,237,0,43036,29,5,-60,42762,8432,1472,-608,41605,413,41,70,1389808435.229144
2,238,0,29460,11,1,-30,29888,8176,96,-976,28958,336,-283,-2,1389808435.229409
3,238,0,45035,41,10,-62,44639,8384,1472,-672,44183,405,40,71,1389808435.229415
2,239,0,31449,29,-5,-14,31767,8144,-16,-1024,31519,336,-280,-2,1389808435.247126
3,239,0,46035,50,17,-54,46516,8384,1616,-704,46762,405,44,68,1389808435.247134
2,240,0,33439,37,-2,-1,33647,8176,-32,-1056,31519,336,-280,-2,1389808435.259104
3,240,0,48035,62,27,-54,48393,8352,1456,-832,46762,405,44,68,1389808435.259112
2,241,0,35429,11,10,-28,35527,8208,96,-976,34080,339,-283,-3,1389808435.259288
3,241,0,50034,58,42,-46,50269,8304,1440,-768,49341,413,43,69,1389808435.259292
2,242,0,37418,17,19,-30,37408,8128,0,-960,36641,338,-283,-4,1389808435.276576
3,242,0,52034,58,51,-33,52146,8272,1504,-704,51920,413,40,71,1389808435.276583
2,243,0,39408,23,27,-15,39289,8160,-80,-880,39201,333,-282,-3,1389808435.288758
3,243,0,54033,42,53,-23,54023,8304,1456,-624,51920,413,40,71,1389808435.288766
2,244,0,41398,49,11,-10,41169,8160,-96,-928,39201,333,-282,-3,1389808435.289042
3,244,0,56033,59,62,-18,55900,8352,1408,-624,54499,414,39,69,1389808435.289057
2,245,0,42392,53,6,-5,43049,8144,-192,-912,41762,341,-282,-4,1389808435.306537
3,245,0,58032,65,59,-22,57777,8288,1296,-672,57077,414,40,68,1389808435.306547
2,246,0,44382,49,0,-7,44928,8064,-112,-960,44323,340,-285,-6,1389808435.318654
3,246,0,60032,67,54,-32,59654,8272,1408,-768,59655,410,40,68,1389808435.318663
2,247,0,46372,42,9,-37,46809,8000,0,-1088,46883,332,-284,0,1389808435.318915
3,247,0,61032,67,57,-33,61532,8224,1456,-784,59655,410,40,68,1389808435.319119
2,248,0,48361,28,14,-39,48690,7984,96,-1120,46883,332,-284,0,1389808435.335688
3,248,0,63031,52,71,-27,63409,8224,1488,-736,62232,410,37,70,1389808435.335697
2,249,0,50351,8,6,-20,50570,8032,128,-1136,49445,337,-282,-6,1389808435.347847
3,249,0,65031,43,86,-15,65286,8256,1568,-784,64810,410,39,66,1389808435.347862
2,250,0,52341,-4,9,-10,52451,8064,32,-1072,52006,334,-287,-6,1389808435.360046
3,250,0,1494,57,85,-7,1627,8336,1536,-864,1852,414,38,64,1389808435.360056
2,251,0,54330,-14,19,18,54331,8176,32,-1056,54566,334,-285,-2,1389808435.360272
3,251,0,3494,48,91,7,3505,8368,1408,-944,1852,414,38,64,1389808435.360278
2,252,0,56320,-11,15,44,56211,8256,-48,-1104,54566,334,-285,-2,1389808435.377902
3,252,0,5493,27,88,9,5382,8416,1392,-880,4430,411,41,71,1389808435.377912
2,253,0,58310,-23,2,53,58092,8304,-80,-1072,57128,339,-278,-3,1389808435.389729
3,253,0,7493,3,80,20,7258,8384,1408,-832,7009,406,42,64,1389808435.389738
2,254,0,59305,-25,-4,47,59972,8336,-144,-944,59689,343,-280,-4,1389808435.389981
3,254,0,9492,-5,82,23,9135,8368,1344,-736,7009,406,42,64,1389808435.389988
2,255,0,61294,-22,-22,44,61854,8192,-32,-864,59689,343,-280,-4,1389808435.407921
3,255,0,10492,-8,77,27,11012,8352,1408,-720,9588,416,40,63,1389808435.407930
2,0,0,63284,-9,-34,48,63734,8224,16,-800,62250,337,-282,-3,1389808435.414113
3,0,0,12491,20,66,17,12889,8304,1536,-688,12168,411,38,66,1389808435.414364
2,1,0,65274,6,-36,58,78,8144,16,-832,64811,338,-278,-3,1389808435.426438
3,1,0,14491,31,92,20,14766,8240,1504,-656,14746,405,44,60,1389808435.426447
2,2,0,1727,-6,-41,63,1959,8112,64,-768,1836,340,-280,-4,1389808435.437973
3,2,0,16490,23,90,27,16642,8208,1504,-704,14746,405,44,60,1389808435.437981
2,3,0,3717,-15,-48,75,3840,8080,96,-720,1836,340,-280,-4,1389808435.444116
3,3,0,18490,9,96,24,18520,8160,1600,-688,17325,415,46,62,1389808435.444366
2,4,0,5707,-20,-55,92,5721,8032,128,-704,4397,336,-282,-4,1389808435.456402
3,4,0,20490,18,119,20,20397,8224,1664,-720,19904,414,40,63,1389808435.456410
2,5,0,7696,-16,-66,103,7602,8032,80,-656,6958,338,-275,0,1389808435.468633
3,5,0,22489,18,122,22,22274,8240,1696,-784,22483,412,43,58,1389808435.468648
2,6,0,8691,-18,-58,114,9481,8016,112,-752,9518,338,-277,-4,1389808435.468878
3,6,0,24489,33,132,14,24151,8320,1616,-816,22483,412,43,58,1389808435.469119
2,7,0,10681,1,-55,137,11362,8032,176,-832,9518,338,-277,-4,1389808435.487131
3,7,0,25488,46,139,14,26028,8464,1632,-912,25061,413,43,57,1389808435.487146
2,8,0,12670,20,-46,145,13242,8160,224,-912,12078,338,-277,-2,1389808435.499286
3,8,0,27488,56,153,4,27905,8448,1664,-944,27640,415,41,59,1389808435.499295
2,9,0,14660,35,-38,173,15122,8160,288,-864,14639,338,-270,1,1389808435.499564
3,9,0,29487,71,168,7,29782,8464,1680,-1008,27640,415,41,59,1389808435.499570
2,10,0,16650,57,-41,198,17002,8208,384,-864,14639,338,-270,1,1389808435.517287
3,10,0,31487,88,187,5,31659,8560,1664,-1088,30220,410,43,55,1389808435.517302
2,11,0,18639,73,-44,202,18883,8224,176,-1040,17199,343,-270,-2,1389808435.529385
3,11,0,33486,111,206,3,33535,8560,1536,-1248,32799,415,45,50,1389808435.529395
2,12,0,20629,100,-16,220,20762,8336,32,-1104,19760,344,-270,-3,1389808435.529665
3,12,0,35486,117,214,-2,35412,8640,1392,-1264,35378,414,41,54,1389808435.529671
2,13,0,22619,65,1,214,22642,8400,192,-1104,22321,339,-266,-2,1389808435.547744
3,13,0,37485,126,224,-7,37289,8592,1184,-1344,35378,414,41,54,1389808435.547759
2,14,0,24608,47,6,182,24523,8384,256,-1024,22321,339,-266,-2,1389808435.560067
3,14,0,39485,89,246,-5,39166,8640,1024,-1280,37957,413,44,49,1389808435.560076
2,15,0,25603,53,2,169,26403,8176,304,-1072,24882,348,-265,-1,1389808435.560341
3,15,0,40485,78,252,1,41042,8608,944,-1344,40537,413,45,44,1389808435.560348
2,16,0,27593,69,-16,156,28284,8048,320,-1312,27442,341,-266,-1,1389808435.578345
3,16,0,42484,85,266,-19,42919,8560,1056,-1312,43116,416,42,47,1389808435.578355
2,17,0,29583,74,-20,162,30165,7904,400,-1552,30004,341,-263,0,1389808435.578604
3,17,0,44484,99,266,-53,44796,8416,1152,-1152,43116,416,42,47,1389808435.584765
2,18,0,31572,81,-12,167,32045,7872,480,-1696,30004,341,-263,0,1389808435.596285
3,18,0,46483,107,248,-70,46673,8240,1152,-1136,45694,414,43,44,1389808435.596300
2,19,0,33562,72,-8,177,33925,7968,656,-1712,32564,347,-260,0,1389808435.608241
3,19,0,48483,105,260,-62,48551,8112,1296,-1408,48272,415,45,40,1389808435.608250
2,20,0,35552,50,-10,212,35805,8096,816,-1632,35124,347,-261,-6,1389808435.608500
3,20,0,50482,107,285,-31,50428,7920,1200,-1648,48272,415,45,40,1389808435.614669
2,21,0,37541,42,-9,227,37685,8096,832,-1408,37686,348,-258,-1,1389808435.626500
3,21,0,52482,97,327,5,52304,8000,1024,-1904,50850,419,42,39,1389808435.626509
2,22,0,39531,44,-17,237,39566,8032,832,-1248,37686,348,-258,-1,1389808435.638937
3,22,0,54481,75,346,22,54181,8096,896,-1904,53429,417,42,42,1389808435.638947
2,23,0,41521,90,-28,250,41446,7936,752,-1216,40246,348,-510,0,1389808435.639226
3,23,0,55481,60,354,36,56058,8208,544,-1728,56007,419,43,30,1389808435.639232
2,24,0,42515,114,-24,257,43327,7920,656,-1344,42807,350,-253,-3,1389808435.657114
3,24,0,57481,22,336,43,57935,8400,256,-1344,56007,419,43,30,1389808435.657123
2,25,0,44505,160,-26,255,45207,8032,544,-1696,42807,350,-253,-3,1389808435.668854
3,25,0,59480,-2,302,27,59812,8432,112,-1056,58585,420,41,30,1389808435.668864
2,26,0,46495,210,-29,244,47087,8144,336,-1952,45368,346,-252,-2,1389808435.669065
3,26,0,61480,8,252,-3,61689,8544,208,-864,61163,420,41,30,1389808435.669070
2,27,0,48484,213,-24,227,48968,8304,320,-2144,47928,350,-248,1,1389808435.687109
3,27,0,63479,26,229,-43,63566,8656,384,-912,63743,417,45,24,1389808435.687135
2,28,0,50474,212,-16,206,50848,8432,256,-2208,50489,351,-252,-4,1389808435.699132
3,28,0,65479,35,200,-66,65443,8816,480,-880,63743,417,45,24,1389808435.699141
2,29,0,52464,185,6,199,52728,8512,272,-2112,50489,351,-252,-4,1389808435.699410
3,29,0,1942,52,172,-84,1784,8880,608,-976,786,419,44,22,1389808435.699416
2,30,0,54453,153,28,196,54608,8528,272,-2112,53049,351,-247,-6,1389808435.717428
3,30,0,3942,67,163,-97,3661,8736,688,-1136,3364,420,37,26,1389808435.717443
2,31,0,56443,124,43,173,56488,8480,368,-1968,55610,355,-241,-6,1389808435.728600
3,31,0,4941,74,167,-92,5537,8368,832,-1424,3364,420,37,26,1389808435.728608
2,32,0,57438,111,49,163,58368,8272,368,-1920,58170,355,-244,-8,1389808435.728829
3,32,0,6941,77,186,-78,7413,8032,848,-1568,5944,417,38,18,1389808435.729025
2,33,0,59428,85,34,121,60248,8080,464,-1760,58170,355,-244,-8,1389808435.746833
3,33,0,8941,61,219,-52,9289,7712,864,-1760,8523,422,42,18,1389808435.746842
2,34,0,61417,48,22,115,62128,7888,592,-1728,60732,350,-245,-10,1389808435.758740
3,34,0,10940,24,249,-20,11165,7680,880,-1776,11103,421,37,19,1389808435.758750
2,35,0,63407,36,-18,109,64008,7760,672,-1696,63292,350,-240,-6,1389808435.758955
3,35,0,12940,-17,287,19,13041,7760,704,-1696,11103,421,37,19,1389808435.758961
2,36,0,65397,30,-35,125,352,7744,688,-1552,316,356,-240,-8,1389808435.776583
3,36,0,14939,-36,299,35,14916,8000,688,-1504,13682,419,40,11,1389808435.776592
2,37,0,1850,15,-35,155,2232,7904,784,-1504,316,356,-240,-8,1389808435.788503
3,37,0,16939,-36,291,43,16792,8176,768,-1344,16261,419,43,10,1389808435.788518
2,38,0,3840,27,-46,176,4112,7904,864,-1504,2876,354,-239,-7,1389808435.788869
3,38,0,18938,-13,285,41,18668,8160,736,-1376,18840,423,43,10,1389808435.789161
2,39,0,5830,36,-58,183,5992,7968,896,-1472,5437,352,-234,-6,1389808435.807207
3,39,0,19938,5,277,37,20544,8128,704,-1456,18840,423,43,10,1389808435.807217
2,40,0,7819,62,-71,194,7872,7968,752,-1600,5437,352,-234,-6,1389808435.818695
3,40,0,21937,16,265,29,22420,7936,784,-1456,21419,419,40,7,1389808435.818704
2,41,0,8814,77,-84,189,9752,7984,736,-1680,7997,359,-234,-6,1389808435.818957
3,41,0,23937,36,261,40,24297,7680,752,-1504,23996,421,44,-1,1389808435.818964
2,42,0,10804,80,-97,193,11632,7920,944,-1632,10559,356,-235,-4,1389808435.836286
3,42,0,25936,37,264,43,26173,7648,688,-1616,23996,421,44,-1,1389808435.836296
2,43,0,12793,68,-123,176,13512,7808,864,-1664,13120,354,-230,-1,1389808435.847420
3,43,0,27936,34,262,56,28050,7696,672,-1600,26574,421,43,3,1389808435.847435
2,44,0,14783,77,-126,175,14922,7872,832,-1616,13120,354,-230,-1,1389808435.859301
3,44,0,29935,38,253,74,29927,7904,672,-1536,29153,421,44,-1,1389808435.859311
2,45,0,16773,85,-131,190,16802,7920,784,-1664,15680,359,-231,-4,1389808435.859577
3,45,0,31935,37,250,83,31803,8048,480,-1424,31732,419,46,-6,1389808435.859584
2,46,0,18762,104,-131,186,18682,8048,624,-1760,18241,357,-230,-2,1389808435.877175
3,46,0,33935,30,232,92,33680,8000,464,-1440,31732,419,46,-6,1389808435.877185
2,47,0,20752,98,-142,185,20562,8112,592,-1648,20803,357,-227,-2,1389808435.888643
3,47,0,34934,37,220,91,35557,7984,512,-1456,34311,423,47,-8,1389808435.888652
2,48,0,22742,77,-153,138,22442,8160,832,-1680,20803,357,-227,-2,1389808435.888902
3,48,0,36934,39,196,79,37434,7952,608,-1360,36890,423,44,-2,1389808435.889146
2,49,0,24731,37,-161,102,24323,8064,976,-1680,23364,360,-223,0,1389808435.906721
3,49,0,38933,28,175,78,39311,7968,688,-1264,39469,421,48,-11,1389808435.906730
2,50,0,25726,18,-167,93,26203,8000,1120,-1568,25925,359,-225,-1,1389808435.918912
3,50,0,40933,45,166,81,41188,7984,704,-1248,39469,421,48,-11,1389808435.918923
2,51,0,27716,-4,-154,87,28083,7984,1120,-1312,28485,352,-223,4,1389808435.919185
3,51,0,42932,89,143,67,43065,8016,832,-1296,42047,424,52,-15,1389808435.919193
2,52,0,29706,14,-145,108,29963,8016,1024,-1104,28485,352,-223,4,1389808435.936499
3,52,0,44932,116,136,46,44942,8096,640,-1264,44625,421,46,-7,1389808435.936511
2,53,0,31695,69,-149,127,31843,8048,784,-1104,31046,361,-221,2,1389808435.947563
3,53,0,46931,147,109,30,46818,8224,272,-1296,44625,421,46,-7,1389808435.947569
2,54,0,33685,149,-160,121,33724,8224,624,-1200,33607,360,-221,3,1389808435.958512
3,54,0,48931,163,71,12,48696,8256,144,-1152,47205,420,48,-13,1389808435.958517
2,55,0,35675,238,-162,115,35604,8400,496,-1408,33607,360,-221,3,1389808435.958628
3,55,0,49931,170,47,1,50572,8352,176,-1040,49783,421,50,-15,1389808435.958762
2,56,0,37664,304,-160,96,37484,8432,480,-1584,36168,356,-220,6,1389808435.975873
3,56,0,51930,192,3,-32,52449,8416,208,-832,52362,422,51,-10,1389808435.975881
2,57,0,39654,350,-158,63,39364,8400,432,-1744,38729,359,-220,8,1389808435.987922
3,57,0,53930,239,-50,-72,54326,8336,320,-624,52362,422,51,-10,1389808435.987929
2,58,0,40649,368,-151,30,41244,8320,432,-1696,41290,357,-223,4,1389808435.993549
3,58,0,55929,296,-90,-99,56203,8352,448,-816,54941,421,46,-10,1389808435.993833
2,59,0,42638,368,-154,-12,43124,8416,512,-1616,41290,357,-223,4,1389808436.395
3,59,0,57929,332,-117,-125,58080,8256,528,-896,57520,421,51,-13,1389808436.411
2,60,0,44628,342,-152,-63,45004,8336,800,-1424,43853,357,-220,7,1389808436.17926
3,60,0,59928,367,-144,-124,59958,8192,592,-1072,60099,426,46,-5,1389808436.17941
2,61,0,46618,319,-151,-111,46885,8240,976,-1360,46414,358,-218,4,1389808436.24275
3,61,0,61928,395,-154,-139,61835,8048,640,-1264,60099,426,46,-5,1389808436.24544
2,62,0,48607,331,-153,-120,48765,8192,896,-1504,48975,364,-221,5,1389808436.36121
3,62,0,63927,427,-147,-133,63713,8000,672,-1520,62678,422,44,1,1389808436.36130
2,63,0,50597,362,-161,-120,50645,8208,864,-1712,48975,364,-221,5,1389808436.47928
3,63,0,64927,436,-143,-116,54,8016,800,-1792,65256,419,45,-5,1389808436.47937
2,64,0,52587,387,-159,-126,52526,8192,784,-1984,51535,357,-228,11,1389808436.53502
3,64,0,1391,429,-121,-83,1931,7968,736,-2128,65256,419,45,-5,1389808436.53745
2,65,0,54576,384,-154,-135,54406,8208,864,-2272,54095,357,-224,10,1389808436.65864
3,65,0,3390,419,-93,-42,3809,8032,672,-2384,2299,424,41,-1,1389808436.65879
2,66,0,56566,352,-155,-123,56287,8256,848,-2528,54095,357,-224,10,1389808436.78022
3,66,0,5390,377,-64,7,5685,8144,688,-2544,4878,422,40,3,1389808436.78031
2,67,0,57561,326,-155,-123,58167,8272,992,-2608,56657,361,-226,7,1389808436.84245
3,67,0,7389,323,-49,54,7562,8224,576,-2624,7458,424,43,-1,1389808436.84562
2,68,0,59551,275,-160,-108,60047,8288,1008,-2608,59218,356,-230,5,1389808436.96887
3,68,0,9389,267,-28,90,9439,8416,432,-2592,7458,424,43,-1,1389808436.96896
2,69,0,61540,234,-153,-83,61927,8512,880,-2288,61779,357,-224,8,1389808436.108630
3,69,0,11388,196,-12,121,11316,8688,304,-2448,10037,423,44,-4,1389808436.108640
2,70,0,63530,180,-168,-69,63808,8736,880,-2016,61779,357,-224,8,1389808436.108808
3,70,0,13388,146,-21,140,13193,8832,192,-2224,12616,422,43,4,1389808436.108970
2,71,0,65520,128,-181,-66,151,8864,1040,-1824,64340,362,-227,11,1389808436.126405
3,71,0,14387,110,-25,144,15070,9104,192,-1792,15195,418,48,6,1389808436.126414
2,72,0,1973,147,-197,-55,2031,9024,832,-1600,1365,355,-231,10,1389808436.138466
3,72,0,16387,86,-49,157,16948,9408,368,-1456,15195,418,48,6,1389808436.138475
2,73,0,3963,174,-202,-22,3910,9216,688,-1616,3926,358,-227,13,1389808436.138720
3,73,0,18386,92,-90,136,18826,9760,640,-1232,17773,419,47,0,1389808436.138965
2,74,0,5952,212,-185,8,5790,9664,560,-1776,3926,358,-227,13,1389808436.156443
3,74,0,20386,123,-129,122,20704,10096,768,-1248,20353,420,46,7,1389808436.156452
2,75,0,7942,236,-174,33,7670,10176,288,-2144,6488,358,-227,15,1389808436.168441
3,75,0,22385,154,-159,105,22582,10464,896,-1552,20353,420,46,7,1389808436.168458
2,76,0,8937,226,-166,39,9550,10576,144,-2592,9049,356,-230,13,1389808436.168820
3,76,0,24385,209,-181,85,24458,10560,944,-2032,22931,418,50,5,1389808436.169064
2,77,0,10927,174,-147,24,11430,10752,112,-2880,11611,354,-227,14,1389808436.186868
3,77,0,26385,237,-153,78,26335,10368,880,-2688,25511,421,49,1,1389808436.186893
2,78,0,12916,109,-128,-47,13309,10656,336,-2928,11611,354,-227,14,1389808436.198908
3,78,0,28384,220,-98,80,28211,10064,1104,-3200,28091,421,49,7,1389808436.198916
2,79,0,14906,7,-129,-126,15189,10192,880,-2608,14172,358,-226,19,1389808436.199186
3,79,0,29384,191,-66,108,30088,9744,1264,-3424,28091,421,49,7,1389808436.199192
2,80,0,16896,-104,-142,-186,17069,9536,1456,-2176,16733,359,-232,15,1389808436.217180
3,80,0,31383,102,-10,160,31965,9520,1472,-3296,30669,418,51,10,1389808436.217189
2,81,0,18885,-174,-129,-156,18949,9056,1824,-1664,16733,359,-232,15,1389808436.228844
3,81,0,33383,-22,3,223,33842,9440,1472,-3040,33248,420,56,8,1389808436.228862
2,82,0,20875,-219,-118,-63,20829,8992,1696,-1232,19295,353,-228,20,1389808436.229095
3,82,0,35382,-113,-5,274,35719,9504,1312,-2656,35827,421,55,11,1389808436.229111
2,83,0,22865,-252,-104,-2,22708,9088,1504,-1056,21856,355,-228,19,1389808436.247097
3,83,0,37382,-136,-42,283,37596,9472,1312,-2544,35827,421,55,11,1389808436.247149
2,84,0,23859,-265,-112,23,24589,9280,1344,-976,24416,357,-230,20,1389808436.259349
3,84,0,39381,-129,-75,249,39472,9440,1424,-2592,38407,418,57,10,1389808436.259358
2,85,0,25849,-272,-122,55,26469,9248,1344,-864,24416,357,-230,20,1389808436.259626
3,85,0,41381,-135,-80,223,41350,9072,1600,-2752,40986,415,65,8,1389808436.259632
2,86,0,27839,-301,-151,44,28349,9056,1248,-848,26978,356,-228,24,1389808436.277617
3,86,0,43380,-177,-84,231,43226,8544,1664,-2752,40986,415,65,8,1389808436.277626
2,87,0,29828,-352,-194,10,30228,8464,1312,-608,29539,356,-224,30,1389808436.289821
3,87,0,44380,-213,-85,234,45104,8000,1552,-2480,43565,421,61,10,1389808436.289836
2,88,0,31818,-378,-212,-47,32109,7808,1424,-208,32100,357,-227,29,1389808436.290160
3,88,0,46380,-288,-95,240,46981,7456,1296,-2000,46144,416,66,12,1389808436.290170
2,89,0,33808,-349,-199,-103,33989,6992,1600,240,32100,357,-227,29,1389808436.308308
3,89,0,48379,-322,-133,227,48858,7120,1024,-1344,48723,413,69,5,1389808436.308317
2,90,0,35797,-228,-161,-147,35869,6192,1744,704,34661,355,-226,31,1389808436.308532
3,90,0,50379,-303,-185,185,50735,6832,1008,-672,48723,413,69,5,1389808436.314814
2,91,0,37787,-39,-125,-160,37749,5520,1680,1152,37221,352,-226,36,1389808436.326819
3,91,0,52378,-215,-226,100,52612,6576,1008,-32,51303,415,69,9,1389808436.326828
2,92,0,39777,157,-134,-139,39629,5168,1552,1392,39782,355,-229,31,1389808436.338976
3,92,0,54378,-117,-266,3,54490,6384,1648,432,53882,413,68,12,1389808436.338985
2,93,0,40772,239,-151,-103,41508,5360,1472,1296,39782,355,-229,31,1389808436.339251
3,93,0,56377,51,-296,-73,56367,6160,2496,528,56461,414,70,13,1389808436.339257
2,94,0,42761,344,-207,-6,43388,5888,1328,1040,42344,351,-230,34,1389808436.356972
3,94,0,58377,255,-298,-111,58243,6000,3104,-16,56461,414,70,13,1389808436.356981
2,95,0,44751,324,-244,68,45267,6640,1376,544,44906,352,-226,35,1389808436.368955
3,95,0,59377,345,-291,-128,60121,6064,3472,-816,59040,413,69,19,1389808436.368964
2,96,0,46741,222,-225,101,47147,7424,1408,320,44906,352,-226,35,1389808436.369232
3,96,0,61376,475,-261,-154,61998,6400,3712,-1648,61619,414,63,25,1389808436.369239
2,97,0,48730,146,-142,83,49026,7904,1488,464,47467,355,-226,35,1389808436.387242
3,97,0,63376,516,-219,-140,63875,6800,3888,-2400,61619,414,63,25,1389808436.387257
2,98,0,50720,120,-79,72,50905,8224,1440,992,50029,351,-229,36,1389808436.399439
3,98,0,65375,513,-144,-79,216,7296,3968,-3216,64198,411,61,26,1389808436.399454
2,99,0,52710,92,-80,64,52786,8448,1440,1360,52590,352,-225,39,1389808436.399780
3,99,0,1839,474,-41,12,2093,7936,4064,-3760,1242,415,66,24,1389808436.399790
2,100,0,54699,110,-112,57,54666,8608,1408,1456,52590,352,-225,39,1389808436.417847
3,100,0,3838,356,75,105,3968,8448,3856,-3808,3821,413,64,29,1389808436.417856
2,101,0,56689,144,-114,17,56546,8880,1424,1248,55150,353,-225,40,1389808436.429947
3,101,0,5838,218,173,203,5845,8880,3552,-3456,3821,413,64,29,1389808436.429956
2,102,0,57684,169,-90,2,58426,9120,1344,832,57711,353,-227,36,1389808436.430222
3,102,0,7837,80,221,280,7722,9232,3200,-2832,6400,411,69,26,1389808436.430229
2,103,0,59673,234,-52,-12,60305,9280,1136,592,60271,350,-225,37,1389808436.447481
3,103,0,8837,32,223,298,9599,9392,2704,-2112,8980,412,72,21,1389808436.447496
2,104,0,61663,282,-27,-35,62185,9168,1088,320,60271,350,-225,37,1389808436.459250
3,104,0,10837,7,185,283,11477,9504,2480,-1648,11558,414,74,24,1389808436.459259
2,105,0,63653,263,-29,-78,64065,9008,1120,288,62830,355,-227,35,1389808436.459548
3,105,0,12836,67,168,234,13353,9360,2368,-1456,11558,414,74,24,1389808436.459555
2,106,0,106,228,-38,-116,409,8512,1184,176,65391,351,-230,32,1389808436.477387
3,106,0,14836,120,131,152,15230,9024,2304,-1424,14137,411,73,25,1389808436.477395
2,107,0,2096,182,-62,-130,2289,8240,1168,80,2416,351,-229,36,1389808436.489526
3,107,0,16835,125,65,80,17107,8544,2224,-1568,16716,412,77,16,1389808436.489542
2,108,0,4086,123,-69,-134,4168,7968,1008,80,2416,351,-229,36,1389808436.489881
3,108,0,18835,124,3,17,18983,8112,2256,-1664,16716,412,77,16,1389808436.489955
2,109,0,6075,106,-71,-124,6048,7744,784,-16,4977,354,-228,39,1389808436.507946
3,109,0,20834,95,-15,-24,20860,7744,2384,-1696,19295,413,74,22,1389808436.507956
2,110,0,7070,92,-70,-117,7928,7744,576,-304,7538,354,-234,37,1389808436.513930
3,110,0,22834,67,-14,-7,22736,7440,2352,-1664,21874,410,72,20,1389808436.514163
2,111,0,9060,67,-78,-127,9807,7648,480,-640,7538,354,-234,37,1389808436.525694
3,111,0,23833,52,-7,17,24613,7360,2288,-1568,24454,408,77,20,1389808436.525703
2,112,0,11050,28,-60,-142,11687,7520,560,-800,10099,349,-233,38,1389808436.537477
3,112,0,25833,30,18,40,26490,7296,2272,-1584,24454,408,77,20,1389808436.537486
2,113,0,13039,-9,-32,-164,13567,7376,576,-768,12660,352,-233,36,1389808436.549570
3,113,0,27832,13,47,48,28367,7216,2288,-1584,27032,412,74,22,1389808436.549579
2,114,0,15029,-52,-18,-170,15446,7168,640,-688,15221,352,-236,38,1389808436.549857
3,114,0,29832,-6,91,73,30244,7200,2288,-1792,29611,410,73,20,1389808436.549863
2,115,0,17019,-101,-12,-177,17326,6960,736,-688,15221,352,-236,38,1389808436.567857
3,115,0,31831,-26,154,88,32120,7200,2240,-2064,32191,407,76,16,1389808436.567867
2,116,0,19008,-149,-6,-160,19207,6896,848,-672,17782,346,-240,37,1389808436.579959
3,116,0,33831,-51,201,111,33997,7184,2448,-2368,32191,407,76,16,1389808436.579968
2,117,0,20998,-190,-10,-129,21087,6848,848,-432,20344,347,-235,41,1389808436.580235
3,117,0,35830,-104,255,148,35873,7152,2640,-2448,34770,411,78,12,1389808436.580241
2,118,0,22988,-237,-13,-76,22968,7008,864,-208,22904,353,-237,39,1389808436.598361
3,118,0,37830,-184,286,193,37749,7168,2576,-2320,37350,411,76,18,1389808436.598376
2,119,0,23982,-254,-14,-57,24847,7216,768,-80,22904,353,-237,39,1389808436.598682
3,119,0,38830,-225,293,212,39626,7280,2592,-2128,37350,411,76,18,1389808436.604659
2,120,0,25972,-278,-11,-22,26727,7472,784,-32,25465,347,-240,41,1389808436.616713
3,120,0,40829,-283,275,225,41503,7408,2512,-1888,39929,409,85,11,1389808436.616722
2,121,0,27962,-289,-6,-2,28606,7664,752,-160,28026,346,-233,42,1389808436.628933
3,121,0,42829,-318,247,233,43379,7600,2512,-1664,42508,408,88,9,1389808436.628942
2,122,0,29951,-289,-24,26,30487,7808,640,-96,28026,346,-233,42,1389808436.629211
3,122,0,44828,-341,216,223,45255,7808,2544,-1520,45088,411,85,6,1389808436.629218
2,123,0,31941,-292,-27,48,32367,7872,512,-144,30587,352,-236,43,1389808436.647108
3,123,0,46828,-351,183,209,47131,8096,2416,-1392,45088,411,85,6,1389808436.647123
2,124,0,33931,-295,-38,68,34246,7904,480,-176,33149,350,-233,41,1389808436.658764
3,124,0,48827,-358,157,178,49007,8192,2368,-1376,47668,406,91,-1,1389808436.658773
2,125,0,35920,-302,-35,80,36126,8016,400,-256,35710,349,-225,50,1389808436.659039
3,125,0,50827,-352,151,156,50883,8256,2320,-1408,50248,408,94,-2,1389808436.659046
2,126,0,37910,-269,-19,80,38006,8128,416,-256,35710,349,-225,50,1389808436.675714
3,126,0,52826,-338,147,125,52760,8272,2368,-1488,52828,407,95,-2,1389808436.675723
2,127,0,39900,-287,11,74,39886,8192,368,-384,38271,353,-228,47,1389808436.687926
3,127,0,53826,-335,156,107,54636,8208,2352,-1440,52828,407,95,-2,1389808436.687951
2,128,0,40895,-299,5,71,41766,8160,432,-448,40833,348,-230,41,1389808436.693488
3,128,0,55826,-345,168,105,56513,8256,2256,-1408,55407,409,89,-6,1389808436.693870
2,129,0,42884,-310,12,51,43646,8144,416,-304,43394,348,-224,49,1389808436.706025
3,129,0,57825,-347,159,102,58389,8176,2272,-1344,57984,406,102,-9,1389808436.706034
2,130,0,44874,-307,17,51,45525,8048,448,-304,43394,348,-224,49,1389808436.718112
3,130,0,59825,-314,164,90,60266,8128,2336,-1424,57984,406,102,-9,1389808436.718121
2,131,0,46864,-293,21,59,47405,7952,352,-384,45956,351,-224,55,1389808436.718371
3,131,0,61824,-309,186,73,62143,8176,2304,-1504,60563,409,94,-7,1389808436.730287
2,132,0,48853,-285,22,66,49286,7904,304,-368,48518,353,-227,47,1389808436.730577
3,132,0,63824,-324,205,64,64020,8096,2352,-1632,63142,407,96,-11,1389808436.730583
2,133,0,50843,-288,35,59,51165,7776,256,-480,51079,347,-222,53,1389808436.747940
3,133,0,287,-352,215,84,360,7840,2352,-1728,185,404,102,-20,1389808436.747949
2,134,0,52833,-293,54,50,53045,7680,224,-672,51079,347,-222,53,1389808436.754210
3,134,0,2287,-389,219,105,2238,7648,2336,-1680,185,404,102,-20,1389808436.754527
2,135,0,54822,-289,87,50,54925,7680,-64,-864,53640,354,-225,54,1389808436.766876
3,135,0,3287,-412,228,110,4114,7664,2320,-1680,2764,406,101,-21,1389808436.766885
2,136,0,55817,-302,96,46,56335,7696,-144,-960,56201,351,-224,48,1389808436.779049
3,136,0,5286,-458,226,138,5991,7760,2128,-1584,5344,403,103,-19,1389808436.779058
2,137,0,57807,-331,136,24,58215,7824,-240,-1136,56201,351,-224,48,1389808436.779341
3,137,0,7286,-506,224,151,7866,8016,1952,-1344,7922,404,105,-26,1389808436.779347
2,138,0,59796,-377,177,-3,60095,7968,-256,-1168,58762,348,-219,51,1389808436.797163
3,138,0,9285,-558,209,148,9743,8208,1776,-1104,7922,404,105,-26,1389808436.797172
2,139,0,61786,-400,212,-32,61974,8128,-192,-1008,61324,354,-219,50,1389808436.808893
3,139,0,11285,-578,177,142,11619,8368,1664,-880,10502,406,105,-33,1389808436.808902
2,140,0,63776,-414,234,-52,63855,8208,-16,-880,63885,350,-223,47,1389808436.809146
3,140,0,13284,-562,136,110,13496,8496,1536,-608,13081,409,105,-31,1389808436.809153
2,141,0,229,-427,234,-66,198,8384,272,-592,63885,350,-223,47,1389808436.826495
3,141,0,15284,-554,79,78,15373,8592,1376,-496,13081,409,105,-31,1389808436.826504
2,142,0,2219,-419,223,-68,2078,8432,464,-416,909,350,-221,44,1389808436.838614
3,142,0,17283,-472,40,20,17250,8688,1472,-480,15659,401,108,-35,1389808436.838623
2,143,0,4209,-370,195,-32,3958,8416,608,-240,3471,352,-219,45,1389808436.838822
3,143,0,18283,-431,28,-5,19127,8752,1696,-512,18238,405,112,-38,1389808436.838827
2,144,0,6198,-305,164,4,5836,8464,800,96,6031,352,-219,41,1389808436.855793
3,144,0,20282,-353,4,-37,21004,8768,2032,-448,20816,405,106,-37,1389808436.855807
2,145,0,7193,-266,136,31,7716,8576,1088,352,6031,352,-219,41,1389808436.867884
3,145,0,22282,-232,-7,-63,22880,8896,2144,-624,20816,405,106,-37,1389808436.867893
2,146,0,9183,-155,96,81,9596,8704,800,416,8592,351,-217,42,1389808436.873636
3,146,0,24281,-99,-4,-142,24757,8928,2464,-928,23395,400,106,-38,1389808436.873831
2,147,0,11173,-3,69,169,11476,8864,368,96,11153,350,-215,43,1389808436.885629
3,147,0,26281,-59,-12,-140,26633,8960,2560,-1248,25974,400,110,-42,1389808436.885644
2,148,0,13162,131,56,218,13356,9056,-192,-480,13714,354,-215,42,1389808436.897330
3,148,0,28281,-101,-41,-104,28510,8800,2560,-1520,28553,402,106,-39,1389808436.897345
2,149,0,15152,188,71,178,15236,9232,-560,-1248,13714,354,-215,42,1389808436.908806
3,149,0,30280,-126,-60,-61,30387,8752,2448,-1680,28553,402,106,-39,1389808436.908815
2,150,0,17142,163,161,81,17116,9392,-768,-2128,16274,352,-212,38,1389808436.909082
3,150,0,32280,-193,-47,-21,32264,8880,2208,-1696,31131,402,103,-37,1389808436.909089
2,151,0,19131,75,284,-40,18997,9776,-208,-2848,18835,353,-210,41,1389808436.927262
3,151,0,33279,-243,-40,-2,34141,9664,1904,-1696,33710,405,109,-43,1389808436.927271
2,152,0,21121,-67,409,-142,20878,10464,848,-3248,18835,353,-210,41,1389808436.938892
3,152,0,35279,-235,-51,10,36018,10912,1296,-1904,33710,405,109,-43,1389808436.938901
2,153,0,23111,-162,504,-137,22759,11392,1024,-2992,21396,354,-218,35,1389808436.939185
3,153,0,37278,-111,-93,-54,37895,12384,816,-2128,36289,405,105,-37,1389808436.939192
2,154,0,24105,-175,548,-105,24640,12128,704,-2160,23958,354,-216,28,1389808436.956974
3,154,0,39278,-4,-154,-180,39772,13344,1280,-2240,38868,407,105,-35,1389808436.956984
2,155,0,26095,-221,580,-80,26520,12512,1120,-800,26519,353,-217,25,1389808436.969149
3,155,0,41277,25,-231,-303,41649,12800,2688,-2320,41446,407,104,-38,1389808436.969158
2,156,0,28085,-286,488,-149,28399,12480,1808,704,26519,353,-217,25,1389808436.969403
3,156,0,43277,30,-288,-334,43526,11392,3504,-3008,41446,407,104,-38,1389808436.969425
2,157,0,30074,-277,287,-222,30279,11648,2288,1664,29079,358,-217,22,1389808436.987101
3,157,0,45276,82,-331,-349,45404,9632,4416,-3792,44026,405,99,-36,1389808436.987111
2,158,0,32064,-233,63,-273,32159,10304,2720,1584,31639,356,-222,21,1389808436.999190
3,158,0,47276,196,-316,-319,47280,8032,4736,-4736,46604,405,95,-27,1389808436.999269
2,159,0,34054,-153,-33,-231,34038,8880,2672,1328,34201,353,-216,23,1389808436.999626
3,159,0,48276,205,-294,-301,49157,6576,4432,-5312,49183,409,97,-31,1389808436.999643
2,160,0,36043,-133,20,-130,35919,7680,2288,848,34201,353,-216,23,1389808437.17375
3,160,0,50275,10,-224,-221,51034,5232,4224,-5184,49183,409,97,-31,1389808437.17384
2,161,0,38033,-116,110,-111,37799,6512,1840,464,36762,357,-217,24,1389808437.29595
3,161,0,52275,-267,-119,-27,52912,4576,3936,-4816,51761,409,93,-28,1389808437.29610
2,162,0,39028,-148,117,-103,39679,6288,1728,304,39323,358,-222,20,1389808437.29977
3,162,0,54274,-364,5,130,54789,4576,3392,-4544,54339,402,95,-25,1389808437.29988
2,163,0,41018,-237,25,-66,41559,6704,2064,288,41885,355,-222,22,1389808437.47548
3,163,0,56274,-397,115,207,56666,5408,3056,-4160,54339,402,95,-25,1389808437.47563
2,164,0,43007,-341,-110,-14,43439,7408,2384,320,41885,355,-222,22,1389808437.59806
3,164,0,58273,-381,133,200,58543,6896,3008,-3600,56918,402,99,-31,1389808437.59815
2,165,0,44997,-397,-163,38,45319,8048,2464,96,44446,356,-217,25,1389808437.60029
3,165,0,60273,-380,85,135,60420,8176,2784,-2976,59497,405,103,-35,1389808437.60035
2,166,0,46987,-443,-123,41,47200,8368,2432,-192,47008,355,-219,23,1389808437.77377
3,166,0,62272,-357,-25,96,62297,8608,2512,-2672,62076,405,102,-31,1389808437.77385
2,167,0,48976,-404,-61,60,49080,8384,2256,-384,47008,355,-219,23,1389808437.89418
3,167,0,63272,-325,-78,78,64173,8608,2448,-2704,62076,405,102,-31,1389808437.89427
2,168,0,50966,-371,-53,83,50960,8240,2256,-304,49568,354,-217,28,1389808437.89663
3,168,0,65272,-235,-151,30,514,8352,2496,-3184,64655,401,104,-32,1389808437.89669
2,169,0,52956,-360,-84,121,52839,8256,2176,-208,52128,354,-213,32,1389808437.107823
3,169,0,1735,-222,-150,-1,2390,8080,2496,-3456,1698,401,105,-35,1389808437.107848
2,170,0,54945,-360,-110,167,54719,8320,1952,-80,54690,357,-217,30,1389808437.118834
3,170,0,3735,-249,-147,4,4267,7856,2544,-3200,1698,401,105,-35,1389808437.118842
2,171,0,55940,-361,-115,169,56598,8496,1968,48,54690,357,-217,30,1389808437.119091
3,171,0,5734,-292,-167,-1,6144,7856,2400,-2864,4276,401,102,-30,1389808437.119096
2,172,0,57930,-349,-115,164,58478,8688,1872,208,57251,352,-213,36,1389808437.136487
3,172,0,7734,-293,-203,-17,8020,8032,2224,-2576,6856,401,103,-30,1389808437.136496
2,173,0,59919,-290,-134,137,60358,8640,1824,288,59813,355,-208,35,1389808437.147934
3,173,0,9733,-251,-222,-45,9897,8048,2256,-2416,9435,408,104,-32,1389808437.147943
2,174,0,61909,-237,-171,99,62239,8304,1728,352,62373,356,-207,38,1389808437.154124
3,174,0,11733,-194,-210,-70,11774,7888,2256,-2400,9435,408,104,-32,1389808437.154373
2,175,0,63899,-207,-197,47,64119,7840,1568,96,62373,356,-207,38,1389808437.166524
3,175,0,12733,-166,-193,-74,13650,7536,2336,-2336,12014,408,103,-26,1389808437.166533
2,176,0,352,-190,-204,4,464,7440,1632,-96,64934,353,-214,39,1389808437.178106
3,176,0,14732,-131,-152,-77,15527,7216,2304,-2144,14594,400,101,-26,1389808437.178115
2,177,0,2342,-179,-190,-6,2344,7088,1680,-208,1959,356,-205,45,1389808437.178319
3,177,0,16732,-92,-105,-66,17404,6944,2128,-1936,17171,400,104,-30,1389808437.189798
2,178,0,4332,-160,-190,10,4224,6816,1712,-240,1959,356,-205,45,1389808437.190070
3,178,0,18731,-70,-81,-40,19280,6688,2176,-1760,17171,400,104,-30,1389808437.190076
2,179,0,6321,-128,-180,55,6105,6704,1696,-192,4519,359,-205,43,1389808437.207628
3,179,0,20731,-27,-78,-25,21157,6672,1984,-1680,19750,405,103,-30,1389808437.207637
2,180,0,7316,-108,-180,81,7986,6944,1680,-208,7079,354,-205,44,1389808437.219461
3,180,0,22730,10,-92,-36,23034,6864,1936,-1760,22328,405,102,-20,1389808437.219476
2,181,0,9306,-70,-183,119,9866,7360,1568,-320,9641,354,-200,48,1389808437.219936
3,181,0,24730,46,-77,-40,24441,7168,1808,-1856,24907,400,101,-27,1389808437.219951
2,182,0,11296,-27,-171,140,11746,7760,1440,-624,9641,354,-200,48,1389808437.238062
3,182,0,26729,68,-74,-39,26787,7664,1648,-2000,24907,400,101,-27,1389808437.238071
2,183,0,13285,-2,-153,121,13626,8064,1296,-880,12202,358,-203,50,1389808437.244275
3,183,0,27729,74,-72,-46,28663,7952,1488,-1984,27486,406,103,-23,1389808437.244516
2,184,0,15275,12,-129,63,15506,8176,1168,-1056,14764,354,-202,47,1389808437.256633
3,184,0,29728,75,-86,-53,30540,7968,1456,-1920,30065,405,100,-19,1389808437.256642
2,185,0,17265,17,-125,33,17386,8048,1024,-1040,17326,350,-202,53,1389808437.268823
3,185,0,31728,75,-101,-65,32416,7712,1648,-1856,30065,405,100,-19,1389808437.268832
2,186,0,19254,5,-142,-22,19266,7824,1152,-784,17326,350,-202,53,1389808437.269079
3,186,0,33727,83,-107,-74,34292,7440,1696,-1696,32645,400,103,-23,1389808437.269086
2,187,0,21244,-16,-163,-49,21146,7456,1296,-480,19887,357,-204,56,1389808437.287004
3,187,0,35727,68,-109,-61,36169,7264,1680,-1600,35223,404,103,-23,1389808437.287013
2,188,0,22239,-24,-180,-61,23026,7152,1456,-304,22448,354,-204,52,1389808437.299057
3,188,0,37726,78,-106,-41,38045,7136,1744,-1600,37801,405,99,-15,1389808437.299065
2,189,0,24228,-16,-196,-52,24906,6928,1456,-224,25008,351,-203,56,1389808437.299328
3,189,0,39726,129,-98,-46,39920,7040,1792,-1680,37801,405,99,-15,1389808437.299334
2,190,0,26218,6,-206,-17,26786,6912,1584,-256,25008,351,-203,56,1389808437.317353
3,190,0,41726,168,-71,-42,41797,7040,1760,-1760,40380,401,99,-24,1389808437.317362
2,191,0,28208,54,-194,17,28667,7056,1552,-416,27569,356,-201,59,1389808437.329048
3,191,0,42725,177,-51,-35,43674,7008,1600,-1776,42960,402,102,-21,1389808437.329057
2,192,0,30197,83,-196,29,30547,7280,1680,-448,30129,345,-204,58,1389808437.329338
3,192,0,44725,203,-30,-30,45082,7120,1568,-1728,45539,406,96,-15,1389808437.329356
2,193,0,32187,108,-200,39,32428,7424,1664,-640,30129,345,-204,58,1389808437.347395
3,193,0,46724,224,-22,-15,47430,7248,1568,-1664,45539,406,96,-15,1389808437.347404
2,194,0,34177,161,-211,50,34309,7456,1632,-688,32691,345,-203,56,1389808437.359432
3,194,0,48724,237,-29,-1,49306,7312,1568,-1696,48118,401,100,-12,1389808437.359441
2,195,0,36166,194,-205,63,36189,7408,1456,-688,35253,352,-201,63,1389808437.359708
3,195,0,50723,261,-43,6,51183,7440,1536,-1632,50698,405,103,-19,1389808437.359714
2,196,0,38156,229,-208,81,38069,7440,1296,-592,37814,352,-201,62,1389808437.377119
3,196,0,52723,277,-57,6,52591,7520,1488,-1504,50698,405,103,-19,1389808437.377128
2,197,0,39151,243,-199,76,39949,7472,1200,-528,37814,352,-201,62,1389808437.388901
3,197,0,54722,267,-76,5,54469,7696,1440,-1408,53277,406,101,-12,1389808437.388910
2,198,0,41141,273,-184,70,41830,7712,1280,-400,40376,351,-200,64,1389808437.389140
3,198,0,56722,290,-103,8,56346,7808,1392,-1264,55856,403,98,-10,1389808437.389146
2,199,0,43130,295,-186,61,43710,7888,1344,-400,42937,350,-201,63,1389808437.406994
3,199,0,57722,311,-108,-3,58223,7904,1328,-1216,58435,401,99,-11,1389808437.407003
2,200,0,45120,332,-177,36,45590,7968,1376,-368,45498,353,-201,65,1389808437.419000
3,200,0,59721,357,-122,-40,60101,7968,1152,-1296,58435,401,99,-11,1389808437.419008
2,201,0,47110,361,-176,19,47471,8016,1408,-512,45498,353,-201,65,1389808437.419276
3,201,0,61721,392,-138,-52,61977,8016,1168,-1184,61014,404,96,-7,1389808437.419281
2,202,0,49099,425,-169,-3,49351,8016,1456,-608,48059,349,-202,66,1389808437.436176
3,202,0,63720,426,-147,-71,63854,8096,1056,-1088,63592,402,98,-5,1389808437.436183
2,203,0,51089,497,-162,-19,51231,8048,1360,-688,50620,353,-200,67,1389808437.448040
3,203,0,184,444,-170,-86,195,8144,1056,-1024,634,398,100,-3,1389808437.448048
2,204,0,53079,569,-145,-18,53111,8048,1120,-832,53180,353,-205,63,1389808437.454359
3,204,0,2183,474,-199,-110,2073,8208,912,-1088,634,398,100,-3,1389808437.454662
2,205,0,55068,613,-118,-24,54991,7952,928,-1120,53180,353,-205,63,1389808437.466840
3,205,0,4183,514,-204,-159,3951,8192,960,-1328,3213,403,96,3,1389808437.466871
2,206,0,56063,636,-113,-30,56871,7888,896,-1408,55741,348,-204,65,1389808437.479058
3,206,0,6182,522,-199,-181,5829,8176,1056,-1680,5792,405,90,9,1389808437.479068
2,207,0,58053,625,-86,-56,58752,7904,704,-1872,58301,350,-203,66,1389808437.479353
3,207,0,7182,516,-181,-178,7707,8224,1360,-2000,5792,405,90,9,1389808437.479372
2,208,0,60042,552,-51,-59,60631,7952,656,-2208,58301,350,-203,66,1389808437.497220
3,208,0,9182,460,-143,-158,9584,8208,1616,-2208,8371,403,90,6,1389808437.497229
2,209,0,62032,399,-11,-65,62511,8064,656,-2624,60863,350,-207,61,1389808437.508966
3,209,0,11181,399,-97,-113,11461,8176,1872,-2592,10949,403,92,8,1389808437.508975
2,210,0,64022,206,17,-92,64392,8304,768,-2928,63424,347,-208,61,1389808437.509238
3,210,0,13181,352,-26,-57,13338,8144,2256,-3280,13529,405,89,10,1389808437.509244
2,211,0,475,30,22,-96,735,8816,704,-2752,449,350,-206,62,1389808437.527105
3,211,0,15180,280,54,4,15215,8064,2432,-4000,13529,405,89,10,1389808437.527115
2,212,0,2465,-178,-12,-63,2615,9280,1072,-1696,449,350,-206,62,1389808437.539310
3,212,0,17180,85,134,116,17092,8224,1872,-3984,16107,403,85,8,1389808437.539319
2,213,0,4455,-325,-60,-67,4495,9568,1600,-528,3009,354,-207,62,1389808437.539584
3,213,0,19179,-177,147,240,18968,8896,1232,-2896,18686,404,93,8,1389808437.539591
2,214,0,5450,-331,-76,-67,6375,9600,1568,272,5571,347,-209,62,1389808437.557610
3,214,0,21179,-290,62,261,20845,9616,944,-1280,21264,405,92,9,1389808437.557625
2,215,0,7439,-192,-95,-33,8254,9584,784,496,8132,344,-209,68,1389808437.569533
3,215,0,22178,-287,-25,224,22723,10320,512,48,21264,405,92,9,1389808437.569542
2,216,0,9429,46,-113,26,10135,9584,272,-32,8132,344,-209,68,1389808437.569824
3,216,0,24178,-200,-241,83,24599,10784,32,672,23844,401,94,14,1389808437.569830
2,217,0,11419,222,-112,26,12015,9712,-272,-1056,10693,351,-212,63,1389808437.587198
3,217,0,26178,-69,-463,-62,26476,10736,-48,688,26423,401,97,11,1389808437.587208
2,218,0,13408,354,-72,-92,13894,9856,-704,-2320,13253,350,-214,65,1389808437.599349
3,218,0,28177,61,-634,-217,28354,10288,656,288,26423,401,97,11,1389808437.599363
2,219,0,15398,318,25,-253,15774,10400,-752,-3344,13253,350,-214,65,1389808437.599687
3,219,0,30177,165,-705,-312,30231,10192,1776,-96,29002,402,92,21,1389808437.599698
2,220,0,17388,165,139,-372,17654,11024,-688,-4016,15816,349,-212,67,1389808437.617816
3,220,0,32176,209,-670,-343,32108,10560,2464,-448,31580,399,86,25,1389808437.617825
2,221,0,19377,-151,262,-414,19534,11536,-64,-4128,18377,349,-214,63,1389808437.629831
3,221,0,34176,213,-593,-298,33984,10944,2560,-1072,34158,400,87,30,1389808437.629840
2,222,0,21367,-532,407,-471,21414,11728,1184,-3296,20938,347,-220,59,1389808437.630108
3,222,0,36175,230,-560,-256,35862,10880,2960,-1968,34158,400,87,30,1389808437.630114
3,223,0,37175,260,-541,-241,37739,10608,3344,-3232,36737,401,80,34,1389808437.647464
2,224,0,24351,-955,514,-557,25176,10368,3712,1616,23499,342,-221,62,1389808437.658648
3,224,0,39174,261,-469,-231,39616,10288,3504,-4368,39316,399,78,46,1389808437.658656
2,225,0,26341,-1016,459,-546,26586,9424,3872,3840,26059,347,-223,56,1389808437.658896
3,225,0,41174,169,-328,-226,41494,9696,3648,-5040,39316,399,78,46,1389808437.658901
2,226,0,28331,-778,282,-416,28467,8144,3808,6096,28620,344,-226,54,1389808437.676139
3,226,0,43173,6,-144,-146,43370,8624,4160,-4576,41895,397,81,46,1389808437.676148
2,227,0,30320,-399,76,-261,30347,7056,3856,6752,28620,344,-226,54,1389808437.688348
3,227,0,45173,-143,39,12,45247,7440,4656,-3664,44475,400,82,46,1389808437.688357
2,228,0,32310,-46,-151,-163,32228,6416,3888,5536,31181,342,-233,59,1389808437.688564
3,228,0,47172,-169,133,133,47124,6400,4912,-2640,47053,401,82,45,1389808437.688734
2,229,0,34300,228,-280,-46,34108,6368,3712,3680,33742,343,-223,59,1389808437.706826
3,229,0,49172,-110,157,156,49001,6096,5040,-1808,47053,401,82,45,1389808437.706835
2,230,0,36289,422,-288,133,35989,6848,3040,2096,36303,346,-225,56,1389808437.718816
3,230,0,51172,18,120,164,50878,6576,4704,-1360,49631,397,85,38,1389808437.718825
2,231,0,38279,535,-198,270,37869,7888,2160,1072,36303,346,-225,56,1389808437.719087
3,231,0,52171,104,89,159,52755,7808,4032,-1568,52208,402,85,39,1389808437.719094
2,232,0,39274,551,-146,288,39749,9072,1728,288,38864,342,-226,60,1389808437.736984
3,232,0,54171,279,54,107,54631,8992,3312,-2000,54787,400,84,44,1389808437.736993
2,233,0,41264,503,-53,249,41629,10112,1632,-80,41425,345,-221,61,1389808437.748369
3,233,0,56170,356,43,47,56508,9648,3088,-2464,54787,400,84,44,1389808437.748417
2,234,0,43253,408,-9,130,43510,10560,1392,-144,41425,345,-221,61,1389808437.748660
3,234,0,58170,351,92,22,58384,9616,3216,-2688,57365,398,80,39,1389808437.748905
2,235,0,45243,296,-13,-20,45389,10192,1296,-80,43985,342,-224,58,1389808437.766904
3,235,0,60169,306,185,47,60261,9360,3024,-3216,59942,400,88,39,1389808437.766919
3,236,0,62169,164,240,72,62137,8704,3120,-2992,59942,400,88,39,1389808437.779132
2,237,0,49222,100,-36,-191,49151,8336,1376,-112,49108,343,-223,56,1389808437.779404
3,237,0,64168,98,269,139,64014,8112,3024,-2784,62522,402,87,38,1389808437.779410
2,238,0,51212,3,26,-240,51030,7584,1328,-112,49108,343,-223,56,1389808437.796867
3,238,0,632,3,265,116,355,7776,2736,-2464,65101,399,87,39,1389808437.796876
2,239,0,53202,-50,82,-225,52911,7184,1312,80,51669,345,-228,55,1389808437.808302
3,239,0,1632,-59,271,125,2231,7648,2672,-2032,2144,398,91,34,1389808437.808310
2,240,0,54196,-57,94,-204,54791,7088,1024,192,54229,344,-226,54,1389808437.808491
3,240,0,3631,-149,252,156,4108,7536,2592,-1552,2144,398,91,34,1389808437.814676
2,241,0,56186,-36,67,-127,56671,7312,736,272,56789,342,-229,56,1389808437.826786
3,241,0,5631,-187,198,163,5985,7568,2512,-1248,4723,402,88,30,1389808437.826795
2,242,0,58176,-3,13,-73,58551,7488,352,96,56789,342,-229,56,1389808437.838897
3,242,0,7630,-155,160,130,7862,7536,2512,-1088,7303,400,93,29,1389808437.838904
2,243,0,60165,-3,-27,-91,60430,7472,96,-128,59350,344,-229,53,1389808437.839183
3,243,0,9630,-142,152,76,9739,7392,2528,-1104,9882,398,96,25,1389808437.839199
2,244,0,62155,-19,-21,-128,62310,7376,64,-432,61911,343,-230,54,1389808437.857291
3,244,0,11629,-154,147,53,11615,7152,2576,-1024,9882,398,96,25,1389808437.857300
2,245,0,64145,-50,22,-192,64190,7264,-32,-752,64472,341,-231,55,1389808437.868826
3,245,0,13629,-199,141,52,13492,6880,2464,-976,12461,400,91,25,1389808437.868836
2,246,0,598,-121,61,-221,535,7120,304,-912,64472,341,-231,55,1389808437.869119
3,246,0,15628,-230,137,57,15369,6768,2304,-976,15040,399,93,25,1389808437.869126
2,247,0,2588,-169,96,-249,2415,6976,432,-912,1497,343,-232,56,1389808437.886784
3,247,0,16628,-238,148,63,17247,6912,2096,-1104,15040,399,93,25,1389808437.886793
2,248,0,4578,-223,123,-234,4296,6784,448,-784,4059,343,-233,52,1389808437.898501
3,248,0,18628,-237,172,74,19124,7184,2176,-1296,17620,397,97,21,1389808437.898510
2,249,0,5573,-240,135,-215,6176,6704,384,-560,4059,343,-233,52,1389808437.898780
3,249,0,20627,-233,202,65,21001,7328,2272,-1472,20199,403,96,17,1389808437.899025
2,250,0,7562,-265,143,-179,8057,6768,480,-256,6620,339,-234,55,1389808437.916690
3,250,0,22627,-259,241,66,22877,7408,2304,-1680,22778,400,99,16,1389808437.916699
2,251,0,9552,-266,140,-126,9936,6832,560,-160,9180,342,-233,52,1389808437.928771
3,251,0,24626,-275,261,68,24754,7376,2464,-1808,22778,400,99,16,1389808437.928780
2,252,0,11542,-250,139,-96,11816,6864,560,-384,11741,342,-238,47,1389808437.929044
3,252,0,26626,-331,263,71,26630,7312,2320,-1728,25358,397,98,15,1389808437.929050
2,253,0,13531,-223,138,-68,13696,6976,640,-608,11741,342,-238,47,1389808437.946312
3,253,0,28625,-375,248,92,28507,7296,2208,-1568,27935,399,100,11,1389808437.946321
2,254,0,15521,-201,134,-42,15576,7136,544,-816,14303,337,-233,52,1389808437.958035
3,254,0,30625,-411,225,104,30383,7408,2016,-1328,30514,398,100,8,1389808437.958043
2,255,0,17511,-217,159,-3,17456,7280,496,-784,16865,345,-234,53,1389808437.964216
3,255,0,31624,-423,210,108,32260,7536,1808,-1056,30514,398,100,8,1389808437.964470
2,0,0,19500,-228,168,29,19337,7296,320,-576,19427,345,-238,49,1389808437.976809
3,0,0,33624,-436,179,89,34136,7776,1856,-912,33093,398,106,4,1389808437.976818
2,1,0,21490,-241,162,32,21217,7424,304,-368,19427,345,-238,49,1389808437.988964
3,1,0,35623,-429,149,56,36014,7904,2096,-1024,35671,398,106,-3,1389808437.988973
2,2,0,22485,-244,157,31,23097,7440,192,-256,21989,337,-235,49,1389808437.989239
3,2,0,37623,-394,124,-6,37891,7888,2192,-1328,35671,398,106,-3,1389808437.989244
2,3,0,24474,-264,148,32,24977,7456,272,-416,24550,347,-232,51,1389808438.7297
3,3,0,39623,-393,125,-30,39768,7744,2352,-1552,38249,398,105,2,1389808438.7306
2,4,0,26464,-279,159,1,26858,7520,384,-544,27111,347,-234,48,1389808438.19466
3,4,0,41622,-429,149,-27,41645,7680,2624,-1616,40829,398,103,-4,1389808438.19476
2,5,0,28454,-301,196,-20,28738,7600,464,-640,27111,347,-234,48,1389808438.19876
3,5,0,43622,-477,172,2,43522,7584,2672,-1552,43409,397,111,-10,1389808438.19885
2,6,0,30443,-297,242,-23,30618,7616,448,-656,29672,343,-232,47,1389808438.37450
3,6,0,45621,-492,189,34,45399,7584,2608,-1504,43409,397,111,-10,1389808438.37459
2,7,0,32433,-281,283,-32,32499,7616,384,-832,32233,343,-229,45,1389808438.48877
3,7,0,46621,-491,194,43,47275,7696,2560,-1424,45988,402,106,-8,1389808438.48886
2,8,0,34423,-277,319,-18,34380,7696,384,-816,32233,343,-229,45,1389808438.49081
3,8,0,48620,-468,222,45,49152,7872,2352,-1616,48567,399,108,-9,1389808438.49086
2,9,0,36412,-287,336,3,36260,7616,240,-832,34794,346,-233,44,1389808438.66609
3,9,0,50620,-467,231,35,51029,7984,2304,-1776,51144,396,108,-19,1389808438.66624
2,10,0,37407,-300,343,14,38141,7536,-48,-720,37356,341,-231,40,1389808438.78879
3,10,0,52619,-459,236,15,52906,7984,2400,-1968,51144,396,108,-19,1389808438.78888
2,11,0,39397,-353,356,13,40022,7424,-288,-720,39918,340,-227,39,1389808438.79193
3,11,0,54619,-514,247,-17,54783,7792,2368,-2048,53724,401,109,-18,1389808438.79200
2,12,0,41387,-394,355,-2,41902,7376,-368,-768,39918,340,-227,39,1389808438.96850
3,12,0,56618,-617,261,-18,56660,7552,2272,-1824,56302,398,108,-19,1389808438.96860
2,13,0,43376,-400,357,-31,43783,7536,-656,-624,42478,347,-231,36,1389808438.108878
3,13,0,58618,-702,245,-9,58538,7408,2016,-1440,56302,398,108,-19,1389808438.108887
2,14,0,45366,-396,357,-38,45663,7856,-704,-528,45040,347,-227,35,1389808438.109240
3,14,0,60617,-776,191,-18,60414,7440,1648,-640,58881,398,111,-29,1389808438.109250
2,15,0,47356,-408,327,-42,47543,8256,-240,-272,47602,346,-225,35,1389808438.126681
3,15,0,61617,-808,161,-16,62292,7712,1520,96,61460,400,112,-32,1389808438.126696
2,16,0,49345,-431,266,-62,49424,8560,464,-128,47602,346,-225,35,1389808438.139029
3,16,0,63617,-779,77,-29,64169,8240,1808,576,64038,399,111,-33,1389808438.139038
2,17,0,51335,-410,214,-26,51304,8752,976,-48,50163,349,-231,28,1389808438.139302
3,17,0,80,-574,-22,-97,510,8832,1824,672,64038,399,111,-33,1389808438.139308
2,18,0,53325,-342,142,8,53184,8816,1344,256,52724,344,-230,30,1389808438.157297
3,18,0,2080,-287,-105,-235,2387,9296,2240,320,1081,396,109,-35,1389808438.157306
2,19,0,54319,-286,118,37,55064,8944,1360,912,52724,344,-230,30,1389808438.169039
3,19,0,4079,36,-95,-353,4264,9408,2736,-432,3660,404,108,-38,1389808438.169048
2,20,0,56309,-150,79,108,56944,8896,1200,1424,55284,344,-223,31,1389808438.169351
3,20,0,6079,246,-3,-385,6141,9104,3168,-1536,6239,404,102,-35,1389808438.169358
2,21,0,58299,67,28,187,58825,8944,832,1232,57845,350,-222,30,1389808438.187310
3,21,0,8078,280,85,-342,8019,8640,3248,-2400,6239,404,102,-35,1389808438.187325
2,22,0,60288,311,-35,261,60705,8960,-64,224,60407,347,-224,27,1389808438.198852
3,22,0,10078,119,134,-225,9896,8288,2784,-2720,8818,401,104,-30,1389808438.198879
2,23,0,62278,497,-48,289,62584,9168,-1120,-1280,60407,347,-224,27,1389808438.199106
3,23,0,11078,9,157,-149,11774,8464,1920,-2496,11397,402,104,-40,1389808438.199113
2,24,0,64268,530,21,223,64465,9632,-1792,-2976,62968,348,-221,29,1389808438.215887
3,24,0,13077,-183,195,-51,13651,9232,1216,-1824,11397,402,104,-40,1389808438.215901
2,25,0,721,368,179,48,809,10432,-1488,-4512,65529,351,-224,28,1389808438.227496
3,25,0,15077,-314,194,-22,15528,10448,624,-1232,13976,403,101,-37,1389808438.227505
2,26,0,2711,119,365,-158,2689,11408,-416,-5408,2554,349,-223,18,1389808438.239507
3,26,0,17076,-291,127,-72,17405,12000,368,-880,16554,401,103,-39,1389808438.239516
2,27,0,4701,-48,516,-263,4570,12208,-160,-5296,2554,349,-223,18,1389808438.239808
3,27,0,19076,-33,55,-225,19282,13536,144,-1072,19133,399,99,-42,1389808438.239815
2,28,0,5696,-65,577,-257,6450,12592,-288,-3968,5115,346,-224,18,1389808438.257629
3,28,0,21075,233,-44,-445,21160,13904,1120,-1712,19133,399,99,-42,1389808438.257682
2,29,0,7685,-172,635,-267,8330,12784,512,-1424,7677,351,-225,12,1389808438.269169
3,29,0,23075,285,-173,-562,23036,12640,3040,-2144,21712,406,91,-39,1389808438.269178
2,30,0,9675,-339,521,-361,10210,12416,1376,960,10239,349,-232,11,1389808438.269478
3,30,0,25074,148,-298,-472,24914,10368,3904,-2688,24291,405,89,-34,1389808438.269485
2,31,0,11664,-397,263,-468,12090,11280,2336,2272,10239,349,-232,11,1389808438.287260
3,31,0,26074,95,-335,-396,26790,8432,4000,-3328,26869,404,91,-34,1389808438.287275
2,32,0,13654,-360,6,-468,13970,9712,2816,2128,12800,349,-234,14,1389808438.298226
3,32,0,28074,140,-347,-302,28668,7248,3888,-4048,26869,404,91,-34,1389808438.298235
2,33,0,15644,-170,-89,-323,15850,8320,2256,1072,15362,348,-232,14,1389808438.298438
3,33,0,30073,152,-273,-252,30544,6784,3488,-4688,29448,409,87,-25,1389808438.304450
2,34,0,17633,17,8,-129,17730,7328,1216,-160,15362,348,-232,14,1389808438.316333
3,34,0,32073,-54,-140,-121,32421,6704,3328,-4816,32026,408,84,-25,1389808438.316342
2,35,0,19623,-16,167,-67,19611,7040,512,-1040,17923,350,-236,9,1389808438.328557
3,35,0,34072,-322,-25,30,34298,6624,3232,-4192,32026,408,84,-25,1389808438.328566
2,36,0,20618,-109,208,-73,21490,7216,368,-1232,20485,345,-235,7,1389808438.328820
3,36,0,36072,-478,-6,137,36176,6320,3232,-3536,34605,407,86,-32,1389808438.329019
2,37,0,22608,-337,117,-117,23371,7392,736,-976,23046,347,-236,9,1389808438.346648
3,37,0,38071,-386,13,173,38053,5888,2832,-3536,37184,408,88,-34,1389808438.346656
2,38,0,24597,-479,-92,-153,25251,7200,1264,-688,23046,347,-236,9,1389808438.358534
2,39,0,26587,-523,-223,-160,27131,7072,1568,-832,25607,352,-235,12,1389808438.358696
3,39,0,41070,-365,5,119,41808,5968,2560,-4176,39762,408,91,-29,1389808438.358831
2,40,0,28577,-549,-196,-159,29011,7088,2112,-960,28168,346,-238,16,1389808438.376470
3,40,0,43070,-384,-7,66,43685,6768,2400,-3920,42339,405,93,-35,1389808438.376478
2,41,0,30566,-589,-92,-133,30890,7328,2432,-896,30729,343,-238,15,1389808438.388758
3,41,0,45069,-446,-24,46,45562,7520,2480,-3440,44917,408,92,-37,1389808438.388773
2,42,0,32556,-602,-10,-37,32770,7824,2512,-512,30729,343,-238,15,1389808438.389097
3,42,0,47069,-436,-52,46,47439,8160,2304,-3184,47496,406,90,-35,1389808438.389110
2,43,0,34546,-548,-23,78,34650,8176,2496,-128,33292,344,-237,19,1389808438.406928
3,43,0,49069,-429,-95,37,49316,8416,2160,-3088,47496,406,90,-35,1389808438.406938
2,44,0,36535,-472,-101,171,36529,8720,2336,208,35853,344,-235,20,1389808438.418589
3,44,0,51068,-436,-124,28,51193,8448,2112,-3040,50075,405,93,-31,1389808438.418598
2,45,0,37530,-415,-135,216,38409,9168,1936,416,35853,344,-235,20,1389808438.418846
3,45,0,53068,-452,-156,16,53070,8496,2224,-2960,52654,407,95,-38,1389808438.419047
2,46,0,39520,-329,-200,259,40290,9536,1616,256,38414,348,-230,25,1389808438.436668
3,46,0,55067,-439,-198,3,54947,8480,2160,-2720,52654,407,95,-38,1389808438.436677
2,47,0,41509,-276,-236,254,42170,9696,1312,-112,40974,348,-227,28,1389808438.448790
3,47,0,56067,-423,-219,-7,56823,8512,2192,-2720,55233,407,93,-33,1389808438.448798
2,48,0,43499,-246,-237,199,44051,9712,1056,-400,43535,350,-229,30,1389808438.449042
3,48,0,58066,-352,-253,-41,58700,8512,2032,-2864,57812,406,96,-34,1389808438.449048
2,49,0,45489,-241,-216,94,45930,9312,1056,-688,43535,350,-229,30,1389808438.466421
3,49,0,60066,-307,-247,-60,60576,8400,1808,-2928,60393,406,94,-37,1389808438.466429
2,50,0,47478,-241,-197,-23,47811,8704,1104,-768,46095,345,-226,30,1389808438.478489
3,50,0,62065,-286,-202,-79,62452,8336,1696,-2800,60393,406,94,-37,1389808438.478498
2,51,0,49468,-226,-196,-64,49691,8016,1040,-720,48657,347,-225,35,1389808438.478781
3,51,0,64065,-288,-147,-94,64329,8224,1584,-2400,62972,404,93,-32,1389808438.479021
2,52,0,51458,-200,-208,-53,51572,7488,1040,-784,51217,346,-229,34,1389808438.496781
3,52,0,528,-296,-127,-89,669,7984,1616,-2048,16,404,93,-29,1389808438.496791
2,53,0,53447,-215,-221,-15,53452,7088,1088,-928,51217,346,-229,34,1389808438.508074
3,53,0,2528,-276,-138,-99,2546,7600,1408,-1728,2594,407,94,-34,1389808438.508578
2,54,0,54442,-191,-221,11,55332,6864,784,-1024,53778,345,-224,41,1389808438.508826
3,54,0,4527,-264,-161,-116,4423,7360,1152,-1616,2594,407,94,-34,1389808438.509049
2,55,0,56432,-173,-216,66,57212,6960,512,-1200,56339,349,-225,39,1389808438.527042
3,55,0,5527,-253,-173,-127,6299,7376,1120,-1440,5175,407,92,-25,1389808438.527051
2,56,0,58422,-183,-185,79,59093,7264,400,-1296,58901,347,-226,42,1389808438.539225
3,56,0,7527,-214,-188,-161,8176,7472,1072,-1328,7754,404,89,-28,1389808438.539234
2,57,0,60411,-197,-139,50,60503,7584,368,-1392,58901,347,-226,42,1389808438.539502
3,57,0,9526,-182,-207,-191,10053,7664,1024,-1136,7754,404,89,-28,1389808438.539508
2,58,0,62401,-203,-101,8,62384,7856,384,-1344,61463,346,-221,46,1389808438.557812
3,58,0,11526,-163,-225,-206,11929,7776,1104,-1056,10333,404,89,-28,1389808438.557827
2,59,0,64391,-199,-90,-39,64264,8000,352,-1216,64024,346,-223,44,1389808438.564033
3,59,0,13525,-129,-261,-212,13806,7808,992,-880,12911,408,89,-26,1389808438.564285
2,60,0,844,-192,-87,-86,608,8000,464,-1136,1049,347,-226,47,1389808438.575752
3,60,0,15525,-82,-296,-228,15683,7744,880,-816,15489,408,87,-21,1389808438.575761
2,61,0,2834,-177,-110,-132,2488,7728,576,-944,1049,347,-226,47,1389808438.587967
3,61,0,17524,-16,-318,-249,17560,7568,800,-896,15489,408,87,-21,1389808438.587982
2,62,0,3829,-170,-131,-143,4368,7296,896,-768,3610,345,-223,48,1389808438.594209
3,62,0,19524,13,-330,-262,19438,7392,896,-1024,18068,410,85,-20,1389808438.594464
2,63,0,5818,-127,-151,-145,6249,6880,1088,-592,6171,347,-224,52,1389808438.606534
3,63,0,20524,18,-326,-265,21314,7200,976,-1008,20646,410,81,-21,1389808438.606544
2,64,0,7808,-64,-159,-113,8129,6592,1264,-352,6171,347,-224,52,1389808438.618833
3,64,0,22523,52,-278,-248,23191,6960,1104,-1008,23225,404,80,-14,1389808438.618848
2,65,0,9798,15,-172,-64,10010,6608,1248,-256,8731,349,-229,51,1389808438.619168
3,65,0,24523,98,-250,-219,25067,6832,1136,-1248,23225,404,80,-14,1389808438.619177
2,66,0,11787,82,-180,-31,11890,6704,1152,-336,11293,344,-226,55,1389808438.636644
3,66,0,26522,140,-215,-203,26943,6864,1152,-1440,25804,404,78,-14,1389808438.636654
2,67,0,13777,138,-191,-5,13771,6976,1136,-496,13854,344,-227,54,1389808438.648114
3,67,0,28522,174,-174,-170,28819,6912,1120,-1648,28382,411,81,-11,1389808438.648123
2,68,0,15767,174,-190,0,15651,7152,1168,-720,13854,344,-227,54,1389808438.648373
3,68,0,30521,173,-137,-127,30695,7040,1008,-1584,28382,411,81,-11,1389808438.654607
2,69,0,17756,207,-185,-4,17531,7200,1152,-864,16416,345,-231,57,1389808438.666122
3,69,0,32521,186,-99,-98,32572,7024,960,-1600,30962,411,74,-3,1389808438.666131
2,70,0,19746,219,-188,5,19411,7152,1168,-992,18979,342,-225,55,1389808438.678050
3,70,0,34520,193,-73,-52,34448,7040,832,-1520,33540,406,76,-7,1389808438.678059
2,71,0,20741,237,-201,6,21291,7152,1008,-1120,21540,342,-225,59,1389808438.678302
3,71,0,35520,208,-63,-37,36324,7168,720,-1504,36120,406,75,-7,1389808438.690405
2,72,0,22731,266,-225,25,23171,7136,896,-1248,21540,342,-225,59,1389808438.690673
3,72,0,37520,212,-53,-22,38201,7184,576,-1504,36120,406,75,-7,1389808438.690679
2,73,0,24720,288,-236,35,25051,7216,912,-1312,24101,345,-233,58,1389808438.708248
3,73,0,39519,207,-52,-13,40077,7360,640,-1424,38698,409,78,-3,1389808438.708257
2,74,0,26710,284,-239,28,26931,7312,864,-1280,26663,340,-228,63,1389808438.708495
3,74,0,41519,203,-74,-3,41953,7568,624,-1408,41277,409,76,-5,1389808438.713945
2,75,0,28700,276,-225,14,28811,7520,736,-1248,26663,340,-228,63,1389808438.725419
3,75,0,43518,200,-88,9,43830,7712,480,-1248,43855,414,76,-5,1389808438.725428
2,76,0,30689,297,-207,17,30692,7808,624,-1232,29224,340,-226,65,1389808438.737390
3,76,0,45518,216,-108,15,45707,7904,336,-1200,43855,414,76,-5,1389808438.737399
2,77,0,32679,295,-193,6,32572,8000,512,-1200,31786,344,-227,59,1389808438.749465
3,77,0,47517,226,-130,-3,47585,8096,192,-1104,46434,414,76,0,1389808438.749475
2,78,0,34669,297,-185,-33,34453,8064,608,-1248,34347,342,-231,64,1389808438.749778
3,78,0,49517,224,-157,-14,49462,8256,-16,-896,49012,405,77,3,1389808438.749824
2,79,0,36658,340,-173,-52,36333,8064,512,-1200,34347,342,-231,64,1389808438.767351
3,79,0,51516,233,-187,-41,51340,8416,-208,-816,49012,405,77,3,1389808438.767366
2,80,0,37653,350,-162,-67,38213,8064,400,-1232,36908,341,-230,63,1389808438.779550
3,80,0,52516,248,-194,-66,53218,8560,-96,-688,51591,405,77,4,1389808438.779559
2,81,0,39643,383,-156,-83,40093,8096,80,-1440,39468,342,-230,64,1389808438.779837
3,81,0,54515,256,-206,-121,55096,8640,224,-848,54170,411,73,5,1389808438.779843
2,82,0,41632,401,-138,-93,41974,8192,-160,-1872,42028,343,-233,61,1389808438.797271
3,82,0,56515,261,-178,-152,56973,8512,832,-1088,56749,411,71,9,1389808438.797280
2,83,0,43622,371,-135,-109,43854,8448,-304,-2384,42028,343,-233,61,1389808438.809193
3,83,0,58515,240,-137,-114,58850,8336,1568,-1504,56749,411,71,9,1389808438.809202
2,84,0,45612,233,-130,-124,45734,8752,-176,-2816,44589,339,-236,67,1389808438.809468
3,84,0,60514,242,-64,-46,60728,8096,1872,-2176,59328,411,73,7,1389808438.809474
2,85,0,47601,14,-113,-161,47615,8992,128,-2848,47150,341,-234,66,1389808438.826526
3,85,0,62514,225,0,28,62605,7952,1664,-2720,61908,411,72,11,1389808438.826535
2,86,0,49591,-160,-90,-191,49495,8896,384,-2240,49712,341,-236,63,1389808438.838691
3,86,0,64513,138,81,100,64482,8032,1200,-3120,64487,406,71,9,1389808438.838700
2,87,0,51581,-278,-79,-193,51375,8816,704,-1136,49712,341,-236,63,1389808438.838965
3,87,0,977,5,131,180,823,8448,608,-2720,64487,406,71,9,1389808438.838971
2,88,0,52576,-273,-80,-177,53255,8656,528,-304,52274,338,-236,73,1389808438.856958
3,88,0,1976,-61,148,200,2701,9184,-176,-1840,1529,406,72,8,1389808438.856967
2,89,0,54565,-124,-100,-119,55136,8624,192,32,54834,337,-238,74,1389808438.869032
3,89,0,3976,-151,125,185,4578,9920,-816,-992,4108,409,77,7,1389808438.869042
2,90,0,56555,25,-130,-95,57016,8848,144,-224,54834,337,-238,74,1389808438.869288
3,90,0,5975,-137,8,88,6455,10448,-928,-192,4108,409,77,7,1389808438.869294
2,91,0,58545,204,-139,-100,58896,9200,-192,-1152,57396,340,-238,69,1389808438.886765
3,91,0,7975,-92,-138,-66,8331,10928,-480,448,6687,408,76,10,1389808438.886775
2,92,0,60534,342,-137,-108,60776,9776,-752,-2208,59957,335,-239,69,1389808438.898336
3,92,0,9974,-33,-288,-214,10208,11344,720,704,9266,407,73,9,1389808438.898345
2,93,0,62524,317,-95,-124,62656,10880,-1024,-2832,62519,337,-241,68,1389808438.898592
3,93,0,11974,130,-427,-332,12085,12080,2208,480,11844,411,73,15,1389808438.898834
2,94,0,64514,128,-21,-149,64536,12432,-1328,-3024,62519,337,-241,68,1389808438.916715
3,94,0,13973,291,-516,-398,13962,12416,2240,-80,11844,411,73,15,1389808438.916724
2,95,0,967,-148,46,-140,879,13312,-768,-3184,65080,337,-244,67,1389808438.928797
3,95,0,15973,282,-540,-382,15839,11536,2720,-1216,14423,409,69,21,1389808438.928806
2,96,0,2957,-470,67,-224,2759,12976,848,-2624,2105,338,-241,67,1389808438.929071
3,96,0,16973,305,-522,-279,17715,10368,2560,-3008,17002,408,63,27,1389808438.929077
2,97,0,3952,-550,68,-267,4639,10896,1520,-976,4667,338,-243,72,1389808438.947030
3,97,0,18972,281,-428,-156,19592,9440,1920,-4768,19582,409,67,30,1389808438.947045
2,98,0,5941,-500,159,-269,6520,9056,1840,1040,4667,338,-243,72,1389808438.958965
3,98,0,20972,150,-265,-75,21468,8656,1760,-5072,19582,409,67,30,1389808438.958974
2,99,0,7931,-397,182,-200,8400,7952,2496,2448,7228,338,-243,69,1389808438.959238
3,99,0,22971,-71,-50,72,23345,8336,1456,-3904,22160,412,66,30,1389808438.959244
2,100,0,9921,-201,141,-118,10281,7440,2480,3584,9789,338,-246,66,1389808438.977210
3,100,0,24971,-246,110,188,25222,8208,1328,-2272,24739,409,68,31,1389808438.977219
2,101,0,11910,35,9,-34,12162,6976,2720,3696,12351,334,-243,69,1389808438.989041
3,101,0,26970,-276,153,173,27098,8112,2144,-976,24739,409,68,31,1389808438.989056
2,102,0,13900,238,-168,10,14042,6592,2656,3104,12351,334,-243,69,1389808438.989383
3,102,0,28970,-181,98,109,28975,7872,2784,-384,27317,407,70,27,1389808438.989393
2,103,0,15890,333,-256,38,15922,6400,2160,2224,14912,340,-246,69,1389808439.7226
3,103,0,30969,2,-16,-13,30852,7552,3360,-592,29897,413,72,26,1389808439.7275
2,104,0,17879,297,-186,50,17802,6736,1488,1616,17473,336,-245,69,1389808439.19357
3,104,0,31969,111,-55,-66,32730,7648,3696,-1376,32477,410,69,30,1389808439.19366
2,105,0,19869,228,-75,43,19683,7888,960,1424,17473,336,-245,69,1389808439.19579
3,105,0,33969,293,-77,-149,34606,7936,3472,-2272,32477,410,69,30,1389808439.19586
2,106,0,20864,208,-33,3,21564,9248,736,1024,20035,332,-247,71,1389808439.37076
3,106,0,35968,314,-56,-112,36484,8192,3136,-2704,35056,407,69,25,1389808439.37085
2,107,0,22854,156,-1,-48,23444,10176,864,704,22596,336,-246,71,1389808439.49081
3,107,0,37968,231,0,-23,38361,8496,2976,-2512,37635,411,66,30,1389808439.49095
2,108,0,24843,118,12,-101,25324,10432,992,688,25159,335,-249,69,1389808439.49417
3,108,0,39967,105,53,52,40238,8768,3152,-2112,40213,408,69,31,1389808439.49428
2,109,0,26833,96,-3,-133,27205,10080,1120,976,25159,335,-249,69,1389808439.67598
3,109,0,41967,57,86,134,42114,8912,3152,-1968,40213,408,69,31,1389808439.67613
2,110,0,28823,92,-23,-157,29086,9296,1152,1120,27720,335,-249,69,1389808439.79079
3,110,0,43966,117,95,172,43991,9008,3040,-1968,42793,403,70,29,1389808439.79089
2,111,0,30812,117,-25,-164,30966,8608,1088,1200,30280,335,-251,67,1389808439.79360
3,111,0,45966,167,113,174,45868,9040,2784,-1936,45371,409,71,25,1389808439.79366
2,112,0,32802,189,17,-157,32846,8208,1008,1088,32841,337,-253,66,1389808439.97151
3,112,0,46966,181,124,167,47744,8976,2576,-1840,45371,409,71,25,1389808439.97166
2,113,0,34792,277,78,-150,34726,8080,816,944,32841,337,-253,66,1389808439.108915
3,113,0,48965,178,143,173,49621,8624,2496,-1792,47950,409,73,29,1389808439.108923
2,114,0,35786,292,92,-146,36606,7888,704,800,35402,331,-253,64,1389808439.109136
3,114,0,50965,191,132,138,51498,8224,2384,-1616,50528,405,73,26,1389808439.109141
2,115,0,37776,347,105,-154,38486,7488,624,640,37964,335,-255,67,1389808439.125927
3,115,0,52964,199,127,106,53375,7920,2160,-1456,53107,408,76,24,1389808439.125936
2,116,0,39766,355,70,-141,40367,7104,416,480,37964,335,-255,67,1389808439.137931
3,116,0,54964,205,105,71,55252,7680,2000,-1248,53107,408,76,24,1389808439.137940
2,117,0,41755,375,46,-122,42248,6800,304,320,40525,340,-2,63,1389808439.144189
3,117,0,56963,212,112,35,57130,7424,1920,-1088,55686,408,75,30,1389808439.144419
2,118,0,43745,385,29,-97,44128,6768,112,112,43087,333,-258,61,1389808439.156440
3,118,0,58963,178,125,1,59007,7344,1872,-800,58266,405,76,27,1389808439.156450
2,119,0,45735,389,23,-82,46007,6800,96,-96,45648,333,-260,58,1389808439.168236
3,119,0,60962,159,125,-11,60884,7184,1968,-640,60845,407,75,25,1389808439.168246
2,120,0,47724,377,33,-69,47888,6944,0,-288,45648,333,-260,58,1389808439.168443
3,120,0,61962,168,114,-24,62761,7200,2144,-576,60845,407,75,25,1389808439.174464
2,121,0,49714,359,47,-56,49769,7072,-48,-368,48208,336,-260,54,1389808439.186392
3,121,0,63961,176,99,-42,64638,7264,2208,-576,63423,409,73,23,1389808439.186402
2,122,0,51704,330,83,-46,51649,7056,0,-192,50769,336,-258,57,1389808439.198453
3,122,0,425,201,112,-49,978,7344,2304,-736,466,405,73,26,1389808439.198462
2,123,0,52699,321,104,-38,53529,7168,0,-96,53331,333,-259,54,1389808439.198708
3,123,0,2425,235,131,-52,2855,7472,2400,-1008,466,405,73,26,1389808439.198879
2,124,0,54688,297,128,-14,55410,7296,48,128,53331,333,-259,54,1389808439.216063
3,124,0,4424,237,152,-72,4733,7504,2416,-1152,3045,406,74,24,1389808439.216078
2,125,0,56678,286,140,7,57290,7328,96,320,55893,336,-263,49,1389808439.228259
3,125,0,6424,227,146,-63,6610,7536,2320,-1248,5624,411,74,22,1389808439.228268
2,126,0,58668,293,136,23,59170,7328,112,496,58454,336,-262,50,1389808439.228461
3,126,0,8423,203,142,-48,8487,7488,2352,-1120,8203,409,71,25,1389808439.234072
2,127,0,60657,316,132,47,61050,7168,144,608,61014,334,-263,49,1389808439.246129
3,127,0,10423,209,137,-47,10364,7376,2448,-1024,8203,409,71,25,1389808439.246138
2,128,0,62647,355,116,50,62930,7120,240,688,61014,334,-263,49,1389808439.257680
3,128,0,11422,222,132,-57,12242,7312,2480,-944,10781,407,70,19,1389808439.257689
2,129,0,64637,385,98,66,64811,7056,320,576,63576,336,-261,44,1389808439.268802
3,129,0,13422,247,122,-85,14118,7184,2480,-1040,13360,410,70,22,1389808439.268850
2,130,0,1090,396,83,86,1156,7040,240,480,600,333,-262,42,1389808439.269105
3,130,0,15421,264,135,-91,15995,7312,2496,-1104,15938,414,66,23,1389808439.269110
2,131,0,3080,405,83,97,3037,7184,144,336,600,333,-262,42,1389808439.287040
3,131,0,17421,283,144,-102,17873,7424,2448,-1168,15938,414,66,23,1389808439.287049
2,132,0,4075,410,85,106,4917,7344,-16,176,3162,338,-258,42,1389808439.299111
3,132,0,19420,294,164,-127,19751,7552,2288,-1248,18517,409,69,20,1389808439.299120
2,133,0,6064,419,93,101,6797,7376,-96,32,5723,342,-261,41,1389808439.299384
3,133,0,21420,291,184,-133,21629,7664,2144,-1216,21096,411,67,18,1389808439.299390
2,134,0,8054,424,111,97,8677,7472,-256,-128,8285,337,-260,35,1389808439.317516
3,134,0,23419,285,192,-151,23505,7760,1936,-1168,21096,411,67,18,1389808439.317531
2,135,0,10044,426,132,88,10557,7424,-400,-416,8285,337,-260,35,1389808439.328504
3,135,0,25419,267,193,-175,25383,7824,1696,-976,23675,414,65,20,1389808439.328513
2,136,0,12033,427,167,75,12436,7328,-640,-704,10845,335,-259,34,1389808439.328746
3,136,0,26419,260,195,-187,27259,7824,1568,-832,26253,412,64,14,1389808439.328906
2,137,0,14023,423,197,56,14316,7200,-704,-1008,13407,341,-259,33,1389808439.346309
3,137,0,28418,225,190,-213,29136,7680,1552,-608,28830,415,61,17,1389808439.346318
2,138,0,16013,391,226,29,16195,7072,-816,-1184,15969,341,-263,25,1389808439.357649
3,138,0,30418,209,163,-245,31012,7520,1472,-432,28830,415,61,17,1389808439.357658
2,139,0,18002,341,251,10,18075,7072,-976,-1376,15969,341,-263,25,1389808439.369181
3,139,0,32417,172,132,-269,32890,7424,1440,-368,31408,416,57,17,1389808439.369191
2,140,0,18997,293,260,1,19955,7232,-1072,-1376,18531,336,-262,19,1389808439.369471
3,140,0,34417,130,100,-288,34767,7456,1360,-288,33986,413,55,14,1389808439.369478
2,141,0,20987,213,279,-18,21835,7504,-832,-1296,21093,339,-261,17,1389808439.386790
3,141,0,36416,73,47,-303,36642,7584,1488,-64,36565,416,53,14,1389808439.386799
2,142,0,22977,117,275,-50,23716,7792,-560,-976,23654,342,-263,14,1389808439.398377
3,142,0,38416,39,-8,-310,38519,7792,1648,128,36565,416,53,14,1389808439.398392
2,143,0,24966,57,260,-55,25127,7904,-368,-624,23654,342,-263,14,1389808439.398703
3,143,0,40415,55,-64,-318,40396,7968,1904,208,39143,418,48,13,1389808439.399019
2,144,0,26956,42,231,-29,27007,7936,-128,-240,26216,339,-263,15,1389808439.416972
3,144,0,41415,101,-73,-332,42273,8128,2048,-128,41721,416,48,14,1389808439.416981
2,145,0,28946,65,197,17,28887,7968,160,32,28776,342,-261,14,1389808439.429150
3,145,0,43415,213,-95,-342,44149,8256,2112,-672,41721,416,48,14,1389808439.429159
2,146,0,30935,100,170,56,30767,8048,320,400,28776,342,-261,14,1389808439.429427
3,146,0,45414,289,-79,-353,46026,8384,2016,-992,44299,415,46,14,1389808439.429433
2,147,0,32925,169,150,81,32647,8304,304,672,31337,345,-262,12,1389808439.446910
3,147,0,47414,314,-32,-331,47903,8592,1824,-1184,46877,421,42,17,1389808439.446920
2,148,0,34915,271,131,122,34527,8720,304,976,33897,341,-259,10,1389808439.458574
3,148,0,49413,353,41,-312,49779,8912,1728,-1120,49456,422,37,21,1389808439.458583
2,149,0,35909,336,116,127,36408,9104,-48,784,36458,347,-256,8,1389808439.458748
3,149,0,51413,370,124,-303,51655,9232,1680,-1008,49456,422,37,21,1389808439.458920
2,150,0,37899,506,73,140,38289,9392,-272,288,36458,347,-256,8,1389808439.476181
3,150,0,53412,403,176,-283,53532,9472,1600,-928,52035,417,37,17,1389808439.476190
2,151,0,39889,573,51,113,40168,9584,-288,-160,39018,347,-262,2,1389808439.487798
3,151,0,55412,450,185,-267,55409,9568,1280,-960,54614,421,34,15,1389808439.487813
2,152,0,41878,619,78,61,42048,9664,-384,-928,41578,341,-258,-1,1389808439.494149
3,152,0,56412,448,191,-269,57287,9504,1104,-800,57192,421,31,18,1389808439.494358
2,153,0,43868,613,126,10,43928,9616,-544,-1776,44140,343,-257,1,1389808439.506391
3,153,0,58411,402,203,-232,59165,9344,960,-720,57192,421,31,18,1389808439.506400
2,154,0,45858,586,181,-28,45807,9424,-736,-2256,44140,343,-257,1,1389808439.518443
3,154,0,60411,349,217,-170,61043,9360,928,-672,59770,419,26,10,1389808439.518491
2,155,0,47847,524,241,-38,47687,9200,-816,-2368,46702,347,-263,-9,1389808439.518754
3,155,0,62410,260,225,-94,62921,9536,832,-544,62349,423,29,13,1389808439.518957
2,156,0,49837,467,299,-36,49567,9168,-768,-2112,49262,340,-259,-9,1389808439.536448
3,156,0,64410,188,183,-68,64799,9920,976,-368,62349,423,29,13,1389808439.536458
2,157,0,51827,431,340,-39,51446,9568,-560,-1632,51822,342,-260,-14,1389808439.548822
3,157,0,873,163,113,-69,1140,10448,1200,-160,64928,421,25,14,1389808439.548831
2,158,0,52822,415,370,-54,53327,10368,-208,-1152,51822,342,-260,-14,1389808439.549107
3,158,0,2873,196,8,-79,3017,11072,1440,-112,1971,419,24,9,1389808439.549113
2,159,0,54811,413,394,-74,55207,11008,208,-944,54383,351,-262,-20,1389808439.567131
3,159,0,4872,319,-72,-95,4895,11712,1200,-192,4550,420,26,10,1389808439.567140
2,160,0,56801,431,410,-52,57088,11056,736,-656,56943,344,-261,-27,1389808439.579223
3,160,0,5872,374,-100,-129,6773,11712,1808,-80,4550,420,26,10,1389808439.579232
2,161,0,58791,448,419,-40,58968,10944,1248,80,56943,344,-261,-27,1389808439.579504
3,161,0,7871,506,-135,-215,8180,11264,2304,-336,7127,423,19,15,1389808439.579512
2,162,0,60780,524,367,1,60849,10688,1424,1056,59503,342,-262,-33,1389808439.596843
3,162,0,9871,665,-162,-277,10059,10208,2720,-976,9706,422,20,15,1389808439.596853
2,163,0,62770,644,263,46,62729,10320,1088,1760,62064,348,-264,-37,1389808439.608880
3,163,0,11871,765,-171,-298,11937,8880,3264,-1536,12284,423,12,17,1389808439.608889
2,164,0,64760,720,125,106,64610,10016,944,2032,64624,343,-260,-40,1389808439.609092
3,164,0,13870,788,-159,-229,13815,7904,3472,-2224,12284,423,12,17,1389808439.609097
2,165,0,1213,774,-39,104,953,9376,880,1984,64624,343,-260,-40,1389808439.626454
3,165,0,15870,791,-116,-178,15694,7024,3408,-2896,14864,424,13,24,1389808439.626463
2,166,0,2208,796,-107,84,2834,8352,800,1392,1649,343,-259,-42,1389808439.638221
3,166,0,17869,744,-27,-126,17571,6272,3584,-3440,17443,424,9,25,1389808439.638229
2,167,0,4198,783,-192,20,4715,7216,816,416,4211,348,-261,-44,1389808439.638454
3,167,0,19869,675,93,-15,19449,5648,3952,-3744,17443,424,9,25,1389808439.644156
2,168,0,6187,748,-196,-70,6595,6368,1056,-272,6771,348,-260,-45,1389808439.655785
3,168,0,20868,653,170,27,21327,5200,4064,-3952,20023,420,11,21,1389808439.655800
2,169,0,8177,665,-136,-114,8475,6064,1424,-608,6771,348,-260,-45,1389808439.667910
3,169,0,22868,638,290,110,23204,5424,3856,-3648,22602,429,9,19,1389808439.667926
2,170,0,10167,561,-65,-103,10356,6400,1712,-336,9333,344,-261,-46,1389808439.673964
3,170,0,24867,620,351,149,25080,6112,3296,-3072,25180,423,8,23,1389808439.674133
2,171,0,12156,429,-23,-74,12237,7296,2224,208,11894,347,-260,-46,1389808439.686252
3,171,0,26867,593,292,159,26958,7216,2800,-2528,25180,423,8,23,1389808439.686267
2,172,0,14146,388,-20,-29,14117,8208,2304,800,11894,347,-260,-46,1389808439.698372
3,172,0,28866,639,172,130,28835,8304,2128,-2240,27759,420,10,18,1389808439.698381
2,173,0,16136,479,-61,54,15998,8784,2064,1088,14455,347,-264,-46,1389808439.698591
3,173,0,30866,726,70,45,30712,9440,1664,-2416,30337,423,13,17,1389808439.698824
2,174,0,18125,622,-122,115,17878,9328,1856,880,17016,342,-260,-50,1389808439.716327
3,174,0,32865,782,4,-54,32590,9968,1456,-2608,32916,425,8,21,1389808439.716342
2,175,0,19120,687,-141,122,19758,9536,1680,240,19577,344,-260,-49,1389808439.728240
3,175,0,34865,793,-28,-147,34467,10112,1392,-2720,32916,425,8,21,1389808439.728249
2,176,0,21110,830,-161,106,21637,9584,1696,-352,19577,344,-260,-49,1389808439.728497
3,176,0,35865,804,-28,-188,36344,9888,1504,-2368,35495,421,10,20,1389808439.733986
2,177,0,23100,891,-112,62,23518,9648,1456,-848,22138,346,-261,-53,1389808439.745365
3,177,0,37864,818,-29,-234,38221,9584,1424,-1872,38073,426,4,18,1389808439.745373
2,178,0,25089,912,-78,23,25398,9616,1168,-928,24700,346,-258,-53,1389808439.757578
3,178,0,39864,845,-49,-259,40099,9296,1536,-1520,38073,426,4,18,1389808439.757587
2,179,0,27079,915,-40,-38,27279,9424,944,-608,27261,345,-259,-59,1389808439.769629
3,179,0,41863,887,-71,-283,41977,9152,1440,-1264,40651,426,1,23,1389808439.769680
2,180,0,29069,920,-13,-94,29158,9008,816,-144,27261,345,-259,-59,1389808439.769950
3,180,0,43863,889,-95,-308,43855,8912,1424,-992,43229,423,250,27,1389808439.769956
2,181,0,31058,919,12,-153,31039,8464,816,48,29822,350,-259,-59,1389808439.787594
3,181,0,45862,919,-112,-328,45732,8608,1600,-832,45808,427,-4,26,1389808439.787604
2,182,0,33048,929,9,-171,32920,7968,800,80,32383,347,-264,-60,1389808439.799797
3,182,0,47862,942,-101,-332,47610,8288,1872,-720,45808,427,-4,26,1389808439.799812
2,183,0,35038,933,-1,-175,34800,7568,848,128,34945,345,-261,-66,1389808439.800138
3,183,0,49861,1019,-84,-343,49488,8000,2096,-736,48388,430,-14,31,1389808439.800149
2,184,0,36032,952,-9,-184,36680,7248,912,256,34945,345,-261,-66,1389808439.818173
3,184,0,50861,1060,-70,-354,51364,7552,2368,-880,50967,426,-18,30,1389808439.818182
2,185,0,38022,999,-23,-164,38559,7248,944,288,37506,347,-263,-68,1389808439.818373
3,185,0,52861,1129,-58,-355,53241,7296,2576,-1008,53546,425,-22,31,1389808439.824280
2,186,0,40012,1070,-36,-147,40439,7360,1056,48,40068,344,-264,-71,1389808439.836289
3,186,0,54860,1187,-33,-356,55118,7248,2512,-1232,53546,425,-22,31,1389808439.836298
2,187,0,42001,1139,-40,-126,42319,7392,1056,-96,40068,344,-264,-71,1389808439.847940
3,187,0,56860,1211,6,-338,56996,7168,2352,-1376,56125,427,-26,32,1389808439.847950
2,188,0,43991,1191,-14,-119,44200,7504,944,-224,42629,342,-261,-77,1389808439.854180
3,188,0,58859,1213,29,-313,58873,7232,2160,-1424,58703,426,-32,33,1389808439.854498
2,189,0,45981,1240,-3,-136,46080,7424,960,-96,45190,341,-264,-84,1389808439.866839
3,189,0,60859,1205,50,-294,60750,7472,1920,-1104,58703,426,-32,33,1389808439.866848
2,190,0,47970,1274,8,-128,47961,7456,1088,48,47752,341,-263,-85,1389808439.879018
3,190,0,62858,1216,39,-293,62627,7904,1696,-880,61283,425,-38,29,1389808439.879042
2,191,0,49960,1324,15,-107,49842,7456,1104,80,47752,341,-263,-85,1389808439.879340
3,191,0,64858,1260,14,-311,64504,8176,1696,-640,63861,429,-42,34,1389808439.879346
2,192,0,50955,1355,12,-91,51722,7536,1184,0,50313,344,-262,-91,1389808439.897025
3,192,0,322,1285,2,-327,845,8320,1696,-544,903,426,-46,36,1389808439.897034
2,193,0,52945,1412,12,-89,53603,7776,1248,-240,52874,344,-265,-95,1389808439.909165
3,193,0,2321,1363,-24,-383,2721,8352,1616,-592,903,426,-46,36,1389808439.909174
2,194,0,54934,1453,25,-82,55482,7904,1344,-512,55437,344,-265,-99,1389808439.909439
3,194,0,4321,1441,-34,-441,4599,8192,1728,-800,3482,426,-51,32,1389808439.909446
2,195,0,56924,1485,20,-68,57363,7936,1296,-640,55437,344,-265,-99,1389808439.927719
3,195,0,6320,1497,-28,-472,6476,8048,1952,-880,6059,430,-59,34,1389808439.927728
2,196,0,58914,1513,19,-74,59243,8064,1216,-640,57999,339,-262,-108,1389808439.939864
3,196,0,8320,1513,-10,-461,8352,7920,2064,-992,8639,430,-65,38,1389808439.939873
2,197,0,60903,1538,17,-79,61124,8112,1184,-528,60559,342,-261,-110,1389808439.940140
3,197,0,10319,1511,5,-426,10228,7936,2160,-992,8639,430,-65,38,1389808439.940146
2,198,0,62893,1559,23,-79,63004,8208,1200,-336,63121,346,-264,-119,1389808439.957725
3,198,0,12319,1516,1,-384,12105,7984,1952,-1024,11218,430,-68,35,1389808439.957734
2,199,0,64883,1611,24,-69,64885,8256,1008,-304,63121,346,-264,-119,1389808439.969797
3,199,0,14318,1522,-6,-358,13981,8192,1792,-960,13798,430,-74,33,1389808439.969806
2,200,0,1336,1670,19,-39,1229,8256,832,-208,145,341,-261,-124,1389808439.970075
3,200,0,15318,1537,-13,-356,15858,8416,1712,-816,13798,430,-74,33,1389808439.970081
2,201,0,2331,1691,10,-35,3110,8160,864,-352,2706,339,-259,-128,1389808439.988104
3,201,0,17317,1570,-16,-366,17734,8544,1696,-688,16376,429,-83,36,1389808439.988119
2,202,0,4321,1740,-8,-49,4990,8192,752,-592,2706,339,-259,-128,1389808439.988432
3,202,0,19317,1604,-25,-395,19611,8496,1872,-688,18954,429,-87,37,1389808439.994376
2,203,0,6310,1760,-9,-68,6870,8224,672,-1008,5267,346,-258,-138,1389808440.5978
3,203,0,21317,1638,-11,-397,21488,8304,2000,-720,21533,431,-91,31,1389808440.5987
2,204,0,8300,1774,-8,-95,8751,8144,496,-1232,7829,344,-253,-142,1389808440.18088
3,204,0,23316,1653,5,-386,23365,8096,2208,-880,21533,431,-91,31,1389808440.18097
2,205,0,10290,1761,-4,-104,10631,8128,560,-1408,10390,344,-252,-147,1389808440.18342
3,205,0,25316,1671,10,-368,25242,7872,2000,-976,24113,431,-98,37,1389808440.24014
2,206,0,12279,1725,15,-118,12512,8096,608,-1472,10390,344,-252,-147,1389808440.36254
3,206,0,27315,1646,0,-360,27120,7968,2032,-928,26691,428,-104,33,1389808440.36270
2,207,0,14269,1665,30,-105,14392,7984,704,-1152,12952,343,-250,-155,1389808440.47594
3,207,0,29315,1619,-8,-311,28998,7920,2016,-800,29269,428,-106,31,1389808440.47602
2,208,0,16259,1631,28,-104,16272,7856,736,-720,15513,342,-250,-159,1389808440.59119
3,208,0,30314,1603,-8,-289,30874,7952,2144,-864,29269,428,-106,31,1389808440.59128
2,209,0,18248,1627,1,-102,18152,7680,816,-464,18074,340,-248,-164,1389808440.59396
3,209,0,32314,1603,-19,-246,32751,7808,2144,-992,31847,428,-113,34,1389808440.59402
2,210,0,19243,1650,-24,-87,20032,7536,640,-480,18074,340,-248,-164,1389808440.77289
3,210,0,34313,1601,-12,-238,34628,7680,1872,-1104,34425,428,-119,29,1389808440.77298
2,211,0,21233,1739,-59,-57,21913,7456,384,-752,20637,345,-245,-171,1389808440.89519
3,211,0,36313,1596,26,-233,36504,7520,1632,-1104,34425,428,-119,29,1389808440.89534
2,212,0,23223,1766,-66,-57,23793,7424,416,-1088,23199,339,-245,-173,1389808440.89859
3,212,0,38312,1583,56,-258,38382,7376,1568,-1104,37004,429,-121,29,1389808440.89870
2,213,0,25212,1776,-53,-99,25675,7456,432,-1264,25760,339,-241,-177,1389808440.108059
3,213,0,40312,1557,70,-267,40259,7456,1728,-1056,39582,429,-125,25,1389808440.108069
2,214,0,27202,1724,-33,-145,27553,7568,496,-1616,25760,339,-241,-177,1389808440.108314
3,214,0,42312,1546,71,-288,42137,7648,1584,-992,42160,424,-134,23,1389808440.119069
2,215,0,29192,1652,-6,-193,29433,7696,416,-1760,28322,343,-238,-184,1389808440.119209
3,215,0,44311,1531,57,-311,44013,8000,1504,-960,42160,424,-134,23,1389808440.119212
2,216,0,31181,1605,33,-197,31313,7856,192,-1888,30884,338,-235,-190,1389808440.136529
3,216,0,45311,1530,55,-317,45891,8240,1344,-1008,44738,424,-134,17,1389808440.136539
2,217,0,33171,1547,63,-208,33192,8016,176,-2064,30884,338,-235,-190,1389808440.147912
3,217,0,47310,1495,51,-326,47768,8320,1264,-1184,47317,426,-139,17,1389808440.147921
2,218,0,34166,1523,64,-216,35072,8224,48,-2208,33446,338,-237,-190,1389808440.154104
3,218,0,49310,1457,60,-327,49644,8352,1472,-1248,49896,426,-148,15,1389808440.154373
2,219,0,36155,1455,73,-215,36952,8480,144,-2032,36007,340,-233,-198,1389808440.166507
3,219,0,51309,1409,63,-313,51521,8416,1808,-1232,49896,426,-148,15,1389808440.166517
2,220,0,38145,1358,59,-214,38832,8624,256,-1840,38568,340,-233,-202,1389808440.178817
3,220,0,53309,1352,43,-295,53397,8304,1808,-1232,52474,426,-150,13,1389808440.178826
3,221,0,55308,1330,22,-273,55274,8192,2000,-1472,55053,426,-153,11,1389808440.179081
2,222,0,42124,1230,12,-213,42593,8560,304,-1232,41130,336,-235,-205,1389808440.196990
3,222,0,57308,1278,27,-230,57151,8016,2112,-1712,55053,426,-153,11,1389808440.196999
2,223,0,44114,1200,-27,-210,44472,8560,416,-848,43691,335,-229,-211,1389808440.208807
3,223,0,59307,1216,54,-161,59027,7920,2160,-1792,57633,424,-155,8,1389808440.208833
2,224,0,46104,1172,-59,-182,46353,8688,624,-432,46251,338,-228,-214,1389808440.209038
3,224,0,60307,1176,73,-119,60904,8144,2064,-1568,60212,424,-157,9,1389808440.209043
2,225,0,48093,1176,-100,-150,48234,8960,576,-208,46251,338,-228,-214,1389808440.226343
3,225,0,62307,1109,75,-53,62781,8592,1920,-960,62791,427,-158,5,1389808440.226351
2,226,0,50083,1216,-127,-140,50115,9232,432,-160,48813,333,-229,-214,1389808440.237512
3,226,0,64306,1101,48,-25,64658,8992,1520,-432,62791,427,-158,5,1389808440.237520
2,227,0,51078,1242,-140,-127,51995,9392,240,-320,51374,336,-222,-218,1389808440.248900
3,227,0,770,1119,-3,-34,998,9360,1120,-48,65370,427,-161,5,1389808440.248915
2,228,0,53068,1319,-166,-129,53876,9360,-16,-640,51374,336,-222,-218,1389808440.249166
3,228,0,2769,1163,-52,-78,2874,9504,928,272,2413,425,-165,0,1389808440.249177
2,229,0,55057,1410,-177,-138,55757,9232,-288,-1024,53936,337,-221,-221,1389808440.267289
3,229,0,4769,1215,-102,-116,4751,9632,1040,576,4994,425,-163,-2,1389808440.267299
2,230,0,57047,1476,-190,-134,57167,9168,-368,-1312,56497,335,-219,-220,1389808440.279473
3,230,0,6768,1281,-152,-146,6627,9680,1136,784,4994,425,-163,-2,1389808440.279483
2,231,0,59037,1515,-164,-156,59047,9312,-400,-1616,59059,339,-216,-224,1389808440.279754
3,231,0,8768,1364,-192,-174,8504,9696,1376,928,7572,423,-171,-4,1389808440.279760
2,232,0,61026,1519,-126,-187,60927,9648,-544,-1552,59059,339,-216,-224,1389808440.297136
3,232,0,9768,1402,-209,-184,10381,9968,1616,976,10151,423,-172,-1,1389808440.297146
2,233,0,63016,1485,-77,-211,62807,10112,-512,-1472,61618,339,-212,-224,1389808440.308728
3,233,0,11767,1474,-254,-205,12258,10432,2016,784,10151,423,-172,-1,1389808440.308737
2,234,0,65006,1422,-44,-232,64687,10656,-448,-1440,64179,332,-211,-231,1389808440.309008
3,234,0,13767,1535,-299,-217,14135,10912,2160,384,12730,426,-173,-1,1389808440.309014
2,235,0,1459,1343,-11,-258,1032,10928,-192,-1360,1204,338,-213,-231,1389808440.327137
3,235,0,15766,1615,-331,-225,16011,10720,2448,-416,15309,426,-177,-3,1389808440.327147
2,236,0,2454,1295,-9,-292,2912,10752,784,-1088,1204,338,-213,-231,1389808440.339221
3,236,0,17766,1719,-317,-199,17888,10064,2752,-1552,17887,421,-183,-4,1389808440.339231
2,237,0,4444,1196,-26,-370,4792,10288,1952,-272,3767,334,-209,-235,1389808440.339499
3,237,0,19765,1770,-247,-148,19765,9312,2864,-2352,17887,421,-183,-4,1389808440.339505
2,238,0,6433,1183,-95,-343,6673,9392,2272,592,6328,332,-208,-240,1389808440.357373
3,238,0,21765,1728,-132,-65,21642,8752,3040,-2448,20466,420,-184,-3,1389808440.357382
2,239,0,8423,1219,-185,-289,8553,8560,2752,1616,8887,334,-210,-237,1389808440.369074
3,239,0,23764,1704,-55,53,23519,8272,3568,-1888,23045,423,-184,-7,1389808440.369083
2,240,0,10413,1316,-261,-239,10433,8048,3456,2480,8887,334,-210,-237,1389808440.369352
3,240,0,24764,1709,-32,103,25396,7856,3840,-992,25624,424,-186,-10,1389808440.369358
2,241,0,12402,1519,-344,-163,12313,7296,3728,3296,11449,337,-202,-239,1389808440.386854
3,241,0,26764,1780,-38,153,27273,7456,3744,-304,25624,424,-186,-10,1389808440.386869
2,242,0,14392,1772,-427,-17,14193,6656,3744,3680,14011,335,-199,-244,1389808440.398889
3,242,0,28763,1913,-40,156,29150,6960,3792,-304,28202,422,-184,-11,1389808440.398904
2,243,0,16382,2013,-535,103,16072,6160,3600,3488,14011,335,-199,-244,1389808440.399230
3,243,0,30763,2095,-6,152,31027,6528,4336,-896,30779,424,-181,-18,1389808440.399240
2,244,0,17377,2117,-590,157,17953,6224,2928,2928,16571,339,-190,-240,1389808440.417182
3,244,0,32762,2211,83,146,32903,6368,4848,-1840,30779,424,-181,-18,1389808440.417191
2,245,0,19366,2296,-659,290,19833,6768,2016,1904,19133,339,-181,-242,1389808440.429391
3,245,0,34762,2288,208,135,34780,6512,4768,-2752,33357,422,-187,-25,1389808440.429400
2,246,0,21356,2358,-649,366,21714,7808,1824,400,21694,338,-170,-240,1389808440.429671
3,246,0,36761,2273,316,167,36657,6992,4576,-3328,35934,420,-184,-29,1389808440.429677
2,247,0,23346,2277,-549,330,23594,8720,2208,-1168,21694,338,-170,-240,1389808440.446990
3,247,0,38761,2201,391,240,38534,7632,4320,-3456,38512,423,-181,-37,1389808440.447004
2,248,0,25335,2168,-396,268,25474,9440,2240,-1968,24256,338,-163,-241,1389808440.458358
3,248,0,39760,2170,410,269,40411,8256,3888,-3360,38512,423,-181,-37,1389808440.458367
2,249,0,27325,2028,-253,201,27354,9904,2208,-1584,26817,347,-156,-239,1389808440.458556
3,249,0,41760,2108,443,306,42288,8848,3680,-3264,41091,422,-183,-46,1389808440.458737
2,250,0,29315,1898,-192,121,29235,9840,2384,-320,29378,344,-150,-243,1389808440.476444
3,250,0,43759,2034,469,331,44165,9280,3584,-3024,43670,422,-180,-54,1389808440.476453
2,251,0,31304,1847,-224,84,31115,9392,2432,1056,29378,344,-150,-243,1389808440.488829
3,251,0,45759,1980,537,326,46042,9504,3568,-2928,46249,423,-178,-63,1389808440.488845
2,252,0,33294,1865,-291,59,32996,8752,2480,1968,31939,344,-147,-244,1389808440.489157
3,252,0,47758,1976,583,270,47919,9344,3584,-2880,46249,423,-178,-63,1389808440.489228
2,253,0,34289,1875,-315,42,34876,8096,2480,1728,34500,347,-139,-241,1389808440.507389
3,253,0,49758,1956,598,188,49795,8624,3728,-2720,48828,426,-181,-73,1389808440.507404
2,254,0,36278,1917,-323,46,36757,7728,2240,1184,37060,345,-135,-242,1389808440.519501
3,254,0,51758,1901,579,161,51672,7856,3872,-2400,51407,425,-173,-80,1389808440.519516
2,255,0,38268,1951,-333,80,38637,7760,1904,432,37060,345,-135,-242,1389808440.519827
3,255,0,53757,1794,526,160,53549,7360,4000,-1904,51407,425,-173,-80,1389808440.519839
2,0,0,40258,1951,-361,154,40517,8016,1536,96,39621,351,-128,-235,1389808440.537862
3,0,0,54757,1753,485,147,55425,7376,3776,-1280,53986,423,-170,-91,1389808440.537871
2,1,0,42247,1938,-368,172,42397,8272,1104,160,42182,351,-118,-240,1389808440.543718
3,1,0,56756,1704,379,108,57302,7712,3648,-784,56565,425,-170,-95,1389808440.543964
2,2,0,44237,1905,-335,130,44277,8352,880,176,42182,351,-118,-240,1389808440.555583
3,2,0,58756,1740,276,30,59179,8000,3632,-608,59145,426,-170,-102,1389808440.555591
2,3,0,46227,1912,-273,65,46158,8368,656,240,44743,348,-114,-237,1389808440.567486
3,3,0,60755,1831,217,-49,61056,8192,3760,-608,59145,426,-170,-102,1389808440.567495
2,4,0,48216,1907,-222,-1,48038,8320,768,240,47304,351,-110,-237,1389808440.579755
3,4,0,62755,1918,208,-119,62932,8144,3856,-944,61724,421,-168,-107,1389808440.579764
2,5,0,50206,1905,-177,-59,49919,8032,720,192,49865,354,-103,-236,1389808440.580026
3,5,0,64754,1930,228,-175,64810,7952,3920,-1280,64302,425,-171,-114,1389808440.580032
2,6,0,51201,1900,-158,-74,51800,7792,688,176,49865,354,-103,-236,1389808440.597953
3,6,0,1218,1900,252,-187,1151,7744,3824,-1456,1345,425,-172,-119,1389808440.597963
2,7,0,53191,1885,-123,-90,53681,7504,608,144,52427,354,-99,-237,1389808440.604140
3,7,0,3217,1834,276,-182,3028,7696,3744,-1504,1345,425,-172,-119,1389808440.604444
2,8,0,55180,1841,-87,-75,55562,7344,560,-16,54989,351,-93,-235,1389808440.616108
3,8,0,4217,1795,285,-185,4905,7712,3696,-1456,3924,419,-172,-126,1389808440.616123
2,9,0,57170,1812,-71,-69,57442,7344,592,-272,57550,352,-91,-234,1389808440.628323
3,9,0,6217,1715,306,-183,6783,7760,3680,-1424,6502,422,-169,-130,1389808440.628333
2,10,0,59160,1787,-54,-43,59323,7392,512,-592,57550,352,-91,-234,1389808440.628581
3,10,0,8216,1668,316,-181,8660,7712,3760,-1472,6502,422,-169,-130,1389808440.628826
2,11,0,61149,1716,-23,-24,61203,7536,544,-816,60112,357,-84,-231,1389808440.646983
3,11,0,10216,1639,332,-196,10537,7648,3728,-1424,9082,423,-172,-136,1389808440.646998
2,12,0,63139,1616,24,-19,63083,7552,624,-560,62674,350,-81,-237,1389808440.659003
3,12,0,12215,1601,336,-206,12414,7552,3776,-1456,11661,420,-171,-143,1389808440.659012
2,13,0,65129,1536,35,-12,64962,7520,672,32,62674,350,-81,-237,1389808440.659310
3,13,0,14215,1574,318,-196,14290,7408,3744,-1456,14240,421,-168,-147,1389808440.659316
2,14,0,587,1494,30,-5,1307,7536,896,592,65235,351,-81,-234,1389808440.677266
3,14,0,16214,1572,294,-205,16167,7440,3904,-1552,14240,421,-168,-147,1389808440.677275
2,15,0,2577,1494,5,6,3187,7616,640,784,2260,352,-73,-238,1389808440.689423
3,15,0,18214,1513,271,-207,18044,7536,3872,-1504,16819,417,-169,-152,1389808440.689432
2,16,0,4567,1553,-30,51,5066,7728,400,640,4821,352,-67,-236,1389808440.689714
3,16,0,19214,1472,280,-201,19922,7568,3840,-1376,19398,416,-170,-158,1389808440.689721
2,17,0,6556,1539,-38,70,6946,7856,320,480,4821,352,-67,-236,1389808440.707613
3,17,0,21213,1443,276,-181,21800,7584,3888,-1248,21977,415,-167,-163,1389808440.707639
2,18,0,8546,1506,-44,35,8826,7824,208,320,7382,352,-66,-234,1389808440.719772
3,18,0,23213,1425,270,-169,23676,7504,3856,-1264,21977,415,-167,-163,1389808440.719787
2,19,0,10536,1465,-38,7,10707,7744,32,144,9941,352,-60,-235,1389808440.720114
3,19,0,25212,1378,274,-174,25553,7392,3808,-1312,24556,421,-172,-169,1389808440.720126
2,20,0,12525,1423,-44,-9,12588,7696,-32,16,12503,352,-53,-234,1389808440.737468
3,20,0,27212,1327,283,-173,27430,7440,3792,-1296,27136,414,-167,-171,1389808440.737477
2,21,0,14515,1366,-23,-14,14468,7744,-96,0,12503,352,-53,-234,1389808440.748915
3,21,0,29211,1272,277,-170,29307,7520,3808,-1168,27136,414,-167,-171,1389808440.748963
2,22,0,16505,1311,-1,-5,16349,7808,-208,-96,15064,348,-50,-233,1389808440.749230
3,22,0,31211,1220,271,-171,31185,7728,3744,-912,29715,412,-168,-178,1389808440.749237
2,23,0,17500,1272,7,6,18230,7872,-240,80,17627,355,-49,-234,1389808440.767165
3,23,0,33210,1166,251,-152,33063,7760,3520,-608,32295,414,-163,-183,1389808440.767174
2,24,0,19489,1208,7,3,20111,7840,-288,272,20189,355,-41,-231,1389808440.779253
3,24,0,34210,1149,244,-147,34940,7728,3552,-384,34873,409,-164,-186,1389808440.779261
2,25,0,21479,1151,0,3,21992,7760,-384,480,20189,355,-41,-231,1389808440.779526
3,25,0,36210,1155,215,-145,36817,7712,3536,-432,34873,409,-164,-186,1389808440.779532
2,26,0,23469,1124,-16,12,23873,7600,-256,512,22750,350,-41,-229,1389808440.797564
3,26,0,38209,1163,204,-172,38695,7696,3584,-656,37450,411,-162,-189,1389808440.797573
2,27,0,25458,1113,-38,3,25755,7424,-112,416,25312,351,-41,-233,1389808440.809427
3,27,0,40209,1165,218,-189,40572,7584,3632,-768,40028,413,-161,-192,1389808440.809436
2,28,0,27448,1106,-45,27,27636,7248,-96,320,25312,351,-41,-233,1389808440.809717
3,28,0,42208,1115,234,-200,42449,7504,3744,-880,42607,410,-162,-198,1389808440.809723
2,29,0,29438,1064,-37,74,29517,7376,-64,320,27873,351,-35,-227,1389808440.827187
3,29,0,44208,1075,249,-194,44327,7536,3808,-976,42607,410,-162,-198,1389808440.827196
2,30,0,31427,1003,-24,104,31397,7296,-112,352,30434,348,-30,-228,1389808440.839397
3,30,0,46207,1063,289,-200,46204,7536,3984,-1264,45186,407,-164,-200,1389808440.839406
2,31,0,33417,951,-7,136,33277,7472,-272,176,32994,352,-25,-227,1389808440.839730
3,31,0,48207,1000,325,-188,48082,7520,4064,-1632,47765,409,-158,-206,1389808440.839738
2,32,0,34412,933,4,161,35157,7712,-544,-208,32994,352,-25,-227,1389808440.857693
3,32,0,49206,952,354,-177,49960,7648,4352,-1952,47765,409,-158,-206,1389808440.857703
2,33,0,36402,879,25,189,37038,8016,-496,-608,35555,353,-23,-225,1389808440.869826
3,33,0,51206,851,382,-125,51837,7840,4272,-2160,50344,409,-160,-212,1389808440.869835
2,34,0,38391,786,66,159,38919,8368,-448,-960,38117,350,-20,-225,1389808440.870101
3,34,0,53205,743,382,-91,53715,8000,3744,-2336,52923,406,-159,-214,1389808440.870107
2,35,0,40381,696,129,145,40799,8576,-720,-992,40679,351,-16,-227,1389808440.888211
3,35,0,55205,597,370,-69,55592,8176,3344,-2416,55501,404,-155,-219,1389808440.888219
2,36,0,42371,623,160,139,42680,8672,-912,-944,40679,351,-16,-227,1389808440.888469
3,36,0,57205,498,359,-60,57469,8448,2992,-2256,55501,404,-155,-219,1389808440.894688
2,37,0,44360,497,193,99,44561,8816,-560,-656,43240,347,-14,-226,1389808440.906369
3,37,0,59204,362,346,-62,59347,8720,2864,-1760,58079,407,-155,-223,1389808440.906378
2,38,0,46350,383,194,46,46441,8736,-352,-176,45802,348,-13,-227,1389808440.918495
3,38,0,61204,260,315,-70,61224,9072,2848,-1088,60658,401,-157,-223,1389808440.918510
2,39,0,48340,315,191,50,48322,8672,-464,208,48362,350,-14,-227,1389808440.918817
3,39,0,63203,224,272,-98,63101,9056,2896,-560,63236,403,-157,-229,1389808440.919128
2,40,0,49334,301,174,45,50202,8608,-544,320,48362,350,-14,-227,1389808440.937054
3,40,0,64203,230,236,-129,64978,9120,2960,-496,63236,403,-157,-229,1389808440.937063
2,41,0,51324,272,141,46,52084,8560,-416,272,50924,350,-10,-230,1389808440.948792
3,41,0,666,265,176,-214,1320,8976,3264,-720,277,405,-161,-229,1389808440.948801
2,42,0,53314,251,125,28,53964,8672,-272,160,53486,345,-9,-231,1389808440.949067
3,42,0,2666,265,125,-288,3196,8704,3328,-864,2855,399,-161,-234,1389808440.949073
2,43,0,55303,243,128,41,55845,8576,-352,144,53486,345,-9,-231,1389808440.966747
3,43,0,4665,233,110,-296,5074,8448,3488,-1072,2855,399,-161,-234,1389808440.966756
2,44,0,57293,232,141,69,57725,8608,-480,272,56047,346,-10,-232,1389808440.978738
3,44,0,6665,181,113,-287,6951,8240,3712,-1152,5434,397,-159,-234,1389808440.978746
2,45,0,59283,222,144,81,59605,8784,-496,464,58608,349,-5,-232,1389808440.979012
3,45,0,8664,123,123,-248,8828,8256,3808,-1024,8014,401,-161,-234,1389808440.979017
2,46,0,61272,243,160,82,61485,8928,-672,480,61170,344,-5,-235,1389808440.997099
3,46,0,10664,89,117,-214,10705,8496,3712,-928,10593,398,-166,-237,1389808440.997108
2,47,0,63262,257,172,73,63365,9120,-848,224,61170,344,-5,-235,1389808441.8566
3,47,0,12664,72,100,-211,12582,8800,3776,-992,10593,398,-166,-237,1389808441.8576
2,48,0,65252,248,197,50,65246,9184,-944,64,63731,345,-4,-238,1389808441.8824
3,48,0,13663,63,93,-218,14459,9056,3696,-992,13171,396,-166,-238,1389808441.8832
2,49,0,711,237,210,30,1592,9168,-1072,32,756,344,-4,-239,1389808441.26207
3,49,0,15663,30,88,-214,16336,9088,3520,-800,15749,397,-169,-237,1389808441.26216
2,50,0,2700,236,229,-4,3472,9088,-1120,-16,3318,347,-1,-242,1389808441.38310
3,50,0,17662,-26,56,-214,18214,9072,3440,-576,18328,395,-171,-237,1389808441.38319
2,51,0,4690,210,267,-37,5353,9104,-592,-80,3318,347,-1,-242,1389808441.38563
3,51,0,19662,-66,11,-230,20090,9056,3456,-320,18328,395,-171,-237,1389808441.38814
2,52,0,6680,148,312,-83,7234,9520,672,-48,5880,343,-5,-240,1389808441.56392
3,52,0,21661,-62,-33,-257,21968,9392,3584,-160,20907,392,-170,-236,1389808441.56407
