nodeID,seqNumber,status,gyroTick,gyroX,gyroY,gyroZ,accelTick,accelX,accelY,accelZ,magTick,magX,magY,magZ,currentTime
2,77,0,38312,-59,-1,-24,38737,6992,5008,1376,36779,223,290,-121,1389808524.833570
3,77,0,53621,-29,-8,-21,53588,6496,4128,-4736,52880,236,-62,-495,1389808524.833579
2,78,0,40302,-56,3,-23,40616,7024,5024,1408,39340,219,292,-120,1389808524.836863
3,78,0,54621,-18,-13,-28,55466,6384,4064,-4768,55459,242,-64,-495,1389808524.836872
2,79,0,42292,-41,13,-8,42497,7120,4960,1456,41901,218,288,-125,1389808524.836875
3,79,0,56621,-18,-23,-35,57343,6416,3984,-4832,55459,242,-64,-495,1389808524.836877
2,80,0,44281,-16,16,-18,44377,7216,4960,1472,41901,218,288,-125,1389808524.836878
3,80,0,58620,-19,-21,-32,59220,6544,3904,-4864,58037,235,-62,-495,1389808524.836880
2,81,0,46271,-1,13,-25,46256,7232,4928,1392,44463,223,290,-123,1389808524.836882
3,81,0,60620,-20,-34,-37,61098,6528,3952,-4800,60615,238,-63,-497,1389808524.836884
2,82,0,47266,9,12,-25,48137,7136,4864,1296,47024,219,292,-121,1389808524.836885
3,82,0,62619,-26,-36,-34,62975,6576,4032,-4704,60615,238,-63,-497,1389808524.836887
2,83,0,49256,23,10,-36,50017,7168,4784,1232,49585,223,291,-125,1389808524.836889
3,83,0,64619,-14,-41,-47,64853,6496,4096,-4688,63193,245,-63,-494,1389808524.836890
2,84,0,51245,25,13,-41,51898,7232,4816,1248,49585,223,291,-125,1389808524.836892
3,84,0,1082,7,-61,-48,1193,6464,4080,-4688,235,240,-62,-494,1389808524.836894
2,85,0,53235,16,20,-55,53778,7136,4848,1216,52145,223,292,-124,1389808524.836896
3,85,0,3082,23,-57,-48,3069,6512,4048,-4704,2812,237,-63,-493,1389808524.836897
2,86,0,55225,12,30,-56,55659,7152,4848,1328,54706,219,291,-122,1389808524.836899
3,86,0,4082,24,-57,-50,4947,6528,4016,-4816,2812,237,-63,-493,1389808524.836901
2,87,0,57214,11,31,-66,57539,7168,4848,1376,57268,216,287,-123,1389808524.836902
3,87,0,6081,16,-66,-60,6824,6544,3984,-4928,5391,244,-65,-497,1389808524.836904
2,88,0,59204,5,30,-87,59419,7200,4864,1360,57268,216,287,-123,1389808524.836906
3,88,0,8081,13,-65,-54,8701,6448,4064,-4896,7967,241,-63,-496,1389808524.836907
2,89,0,61194,19,20,-89,61300,7152,4896,1328,59829,224,289,-122,1389808524.836909
3,89,0,10080,9,-64,-53,10578,6416,3952,-4816,10545,238,-64,-491,1389808524.836911
2,90,0,63183,21,33,-99,63180,7120,4944,1184,62389,225,289,-122,1389808524.836912
3,90,0,12080,16,-72,-58,12455,6464,4000,-4704,10545,238,-64,-491,1389808524.836914
2,91,0,64178,27,39,-99,65060,7136,4880,1136,64950,218,291,-126,1389808524.836916
3,91,0,14079,6,-69,-60,14333,6464,3952,-4688,13122,242,-61,-497,1389808524.836917
2,92,0,632,25,45,-106,935,7168,4800,1136,64950,218,291,-126,1389808524.836919
3,92,0,16079,25,-79,-64,16211,6480,3920,-4816,15700,247,-64,-492,1389808524.836921
2,93,0,2622,19,51,-107,2815,7136,4864,1104,1976,221,287,-122,1389808524.836923
3,93,0,18078,32,-101,-74,18089,6528,3984,-4944,15700,247,-64,-492,1389808524.836924
2,94,0,4611,12,44,-109,4695,7184,4944,1136,4536,225,288,-126,1389808524.836926
3,94,0,19078,29,-99,-72,19967,6480,3968,-4928,18278,240,-64,-493,1389808524.836928
2,95,0,6601,1,43,-118,6576,7168,4976,1184,4536,225,288,-126,1389808524.836929
3,95,0,21078,6,-112,-64,21844,6448,3936,-4896,20855,243,-64,-490,1389808524.836944
2,96,0,8591,3,38,-128,8456,7152,4880,1264,7097,225,286,-124,1389808524.836946
3,96,0,23077,1,-109,-63,23721,6464,3936,-4768,23433,248,-65,-490,1389808524.836948
2,97,0,10580,14,38,-138,10336,7104,4992,1408,9658,225,288,-128,1389808524.836950
3,97,0,25077,-3,-98,-61,25599,6432,4016,-4576,23433,248,-65,-490,1389808524.836951
2,98,0,12570,40,42,-153,12216,7104,4832,1408,12218,219,287,-126,1389808524.836953
3,98,0,27076,10,-98,-48,27476,6432,3920,-4576,26011,244,-65,-489,1389808524.836955
2,99,0,13565,47,51,-147,14096,7168,5024,1424,12218,219,287,-126,1389808524.836956
3,99,0,29076,39,-105,-63,29354,6528,3968,-4640,28589,247,-64,-490,1389808524.836958
2,100,0,15554,39,57,-170,15976,7152,4944,1216,14778,219,286,-125,1389808524.836960
3,100,0,31075,48,-105,-67,31231,6544,3904,-4688,31168,249,-63,-490,1389808524.836961
2,101,0,17544,76,64,-167,17856,7120,4816,1200,17339,225,284,-126,1389808524.836963
3,101,0,33075,52,-110,-62,33109,6608,3984,-4768,31168,249,-63,-490,1389808524.837007
2,102,0,19534,81,73,-169,19737,7104,4800,1248,19900,228,284,-127,1389808524.837009
3,102,0,34075,50,-113,-68,34986,6592,3952,-4784,33745,244,-64,-490,1389808524.837011
2,103,0,21523,81,85,-169,21617,7168,4784,1232,19900,228,284,-127,1389808524.837012
3,103,0,36074,48,-117,-83,36863,6560,4016,-4704,36324,246,-66,-489,1389808524.837014
2,104,0,23513,76,85,-169,23496,7168,4816,1264,22462,222,281,-125,1389808524.837016
3,104,0,38074,52,-120,-91,38741,6544,4064,-4592,36324,246,-66,-489,1389808524.837017
2,105,0,25503,79,84,-169,25378,7200,4784,1232,25022,225,279,-125,1389808524.837019
3,105,0,40073,55,-119,-79,40619,6528,4016,-4496,38903,253,-64,-485,1389808524.837021
2,106,0,27492,82,80,-169,27258,7184,4768,1248,27583,234,283,-125,1389808524.837022
3,106,0,42073,70,-117,-79,42498,6448,4048,-4592,41480,247,-65,-487,1389808524.837024
2,107,0,29482,96,86,-174,29139,7200,4672,1216,27583,234,283,-125,1389808524.837026
3,107,0,44072,89,-125,-85,44376,6480,4016,-4720,44058,247,-63,-486,1389808524.837027
2,108,0,30477,94,84,-172,31019,7248,4704,1168,30143,226,280,-124,1389808524.837029
3,108,0,46072,91,-137,-93,46253,6528,3952,-4704,44058,247,-63,-486,1389808524.837031
2,109,0,32467,98,87,-169,32899,7312,4688,1184,32703,226,281,-129,1389808524.837032
3,109,0,48071,76,-155,-93,48131,6576,4032,-4624,46637,253,-66,-484,1389808524.837034
2,110,0,34456,101,91,-189,34779,7296,4640,1264,32703,226,281,-129,1389808524.837036
3,110,0,49071,71,-146,-91,50009,6656,3936,-4496,49215,252,-65,-488,1389808524.837037
2,111,0,36446,97,103,-200,36660,7360,4736,1248,35264,232,277,-129,1389808524.837039
3,111,0,51071,83,-145,-96,51886,6688,3968,-4400,51793,249,-65,-482,1389808524.837041
2,112,0,38436,104,112,-216,38541,7328,4784,1312,37824,232,278,-126,1389808524.837042
3,112,0,53070,105,-149,-105,53764,6784,3968,-4432,51793,249,-65,-482,1389808524.837044
2,113,0,40425,104,126,-228,40422,7376,4704,1344,40385,230,275,-127,1389808524.837046
3,113,0,55070,130,-163,-115,55642,6800,3920,-4480,54370,256,-62,-480,1389808524.837048
2,114,0,42415,124,127,-228,42303,7344,4608,1328,40385,230,275,-127,1389808524.837049
3,114,0,57069,139,-169,-132,57520,6848,3936,-4528,56947,257,-64,-482,1389808524.837051
2,115,0,44405,138,131,-228,44184,7344,4720,1344,42947,241,274,-126,1389808524.837053
3,115,0,59069,130,-178,-137,59398,6864,3984,-4560,56947,257,-64,-482,1389808524.837054
2,116,0,46394,159,135,-240,46065,7376,4704,1376,45507,234,274,-126,1389808524.837056
3,116,0,61068,138,-176,-141,61275,6800,4000,-4416,59525,253,-66,-479,1389808524.837058
2,117,0,47389,172,137,-241,47945,7392,4560,1360,48067,234,271,-131,1389808524.837059
3,117,0,63068,164,-183,-147,63153,6736,4016,-4320,62102,260,-62,-477,1389808524.837061
2,118,0,49379,197,138,-246,49825,7280,4576,1408,48067,234,271,-131,1389808524.837063
3,118,0,64068,170,-181,-153,65030,6688,4000,-4272,64680,264,-62,-480,1389808524.837064
2,119,0,51369,211,152,-251,51705,7328,4528,1424,50628,241,273,-128,1389808524.837066
3,119,0,531,184,-177,-163,1372,6704,4032,-4240,64680,264,-62,-480,1389808524.837068
2,120,0,53358,217,158,-268,53585,7408,4544,1376,53189,241,271,-125,1389808524.837069
3,120,0,2531,196,-180,-164,2781,6752,3936,-4224,1722,258,-63,-477,1389808524.837071
2,121,0,55348,241,161,-282,55464,7392,4496,1344,55748,238,266,-124,1389808524.837073
3,121,0,4530,212,-183,-168,4659,6880,3888,-4288,4298,258,-62,-476,1389808524.837074
2,122,0,57338,261,172,-284,57344,7440,4464,1328,55748,238,266,-124,1389808524.837076
3,122,0,6530,225,-190,-174,6536,6896,3872,-4240,6877,270,-63,-478,1389808524.837078
2,123,0,59327,288,185,-298,59224,7488,4448,1296,58308,247,268,-127,1389808524.837080
3,123,0,8529,229,-200,-178,8414,6928,3904,-4192,6877,270,-63,-478,1389808524.837081
2,124,0,61317,302,185,-311,61104,7504,4336,1280,60868,247,264,-126,1389808524.837083
3,124,0,10529,239,-203,-187,10291,6976,3936,-4160,9454,265,-61,-474,1389808524.837085
2,125,0,62312,311,195,-314,62984,7520,4288,1312,60868,247,264,-126,1389808524.837086
3,125,0,12529,264,-211,-198,12168,6960,3872,-4128,12032,262,-62,-472,1389808524.837088
2,126,0,64301,326,203,-326,64864,7488,4320,1344,63430,241,264,-125,1389808524.837101
3,126,0,13528,272,-208,-203,14046,6976,3952,-4096,12032,262,-62,-472,1389808524.837103
2,127,0,755,339,205,-340,1208,7440,4336,1440,454,249,261,-125,1389808524.837130
3,127,0,15528,292,-209,-219,15924,7008,3968,-3952,14610,270,-59,-469,1389808524.837132
2,128,0,2745,357,218,-345,3087,7408,4336,1360,3015,251,262,-123,1389808524.837134
3,128,0,17527,318,-207,-219,17802,7088,3888,-3920,17188,267,-60,-470,1389808524.837135
2,129,0,4734,377,226,-355,4967,7504,4288,1344,3015,251,262,-123,1389808524.837137
3,129,0,19527,344,-199,-228,19679,7120,3856,-3920,19765,266,-60,-467,1389808524.837139
2,130,0,6724,394,245,-353,6848,7600,4208,1280,5576,246,258,-124,1389808524.837140
3,130,0,21526,359,-193,-231,21557,7168,3888,-3952,19765,266,-60,-467,1389808524.837142
2,131,0,8714,410,259,-350,8729,7600,4128,1200,8137,250,257,-124,1389808524.837144
3,131,0,23526,375,-193,-242,23434,7136,3936,-4000,22343,273,-58,-467,1389808524.837145
2,132,0,10704,424,267,-338,10609,7632,4000,1152,10698,258,510,-124,1389808524.837147
3,132,0,25526,385,-189,-245,25312,7168,4016,-3968,24922,273,-54,-464,1389808524.837149
2,133,0,12693,442,280,-343,12487,7696,4016,1152,10698,258,510,-124,1389808524.837151
3,133,0,27525,387,-195,-253,27189,7104,4048,-3936,27501,271,-53,-466,1389808524.837153
2,134,0,13688,437,283,-346,14367,7792,3968,1232,13258,253,253,-121,1389808524.837154
3,134,0,28525,393,-195,-252,29066,7072,4080,-3920,27501,271,-53,-466,1389808524.837156
2,135,0,15678,429,297,-351,16247,7840,3840,1376,15820,263,249,-124,1389808524.837158
3,135,0,30524,402,-197,-252,30944,7072,3968,-3872,30080,278,-55,-463,1389808524.837159
2,136,0,17667,440,295,-362,18126,7936,4000,1440,15820,263,249,-124,1389808524.837161
3,136,0,32524,423,-200,-244,32822,7120,3888,-3840,32658,280,-52,-461,1389808524.837163
2,137,0,19657,461,267,-392,20005,7968,4064,1472,18382,263,248,-123,1389808524.837165
3,137,0,34523,447,-192,-250,34700,7120,4016,-3856,32658,280,-52,-461,1389808524.837167
2,138,0,21647,510,232,-393,21884,7824,3904,1280,20942,258,249,-120,1389808524.837169
3,138,0,36523,453,-188,-248,36578,7104,3968,-3808,35237,274,-52,-460,1389808524.837170
2,139,0,23636,548,227,-370,23764,7760,3680,1152,23503,259,248,-121,1389808524.837172
3,139,0,38523,464,-178,-244,38456,7152,3920,-3856,37815,280,-50,-460,1389808524.837174
2,140,0,25626,542,236,-388,25644,7632,3728,1104,23503,259,248,-121,1389808524.837176
3,140,0,40522,479,-177,-269,40334,7120,3872,-3920,40392,285,-46,-455,1389808524.837178
2,141,0,27616,533,259,-416,27524,7584,3824,1088,26063,267,245,-117,1389808524.837179
3,141,0,42522,466,-189,-280,42212,7072,3936,-3872,40392,285,-46,-455,1389808524.837181
2,239,0,53046,-92,-66,-12,53343,8240,640,-1488,51430,345,-261,-25,1389808524.837461
3,239,0,2371,140,10,75,2397,8208,1536,-2064,1731,412,48,41,1389808524.837466
2,240,0,55036,-89,-73,-27,55223,8144,736,-1392,53990,348,-268,-26,1389808524.855629
3,240,0,4370,71,-8,70,4273,8224,1584,-1936,4310,418,52,36,1389808524.855638
2,241,0,57026,-91,-65,-19,57103,8112,800,-1312,56551,347,-267,-21,1389808524.855888
3,241,0,6370,31,-30,84,6150,8192,1616,-1760,4310,418,52,36,1389808524.867451
2,242,0,59015,-73,-74,-10,58983,8096,672,-1360,56551,347,-267,-21,1389808524.867727
3,242,0,8369,14,-53,85,8026,8304,1520,-1648,6889,418,50,43,1389808524.867733
2,243,0,60010,-78,-88,3,60863,8192,752,-1376,59112,342,-261,-19,1389808524.885644
3,243,0,9369,8,-55,82,9903,8464,1600,-1616,9469,411,54,45,1389808524.885654
2,244,0,62000,-81,-99,11,62744,8176,768,-1440,61673,347,-265,-20,1389808524.885831
3,244,0,11369,2,-72,68,11779,8464,1680,-1600,12049,411,54,39,1389808524.897819
2,245,0,63990,-78,-106,15,64625,8208,672,-1408,64235,347,-264,-20,1389808524.898160
3,245,0,13368,9,-73,55,13657,8432,1680,-1616,12049,411,54,39,1389808524.898170
2,246,0,443,-89,-103,11,969,8272,848,-1216,64235,347,-264,-20,1389808524.915669
3,246,0,15368,6,-67,50,15533,8320,1792,-1696,14628,412,52,44,1389808524.915684
2,247,0,2433,-116,-103,7,2849,8288,896,-1024,1261,345,-261,-17,1389808524.916040
3,247,0,17367,-3,-62,38,17410,8256,1808,-1696,17207,412,51,45,1389808524.922186
2,248,0,4423,-110,-122,12,4729,8272,832,-928,3819,350,-261,-17,1389808524.934303
3,248,0,19367,-8,-55,21,19287,8256,2000,-1696,17207,412,51,45,1389808524.934311
2,249,0,6412,-100,-140,30,6609,8272,800,-896,6380,350,-262,-15,1389808524.946400
3,249,0,21366,1,-81,21,21164,8192,2032,-1856,19786,412,54,40,1389808524.946414
2,250,0,8402,-102,-133,19,8489,8208,816,-1056,6380,350,-262,-15,1389808524.946743
3,250,0,23366,-28,-66,14,23041,8192,2128,-1792,22365,412,55,46,1389808524.946754
2,251,0,10392,-99,-137,23,10370,8176,704,-1120,8941,343,-261,-9,1389808524.964782
3,251,0,24366,-40,-61,17,24917,8256,2112,-1840,24944,410,55,48,1389808524.964791
2,252,0,11387,-92,-126,21,12250,8160,736,-1216,11503,346,-256,-13,1389808524.976910
3,252,0,26365,-63,-43,30,26793,8240,2160,-1776,24944,410,55,48,1389808524.976925
2,253,0,13376,-99,-109,15,14130,8160,656,-1104,14066,348,-264,-13,1389808524.977251
3,253,0,28365,-56,-29,18,28670,8256,2256,-1696,27522,410,56,42,1389808524.977262
2,254,0,15366,-117,-97,16,16010,8192,768,-832,14066,348,-264,-13,1389808524.995393
3,254,0,30364,-48,-18,16,30547,8208,2304,-1584,30100,415,58,42,1389808524.995402
2,255,0,17356,-112,-93,23,17889,8192,880,-592,16626,342,-259,-6,1389808525.981
3,255,0,32364,-45,-11,24,32423,8144,2208,-1472,32678,415,55,49,1389808525.1260
2,0,0,19345,-119,-100,26,19770,8160,944,-448,19186,346,-261,-7,1389808525.13333
3,0,0,34364,-26,-1,33,34300,8160,2192,-1424,32678,415,55,49,1389808525.13342
2,1,0,21335,-107,-95,21,21649,8096,848,-416,19186,346,-261,-7,1389808525.25484
3,1,0,36363,-9,10,33,36175,8160,2240,-1392,35256,412,60,47,1389808525.25498
2,2,0,23325,-82,-96,26,23529,8128,880,-576,21747,351,-261,-8,1389808525.31764
3,2,0,38363,21,11,11,38051,8192,2224,-1536,37835,412,59,41,1389808525.32088
2,3,0,25314,-43,-102,18,24939,8112,896,-704,24308,346,-260,-4,1389808525.43954
3,3,0,39362,35,22,9,39927,8256,2224,-1616,37835,412,59,41,1389808525.43963
2,4,0,26309,-26,-92,25,26818,8208,768,-816,26868,348,-255,-4,1389808525.55946
3,4,0,41362,59,30,-5,41804,8288,2160,-1712,40413,411,55,50,1389808525.55955
2,5,0,28299,-12,-92,47,28698,8288,832,-832,26868,348,-255,-4,1389808525.56201
3,5,0,43361,51,41,1,43681,8304,2112,-1664,42992,411,55,45,1389808525.56454
2,6,0,30289,-25,-89,34,30578,8304,800,-752,29428,348,-3,-6,1389808525.74070
3,6,0,45361,46,48,6,45557,8320,2080,-1584,45570,416,60,42,1389808525.74079
2,7,0,32278,-39,-99,22,32457,8240,800,-768,31989,346,-257,-4,1389808525.85776
3,7,0,47361,46,42,2,47433,8320,2112,-1520,45570,416,60,42,1389808525.85784
2,8,0,34268,-32,-81,14,34337,8224,848,-736,34551,346,-511,-3,1389808525.85938
3,8,0,49360,54,28,-1,49310,8336,2176,-1600,48150,416,55,43,1389808525.92132
2,9,0,36258,-33,-59,3,36217,8192,944,-704,34551,346,-511,-3,1389808525.103550
3,9,0,51360,61,17,-20,51187,8272,2176,-1728,50728,409,59,47,1389808525.103559
2,10,0,38247,-10,-64,14,38098,8160,928,-656,37112,354,-2,-5,1389808525.115011
3,10,0,53359,69,21,-21,53064,8192,2240,-1744,53306,409,59,40,1389808525.115020
2,11,0,40237,15,-69,19,39977,8096,864,-752,39671,345,-257,-4,1389808525.126736
3,11,0,54359,65,20,-19,54941,8160,2224,-1824,53306,409,59,40,1389808525.126745
2,12,0,42227,28,-71,34,41857,8144,816,-880,42232,344,-256,-3,1389808525.127012
3,12,0,56359,48,32,-14,56818,8144,2208,-1856,55885,412,59,41,1389808525.127018
2,13,0,43221,25,-70,36,43737,8224,800,-880,42232,344,-256,-3,1389808525.144503
3,13,0,58358,45,36,-5,58695,8192,2224,-1760,58463,412,57,46,1389808525.144512
2,14,0,45211,-2,-75,32,45617,8192,832,-880,44793,350,-258,-2,1389808525.156822
3,14,0,60358,23,46,5,60571,8224,2160,-1728,58463,412,57,46,1389808525.156832
2,15,0,47201,-8,-69,37,47497,8224,800,-800,47353,345,-258,-4,1389808525.157129
3,15,0,62357,-2,36,20,62447,8192,2144,-1616,61042,415,58,36,1389808525.157147
2,16,0,49190,-12,-67,48,49377,8176,736,-688,47353,345,-258,-4,1389808525.174855
3,16,0,64357,-13,53,28,64324,8224,2080,-1536,63622,415,60,41,1389808525.174861
2,17,0,51180,7,-71,57,51257,8176,816,-720,49913,345,-510,3,1389808525.185930
3,17,0,820,4,38,21,664,8192,2080,-1456,666,406,56,43,1389808525.185934
2,18,0,53170,-4,-77,56,53137,8176,784,-720,52474,351,-255,0,1389808525.186064
3,18,0,2820,5,26,17,2541,8192,2144,-1440,666,406,56,43,1389808525.186183
2,19,0,55160,3,-79,55,55017,8192,880,-688,55035,346,-255,0,1389808525.203308
3,19,0,3820,7,35,20,4417,8208,2224,-1440,3245,406,59,41,1389808525.203313
2,20,0,57149,19,-79,56,56897,8288,816,-720,55035,346,-255,0,1389808525.214994
3,20,0,5819,15,24,18,6293,8208,2256,-1456,5824,410,63,42,1389808525.214997
2,21,0,59139,44,-89,77,58777,8336,624,-816,57596,346,-249,4,1389808525.226255
3,21,0,7819,34,32,18,8171,8208,2240,-1568,8403,416,57,47,1389808525.226259
2,22,0,60134,44,-90,75,60656,8368,576,-880,60156,348,-252,1,1389808525.226442
3,22,0,9818,46,27,19,10048,8192,2288,-1648,8403,416,57,47,1389808525.226446
2,23,0,62123,21,-82,61,62536,8320,592,-864,62716,351,-253,2,1389808525.243275
3,23,0,11818,35,20,18,11925,8208,2160,-1664,10982,409,61,42,1389808525.243281
2,24,0,64113,10,-74,42,64417,8336,608,-832,62716,351,-253,2,1389808525.254371
3,24,0,13817,11,9,28,13802,8272,2112,-1664,13562,414,64,38,1389808525.254376
2,25,0,567,-2,-56,29,761,8288,720,-800,65278,347,-250,2,1389808525.265871
3,25,0,15817,7,10,34,15678,8288,2224,-1520,13562,414,64,38,1389808525.265875
2,26,0,2556,12,-55,22,2641,8304,560,-800,2302,350,-249,4,1389808525.265991
3,26,0,17816,5,20,27,17555,8240,2128,-1392,16140,414,63,42,1389808525.271267
2,27,0,4546,7,-56,18,4521,8240,624,-768,4862,352,-253,4,1389808525.282935
3,27,0,18816,10,7,26,19433,8192,2096,-1408,18718,410,60,42,1389808525.282940
2,28,0,6536,-7,-64,11,6402,8272,720,-736,4862,352,-253,4,1389808525.294864
3,28,0,20816,29,4,21,21309,8192,2128,-1568,21297,412,65,37,1389808525.294872
2,29,0,8525,-18,-66,0,8282,8208,816,-720,7422,347,-251,5,1389808525.306096
3,29,0,22815,16,-1,19,23186,8208,2144,-1584,21297,412,65,37,1389808525.306110
2,30,0,9520,-30,-59,-3,10163,8144,896,-672,9982,350,-248,2,1389808525.306418
3,30,0,24815,1,6,14,25063,8256,2224,-1600,23876,414,60,44,1389808525.306616
2,31,0,11510,-30,-54,-6,12044,8144,896,-688,9982,350,-248,2,1389808525.324458
3,31,0,26814,6,7,23,26938,8272,2240,-1536,26453,410,57,42,1389808525.324467
2,32,0,13500,-29,-43,6,13925,8160,848,-736,12543,347,-252,5,1389808525.336625
3,32,0,28814,17,10,21,28815,8320,2240,-1584,29032,408,65,39,1389808525.336633
2,33,0,15489,-9,-45,20,15805,8224,800,-800,15103,347,-251,5,1389808525.336838
3,33,0,30813,23,10,8,30691,8288,2320,-1648,29032,408,65,39,1389808525.336844
2,34,0,17479,-14,-39,28,17685,8304,784,-912,17664,347,-249,6,1389808525.354626
3,34,0,32813,10,7,15,32568,8288,2272,-1760,31610,415,61,40,1389808525.354635
2,35,0,19469,-26,-37,22,19566,8352,720,-912,17664,347,-249,6,1389808525.366299
3,35,0,33813,4,4,23,34445,8192,2208,-1776,34187,412,62,43,1389808525.366308
2,36,0,21458,-45,-51,13,21447,8320,720,-880,20224,355,-255,4,1389808525.366574
3,36,0,35812,-23,20,37,36322,8144,2304,-1712,34187,412,62,43,1389808525.366580
2,37,0,23448,-50,-39,12,23328,8208,784,-768,22785,348,-251,7,1389808525.384477
3,37,0,37812,-28,25,41,38198,8144,2176,-1696,36767,409,64,38,1389808525.384486
2,38,0,25438,-50,-23,0,25209,8224,768,-752,25346,348,-248,10,1389808525.396127
3,38,0,39811,-35,23,46,40075,8160,2240,-1664,39346,412,69,39,1389808525.396135
2,39,0,26433,-50,-19,-11,27089,8208,848,-768,25346,348,-248,10,1389808525.396337
3,39,0,41811,-39,29,46,41952,8240,2192,-1712,41924,414,63,39,1389808525.396342
2,40,0,28422,-65,-22,-14,28969,8240,800,-880,27906,350,0,4,1389808525.413895
3,40,0,43811,-52,29,45,43828,8256,2176,-1744,41924,414,63,39,1389808525.413909
2,41,0,30412,-84,-40,3,30850,8224,816,-928,30467,350,-508,5,1389808525.425396
3,41,0,45810,-63,19,44,45705,8224,2192,-1792,44503,409,68,39,1389808525.425405
2,42,0,32402,-99,-41,-4,32731,8224,848,-1008,30467,350,-508,5,1389808525.431616
3,42,0,47810,-80,11,27,47582,8176,2176,-1904,47082,413,68,38,1389808525.431931
2,43,0,34391,-119,-38,-9,34611,8192,928,-928,33027,346,-247,9,1389808525.444008
3,43,0,48809,-87,10,22,49458,8144,2256,-1904,49660,408,67,41,1389808525.444058
2,44,0,36381,-130,-32,-10,36491,8160,928,-896,35587,350,-249,9,1389808525.456398
3,44,0,50809,-97,4,23,51335,8144,2224,-1888,49660,408,67,41,1389808525.456407
2,45,0,38371,-146,-21,-12,38371,8176,992,-768,38147,350,-250,10,1389808525.456690
3,45,0,52808,-108,5,34,53211,8176,2224,-1824,52239,409,69,39,1389808525.456696
2,46,0,40360,-136,-12,-17,40251,8224,1024,-672,38147,350,-250,10,1389808525.474482
3,46,0,54808,-112,2,35,55088,8224,2224,-1744,54818,411,70,34,1389808525.474491
2,47,0,42350,-121,-12,-12,42131,8192,1088,-624,40708,350,-249,10,1389808525.486531
3,47,0,56808,-104,-4,22,56965,8224,2176,-1696,54818,411,70,34,1389808525.486539
2,48,0,43345,-122,-18,-14,44010,8144,1088,-560,43268,353,-247,7,1389808525.486735
3,48,0,58807,-94,-6,17,58842,8192,2240,-1712,57396,411,67,40,1389808525.486740
2,49,0,45335,-119,-37,4,45891,8144,1072,-592,45830,352,-250,10,1389808525.504729
3,49,0,60807,-90,-3,4,60719,8192,2240,-1712,59975,409,71,40,1389808525.504738
2,50,0,47324,-101,-37,19,47770,8160,1088,-576,45830,352,-250,10,1389808525.516469
3,50,0,62806,-97,0,7,62596,8160,2224,-1744,62555,408,74,34,1389808525.516484
2,51,0,49314,-97,-42,30,49651,8240,1088,-496,48391,348,-247,15,1389808525.516812
3,51,0,63806,-95,0,7,64473,8160,2240,-1680,62555,408,74,34,1389808525.516823
2,52,0,51304,-93,-41,28,51531,8288,976,-448,50951,353,-244,11,1389808525.533705
3,52,0,270,-91,5,16,813,8192,2240,-1584,65134,409,69,37,1389808525.533714
2,53,0,53293,-70,-44,30,53411,8304,880,-464,53513,350,-250,12,1389808525.545475
3,53,0,2269,-89,4,9,2690,8176,2272,-1616,2176,409,68,36,1389808525.545483
2,54,0,55283,-89,-43,21,55291,8240,1040,-528,53513,350,-250,12,1389808525.551704
3,54,0,4269,-85,5,6,4568,8224,2192,-1664,4755,409,74,32,1389808525.551902
2,55,0,57273,-71,-45,14,57171,8240,896,-624,56072,348,-246,17,1389808525.564136
3,55,0,6268,-84,8,2,6445,8256,2128,-1584,4755,409,74,32,1389808525.564150
2,56,0,58267,-63,-35,9,59051,8256,832,-624,58633,350,-243,13,1389808525.576335
3,56,0,8268,-70,6,3,8324,8304,2048,-1648,7333,410,70,34,1389808525.576344
2,57,0,60257,-55,-32,0,60931,8240,976,-592,58633,350,-243,13,1389808525.576608
3,57,0,10267,-46,-1,0,10201,8272,2208,-1552,9911,408,71,41,1389808525.576614
2,58,0,62247,-41,-18,-10,62812,8256,976,-496,61193,350,-249,14,1389808525.594590
3,58,0,12267,-31,-1,-15,12077,8240,2176,-1472,9911,408,71,41,1389808525.594599
2,59,0,64236,-16,-33,-19,64692,8208,928,-528,63753,348,-244,13,1389808525.606084
3,59,0,13267,-26,6,-14,13955,8256,2144,-1424,12490,409,69,37,1389808525.606092
2,60,0,690,-11,-46,-7,1037,8208,944,-544,778,348,-244,15,1389808525.606357
3,60,0,15266,-15,17,-28,15833,8224,2144,-1360,15070,411,70,36,1389808525.606362
2,61,0,2680,5,-37,-14,2916,8224,928,-608,778,348,-244,15,1389808525.624299
3,61,0,17266,1,8,-34,17710,8224,2224,-1472,17650,411,69,39,1389808525.624309
2,62,0,4670,23,-31,-11,4796,8128,880,-656,3338,354,-245,13,1389808525.636426
3,62,0,19265,12,-5,-36,19587,8160,2240,-1488,17650,411,69,39,1389808525.636435
2,63,0,6659,31,-29,3,6676,8144,816,-624,5899,349,-247,15,1389808525.636642
3,63,0,21265,36,16,-30,21465,8128,2272,-1584,20229,410,72,32,1389808525.636647
2,64,0,8649,44,-31,5,8556,8224,768,-608,8460,348,-244,16,1389808525.654437
3,64,0,23264,26,32,-27,23343,8064,2224,-1600,22809,411,71,32,1389808525.654446
2,65,0,9644,37,-34,3,10436,8256,832,-608,8460,348,-244,16,1389808525.666558
3,65,0,25264,7,23,-14,25219,8112,2256,-1552,25388,409,67,38,1389808525.666568
2,66,0,11633,47,-40,-2,12317,8256,896,-624,11021,353,-247,13,1389808525.666821
3,66,0,27263,-4,40,8,27096,8192,2160,-1504,25388,409,67,38,1389808525.666829
2,67,0,13623,54,-44,-7,14198,8224,848,-560,13581,349,-247,15,1389808525.684396
3,67,0,28263,-9,42,14,28973,8272,2256,-1408,27967,408,72,34,1389808525.684405
2,68,0,15613,56,-46,7,16077,8240,880,-528,16141,348,-244,19,1389808525.696205
3,68,0,30263,-8,50,19,30851,8336,2160,-1344,30547,409,76,32,1389808525.696213
2,69,0,17602,75,-42,10,17958,8192,784,-464,16141,348,-244,19,1389808525.696494
3,69,0,32262,-1,39,16,32728,8288,2144,-1312,30547,409,76,32,1389808525.696516
2,70,0,19592,80,-40,18,19837,8160,704,-448,18701,355,-242,15,1389808525.714627
3,70,0,34262,-2,43,14,34605,8304,2128,-1280,33126,409,68,38,1389808525.714635
2,71,0,21582,102,-42,11,21717,8272,560,-448,21262,348,-246,15,1389808525.726676
3,71,0,36261,14,21,7,36483,8320,2144,-1248,35707,408,71,34,1389808525.726683
2,72,0,23571,111,-40,5,23598,8304,560,-656,21262,348,-246,15,1389808525.726983
3,72,0,38261,21,30,-7,38361,8256,2224,-1216,38286,407,74,29,1389808525.726988
2,73,0,25561,137,-14,-18,25477,8272,544,-864,23822,348,-244,15,1389808525.744044
3,73,0,40260,21,27,-12,40238,8256,2144,-1328,38286,407,74,29,1389808525.744052
2,74,0,26556,138,5,-31,27357,8256,544,-944,26382,353,-247,15,1389808525.755997
3,74,0,42260,9,13,-16,42115,8192,2208,-1328,40866,412,72,33,1389808525.756005
2,75,0,28546,130,31,-37,29237,8240,416,-880,28942,351,-248,12,1389808525.756224
3,75,0,43260,-4,19,-7,43993,8256,2208,-1280,43445,409,71,33,1389808525.756416
2,76,0,30535,103,37,-13,31117,8208,400,-768,28942,351,-248,12,1389808525.773995
3,76,0,45259,-25,23,-13,45870,8288,2320,-1200,46023,411,73,31,1389808525.774003
2,77,0,32525,100,37,-17,32997,8176,464,-624,31502,348,-246,13,1389808525.786257
3,77,0,47259,-28,21,-20,47747,8288,2368,-1168,46023,411,73,31,1389808525.786265
2,78,0,34515,91,34,-9,34877,8192,496,-464,34065,352,-246,13,1389808525.786466
3,78,0,49258,-14,8,-41,49625,8384,2368,-1168,48603,413,72,35,1389808525.786471
2,79,0,36504,92,27,19,36757,8112,496,-368,36625,353,-247,8,1389808525.804294
3,79,0,51258,4,-6,-51,51502,8320,2416,-1168,51181,408,71,35,1389808525.804303
2,80,0,38494,96,27,7,38637,8112,480,-576,36625,353,-247,8,1389808525.816469
3,80,0,53258,15,-30,-81,53379,8256,2384,-1264,51181,408,71,35,1389808525.816484
2,81,0,40484,97,26,5,40517,8176,288,-832,39185,347,-243,13,1389808525.816809
3,81,0,55257,27,-10,-102,55256,8256,2288,-1456,53760,408,72,32,1389808525.816819
2,82,0,41479,103,37,0,42397,8240,176,-1120,41747,351,-243,13,1389808525.834203
3,82,0,57257,43,23,-109,57133,8208,2256,-1712,56338,409,72,32,1389808525.834212
2,83,0,43468,74,47,-5,44276,8304,320,-1136,41747,351,-243,13,1389808525.845928
3,83,0,58256,34,44,-114,59011,8144,2192,-1712,58916,409,66,33,1389808525.845936
2,84,0,45458,22,58,-27,46157,8320,432,-1008,44308,349,-246,11,1389808525.846184
3,84,0,60256,-6,59,-96,60888,8192,2128,-1664,58916,409,66,33,1389808525.846436
2,85,0,47448,-10,56,-45,48038,8256,416,-960,46868,349,-245,10,1389808525.863825
3,85,0,62255,-45,80,-77,62766,8192,2112,-1472,61496,408,72,31,1389808525.863839
2,86,0,49437,-27,55,-43,49919,8192,416,-864,49430,349,-244,8,1389808525.875862
3,86,0,64255,-67,82,-64,64642,8256,2144,-1200,64075,411,70,29,1389808525.875877
2,87,0,51427,-17,29,-11,51801,8144,256,-736,49430,349,-244,8,1389808525.876188
3,87,0,719,-91,90,-52,984,8240,2032,-992,1118,411,64,33,1389808525.876496
2,88,0,53417,-31,4,5,53681,8096,256,-640,51991,351,-247,8,1389808525.894688
3,88,0,2718,-82,74,-64,2861,8208,1952,-960,1118,411,64,33,1389808525.894703
2,89,0,55406,-35,0,-21,55562,8096,416,-704,54552,347,-244,12,1389808525.906733
3,89,0,4718,-68,46,-80,4739,8192,1904,-1024,3697,408,66,25,1389808525.906742
2,90,0,57396,-50,-16,-30,57441,8080,528,-752,57113,351,-242,11,1389808525.907063
3,90,0,6717,-65,22,-87,6616,8192,2032,-1088,6276,410,70,26,1389808525.907069
2,91,0,58391,-57,-15,-38,58851,8016,528,-880,57113,351,-242,11,1389808525.924733
3,91,0,7717,-60,19,-92,8493,8176,2128,-1120,6276,410,70,26,1389808525.924741
2,92,0,60381,-64,-1,-30,60731,8032,544,-912,59674,355,-251,10,1389808525.936526
3,92,0,9717,-47,25,-104,10370,8128,2192,-1168,8855,413,66,30,1389808525.936535
2,93,0,62370,-74,-10,-11,62612,8048,480,-928,62233,347,-245,8,1389808525.936803
3,93,0,11716,-44,34,-98,12247,8144,2240,-1296,11434,410,68,30,1389808525.936809
2,94,0,64360,-66,-8,13,64492,8096,496,-880,64792,351,-241,12,1389808525.954187
3,94,0,13716,-48,52,-86,14124,8112,2128,-1392,14012,412,69,26,1389808525.954195
2,95,0,814,-62,-26,24,837,8128,400,-848,64792,351,-241,12,1389808525.966499
3,95,0,15715,-69,61,-44,16001,8128,2080,-1392,14012,412,69,26,1389808525.966515
2,96,0,2803,-83,-20,36,2717,8112,464,-768,1817,350,-248,12,1389808525.966887
3,96,0,17715,-103,80,-5,17879,8048,2192,-1264,16591,414,65,30,1389808525.966895
2,97,0,4793,-104,-17,25,4597,8144,576,-544,4377,350,-245,9,1389808525.984936
3,97,0,19714,-104,96,18,19756,8032,2176,-1168,19169,411,68,28,1389808525.984945
2,98,0,6783,-100,-22,11,6478,8080,688,-512,4377,350,-245,9,1389808525.997009
3,98,0,21714,-85,115,39,21633,7936,2176,-1232,21748,411,69,20,1389808525.997018
2,99,0,8772,-74,-35,20,8358,7968,896,-528,6937,349,-242,10,1389808525.997296
3,99,0,22714,-73,129,47,23510,7856,2240,-1456,21748,411,69,20,1389808525.997302
2,100,0,9767,-68,-46,19,10238,7824,960,-512,9498,354,-242,13,1389808526.15299
3,100,0,24713,-53,146,60,25387,7840,2272,-1664,24327,417,67,24,1389808526.15314
2,101,0,11757,-44,-70,38,12118,7808,976,-400,12058,352,-242,11,1389808526.21544
3,101,0,26713,-59,156,81,27264,7904,2352,-1680,26906,413,70,22,1389808526.21804
2,102,0,13747,-31,-83,78,13997,7984,992,-368,12058,352,-242,11,1389808526.33677
3,102,0,28712,-62,161,102,29142,8080,2448,-1760,26906,413,70,22,1389808526.33687
2,103,0,15736,-17,-97,105,15877,8208,1040,-304,14620,347,-240,13,1389808526.45825
3,103,0,30712,-40,171,109,31020,8224,2496,-1728,29485,410,74,20,1389808526.45834
2,104,0,17726,-2,-108,125,17758,8384,960,-336,17182,353,-238,15,1389808526.46085
3,104,0,32711,-20,177,114,32898,8416,2512,-1632,32062,416,74,17,1389808526.52112
2,105,0,19716,18,-128,143,19638,8688,880,-352,19742,351,-240,14,1389808526.64308
3,105,0,34711,0,161,112,34775,8688,2496,-1648,34641,414,71,20,1389808526.64317
2,106,0,21705,17,-132,157,21519,8880,752,-480,19742,351,-240,14,1389808526.75944
3,106,0,36710,1,162,105,36652,8896,2352,-1664,34641,414,71,20,1389808526.75959
2,107,0,23695,10,-133,166,23400,8912,608,-608,22302,348,-234,20,1389808526.76303
3,107,0,37710,4,161,105,38529,8896,2240,-1760,37219,408,76,12,1389808526.76612
2,108,0,24690,-8,-133,165,25280,8752,512,-848,24863,353,-234,22,1389808526.94703
3,108,0,39710,9,162,94,40406,8800,2128,-1936,39797,412,77,14,1389808526.94718
2,109,0,26679,-26,-129,154,27161,8480,544,-896,27423,353,-233,16,1389808526.106376
3,109,0,41709,11,205,96,42284,8352,2096,-2192,42375,413,73,12,1389808526.106387
2,110,0,28669,-62,-116,121,29042,8096,704,-944,27423,353,-233,16,1389808526.106593
3,110,0,43709,-3,262,104,44162,8064,2000,-2272,42375,413,73,12,1389808526.106598
2,111,0,30659,-106,-109,107,30923,7648,880,-832,29984,356,-230,26,1389808526.124243
3,111,0,45708,-20,343,119,46039,7744,1936,-2320,44954,409,75,9,1389808526.124251
2,112,0,32648,-119,-112,108,32803,7344,1040,-576,32544,356,-228,24,1389808526.136004
3,112,0,47708,-46,438,126,47916,7600,1728,-2352,47534,409,80,3,1389808526.136013
2,113,0,34638,-105,-134,140,34684,7248,1344,-528,32544,356,-228,24,1389808526.136252
3,113,0,49707,-68,516,153,49793,7504,1568,-2432,47534,409,80,3,1389808526.136494
2,114,0,36628,-55,-164,165,36564,7184,1360,-736,35105,355,-230,21,1389808526.154464
3,114,0,51707,-93,546,181,51671,7568,1344,-2352,50112,414,80,4,1389808526.154474
2,115,0,38617,40,-158,199,38444,7232,1056,-1200,37666,351,-229,25,1389808526.166425
3,115,0,52707,-125,550,198,53548,7904,1152,-2144,52691,413,83,-2,1389808526.166433
2,116,0,40607,104,-139,235,40324,7552,768,-1760,40228,356,-224,25,1389808526.166671
3,116,0,54706,-131,532,205,55425,8192,896,-2016,55268,411,89,-13,1389808526.166678
2,117,0,41602,118,-121,248,42204,8032,544,-2240,40228,356,-224,25,1389808526.184610
3,117,0,56706,-125,473,175,57303,8528,864,-1824,55268,411,89,-13,1389808526.184619
2,118,0,43592,109,-91,255,44084,8480,400,-2528,42789,359,-226,25,1389808526.196522
3,118,0,58705,-127,432,120,59180,8928,816,-1552,57846,413,89,-13,1389808526.196530
2,119,0,45581,63,-60,234,45965,8880,368,-2464,45350,352,-222,25,1389808526.196800
3,119,0,60705,-130,387,68,61056,9168,672,-1536,60423,410,87,-18,1389808526.196806
2,120,0,47571,2,-22,193,47845,9120,512,-2144,47911,357,-217,26,1389808526.214533
3,120,0,62705,-176,324,58,62932,9200,576,-1344,63002,409,90,-25,1389808526.214548
2,121,0,49561,-24,4,128,49725,9072,496,-1744,47911,357,-217,26,1389808526.226700
3,121,0,64704,-173,245,28,64809,9152,704,-1008,63002,409,90,-25,1389808526.226709
2,122,0,51550,6,5,104,51606,8976,464,-1456,50473,360,-220,25,1389808526.226955
3,122,0,1168,-130,160,-27,1150,9008,1040,-752,44,414,80,-24,1389808526.226962
2,123,0,53540,48,-13,106,53487,8816,592,-1168,53033,357,-219,27,1389808526.245053
3,123,0,2167,-112,121,-37,3027,8848,1504,-720,2623,412,87,-24,1389808526.245062
2,124,0,55530,103,-45,121,55368,8640,544,-1248,55595,357,-216,26,1389808526.257243
3,124,0,4167,-37,72,-40,4905,8656,1664,-1040,2623,412,87,-24,1389808526.257253
2,125,0,57519,145,-64,133,57249,8592,368,-1424,55595,357,-216,26,1389808526.257519
3,125,0,6166,64,73,-40,6781,8352,1616,-1600,5201,410,89,-27,1389808526.257525
2,126,0,58514,154,-62,129,59130,8544,224,-1696,58155,359,-218,23,1389808526.275152
3,126,0,8166,105,109,-32,8659,8192,1632,-2064,7779,416,86,-27,1389808526.275161
2,127,0,60504,139,-52,109,61010,8464,272,-1744,60716,355,-215,25,1389808526.287133
3,127,0,10166,89,149,-8,10536,8144,1456,-2128,10358,413,86,-26,1389808526.287142
2,128,0,62494,80,-34,85,62891,8320,320,-1536,60716,355,-215,25,1389808526.287378
3,128,0,12165,42,197,23,12414,8128,1440,-1984,10358,413,86,-26,1389808526.287385
2,129,0,64483,11,-42,65,64773,8192,608,-1264,63276,355,-211,28,1389808526.303574
3,129,0,14165,23,222,45,14291,8144,1424,-1856,12935,411,93,-30,1389808526.303583
2,130,0,937,-16,-53,45,1117,7984,848,-1184,302,362,-212,26,1389808526.315668
3,130,0,16164,27,233,43,16168,8064,1440,-1808,15513,411,90,-32,1389808526.315677
2,131,0,2927,-20,-71,56,2998,7824,1040,-1136,2863,356,-214,27,1389808526.315926
3,131,0,17164,26,231,37,18045,7952,1552,-1680,18091,411,88,-32,1389808526.322051
2,132,0,4916,-17,-88,80,4879,7792,992,-1024,2863,356,-214,27,1389808526.333533
3,132,0,19164,21,219,35,19922,7808,1504,-1664,18091,411,88,-32,1389808526.333542
2,133,0,6906,5,-112,91,6759,7696,928,-912,5424,357,-211,31,1389808526.345683
3,133,0,21163,37,205,45,21798,7600,1280,-1664,20668,411,89,-36,1389808526.345698
2,134,0,7901,25,-122,105,8640,7664,976,-944,7985,360,-211,27,1389808526.346007
3,134,0,23163,67,172,41,23675,7536,1120,-1840,23246,413,92,-39,1389808526.352190
2,135,0,9891,74,-138,123,10521,7664,864,-1072,10545,351,-210,29,1389808526.363733
3,135,0,25162,70,158,38,25553,7472,1168,-1872,23246,413,92,-39,1389808526.363742
2,136,0,11880,121,-158,123,12401,7744,832,-1312,10545,351,-210,29,1389808526.375286
3,136,0,27162,67,156,40,27429,7520,1232,-1792,25824,413,89,-36,1389808526.375295
2,137,0,13870,156,-167,121,14282,7792,768,-1584,13106,351,-206,35,1389808526.387422
3,137,0,29161,70,140,36,29306,7568,1248,-1744,28401,409,92,-38,1389808526.387432
2,138,0,15860,148,-161,106,16163,7872,752,-1728,15666,363,-206,31,1389808526.387701
3,138,0,31161,77,123,39,31182,7632,1120,-1744,30980,409,94,-42,1389808526.387707
2,139,0,17849,118,-154,78,18043,7920,800,-1808,18228,359,-210,33,1389808526.405693
3,139,0,32161,82,115,31,33058,7616,1136,-1808,30980,409,94,-42,1389808526.405702
2,140,0,19839,98,-137,60,19923,7920,832,-1744,18228,359,-210,33,1389808526.405952
3,140,0,34160,93,93,21,34934,7680,1136,-1840,33558,411,89,-40,1389808526.412315
2,141,0,21829,80,-126,19,21803,7824,992,-1600,20789,355,-206,31,1389808526.424502
3,141,0,36160,112,81,16,36811,7728,1104,-1840,36137,411,93,-41,1389808526.424512
2,142,0,23818,91,-124,14,23682,7936,944,-1504,23349,362,-203,35,1389808526.436410
3,142,0,38159,116,63,1,38687,7856,1120,-1648,38715,412,95,-44,1389808526.436420
2,143,0,24813,97,-124,11,25563,8016,1056,-1360,23349,362,-203,35,1389808526.436685
3,143,0,40159,121,33,4,40564,7904,992,-1488,38715,412,95,-44,1389808526.436692
2,144,0,26803,105,-108,-2,27444,8016,1088,-1216,25909,361,-208,33,1389808526.454204
3,144,0,42158,164,5,-3,42441,8000,720,-1376,41293,412,89,-43,1389808526.454213
2,145,0,28793,152,-117,-2,29325,8016,944,-1040,28469,356,-207,39,1389808526.466278
3,145,0,44158,217,-42,-31,44318,8064,624,-1392,43872,406,92,-39,1389808526.466288
2,146,0,30782,233,-131,6,31205,8064,816,-1136,31030,358,-205,41,1389808526.466522
3,146,0,46157,259,-88,-79,46194,8096,560,-1296,43872,406,92,-39,1389808526.466571
2,147,0,32772,331,-157,3,33086,8192,528,-1344,31030,358,-205,41,1389808526.484612
3,147,0,47157,265,-100,-84,48071,8128,736,-1120,46449,406,95,-39,1389808526.484626
2,148,0,34762,408,-182,-4,34966,8416,368,-1696,33592,355,-213,36,1389808526.496754
3,148,0,49157,249,-147,-89,49947,8128,992,-1072,49027,411,93,-38,1389808526.496763
2,149,0,36751,414,-190,-46,36847,8544,560,-1968,36152,355,-210,35,1389808526.497032
3,149,0,51156,315,-192,-90,51823,8000,1360,-1376,51605,411,86,-32,1389808526.497038
2,150,0,38741,363,-187,-71,38728,8672,608,-2192,38712,357,-207,40,1389808526.515097
3,150,0,53156,387,-225,-83,53701,7952,1536,-1872,51605,411,86,-32,1389808526.515112
2,151,0,40731,273,-184,-111,40608,8720,688,-2192,38712,357,-207,40,1389808526.526970
3,151,0,55155,403,-220,-49,55579,7888,1776,-2192,54181,412,90,-34,1389808526.526985
2,152,0,41725,231,-182,-134,42488,8624,720,-2144,41271,361,-217,39,1389808526.527308
3,152,0,57155,421,-191,4,57457,7936,1984,-2592,56759,412,88,-30,1389808526.527319
2,153,0,43715,153,-183,-158,44369,8544,976,-1952,43832,356,-212,41,1389808526.544745
3,153,0,59154,420,-147,67,59334,7936,2016,-3040,56759,412,88,-30,1389808526.544753
2,154,0,45705,90,-211,-154,46248,8560,1056,-1872,43832,356,-212,41,1389808526.556916
3,154,0,61154,377,-93,136,61210,8112,1952,-3584,59337,408,89,-22,1389808526.556925
2,155,0,47694,65,-245,-102,48128,8624,1040,-1952,46392,351,-210,42,1389808526.557186
3,155,0,62154,352,-66,178,63087,8352,1824,-4032,61915,408,91,-25,1389808526.557192
2,156,0,49684,15,-275,-32,50008,8960,1056,-1952,48953,357,-211,42,1389808526.574730
3,156,0,64153,259,4,238,64964,8896,1408,-4016,64493,410,94,-25,1389808526.574739
2,157,0,51674,-17,-272,51,51888,9472,912,-1760,51514,354,-212,46,1389808526.586546
3,157,0,617,62,41,307,1305,9840,832,-3280,64493,410,94,-25,1389808526.586555
2,158,0,53664,-34,-276,84,53768,9808,784,-1408,51514,354,-212,46,1389808526.586722
3,158,0,2616,-119,42,343,3184,10736,576,-1968,1535,410,98,-22,1389808526.586727
2,159,0,55653,19,-271,78,55647,10112,608,-1424,54075,351,-206,51,1389808526.604455
3,159,0,4616,-134,-24,321,5061,11328,512,-992,4113,408,102,-25,1389808526.604464
2,160,0,56648,70,-267,73,57527,10176,192,-1744,56636,354,-207,52,1389808526.616555
3,160,0,6615,-79,-156,236,6938,11456,784,-624,6692,407,104,-27,1389808526.616564
2,161,0,58638,172,-269,88,59407,10496,-304,-2272,59197,354,-207,49,1389808526.616831
3,161,0,8615,33,-298,143,8815,11152,1456,-800,6692,407,104,-27,1389808526.616837
2,162,0,60627,232,-255,94,61287,10944,-432,-2928,59197,354,-207,49,1389808526.634825
3,162,0,10615,165,-414,81,10693,10832,2384,-1536,9269,406,104,-20,1389808526.634835
2,163,0,62617,142,-234,73,63167,11536,-272,-3376,61757,358,-206,60,1389808526.646780
3,163,0,11614,207,-445,68,12571,10672,2880,-2352,11848,406,103,-18,1389808526.646794
2,164,0,64607,-69,-193,42,65048,11856,224,-3504,64319,358,-203,58,1389808526.647109
3,164,0,13614,223,-483,68,13979,10448,3008,-2896,14426,405,107,-15,1389808526.647119
2,165,0,1060,-314,-149,-30,1393,11488,1040,-2864,1345,355,-210,55,1389808526.665254
3,165,0,15613,178,-456,142,16325,9984,2960,-3760,14426,405,107,-15,1389808526.665265
2,166,0,3050,-486,-130,-161,3273,10208,1936,-1504,1345,355,-210,55,1389808526.677413
3,166,0,17613,107,-367,257,18202,9456,2224,-4144,17006,405,102,-10,1389808526.677422
2,167,0,5040,-499,-87,-236,5153,8720,2208,128,3906,350,-206,65,1389808526.677684
3,167,0,19613,-15,-252,334,20079,9024,1216,-4048,19585,401,110,-8,1389808526.677690
2,168,0,7029,-330,-58,-244,7033,7776,2528,1520,6466,353,-208,63,1389808526.695565
3,168,0,21612,-169,-188,368,21956,8896,672,-3056,19585,401,110,-8,1389808526.695573
2,169,0,8024,-216,-54,-256,8913,7232,2512,2032,6466,353,-208,63,1389808526.695819
3,169,0,23612,-234,-202,345,23833,8992,1024,-1408,22163,402,117,-5,1389808526.707875
2,170,0,10014,69,-95,-220,10793,7504,1856,1856,9027,355,-209,60,1389808526.708148
3,170,0,25611,-190,-315,193,25710,9152,1968,16,24742,400,117,-5,1389808526.708154
2,171,0,12004,263,-185,-119,12673,8208,2288,1392,11587,350,-215,66,1389808526.725490
3,171,0,26611,-129,-399,78,27586,8928,2864,640,27320,399,114,-1,1389808526.725497
2,172,0,13993,259,-285,-48,14552,8912,2592,720,14149,352,-209,70,1389808526.731720
3,172,0,28611,85,-552,-92,29464,8528,3376,64,27320,399,114,-1,1389808526.731908
2,173,0,15983,236,-292,15,16432,9040,2080,784,14149,352,-209,70,1389808526.743849
3,173,0,30610,356,-653,-184,31341,8000,3536,-1216,29899,396,116,4,1389808526.743857
2,174,0,17973,247,-193,-84,18312,8256,2128,1504,16712,355,-212,63,1389808526.755533
3,174,0,32610,526,-657,-258,33218,7296,3952,-2656,32477,399,112,11,1389808526.755542
2,175,0,19962,190,-79,-218,20193,7328,2112,2112,19272,349,-213,68,1389808526.755737
3,175,0,34609,514,-564,-312,34625,6896,4528,-3584,35055,398,106,21,1389808526.767910
2,176,0,21952,86,-29,-270,21603,6784,2224,2128,21833,349,-209,70,1389808526.768186
3,176,0,36609,460,-399,-254,36971,6400,5232,-4160,35055,398,106,21,1389808526.768192
2,177,0,23942,75,-53,-218,23482,6624,2784,2160,21833,349,-209,70,1389808526.786043
3,177,0,38608,376,-195,-146,38848,6192,5504,-4112,37633,399,105,22,1389808526.786052
2,178,0,24937,107,-58,-176,25362,6768,3040,2416,24394,351,-216,66,1389808526.786302
3,178,0,40608,328,-23,-56,40256,6144,5680,-3952,40212,401,110,22,1389808526.786500
2,179,0,26926,179,-44,-108,27244,7360,3040,2592,26955,345,-217,65,1389808526.804187
3,179,0,41608,311,43,-6,42132,6416,5600,-3728,40212,401,110,22,1389808526.804196
2,180,0,28916,266,-39,-47,29124,7808,2848,2496,29516,348,-217,67,1389808526.815959
3,180,0,43607,280,131,82,44009,6992,5056,-3504,42790,402,106,25,1389808526.815974
2,181,0,30906,390,-35,2,31005,8160,2208,2176,29516,348,-217,67,1389808526.816281
3,181,0,45607,252,165,147,45886,7648,4464,-3344,45369,396,107,22,1389808526.816589
2,182,0,32895,417,-45,4,32885,8432,1840,1392,32077,352,-218,65,1389808526.834649
3,182,0,47606,236,178,171,47762,8192,4112,-3168,47947,394,112,19,1389808526.834658
2,183,0,34885,399,-56,-29,34765,8768,1648,576,34639,347,-220,62,1389808526.846748
3,183,0,49606,228,184,163,49640,8544,3856,-3088,47947,394,112,19,1389808526.846757
2,184,0,36875,327,-49,-55,36645,8816,1280,-112,34639,347,-220,62,1389808526.847028
3,184,0,51605,212,210,151,51517,8800,3552,-3040,50525,401,108,23,1389808526.847034
2,185,0,38864,198,11,-123,38526,8560,1328,-624,37201,347,-220,65,1389808526.864736
3,185,0,53605,161,224,139,53394,8672,3296,-2928,53103,397,109,20,1389808526.864750
2,186,0,39859,141,34,-160,40407,8112,1456,-560,39761,352,-223,63,1389808526.876943
3,186,0,55604,57,216,141,55271,8256,3024,-2640,55681,396,114,16,1389808526.876952
2,187,0,41849,53,96,-191,42287,7552,1472,48,42322,347,-223,62,1389808526.877344
3,187,0,56604,0,203,154,57148,7744,2752,-2256,55681,396,114,16,1389808526.877353
2,188,0,43839,23,114,-199,44167,7024,1600,752,42322,347,-223,62,1389808526.895254
3,188,0,58604,-74,182,155,59025,7344,2736,-1936,58260,398,108,13,1389808526.895262
2,189,0,45828,42,98,-179,46048,6752,1552,1104,44882,347,-223,63,1389808526.906981
3,189,0,60603,-71,157,133,60902,7152,2704,-1616,60839,397,113,17,1389808526.906990
2,190,0,47818,83,77,-148,47929,6656,1392,880,47442,350,-226,59,1389808526.907267
3,190,0,62603,-34,150,81,62779,7104,2784,-1376,60839,397,113,17,1389808526.907273
2,191,0,49808,131,66,-114,49810,6608,1040,352,50001,349,-228,56,1389808526.925114
3,191,0,64602,8,120,15,64656,7120,2800,-1232,63417,394,117,13,1389808526.925128
2,192,0,51797,140,69,-86,51690,6784,880,-128,50001,349,-228,56,1389808526.936776
3,192,0,1066,41,101,-29,997,7152,2880,-1312,459,399,114,13,1389808526.936785
2,193,0,53787,102,80,-66,53570,7088,848,-528,52563,344,-228,61,1389808526.937053
3,193,0,3065,62,78,-60,2874,7104,2944,-1344,3038,397,111,14,1389808526.937060
2,194,0,55777,39,109,-61,55450,7232,800,-560,55124,351,-225,55,1389808526.955216
2,195,0,56771,1,110,-63,57331,7392,768,-416,57686,346,-230,54,1389808526.966953
3,195,0,6065,65,77,-90,6629,7024,3056,-1744,5617,395,114,10,1389808526.966963
2,196,0,58761,-44,116,-69,59211,7440,768,-48,57686,346,-230,54,1389808526.967278
3,196,0,8064,50,105,-81,8506,6896,3216,-1952,8196,398,115,8,1389808526.967325
2,197,0,60751,-76,117,-70,61092,7328,704,112,60246,343,-225,54,1389808526.985499
3,197,0,10064,26,130,-59,10382,6912,3072,-2144,10774,400,111,13,1389808526.985509
2,198,0,62740,-61,110,-66,62972,7200,720,176,62808,350,-227,56,1389808526.991674
3,198,0,12063,-16,151,-44,12258,6944,3152,-2256,10774,400,111,13,1389808526.991993
2,199,0,64730,-51,96,-50,64853,7088,784,-16,62808,350,-227,56,1389808527.3684
3,199,0,14063,-51,167,-26,14135,6960,3200,-2384,13353,394,115,6,1389808527.3694
2,200,0,1184,-52,112,-29,1197,7120,736,-144,65371,343,-231,55,1389808527.15708
3,200,0,16063,-80,189,-9,16012,7040,3184,-2416,15930,398,114,1,1389808527.15717
2,201,0,3174,-88,116,-7,3077,7216,768,-352,2395,343,-229,53,1389808527.15969
3,201,0,18062,-128,216,11,17888,7200,3072,-2352,15930,398,114,1,1389808527.22126
2,202,0,5163,-117,133,16,4959,7344,752,-336,4956,348,-225,54,1389808527.33940
3,202,0,20062,-171,212,24,19766,7280,3056,-2208,18509,402,110,5,1389808527.33948
2,203,0,7153,-132,129,45,6839,7440,720,-192,4956,348,-225,54,1389808527.45580
3,203,0,22061,-226,206,30,21643,7408,2960,-2032,21087,395,117,0,1389808527.45590
2,204,0,8148,-147,118,58,8720,7504,544,-144,7518,349,-232,50,1389808527.45835
3,204,0,23061,-249,196,19,23520,7456,2912,-1808,23665,400,117,-5,1389808527.57761
2,205,0,10137,-187,101,72,10600,7488,480,-144,10079,345,-223,48,1389808527.58095
3,205,0,25060,-277,178,10,25398,7488,2752,-1664,23665,400,117,-5,1389808527.58106
2,206,0,12127,-200,90,65,12481,7392,512,-208,12639,349,-221,51,1389808527.75976
3,206,0,27060,-304,163,6,27276,7520,2832,-1552,26243,403,115,-3,1389808527.75985
2,207,0,14117,-213,89,56,14361,7424,608,-512,12639,349,-221,51,1389808527.76254
3,207,0,29060,-283,153,-3,29153,7552,2912,-1536,28820,395,118,-8,1389808527.76499
2,208,0,16106,-184,105,67,16240,7424,368,-848,15200,356,-229,47,1389808527.94444
3,208,0,31059,-301,161,-13,31029,7584,2688,-1600,31399,398,117,-11,1389808527.94459
2,209,0,18096,-179,127,98,18121,7520,-48,-1104,17761,346,-224,48,1389808527.105756
3,209,0,33059,-345,177,0,32906,7616,2608,-1648,31399,398,117,-11,1389808527.105764
2,210,0,20086,-259,158,96,20002,7696,-80,-992,17761,346,-224,48,1389808527.107564
3,210,0,35058,-371,160,21,34784,7664,2624,-1744,33977,396,116,-10,1389808527.113573
2,211,0,22075,-342,190,49,21882,7840,112,-960,20321,350,-219,49,1389808527.125254
3,211,0,37058,-410,146,35,36662,7712,2560,-1712,36555,400,116,-12,1389808527.125263
2,212,0,23070,-370,200,36,23763,7744,240,-1024,22882,354,-221,48,1389808527.136779
3,212,0,38058,-441,153,43,38540,7712,2480,-1728,36555,400,116,-12,1389808527.136788
2,213,0,25060,-419,216,3,25643,7584,272,-1088,25442,347,-222,46,1389808527.136999
3,213,0,40057,-487,166,46,40417,7792,2544,-1680,39134,397,120,-20,1389808527.137005
2,214,0,27050,-442,248,-9,27523,7488,336,-944,25442,347,-222,46,1389808527.155162
3,214,0,42057,-531,164,39,42295,7808,2512,-1616,41712,396,122,-20,1389808527.155171
2,215,0,29039,-465,282,-20,29403,7472,352,-816,28003,355,-215,51,1389808527.167431
3,215,0,44056,-563,138,39,44171,7696,2416,-1488,44290,399,119,-21,1389808527.167440
2,216,0,31029,-458,314,-14,31283,7568,416,-832,30563,355,-219,43,1389808527.167707
3,216,0,46056,-593,115,33,46048,7616,2240,-1328,44290,399,119,-21,1389808527.167714
2,217,0,33019,-443,332,-16,33163,7664,384,-848,33126,351,-218,40,1389808527.185574
3,217,0,48055,-592,73,20,47924,7712,2272,-1104,46868,401,125,-28,1389808527.185586
2,218,0,35008,-418,334,-1,35043,8032,416,-512,33126,351,-218,40,1389808527.185799
3,218,0,50055,-567,20,10,49802,7776,2256,-768,49446,395,124,-27,1389808527.197908
2,219,0,36998,-404,294,33,36924,8224,672,16,35688,350,-212,48,1389808527.198391
3,219,0,52054,-556,-26,32,51678,7904,2160,-144,52022,397,122,-32,1389808527.198406
2,220,0,38988,-356,233,52,38804,8448,1072,480,38247,356,-217,38,1389808527.216477
3,220,0,53054,-515,-49,30,53555,8224,2144,320,52022,397,122,-32,1389808527.216491
2,221,0,39983,-285,202,77,40684,8816,1088,768,40808,355,-216,38,1389808527.216806
3,221,0,55054,-310,-69,-14,55431,8672,2144,384,54601,397,126,-31,1389808527.216880
2,222,0,41972,-147,137,112,42565,9184,1312,960,40808,355,-216,38,1389808527.234688
3,222,0,57053,-101,-54,-95,57307,9040,2304,32,57178,397,124,-34,1389808527.234698
2,223,0,43962,-11,50,131,44445,9424,1504,848,43368,353,-212,42,1389808527.246779
3,223,0,59053,116,-25,-189,59184,9360,2560,-720,57178,397,124,-34,1389808527.246789
2,224,0,45952,181,4,193,46326,9472,1024,496,45930,355,-207,37,1389808527.247058
3,224,0,61052,262,27,-235,61061,9600,2736,-1472,59758,399,120,-27,1389808527.247064
2,225,0,47941,348,-31,211,48207,9456,464,-112,45930,355,-207,37,1389808527.264688
3,225,0,63052,281,91,-264,62938,9616,2720,-1984,62338,397,118,-34,1389808527.264703
2,226,0,49931,462,-15,204,50088,9472,240,-1072,48491,356,-210,35,1389808527.276845
3,226,0,65051,227,116,-212,64815,9504,2448,-2304,64916,398,119,-36,1389808527.276854
2,227,0,51921,501,42,148,51968,9584,-336,-2128,51051,355,-206,31,1389808527.277125
3,227,0,1515,111,127,-160,1157,9632,2064,-2368,64916,398,119,-36,1389808527.277131
2,228,0,53910,456,185,83,53848,9728,-880,-3344,53613,355,-207,34,1389808527.294521
3,228,0,2515,39,133,-150,3034,9888,1872,-2176,1958,401,114,-27,1389808527.294529
2,229,0,55900,313,357,-37,55728,10016,-912,-4048,53613,355,-207,34,1389808527.306241
3,229,0,4514,-108,136,-119,4911,10224,1824,-1728,4536,399,116,-33,1389808527.306250
2,230,0,56895,217,444,-99,57608,10240,-560,-4080,56175,358,-212,26,1389808527.306517
3,230,0,6514,-242,100,-122,6789,10544,1776,-1328,7115,400,117,-39,1389808527.306523
2,231,0,58885,17,582,-192,59489,10784,304,-3808,58735,356,-208,22,1389808527.324137
3,231,0,8513,-240,24,-167,8665,11280,2048,-1344,7115,400,117,-39,1389808527.324146
2,232,0,60874,-172,634,-233,61369,11472,992,-3184,61297,357,-210,18,1389808527.336281
3,232,0,10513,-72,-70,-266,10542,12144,2256,-1792,9694,404,111,-31,1389808527.336289
2,233,0,62864,-271,626,-193,63250,11648,944,-2240,61297,357,-210,18,1389808527.336558
3,233,0,12512,164,-154,-409,12419,12480,2944,-2912,12272,401,110,-33,1389808527.336565
2,234,0,64854,-395,579,-128,65131,11616,1456,-1072,63857,360,-212,8,1389808527.354367
3,234,0,14512,278,-197,-538,14296,11408,4160,-4512,12272,401,110,-33,1389808527.354376
2,235,0,1307,-562,482,-180,1475,11184,2208,256,882,354,-213,8,1389808527.366486
3,235,0,16512,169,-185,-500,16173,9440,4688,-6032,14851,400,107,-33,1389808527.366495
2,236,0,3297,-565,347,-232,3356,10256,2800,1232,3443,356,-216,6,1389808527.366693
3,236,0,17511,84,-142,-427,18050,7856,4016,-7232,17429,406,99,-31,1389808527.366700
2,237,0,5287,-450,204,-202,5237,9120,3056,1248,3443,356,-216,6,1389808527.384297
3,237,0,19511,-90,-39,-322,19927,6688,3488,-7424,20008,405,99,-28,1389808527.384306
2,238,0,6281,-388,158,-176,7118,8080,3008,768,6003,361,-217,6,1389808527.395917
3,238,0,21510,-384,55,-260,21804,6224,3728,-6512,20008,405,99,-28,1389808527.395926
2,239,0,8271,-286,109,-105,8999,7216,2624,64,8565,356,-216,8,1389808527.396169
3,239,0,23510,-673,119,-145,23680,6080,3872,-5024,22587,403,99,-37,1389808527.396417
2,240,0,10261,-282,154,-52,10879,6656,2480,-528,8565,356,-216,8,1389808527.413429
3,240,0,25510,-837,107,-54,25558,5936,3904,-3872,25166,407,102,-34,1389808527.413437
2,241,0,12250,-402,161,-36,12760,6688,2784,-864,11126,356,-215,7,1389808527.425526
3,241,0,27509,-895,59,-6,27434,5600,4112,-3264,27745,410,95,-35,1389808527.425534
2,242,0,14240,-500,63,34,14640,7168,2608,-864,13687,360,-213,8,1389808527.425773
3,242,0,29509,-803,4,63,29312,5488,3952,-3392,27745,410,95,-35,1389808527.437839
2,243,0,16230,-540,-72,184,16520,7888,2288,-672,16249,354,-212,7,1389808527.438117
3,243,0,31508,-660,-16,75,31189,6144,3552,-3904,30323,406,102,-41,1389808527.438123
2,244,0,18220,-621,-126,252,18399,8384,2176,-608,16249,354,-212,7,1389808527.456315
3,244,0,32508,-624,-15,59,33065,7216,3344,-4368,32902,406,102,-45,1389808527.456324
2,245,0,20209,-696,-43,223,20279,8544,2144,-592,18809,357,-206,10,1389808527.456591
3,245,0,34507,-692,-3,91,34943,7872,3248,-4352,32902,406,102,-45,1389808527.456597
2,246,0,22199,-777,60,166,22159,8608,2176,-432,21369,359,-204,11,1389808527.474443
3,246,0,36507,-818,-28,154,36820,8048,3072,-3856,35480,407,102,-41,1389808527.474452
2,247,0,23194,-821,77,163,24040,8656,2352,-192,23931,357,-205,12,1389808527.486649
3,247,0,38507,-899,-108,161,38696,8064,2960,-3264,38059,403,107,-48,1389808527.486658
3,248,0,40506,-896,-182,167,40573,7904,2960,-2736,40639,402,109,-49,1389808527.486863
2,249,0,27173,-847,-77,165,27799,8608,2368,240,26492,358,-201,18,1389808527.504574
3,249,0,42506,-811,-218,140,42450,7824,2976,-2496,40639,402,109,-49,1389808527.504584
2,250,0,29163,-791,-182,181,29681,8672,2176,240,29052,361,-194,19,1389808527.516775
3,250,0,44505,-700,-225,107,44327,7760,3040,-2496,43217,407,105,-47,1389808527.516790
2,251,0,31152,-733,-221,167,31561,8592,2032,-32,29052,361,-194,19,1389808527.517122
3,251,0,46505,-601,-211,86,46205,7712,2976,-2592,45795,401,109,-50,1389808527.517132
2,252,0,33142,-666,-194,145,33441,8432,2016,-304,31613,357,-198,24,1389808527.534751
3,252,0,47505,-571,-199,79,48082,7568,2704,-2976,48374,401,111,-50,1389808527.534760
2,253,0,35132,-644,-163,106,35322,8128,1856,-656,34174,357,-191,27,1389808527.546905
3,253,0,49504,-533,-156,82,49959,7408,2512,-3232,48374,401,111,-50,1389808527.546920
2,254,0,37121,-667,-150,79,37203,7680,1872,-832,36735,359,-192,28,1389808527.547395
3,254,0,51504,-571,-111,90,51837,7200,2336,-3280,50953,401,111,-47,1389808527.547411
2,255,0,38116,-682,-142,66,39083,7216,1904,-832,36735,359,-192,28,1389808527.565227
3,255,0,53503,-615,-70,117,53714,7040,2128,-3072,53533,399,112,-50,1389808527.565236
2,0,0,40106,-697,-145,50,40964,6816,1936,-800,39295,359,-192,31,1389808527.577354
3,0,0,55503,-656,-72,132,55591,6832,1936,-2640,53533,399,112,-50,1389808527.577369
2,1,0,42096,-695,-147,64,42846,6608,1808,-704,41856,356,-189,34,1389808527.577697
3,1,0,57502,-682,-108,132,57468,6720,1776,-2144,56111,401,117,-54,1389808527.577707
2,2,0,44085,-667,-173,97,44726,6528,1664,-624,44417,361,-186,39,1389808527.594732
3,2,0,59502,-656,-140,105,59345,6752,1744,-1728,58690,401,116,-53,1389808527.594741
2,3,0,46075,-636,-190,105,46606,6672,1648,-640,44417,361,-186,39,1389808527.606695
3,3,0,61501,-593,-172,85,61222,6704,1696,-1504,61269,395,113,-53,1389808527.606703
2,4,0,48065,-584,-214,118,48017,6800,1632,-720,46978,362,-192,38,1389808527.606973
3,4,0,62501,-559,-177,78,63100,6800,1696,-1504,61269,395,113,-53,1389808527.606979
2,5,0,50054,-547,-205,133,49898,7024,1584,-880,49539,358,-182,41,1389808527.624625
3,5,0,64501,-478,-178,72,64977,6960,1728,-1648,63848,395,114,-53,1389808527.624633
2,6,0,52044,-512,-196,130,51778,7248,1680,-1008,52100,359,-180,48,1389808527.636231
3,6,0,964,-403,-158,61,1318,7168,1648,-1824,891,397,118,-54,1389808527.636240
2,7,0,54034,-485,-168,123,53659,7424,1680,-1024,52100,359,-180,48,1389808527.636445
3,7,0,2964,-359,-131,44,3195,7344,1552,-1984,3469,397,117,-50,1389808527.636463
2,8,0,55029,-475,-161,118,55538,7472,1760,-832,54661,362,-186,48,1389808527.653349
3,8,0,4963,-322,-112,41,5072,7408,1552,-2016,3469,397,117,-50,1389808527.653358
2,9,0,57018,-439,-159,96,57418,7456,1952,-528,57222,358,-182,50,1389808527.665213
3,9,0,6963,-294,-118,42,6949,7376,1456,-1920,6049,398,119,-49,1389808527.665223
2,10,0,59008,-381,-178,73,59299,7392,1968,-304,57222,358,-182,50,1389808527.677316
3,10,0,8962,-249,-120,27,8826,7328,1520,-1776,8627,398,119,-55,1389808527.677325
2,11,0,60998,-314,-207,81,61178,7248,2016,-320,59783,360,-174,54,1389808527.677593
3,11,0,10962,-191,-115,13,10703,7216,1488,-1760,8627,398,119,-55,1389808527.677599
2,12,0,62987,-256,-222,82,63059,7120,2080,-368,62344,360,-177,54,1389808527.695659
3,12,0,11962,-162,-106,11,12579,7184,1424,-1888,11206,397,118,-49,1389808527.695668
2,13,0,64977,-199,-221,92,64939,7072,2032,-448,64906,356,-176,58,1389808527.695871
3,13,0,13961,-131,-100,5,14455,7136,1472,-1920,13783,397,122,-56,1389808527.701598
2,14,0,1431,-121,-216,99,1283,7104,1888,-688,64906,356,-176,58,1389808527.713590
3,14,0,15961,-91,-100,0,16331,7088,1408,-1968,16361,397,122,-55,1389808527.713598
2,15,0,3420,-1,-209,116,3163,7296,1504,-1040,1932,357,-171,61,1389808527.725633
3,15,0,17960,-72,-70,1,18208,7120,1200,-1936,16361,397,122,-55,1389808527.725641
2,16,0,5410,32,-204,109,5044,7392,1328,-1264,4493,362,-174,59,1389808527.725882
3,16,0,19960,-47,-56,3,20086,7184,1072,-1984,18938,397,115,-51,1389808527.731280
2,17,0,6405,44,-197,97,6924,7472,1328,-1376,7054,357,-173,61,1389808527.743082
3,17,0,21959,-22,-57,-4,21964,7232,1072,-1952,21516,397,122,-49,1389808527.743090
2,18,0,8395,3,-190,59,8804,7472,1456,-1424,7054,357,-173,61,1389808527.755320
3,18,0,23959,-19,-67,-8,23841,7184,1024,-1808,24097,397,122,-52,1389808527.755329
2,19,0,10384,-45,-190,11,10684,7392,1600,-1344,9615,354,-168,72,1389808527.761533
3,19,0,25959,-33,-77,-4,25718,7216,832,-1632,24097,397,122,-52,1389808527.761793
2,20,0,12374,-23,-202,-1,12564,7216,1568,-1168,12177,359,-173,64,1389808527.773480
3,20,0,26958,-25,-77,-4,27596,7248,848,-1456,26675,395,120,-46,1389808527.773490
2,21,0,14364,34,-208,-14,14444,7040,1504,-1088,14737,360,-173,66,1389808527.785147
3,21,0,28958,33,-98,-11,29474,7184,816,-1360,29253,395,120,-46,1389808527.785157
2,22,0,16353,112,-213,-22,16325,7024,1440,-1120,14737,360,-173,66,1389808527.797261
3,22,0,30957,92,-90,-15,31351,7248,688,-1360,29253,395,120,-46,1389808527.797270
2,23,0,18343,168,-211,-15,18204,7248,1408,-1392,17298,358,-168,75,1389808527.797537
3,23,0,32957,115,-95,-25,33228,7424,816,-1456,31831,397,124,-49,1389808527.797543
2,24,0,20333,210,-193,-18,20085,7536,1152,-1744,19859,358,-172,71,1389808527.815507
3,24,0,34957,153,-117,-31,35105,7616,1040,-1600,34410,397,121,-46,1389808527.815522
2,25,0,21327,215,-176,-24,21966,8032,896,-2112,19859,358,-172,71,1389808527.815831
3,25,0,36956,178,-145,-26,36982,7760,1344,-1920,36989,397,122,-45,1389808527.822056
2,26,0,23317,198,-171,-39,23846,8336,640,-2352,22421,355,-174,71,1389808527.833627
3,26,0,38956,171,-181,-1,38859,7840,1472,-2160,36989,397,122,-45,1389808527.833637
2,27,0,25307,109,-161,-53,25726,8672,752,-2656,24981,351,-171,73,1389808527.845697
3,27,0,40955,150,-193,54,40736,7824,1856,-2480,39568,397,120,-43,1389808527.845712
2,28,0,27297,-39,-158,-107,27607,8672,784,-2976,27542,358,-173,74,1389808527.846021
3,28,0,41955,150,-184,88,42613,7632,2336,-3168,42147,397,123,-39,1389808527.852081
2,29,0,29286,-191,-157,-160,29487,8480,960,-3296,27542,358,-173,74,1389808527.863950
3,29,0,43954,148,-140,165,44490,7376,2704,-4208,42147,397,123,-39,1389808527.863959
2,30,0,31276,-327,-142,-191,31367,8288,1088,-3360,30103,358,-176,74,1389808527.875811
3,30,0,45954,109,-57,253,46367,7376,2576,-5424,44726,397,122,-36,1389808527.875819
2,31,0,33266,-494,-140,-168,33247,8512,1248,-2832,32663,350,-175,81,1389808527.876069
3,31,0,47954,-79,80,339,48245,8032,1744,-5728,47305,390,128,-35,1389808527.876311
2,32,0,35255,-708,-125,-95,35127,9184,1712,-1744,35223,354,-171,82,1389808527.894331
3,32,0,49953,-501,164,452,50123,9248,816,-4368,49884,394,131,-46,1389808527.894346
2,33,0,37245,-756,-132,-52,37008,9712,2048,-592,35223,354,-171,82,1389808527.906301
3,33,0,51953,-860,141,535,52000,10560,608,-1840,49884,394,131,-46,1389808527.906310
2,34,0,38240,-684,-126,-44,38889,10304,1744,352,37783,356,-171,82,1389808527.906524
3,34,0,53952,-897,-25,506,53877,11904,528,304,52460,393,137,-44,1389808527.906530
2,35,0,40229,-443,-180,-10,40769,10544,1248,880,40344,352,-172,84,1389808527.924602
3,35,0,55952,-694,-275,384,55755,12480,512,1616,55039,388,140,-45,1389808527.924617
2,36,0,42219,-124,-245,60,42649,10720,560,688,42905,352,-167,90,1389808527.936806
3,36,0,56952,-531,-414,298,57632,12368,1216,1792,57617,389,145,-51,1389808527.936815
2,37,0,44209,148,-295,68,44529,11280,368,-416,42905,352,-167,90,1389808527.937087
3,37,0,58951,-148,-687,101,59509,11888,2336,816,57617,389,145,-51,1389808527.937093
2,38,0,46198,207,-279,24,46408,12048,336,-1920,45465,353,-175,89,1389808527.954620
3,38,0,60951,225,-861,-80,61386,11504,3088,-832,60195,388,136,-38,1389808527.954629
2,39,0,48188,93,-172,-43,48288,12816,816,-3200,48026,347,-171,90,1389808527.966174
3,39,0,62950,406,-868,-191,63263,11216,3184,-2336,62772,385,139,-30,1389808527.966189
2,40,0,50178,-179,7,-206,50169,12832,1824,-3536,48026,347,-171,90,1389808527.966519
3,40,0,64950,443,-760,-190,65140,10752,3072,-3616,62772,385,139,-30,1389808527.966528
2,41,0,52168,-418,200,-406,52048,11824,3200,-2240,50588,349,-171,95,1389808527.984727
3,41,0,1413,498,-570,-131,1481,10096,3248,-4800,65351,388,140,-23,1389808527.984742
2,42,0,54157,-503,325,-583,53929,10144,3632,-240,53150,353,-178,89,1389808527.996961
3,42,0,3413,497,-376,-145,3358,9552,3296,-6016,2393,389,134,-9,1389808527.996976
2,43,0,55152,-501,327,-619,55808,8656,3312,1664,55711,350,-183,88,1389808527.997299
3,43,0,5412,262,-163,-110,5235,8848,3280,-6320,4971,388,136,-12,1389808527.997309
2,44,0,57142,-512,221,-573,57689,7504,3200,3040,55711,350,-183,88,1389808528.14662
3,44,0,6412,81,-58,-38,7112,8176,3344,-5472,4971,388,136,-12,1389808528.14671
2,45,0,59131,-423,22,-467,59569,6688,3344,3264,58272,348,-182,87,1389808528.26823
3,45,0,8412,-241,54,124,8990,7440,3472,-4160,7550,387,139,-15,1389808528.26832
3,46,0,10411,-415,92,213,10866,6608,3728,-3120,10129,391,139,-14,1389808528.27082
2,47,0,63111,-143,-173,-272,63329,5936,3552,1664,63393,346,-189,91,1389808528.45262
3,47,0,12411,-432,114,226,12743,6144,4192,-2432,12707,385,141,-17,1389808528.45272
2,48,0,65100,-62,-150,-165,65209,6000,3360,784,63393,346,-189,91,1389808528.56475
3,48,0,14410,-315,130,214,14621,6416,4464,-2336,12707,385,141,-17,1389808528.56485
2,49,0,1554,7,-77,44,1553,6704,2688,288,418,344,-185,91,1389808528.56753
3,49,0,16410,-152,117,192,16498,7456,4272,-2656,15285,385,136,-20,1389808528.56760
2,50,0,3544,16,-20,207,3433,7952,2128,192,2981,348,-183,90,1389808528.74834
3,50,0,18409,-13,70,132,18375,8640,3824,-3088,17864,385,146,-22,1389808528.74843
2,51,0,4539,18,-4,251,5313,9344,1584,224,2981,348,-183,90,1389808528.87081
3,51,0,20409,-19,16,86,20251,9328,3504,-3376,17864,385,146,-22,1389808528.87090
2,52,0,6528,-5,25,229,7193,10672,1440,64,5542,348,-184,87,1389808528.87357
3,52,0,21409,-18,5,76,22129,9392,3584,-3488,20442,385,145,-18,1389808528.87363
2,53,0,8518,-81,25,88,9072,11360,1472,-304,8104,347,-181,89,1389808528.105380
3,53,0,23408,-31,-14,61,24007,9088,3664,-3536,23020,379,145,-21,1389808528.105389
2,54,0,10508,-165,-19,-73,10952,11072,1600,-736,10667,351,-178,92,1389808528.110817
3,54,0,25408,-114,-12,90,25883,8400,3760,-3552,25599,387,146,-24,1389808528.110953
2,55,0,12497,-254,-45,-217,12832,9952,1568,-992,10667,351,-178,92,1389808528.122343
3,55,0,27407,-200,12,138,27759,7984,3568,-3568,25599,387,146,-24,1389808528.122351
2,56,0,14487,-326,-48,-304,14713,8592,1648,-592,13230,348,-186,92,1389808528.134549
3,56,0,29407,-271,40,166,29636,7808,3184,-3440,28176,384,145,-19,1389808528.134559
2,57,0,16477,-374,4,-343,16593,7664,1712,0,15791,345,-185,91,1389808528.146584
3,57,0,31406,-376,86,197,31514,7888,2896,-3056,30755,382,151,-27,1389808528.146593
2,58,0,18466,-376,54,-347,18474,7168,1664,416,18352,349,-183,94,1389808528.146806
3,58,0,33406,-479,94,229,33390,7936,2656,-2336,33334,384,153,-28,1389808528.146811
2,59,0,20456,-336,42,-287,20354,6944,1520,656,18352,349,-183,94,1389808528.164229
3,59,0,35406,-525,58,245,35267,7904,2496,-1664,33334,384,153,-28,1389808528.164239
2,60,0,21451,-304,7,-245,22234,6960,1280,528,20914,349,-189,94,1389808528.176264
3,60,0,36405,-517,42,229,37145,7664,2400,-1232,35913,383,153,-27,1389808528.176279
2,61,0,23441,-235,-73,-174,24115,6864,960,112,23477,343,-190,93,1389808528.176606
3,61,0,38405,-450,-12,166,39021,7200,2448,-1120,38491,379,155,-34,1389808528.176617
2,62,0,25430,-184,-117,-133,25995,6688,832,-336,26037,347,-188,97,1389808528.194138
3,62,0,40404,-369,-28,102,40899,6688,2608,-1200,38491,379,155,-34,1389808528.194147
2,63,0,27420,-171,-99,-144,27876,6496,624,-768,26037,347,-188,97,1389808528.206241
3,63,0,42404,-329,-17,71,42775,6208,2624,-1312,41069,380,158,-35,1389808528.206270
2,64,0,29410,-196,-39,-164,29756,6400,544,-1040,28600,347,-191,99,1389808528.206491
3,64,0,44404,-334,21,69,44652,5920,2608,-1472,43647,380,157,-30,1389808528.206498
2,65,0,31399,-248,16,-213,31636,6336,496,-992,31160,344,-192,98,1389808528.224043
3,65,0,46403,-361,51,84,46529,6000,2432,-1520,46225,379,157,-35,1389808528.224091
2,66,0,33389,-304,54,-220,33516,6320,528,-784,31160,344,-192,98,1389808528.235761
3,66,0,48403,-370,70,96,48407,6112,2320,-1648,46225,379,157,-35,1389808528.235769
2,67,0,35379,-334,67,-221,35397,6320,560,-528,33721,347,-191,95,1389808528.236019
3,67,0,50402,-379,88,97,50284,6464,2320,-1696,48803,375,162,-39,1389808528.241525
2,68,0,37368,-364,56,-204,37278,6400,736,-368,36283,345,-194,97,1389808528.253701
3,68,0,51402,-389,87,95,52160,6832,2368,-1760,51381,377,162,-39,1389808528.253711
2,69,0,38363,-383,43,-189,39158,6528,880,-288,38845,344,-192,96,1389808528.265894
3,69,0,53401,-409,74,89,54037,7056,2480,-1680,53959,378,160,-39,1389808528.265909
2,70,0,40353,-397,36,-164,41039,6624,1024,-240,38845,344,-192,96,1389808528.266197
3,70,0,55401,-404,63,65,55914,7168,2592,-1664,53959,378,160,-39,1389808528.266447
2,71,0,42343,-390,40,-133,42919,6800,1072,-368,41406,344,-189,97,1389808528.284351
3,71,0,57401,-393,39,33,57791,7200,2656,-1712,56537,378,164,-46,1389808528.284360
2,72,0,44332,-368,68,-84,44799,7040,976,-448,43967,347,-194,100,1389808528.296507
3,72,0,59400,-368,45,8,59669,7184,2640,-1888,59116,378,165,-46,1389808528.296521
2,73,0,46322,-344,79,-38,46680,7264,800,-560,46528,344,-194,96,1389808528.296851
3,73,0,61400,-370,74,4,61546,7152,2672,-1984,59116,378,165,-46,1389808528.296861
2,74,0,48312,-313,89,-4,48561,7488,752,-496,46528,344,-194,96,1389808528.314197
3,74,0,63399,-380,100,15,63424,7200,2656,-1984,61695,376,163,-46,1389808528.314206
2,75,0,50301,-299,85,11,50441,7760,592,-480,49091,342,-187,99,1389808528.325802
3,75,0,65399,-417,108,33,65301,7456,2608,-1856,64273,371,165,-51,1389808528.325811
2,76,0,52291,-294,92,16,52322,7840,528,-352,51653,348,-190,98,1389808528.326062
3,76,0,863,-437,121,41,1642,7792,2432,-1632,1317,378,165,-52,1389808528.326307
2,77,0,53286,-308,87,12,54202,7872,688,-304,54215,343,-191,97,1389808528.343815
3,77,0,2862,-462,113,66,3519,8064,2288,-1424,1317,378,165,-52,1389808528.343830
2,78,0,55275,-323,79,1,56083,7744,704,-336,54215,343,-191,97,1389808528.356053
3,78,0,4862,-457,103,59,5395,8192,2400,-1264,3896,377,162,-52,1389808528.356063
2,79,0,57265,-289,70,11,57963,7648,480,-672,56776,343,-187,98,1389808528.356330
3,79,0,6861,-408,90,36,7272,8256,2256,-1280,6474,373,167,-61,1389808528.356336
2,80,0,59255,-219,70,65,59843,7584,0,-848,59338,349,-185,96,1389808528.373827
3,80,0,8861,-365,100,-6,9148,8144,2128,-1456,9051,376,166,-63,1389808528.373836
2,81,0,61245,-235,90,80,61723,7568,0,-976,59338,349,-185,96,1389808528.385549
3,81,0,10860,-340,113,-26,11025,7904,2256,-1680,9051,376,166,-63,1389808528.385557
2,82,0,63234,-291,121,43,63604,7440,176,-1168,61900,349,-186,96,1389808528.385809
3,82,0,12860,-352,136,-27,12903,7632,2272,-1792,11629,379,166,-63,1389808528.397878
2,83,0,65224,-314,149,9,65484,7376,272,-1312,64461,344,-184,92,1389808528.398155
3,83,0,14859,-410,167,-1,14780,7456,2224,-1664,14207,377,165,-68,1389808528.398161
2,84,0,1678,-349,180,9,1828,7184,304,-1424,1486,346,-183,94,1389808528.415365
3,84,0,15859,-420,178,14,16658,7312,2208,-1568,14207,377,165,-68,1389808528.415374
2,85,0,3667,-370,214,21,3708,7168,352,-1440,1486,346,-183,94,1389808528.421223
3,85,0,17859,-431,187,29,18535,7296,2144,-1488,16786,376,169,-71,1389808528.421478
2,86,0,4662,-377,231,30,5589,7328,304,-1472,4047,349,-183,91,1389808528.433323
3,86,0,19858,-434,190,36,20412,7360,2032,-1504,19364,376,166,-73,1389808528.433333
2,87,0,6652,-394,233,53,7470,7568,16,-1200,6609,346,-180,93,1389808528.444960
3,87,0,21858,-447,190,27,22290,7536,1936,-1440,21943,372,168,-75,1389808528.444968
2,88,0,8641,-412,224,76,9350,8032,-80,-608,9170,350,-179,94,1389808528.456851
3,88,0,23857,-495,147,34,24167,7648,1728,-1040,21943,372,168,-75,1389808528.456858
2,89,0,10631,-445,184,67,11230,8304,272,0,9170,350,-179,94,1389808528.457056
3,89,0,25857,-570,82,72,26044,7888,1440,-608,24521,376,169,-83,1389808528.457060
2,90,0,12621,-398,145,21,13109,8480,640,320,11731,345,-178,90,1389808528.474795
3,90,0,27856,-497,21,32,27921,8496,1456,-224,27099,375,165,-81,1389808528.475240
2,91,0,14610,-244,117,38,14519,8576,768,368,14292,345,-177,93,1389808528.487291
3,91,0,29856,-347,-32,-58,29798,9376,1440,144,29677,376,167,-81,1389808528.487299
2,92,0,16600,-63,76,89,16399,8576,1072,208,16854,349,-173,89,1389808528.487569
3,92,0,30856,-289,-48,-97,31676,10160,1392,320,29677,376,167,-81,1389808528.487575
2,93,0,18590,125,61,152,18279,8768,1312,16,16854,349,-173,89,1389808528.505502
3,93,0,32855,-67,-71,-174,33554,10576,1776,80,32254,371,167,-87,1389808528.505511
2,94,0,20579,291,89,213,20159,9216,976,-272,19416,352,-174,89,1389808528.511663
3,94,0,34855,248,-31,-292,35434,10560,1920,-576,34832,377,163,-83,1389808528.511920
2,95,0,21574,361,96,228,22040,9472,432,-704,21977,348,-174,86,1389808528.523531
3,95,0,36854,423,52,-408,37312,10144,1808,-1280,34832,377,163,-83,1389808528.523540
2,96,0,23564,492,95,243,23919,9584,-160,-1184,21977,348,-174,86,1389808528.535576
3,96,0,38854,379,101,-426,39190,9616,1616,-1936,37410,374,159,-81,1389808528.535585
2,97,0,25554,574,113,206,25800,9632,-688,-1872,24538,348,-172,83,1389808528.535844
3,97,0,40853,243,124,-381,41068,9232,1792,-2416,39988,376,163,-80,1389808528.542023
2,98,0,27543,528,185,104,27679,9760,-688,-2832,27099,357,-172,80,1389808528.553759
3,98,0,42853,97,175,-309,42947,9408,2064,-2672,42566,377,160,-85,1389808528.553767
2,99,0,29533,382,335,-57,29559,10336,-352,-3920,29659,352,-176,77,1389808528.566007
3,99,0,44853,-36,204,-250,44824,10336,1904,-2496,42566,377,160,-85,1389808528.566017
2,100,0,31523,173,505,-201,31439,11184,400,-4416,29659,352,-176,77,1389808528.566245
3,100,0,45852,-90,204,-242,46701,11728,2304,-2160,45144,380,153,-80,1389808528.566517
2,101,0,33512,17,622,-246,33318,12048,704,-4000,32221,352,-178,73,1389808528.584641
3,101,0,47852,-64,116,-234,48580,12896,2720,-2144,47723,380,154,-85,1389808528.584656
2,102,0,35502,-59,686,-202,35198,12560,864,-2768,34782,358,-176,67,1389808528.596771
3,102,0,49851,108,-43,-321,50458,12896,3200,-2672,50301,383,147,-86,1389808528.596781
2,103,0,36497,-116,673,-216,37078,12704,1648,-688,37343,356,-179,61,1389808528.597051
3,103,0,51851,225,-166,-429,52335,11376,3456,-3376,50301,383,147,-86,1389808528.597058
2,104,0,38487,-179,563,-279,38959,12288,1968,1584,37343,356,-179,61,1389808528.614928
3,104,0,53851,219,-231,-427,54214,9072,3600,-3984,52880,386,146,-79,1389808528.614943
2,105,0,40476,-127,352,-336,40839,11136,2320,3152,39905,359,-185,59,1389808528.627061
3,105,0,55850,187,-265,-349,56091,7248,4032,-4528,55458,383,146,-83,1389808528.627077
2,106,0,42466,-27,118,-321,42719,9584,2368,3264,42465,359,-181,55,1389808528.627391
3,106,0,57850,144,-259,-314,57969,5920,3968,-4976,55458,383,146,-83,1389808528.627402
2,107,0,44456,122,-77,-287,44600,7968,1952,2336,42465,359,-181,55,1389808528.645465
3,107,0,59849,-44,-211,-273,59847,5072,3888,-4944,58037,387,144,-80,1389808528.645480
2,108,0,46445,240,-130,-278,46480,6256,1712,624,45027,358,-189,57,1389808528.651751
3,108,0,60849,-146,-167,-218,61726,4688,4320,-4560,60617,392,141,-73,1389808528.651943
2,109,0,48435,218,-22,-304,48361,5104,1808,-560,47587,355,-189,58,1389808528.664048
3,109,0,62849,-257,-77,-95,63604,4848,4432,-4048,63195,384,140,-76,1389808528.664063
2,110,0,50425,105,68,-237,50241,5216,1936,-1088,50148,358,-191,57,1389808528.676009
3,110,0,64848,-304,-20,-24,65482,5584,4304,-3760,63195,384,140,-76,1389808528.676024
2,111,0,52414,-13,81,-92,52122,6592,2080,-544,50148,358,-191,57,1389808528.676322
3,111,0,1312,-195,-48,-10,1823,6800,3664,-3808,238,387,141,-78,1389808528.676544
2,112,0,53409,-37,77,-18,54003,8304,2096,-112,52708,355,-192,55,1389808528.694304
3,112,0,3311,-57,-65,-62,3700,8256,2992,-4064,2817,391,137,-79,1389808528.694313
2,113,0,55399,17,67,71,55883,9664,2032,-80,55269,351,-189,53,1389808528.705762
3,113,0,5311,-34,-86,-127,5578,9456,2576,-3952,5395,388,138,-73,1389808528.705787
2,114,0,57389,85,108,71,57763,10576,1888,-272,57829,357,-190,52,1389808528.705979
3,114,0,7310,-53,-121,-163,7456,10064,2656,-3600,5395,388,138,-73,1389808528.706188
2,115,0,59378,84,138,29,59644,10640,1408,-384,57829,357,-190,52,1389808528.724230
3,115,0,9310,-51,-165,-202,9335,9872,2896,-3088,7973,390,139,-76,1389808528.724238
2,116,0,61368,28,105,-14,61524,10208,1408,-416,60391,355,-192,55,1389808528.736220
3,116,0,10310,-46,-175,-211,11213,9120,2880,-2720,10551,390,136,-76,1389808528.736229
2,117,0,63358,-21,46,-41,63403,9424,1360,-256,62952,355,-190,53,1389808528.736469
3,117,0,12309,-59,-193,-202,13090,8336,2848,-2400,10551,390,136,-76,1389808528.736475
2,118,0,65347,-31,-12,-61,65284,8944,1024,-80,65514,355,-190,50,1389808528.753428
3,118,0,14309,-67,-214,-181,14968,7952,2688,-2224,13129,389,133,-70,1389808528.753437
2,119,0,1801,-16,-44,-74,1628,8640,960,-160,65514,355,-190,50,1389808528.765265
3,119,0,16308,-30,-252,-182,16846,7920,2544,-2288,15708,389,134,-74,1389808528.765280
2,120,0,3791,9,-72,-63,3508,8560,880,-400,2538,358,-192,54,1389808528.771556
3,120,0,18308,26,-279,-193,18725,8032,2384,-2496,18286,392,132,-69,1389808528.771811
2,121,0,4785,17,-83,-71,5388,8464,720,-768,5099,355,-192,53,1389808528.783796
3,121,0,20307,37,-264,-185,20133,8064,2272,-2576,18286,392,132,-69,1389808528.783805
2,122,0,6775,19,-82,-107,7267,8336,624,-1104,5099,355,-192,53,1389808528.795855
3,122,0,22307,11,-243,-162,22011,8016,2032,-2368,20865,392,130,-63,1389808528.795864
2,123,0,8765,10,-43,-170,9146,7952,608,-1424,7661,356,-192,52,1389808528.796108
3,123,0,24306,-8,-196,-154,23888,7920,1760,-1968,23444,393,132,-66,1389808528.796356
2,124,0,10755,-32,11,-243,11025,7440,768,-1328,10223,359,-196,52,1389808528.813660
3,124,0,25306,-9,-175,-159,25764,7760,1632,-1456,26021,393,131,-65,1389808528.813675
2,125,0,12744,-84,54,-278,12905,6864,976,-1040,12784,352,-198,53,1389808528.824705
3,125,0,27306,-4,-182,-173,27641,7488,1552,-1088,26021,393,131,-65,1389808528.824714
2,126,0,14734,-74,41,-272,14785,6464,1120,-624,12784,352,-198,53,1389808528.836411
3,126,0,29305,35,-217,-188,29518,7168,1568,-848,28599,395,128,-57,1389808528.836419
2,127,0,16724,-3,5,-195,16665,6384,1136,-272,15345,352,-195,53,1389808528.836655
3,127,0,31305,95,-226,-199,31396,7072,1552,-832,31177,395,128,-60,1389808528.836660
2,128,0,18713,89,-23,-146,18545,6624,1008,-176,17906,353,-199,52,1389808528.854658
3,128,0,33304,179,-233,-212,33273,6992,1568,-976,31177,395,128,-60,1389808528.854667
2,129,0,19708,137,-40,-126,20425,7056,928,-368,20466,351,-201,50,1389808528.866055
3,129,0,35304,265,-213,-229,35150,7056,1664,-1056,33756,397,125,-57,1389808528.866065
2,130,0,21698,224,-41,-97,22306,7456,848,-688,20466,351,-201,50,1389808528.866350
3,130,0,37303,318,-190,-233,37028,7072,1536,-1280,36333,397,122,-51,1389808528.866356
2,131,0,23687,280,-28,-112,24186,7632,752,-912,23026,351,-201,52,1389808528.883980
3,131,0,39303,326,-173,-226,38906,7168,1424,-1344,38912,398,121,-49,1389808528.883995
2,132,0,25677,307,-31,-152,26066,7488,752,-1008,25586,357,-202,50,1389808528.896215
3,132,0,40303,331,-160,-212,40783,7152,1408,-1344,38912,398,121,-49,1389808528.896224
2,133,0,27667,315,-44,-191,27947,7056,720,-816,28147,351,-207,52,1389808528.896492
3,133,0,42302,337,-150,-193,42661,7040,1328,-1184,41491,398,121,-52,1389808528.896499
2,134,0,29656,312,-51,-222,29827,6672,880,-576,28147,351,-207,52,1389808528.914191
3,134,0,44302,355,-145,-177,44539,6800,1280,-1040,44070,398,119,-47,1389808528.914200
2,135,0,31646,342,-74,-224,31707,6320,832,-448,30708,351,-206,51,1389808528.926037
3,135,0,46301,369,-146,-169,46415,6656,1328,-896,46649,398,114,-41,1389808528.926046
2,136,0,33636,398,-83,-203,33588,6144,784,-416,33268,355,-208,50,1389808528.926298
3,136,0,48301,408,-151,-175,48292,6512,1312,-720,46649,398,114,-41,1389808528.926512
2,137,0,35626,462,-97,-173,35468,6192,704,-576,33268,355,-208,50,1389808528.944073
3,137,0,50301,459,-164,-184,50169,6464,1264,-704,49227,398,115,-40,1389808528.944088
2,138,0,36620,509,-113,-159,37349,6400,544,-704,35830,350,-213,52,1389808528.956336
3,138,0,52300,511,-162,-193,52046,6480,1120,-672,51805,399,112,-39,1389808528.956345
2,139,0,38610,597,-126,-136,39229,6576,368,-912,38391,346,-211,51,1389808528.956612
3,139,0,54300,563,-139,-188,53925,6368,944,-560,51805,399,112,-39,1389808528.956660
2,140,0,40600,679,-134,-135,41110,6848,432,-1104,40953,355,-212,50,1389808528.974281
3,140,0,55299,587,-129,-170,55802,6464,768,-432,54385,398,111,-35,1389808528.974290
2,141,0,42589,725,-150,-139,42991,6848,624,-1200,40953,355,-212,50,1389808528.985872
3,141,0,57299,628,-138,-178,57680,6656,656,-224,56963,398,114,-35,1389808528.985881
2,142,0,44579,758,-194,-163,44871,6816,880,-1136,43515,351,-220,48,1389808528.986167
3,142,0,59298,675,-159,-172,59557,6656,736,-224,59540,402,111,-28,1389808528.986340
2,143,0,46569,806,-241,-207,46752,6624,1184,-880,46077,347,-221,50,1389808529.3688
3,143,0,61298,777,-184,-201,61434,6656,1168,-208,59540,402,111,-28,1389808529.3697
2,144,0,48558,894,-299,-185,48632,6448,1120,-704,48638,354,-221,51,1389808529.15708
3,144,0,63298,853,-211,-217,63312,6752,1312,-256,62119,402,108,-21,1389808529.15716
2,145,0,50548,1034,-343,-105,50512,6464,800,-560,48638,354,-221,51,1389808529.15962
3,145,0,65297,899,-240,-207,65189,6848,1248,-400,64697,401,106,-20,1389808529.21718
2,146,0,52538,1096,-356,-52,52391,6560,544,-624,51201,354,-227,48,1389808529.33562
3,146,0,1761,964,-281,-215,1531,6864,1264,-576,1740,402,104,-15,1389808529.33571
2,147,0,53533,1116,-337,-41,54271,6880,528,-1088,53761,346,-227,48,1389808529.45640
3,147,0,3760,962,-304,-217,3409,7072,1184,-720,1740,402,104,-15,1389808529.45649
2,148,0,55522,1123,-297,-42,56151,7232,288,-1696,53761,346,-227,48,1389808529.45896
3,148,0,4760,959,-296,-221,5286,7328,1072,-1024,4319,403,99,-2,1389808529.52168
2,149,0,57512,1083,-261,-73,58030,7296,-192,-2784,56323,348,-228,47,1389808529.64322
3,149,0,6760,972,-255,-216,7162,7552,1328,-1840,6898,401,100,-2,1389808529.64337
2,150,0,59502,995,-207,-101,59910,7360,-896,-4176,58884,352,-229,48,1389808529.76213
3,150,0,8759,999,-178,-200,9039,7696,1936,-3040,6898,401,100,-2,1389808529.76222
2,151,0,61491,854,-116,-126,61790,7888,-1248,-5680,61445,343,-233,46,1389808529.76492
3,151,0,10759,939,-52,-130,10917,7904,2848,-4224,9476,404,95,0,1389808529.76498
2,152,0,63481,526,-14,-158,63670,9056,-1056,-6336,61445,343,-233,46,1389808529.94398
3,152,0,12758,696,110,18,12794,8368,3344,-4800,12054,403,97,4,1389808529.94407
2,153,0,65471,-14,52,-185,13,10432,-48,-5072,64006,348,-235,44,1389808529.105968
3,153,0,14758,338,224,222,14671,9008,2816,-4656,14631,399,97,4,1389808529.105978
2,154,0,1924,-499,7,-155,1893,10944,1088,-2208,1031,347,-237,45,1389808529.106199
3,154,0,16757,4,241,405,16547,9456,1824,-3856,14631,399,97,4,1389808529.106344
2,155,0,2919,-622,-52,-144,3774,10368,1888,896,3591,347,-237,46,1389808529.122797
3,155,0,18757,-201,189,499,18425,9968,768,-2368,17210,405,104,0,1389808529.122804
2,156,0,4909,-533,-187,-114,5655,9424,1664,3216,3591,347,-237,46,1389808529.134966
3,156,0,19757,-220,143,494,20302,10784,432,-640,19788,404,108,-2,1389808529.134973
2,157,0,6899,-126,-291,-4,7535,9088,1040,3696,6153,347,-239,49,1389808529.147266
3,157,0,21756,-128,8,389,22179,11920,1248,1040,22365,402,110,2,1389808529.147280
2,158,0,8888,385,-395,130,9415,10320,-480,2224,8714,347,-235,54,1389808529.147598
3,158,0,23756,127,-193,212,24057,13104,3120,2128,22365,402,110,2,1389808529.147608
2,159,0,10878,788,-477,288,11294,12848,-1968,-464,11276,341,-234,51,1389808529.165869
3,159,0,25755,527,-412,16,25934,14032,3248,1872,24944,399,108,2,1389808529.165884
2,160,0,12868,701,-516,338,13174,15312,-1936,-3360,11276,341,-234,51,1389808529.166166
3,160,0,27755,763,-579,-179,27812,13360,2672,400,27523,402,106,13,1389808529.166426
2,161,0,14857,255,-453,168,15054,16320,-608,-4496,13838,345,-237,58,1389808529.184033
3,161,0,29754,883,-616,-250,29689,11344,3424,-1328,27523,402,106,13,1389808529.184047
2,162,0,16847,-251,-334,-186,16933,14112,1760,-3424,16400,349,-236,63,1389808529.196234
3,162,0,31754,826,-505,-109,31567,9792,3616,-3200,30103,402,102,19,1389808529.196249
2,163,0,18837,-457,-117,-361,18813,10480,2304,-1024,16400,349,-236,63,1389808529.196648
3,163,0,33753,743,-271,32,33446,9024,3712,-4480,32681,400,105,26,1389808529.196686
2,164,0,19832,-416,-1,-422,20693,7808,1792,2224,18960,346,-237,63,1389808529.214894
3,164,0,34753,694,-125,104,35323,8576,3232,-4112,35260,400,103,27,1389808529.214910
2,165,0,21821,-143,98,-404,22574,5808,1504,5328,21521,341,-237,64,1389808529.225667
3,165,0,36753,442,87,293,37201,8288,2688,-2080,35260,400,103,27,1389808529.225678
2,166,0,23811,245,-5,-277,24453,4784,2800,6816,24082,345,-241,64,1389808529.225794
3,166,0,38752,125,130,439,39078,7808,3072,624,37838,402,108,30,1389808529.236263
2,167,0,25801,593,-364,-48,26333,4272,3472,6752,24082,345,-241,64,1389808529.236454
3,167,0,40752,195,4,409,40956,7120,3744,1888,40415,397,112,27,1389808529.236458
2,168,0,27790,1050,-725,302,28213,4672,1952,4672,26642,343,-240,62,1389808529.253703
3,168,0,42751,731,-40,186,42833,7184,4144,1200,42992,399,110,29,1389808529.253712
2,169,0,29780,1264,-741,502,30093,6560,416,1280,29203,344,-238,72,1389808529.265747
3,169,0,44751,1216,20,-63,44710,7856,4832,-544,42992,399,110,29,1389808529.265755
2,170,0,31770,1193,-489,473,31973,8976,112,-1424,31764,344,-238,69,1389808529.265958
3,170,0,46750,1347,62,-129,46587,8512,4976,-2224,45571,399,108,41,1389808529.272058
2,171,0,33759,1017,-192,325,33853,11696,-96,-2352,31764,344,-238,69,1389808529.283925
3,171,0,48750,1271,73,-100,48464,9472,4880,-2992,48148,396,105,37,1389808529.283940
2,172,0,35749,738,-39,157,35734,13328,256,-1312,34324,340,-239,74,1389808529.296261
3,172,0,49750,1165,94,-56,50341,10000,4720,-3184,48148,396,105,37,1389808529.296270
2,173,0,36744,633,-29,95,37614,12864,496,592,36885,340,-238,65,1389808529.296552
3,173,0,51749,924,143,48,52219,10256,4368,-2736,50727,399,106,36,1389808529.296558
2,174,0,38733,555,-65,-28,39494,11120,672,1968,39446,343,-236,67,1389808529.314531
3,174,0,53749,720,212,218,54096,9936,4016,-2272,53307,402,103,44,1389808529.314540
2,175,0,40723,599,-106,-136,41375,9056,848,2272,39446,343,-236,67,1389808529.326086
3,175,0,55748,634,278,308,55974,9184,3664,-2032,55883,399,106,42,1389808529.326095
2,176,0,42713,734,-98,-176,43255,7712,848,1856,42009,347,-241,66,1389808529.326338
3,176,0,57748,607,335,281,57851,8672,3296,-1872,55883,399,106,42,1389808529.326344
2,177,0,44703,854,-55,-142,45136,7072,768,976,44571,338,-245,62,1389808529.342674
3,177,0,59748,589,386,207,59728,8544,2896,-1792,58462,399,108,40,1389808529.342683
2,178,0,46692,894,-37,-69,47016,7088,512,16,44571,338,-245,62,1389808529.354946
3,178,0,61747,553,417,110,61604,8496,2816,-1648,61040,400,106,36,1389808529.354961
2,179,0,48682,859,-41,-13,48895,7472,336,-768,47132,341,-247,59,1389808529.366683
3,179,0,63747,487,411,70,63481,8432,2832,-1328,63620,398,106,38,1389808529.366692
2,180,0,50672,782,-43,1,50775,7712,192,-1280,49695,345,-248,54,1389808529.366894
3,180,0,64746,467,397,61,65358,8304,2688,-960,63620,398,106,38,1389808529.366899
2,181,0,51666,738,-38,-8,52186,7760,128,-1232,52256,339,-250,55,1389808529.383989
3,181,0,1210,443,339,36,1699,8160,2608,-592,662,397,107,35,1389808529.383998
2,182,0,53656,624,-12,-25,54066,7472,144,-608,52256,339,-250,55,1389808529.396108
3,182,0,3209,483,267,-7,3576,7696,2688,-112,3240,403,107,35,1389808529.396117
2,183,0,55646,556,22,-52,55946,7184,48,160,54820,342,-248,54,1389808529.396385
3,183,0,5209,509,206,-40,5454,7216,2704,256,3240,403,107,35,1389808529.396391
2,184,0,57635,546,27,-53,57827,6800,-64,880,57382,342,-253,51,1389808529.413998
3,184,0,7209,528,170,-62,7331,6736,2624,464,5818,400,102,38,1389808529.414007
2,185,0,59625,588,-13,-40,59707,6528,-224,1184,59943,342,-255,49,1389808529.426108
3,185,0,9208,563,152,-83,9208,6304,2704,432,8397,399,102,34,1389808529.426117
2,186,0,61615,657,-40,-37,61588,6272,-32,1024,59943,342,-255,49,1389808529.426387
3,186,0,11208,601,159,-94,11085,6128,2784,208,10975,402,100,40,1389808529.426394
2,187,0,63604,716,-44,-29,63468,6128,80,448,62504,338,-255,46,1389808529.444592
3,187,0,13207,656,185,-107,12962,6064,2992,-208,10975,402,100,40,1389808529.444617
2,188,0,58,742,-16,-15,65347,6080,160,-64,65066,342,0,44,1389808529.456233
3,188,0,14207,688,216,-111,14839,6240,3104,-608,13554,404,97,36,1389808529.456242
2,189,0,2048,736,20,1,1692,6192,48,-432,2092,340,-256,42,1389808529.456557
3,189,0,16207,717,263,-131,16716,6512,3152,-928,16133,403,98,35,1389808529.456563
2,190,0,3043,713,50,20,3571,6352,-64,-416,2092,340,-256,42,1389808529.474657
3,190,0,18206,691,293,-129,18593,6688,3152,-1088,18711,402,95,33,1389808529.474672
2,191,0,5032,673,79,41,5452,6528,0,-208,4653,340,-257,37,1389808529.486853
3,191,0,20206,633,312,-112,20470,6784,3104,-1120,18711,402,95,33,1389808529.486861
2,192,0,7022,622,83,49,7332,6624,-64,96,7214,345,-511,33,1389808529.487058
3,192,0,22205,562,317,-97,22347,6800,3088,-1136,21289,405,93,39,1389808529.487063
2,193,0,9012,594,74,64,9212,6640,-128,192,7214,345,-511,33,1389808529.504378
3,193,0,24205,514,328,-98,24224,6896,3184,-1120,23868,405,90,32,1389808529.504386
2,194,0,11001,566,71,82,11092,6672,-176,144,9774,343,-3,32,1389808529.516472
3,194,0,26204,493,330,-106,26100,7008,3264,-1104,23868,405,90,32,1389808529.516480
2,195,0,12991,532,75,109,12972,6768,-208,48,12336,340,-257,32,1389808529.516747
3,195,0,28204,460,328,-114,27977,7104,3424,-1072,26446,404,91,32,1389808529.516753
2,196,0,14981,485,82,120,14853,7008,-288,-64,14896,344,-256,28,1389808529.534858
3,196,0,29204,447,328,-111,29853,7168,3488,-1040,29025,409,90,33,1389808529.534867
2,197,0,16970,444,88,127,16732,7104,-400,-32,14896,344,-256,28,1389808529.546953
3,197,0,31203,412,321,-94,31731,7088,3408,-1072,31601,407,86,27,1389808529.546962
2,198,0,18960,398,98,116,18612,7200,-544,-32,17457,344,-258,22,1389808529.547236
3,198,0,33203,366,317,-87,33608,7248,3360,-1120,31601,407,86,27,1389808529.547243
2,199,0,19955,379,99,116,20493,7232,-672,-112,20018,344,-511,20,1389808529.564760
3,199,0,35202,317,335,-83,35484,7328,3488,-1200,34178,410,84,26,1389808529.564769
2,200,0,21945,353,122,92,22373,7216,-640,-400,22579,345,-1,20,1389808529.576836
3,200,0,37202,251,353,-76,37361,7488,3440,-1232,36756,411,84,26,1389808529.576851
2,201,0,23934,323,159,85,24253,7200,-784,-640,22579,345,-1,20,1389808529.577322
3,201,0,39201,204,364,-95,39239,7600,3280,-1360,39334,408,82,24,1389808529.577337
2,202,0,25924,284,223,73,26134,7248,-928,-848,25140,347,-258,19,1389808529.595452
3,202,0,41201,142,358,-113,41116,7712,3008,-1248,39334,408,82,24,1389808529.595461
2,203,0,27914,215,267,56,28013,7424,-1136,-912,27702,342,-509,17,1389808529.601021
3,203,0,43200,51,344,-109,42994,7792,2800,-928,41913,409,85,20,1389808529.601264
2,204,0,29903,157,306,45,29894,7648,-1360,-752,27702,342,-509,17,1389808529.613189
3,204,0,44200,11,322,-110,44872,7904,2480,-608,44491,410,80,15,1389808529.613197
2,205,0,31893,101,325,9,31774,7952,-1328,-624,30262,349,-253,12,1389808529.625070
3,205,0,46200,-60,289,-127,46751,8064,2256,-256,44491,410,80,15,1389808529.625079
2,206,0,33883,81,351,-44,33655,8240,-1040,-576,32823,349,-255,7,1389808529.636157
3,206,0,48199,-110,220,-157,48628,8320,2240,-32,47068,412,81,15,1389808529.636166
2,207,0,34878,74,366,-59,35536,8352,-944,-608,35385,346,0,3,1389808529.636437
3,207,0,50199,-106,165,-203,50506,8768,2176,128,49647,410,79,11,1389808529.636443
2,208,0,36867,54,404,-68,37416,8528,-480,-688,35385,346,0,3,1389808529.654418
3,208,0,52198,-57,129,-264,52384,9136,2336,384,52225,418,78,12,1389808529.654428
2,209,0,38857,45,427,-79,39296,8592,-48,-512,37947,348,-253,-2,1389808529.666319
3,209,0,54198,-14,119,-308,54262,9280,2304,656,52225,418,78,12,1389808529.666329
2,210,0,40847,74,422,-49,41177,8672,352,64,40508,348,0,-6,1389808529.666615
3,210,0,56197,32,105,-300,56140,9360,2336,864,54804,413,73,14,1389808529.666621
2,211,0,42836,110,416,39,43057,8800,960,992,43069,350,-254,-7,1389808529.684766
3,211,0,58197,224,120,-315,58018,9424,2528,560,57383,411,70,10,1389808529.684781
2,212,0,44826,228,370,133,44937,8832,1088,1872,43069,350,-254,-7,1389808529.696958
3,212,0,59197,351,136,-356,59896,9520,2736,-352,59961,418,67,10,1389808529.696967
2,213,0,46816,452,282,233,46818,8944,432,1840,45629,350,-252,-11,1389808529.697285
3,213,0,61196,571,208,-488,61774,9600,3216,-1408,59961,418,67,10,1389808529.697307
2,214,0,48805,683,211,275,48698,9328,-96,800,48191,350,-249,-17,1389808529.715086
3,214,0,63196,670,277,-578,63651,9376,3456,-2032,62540,417,60,17,1389808529.715165
2,215,0,50795,837,189,239,50578,9920,-416,-704,50753,349,-250,-20,1389808529.727357
3,215,0,65195,568,302,-520,65528,9280,3248,-2256,65118,415,59,10,1389808529.727372
2,216,0,51790,884,198,201,52458,10400,-928,-2192,50753,349,-250,-20,1389808529.727704
3,216,0,1659,368,317,-377,1869,9472,2784,-1920,65118,415,59,10,1389808529.727715
2,217,0,53780,902,274,119,54338,10544,-1568,-3120,53314,351,-249,-19,1389808529.745738
3,217,0,3659,249,308,-252,3747,9808,2048,-1248,2161,423,55,5,1389808529.745747
2,218,0,55769,780,391,28,56219,10304,-1856,-3472,55876,355,-251,-35,1389808529.745904
3,218,0,5658,202,263,-219,5625,10144,1584,-576,4739,420,50,5,1389808529.752026
2,219,0,57759,590,524,-101,58099,10000,-1728,-3120,55876,355,-251,-35,1389808529.764302
3,219,0,7658,169,189,-269,7503,10320,1696,-48,7317,420,50,0,1389808529.764317
2,220,0,59749,411,626,-257,59979,9664,-1216,-2336,58436,351,-255,-39,1389808529.776313
3,220,0,8657,165,147,-298,9380,10176,1664,192,7317,420,50,0,1389808529.776328
2,221,0,61738,281,674,-355,61859,9888,48,-1520,60997,349,-253,-42,1389808529.776674
3,221,0,10657,134,21,-366,11258,10288,2208,-64,9895,425,48,2,1389808529.776684
2,222,0,63728,221,672,-352,63740,10848,512,-1024,63558,351,0,-53,1389808529.794805
3,222,0,12657,245,-84,-512,13135,11072,2720,-384,12473,425,40,4,1389808529.794819
2,223,0,182,321,654,-241,84,11456,496,-432,63558,351,0,-53,1389808529.806602
3,223,0,14656,458,-172,-605,15012,12000,2736,-656,15051,423,32,6,1389808529.806611
2,224,0,2171,275,605,-191,1965,11744,1504,352,584,347,-259,-61,1389808529.806879
3,224,0,16656,642,-249,-736,16889,11904,3808,-928,15051,423,32,6,1389808529.806885
2,225,0,3166,277,582,-196,3845,11536,2128,2128,3144,347,-258,-68,1389808529.825057
3,225,0,18655,788,-252,-727,18767,10320,4592,-1952,17629,423,26,8,1389808529.825066
2,226,0,5156,399,490,-231,5725,10736,1936,3488,5706,350,-261,-72,1389808529.836902
3,226,0,20655,770,-219,-608,20645,8256,5040,-3168,20207,427,18,13,1389808529.836911
2,227,0,7145,559,299,-275,7605,9488,1920,3536,5706,350,-261,-72,1389808529.837184
3,227,0,22654,793,-177,-457,22521,6208,5648,-4336,20207,427,18,13,1389808529.837190
2,228,0,9135,675,40,-286,9485,8480,2128,2480,8267,348,-263,-77,1389808529.854717
3,228,0,23654,796,-123,-408,24398,4608,5664,-5296,22784,427,15,15,1389808529.854726
2,229,0,11125,787,-159,-239,11365,7648,1936,1184,10830,345,-265,-76,1389808529.866486
3,229,0,25654,665,29,-292,26275,4112,4832,-5616,25362,429,15,10,1389808529.866495
2,230,0,13115,821,-178,-181,13245,7024,1776,-144,13390,348,-265,-79,1389808529.866750
3,230,0,27653,394,202,-105,28152,5056,4208,-4976,27941,429,13,13,1389808529.866757
2,231,0,15104,771,-24,-161,15125,7248,1568,-880,13390,348,-265,-79,1389808529.884832
3,231,0,29653,195,295,29,30029,7088,3536,-3696,27941,429,13,13,1389808529.884841
2,232,0,17094,692,168,-92,17007,8928,1184,-800,15952,346,-265,-82,1389808529.896936
3,232,0,31652,122,260,81,31906,9280,2928,-2224,30519,423,14,14,1389808529.896945
2,233,0,18089,641,205,-57,18887,11024,800,-208,18512,341,-264,-89,1389808529.897211
3,233,0,33652,185,105,34,33784,11504,2832,-736,33096,423,13,8,1389808529.897217
2,234,0,20078,584,156,-50,20767,12464,528,240,18512,341,-264,-89,1389808529.915069
3,234,0,35651,422,-134,-76,35661,12848,2848,-48,35675,425,11,10,1389808529.915078
2,235,0,22068,574,26,-139,22648,12688,240,320,21073,346,-267,-89,1389808529.927225
3,235,0,37651,702,-278,-229,37539,12560,2912,-560,35675,425,11,10,1389808529.927234
2,236,0,24058,561,-61,-275,24528,11152,384,240,23635,342,-268,-95,1389808529.927503
3,236,0,38651,811,-290,-290,39416,10608,2880,-1568,38254,425,11,17,1389808529.927509
2,237,0,26047,556,-32,-425,26409,8832,880,256,26195,342,-272,-94,1389808529.945081
3,237,0,40650,921,-245,-388,41293,8464,2816,-2288,40832,430,2,16,1389808529.945090
2,238,0,28037,623,52,-518,28289,7056,1040,400,26195,342,-272,-94,1389808529.957288
3,238,0,42650,880,-195,-445,43170,6944,2672,-2352,40832,430,2,16,1389808529.957297
2,239,0,30027,698,94,-477,30169,5968,1136,384,28756,342,-274,-98,1389808529.957605
3,239,0,44649,762,-156,-421,45048,6096,2672,-1952,43411,430,253,17,1389808529.957612
2,240,0,32016,789,94,-414,32050,5536,1024,272,31316,343,-277,-100,1389808529.975713
3,240,0,46649,692,-144,-387,46925,5824,2640,-1120,45989,427,-7,21,1389808529.975722
3,241,0,48648,735,-113,-360,48803,6112,2480,-368,48567,427,-11,25,1389808529.987544
3,242,0,50648,829,-74,-365,50680,6432,2208,160,48567,427,-11,25,1389808529.987801
2,243,0,36991,983,-6,-281,37690,6336,944,-128,36438,334,-280,-110,1389808530.5450
3,243,0,52647,972,-58,-376,52558,6608,2160,416,51144,427,-14,23,1389808530.5459
2,244,0,38980,1012,-27,-269,39571,6384,1072,48,39001,339,-283,-109,1389808530.5706
3,244,0,53647,1055,-51,-391,54435,6592,2144,352,53722,426,-19,26,1389808530.17911
2,245,0,40970,1042,-28,-256,41451,6192,1248,240,41561,338,-283,-115,1389808530.18238
3,245,0,55647,1203,-64,-425,56312,6512,2384,48,56300,424,-24,30,1389808530.18249
2,246,0,42960,1100,-37,-234,43331,6016,1440,400,41561,338,-283,-115,1389808530.35169
3,246,0,57646,1341,-59,-464,58189,6512,2640,-448,56300,424,-24,30,1389808530.35179
2,247,0,44949,1210,-53,-159,45211,6128,1520,560,44123,333,-282,-118,1389808530.47297
3,247,0,59646,1455,-19,-478,60066,6544,2752,-976,58877,428,-29,30,1389808530.47311
2,248,0,46939,1342,-69,-68,47091,6496,1424,512,46685,339,-279,-124,1389808530.47637
3,248,0,61645,1495,29,-472,61943,6800,2752,-1328,61456,430,-38,31,1389808530.47648
2,249,0,48929,1467,-81,-2,48972,7168,1280,176,46685,339,-279,-124,1389808530.64659
3,249,0,63645,1497,65,-439,63820,7184,2720,-1376,61456,430,-38,31,1389808530.64674
2,250,0,50918,1598,-89,32,50853,7920,1168,-288,49246,335,-280,-127,1389808530.77021
3,250,0,109,1494,88,-410,162,7632,2576,-1376,64034,426,-41,29,1389808530.77035
2,251,0,51913,1645,-79,36,52734,8432,944,-928,51807,337,-276,-131,1389808530.77352
3,251,0,2108,1548,95,-392,2039,7968,2560,-1504,1076,426,-49,30,1389808530.77362
2,252,0,53903,1698,-65,3,54614,8784,784,-1664,54369,337,-277,-140,1389808530.95367
3,252,0,3108,1582,98,-398,3917,8096,2480,-1632,3653,430,-50,27,1389808530.95381
2,253,0,55893,1702,-29,-50,56495,8768,560,-2096,54369,337,-277,-140,1389808530.101642
3,253,0,5107,1583,110,-413,5795,8256,2304,-1824,3653,430,-50,27,1389808530.101889
2,254,0,57882,1636,0,-109,58376,8496,416,-2192,56932,336,-277,-146,1389808530.113481
3,254,0,7107,1554,119,-414,7672,8336,2336,-1984,6230,428,-64,31,1389808530.113489
2,255,0,59872,1524,9,-154,60256,8176,448,-1888,59494,331,-270,-150,1389808530.125484
3,255,0,9106,1506,133,-410,9549,8272,2304,-2032,8808,428,-62,25,1389808530.125498
2,0,0,61862,1424,-1,-158,62136,7952,416,-1616,62055,337,-272,-154,1389808530.125804
3,0,0,11106,1435,127,-396,11426,8208,2304,-1824,11386,433,-69,26,1389808530.132058
2,1,0,63851,1350,-20,-154,64016,7920,384,-1264,62055,337,-272,-154,1389808530.144231
3,1,0,13106,1342,100,-364,13302,8112,2384,-1504,11386,433,-69,26,1389808530.144241
2,2,0,305,1329,-35,-150,360,7872,352,-960,64614,335,-274,-159,1389808530.155896
3,2,0,15105,1290,81,-330,15180,7984,2304,-1072,13963,430,-76,26,1389808530.155906
2,3,0,1300,1329,-47,-145,2241,7888,224,-880,1639,333,-272,-165,1389808530.156123
3,3,0,17105,1293,37,-322,17057,7872,2288,-768,16541,428,-77,22,1389808530.156267
2,4,0,3290,1353,-65,-160,4121,7808,320,-896,1639,333,-272,-165,1389808530.174166
3,4,0,18104,1298,19,-324,18935,7744,2128,-560,16541,428,-77,22,1389808530.174175
2,5,0,5279,1377,-78,-161,6001,7616,256,-992,4201,334,-269,-170,1389808530.185857
3,5,0,20104,1316,-25,-328,20812,7520,1984,-416,19118,431,-83,23,1389808530.185865
2,6,0,7269,1419,-96,-168,7881,7536,304,-896,6761,335,-268,-172,1389808530.186167
3,6,0,22104,1334,-50,-331,22689,7392,1856,-336,21696,433,-87,26,1389808530.186365
2,7,0,9259,1453,-115,-167,9761,7392,480,-752,9322,333,-265,-176,1389808530.203841
3,7,0,24103,1359,-64,-341,24566,7232,1952,-432,24273,428,-91,23,1389808530.203850
2,8,0,11248,1499,-130,-163,11641,7120,544,-768,9322,333,-265,-176,1389808530.216001
3,8,0,26103,1383,-64,-360,26443,7136,1872,-448,24273,428,-91,23,1389808530.216027
2,9,0,13238,1543,-152,-155,13523,6976,544,-848,11884,333,-260,-182,1389808530.216268
3,9,0,28102,1385,-56,-362,28321,7104,1632,-416,26852,430,-95,21,1389808530.216275
2,10,0,15228,1592,-155,-141,15403,6912,432,-912,14445,334,-262,-187,1389808530.234343
3,10,0,30102,1407,-61,-368,30198,7216,1504,-448,29429,431,-104,24,1389808530.234352
2,11,0,17217,1617,-133,-121,16813,6912,448,-1024,17007,328,-260,-191,1389808530.246485
3,11,0,32101,1442,-50,-390,32075,7472,1376,-432,32006,427,-110,21,1389808530.246500
2,12,0,18212,1624,-127,-123,18693,6976,560,-1328,17007,328,-260,-191,1389808530.246827
3,12,0,33101,1469,-37,-411,33953,7904,1728,-560,32006,427,-110,21,1389808530.246837
2,13,0,20202,1678,-128,-118,20573,7296,528,-1744,19568,330,-511,-190,1389808530.263965
3,13,0,35101,1528,-19,-444,35829,8320,2016,-784,34585,431,-115,27,1389808530.263980
2,14,0,22192,1677,-102,-85,22453,7840,224,-2160,22128,333,-253,-202,1389808530.275438
3,14,0,37100,1543,-21,-459,37707,8720,2352,-976,37163,430,-120,22,1389808530.275447
2,15,0,24181,1616,-59,-70,24333,8336,0,-2336,24690,330,-249,-208,1389808530.275699
3,15,0,39100,1559,-23,-417,39584,8656,2576,-1232,37163,430,-120,22,1389808530.287280
2,16,0,26171,1481,-19,-103,26213,8592,128,-2592,24690,330,-249,-208,1389808530.287560
3,16,0,41099,1580,-7,-380,41461,8256,3120,-2032,39740,429,-126,18,1389808530.287567
2,17,0,28161,1358,3,-164,28093,8784,-112,-2912,27250,331,-248,-201,1389808530.305611
3,17,0,43099,1571,48,-334,43338,7872,3552,-3104,42318,425,-129,17,1389808530.305620
2,18,0,30150,1208,-12,-168,29974,9040,-432,-3232,29812,333,-243,-211,1389808530.305871
3,18,0,45098,1456,125,-231,45215,7584,3664,-3920,44896,429,-134,13,1389808530.312216
2,19,0,32140,986,-55,-172,31854,9328,-544,-2848,29812,333,-243,-211,1389808530.323778
3,19,0,47098,1177,221,-67,47093,7568,2880,-4112,44896,429,-134,13,1389808530.323788
2,20,0,34130,746,-73,-208,33735,9632,32,-1552,32374,329,-246,-215,1389808530.335399
3,20,0,48098,956,250,36,48971,8096,1632,-3104,47474,429,-135,11,1389808530.335407
2,21,0,35124,702,-84,-219,35615,9712,416,-224,34934,329,-243,-218,1389808530.341583
3,21,0,50097,554,257,230,50849,9296,384,-1104,50052,428,-131,7,1389808530.341831
2,22,0,37114,767,-110,-222,37496,9552,304,624,37496,328,-243,-215,1389808530.353983
3,22,0,52097,376,186,254,52726,10880,-80,992,52630,429,-132,5,1389808530.353991
2,23,0,39104,998,-160,-207,39376,9488,-336,448,37496,328,-243,-215,1389808530.365383
3,23,0,54096,497,28,141,54603,12288,160,2560,52630,429,-132,5,1389808530.365392
2,24,0,41093,1272,-195,-190,41256,9584,-944,-736,40057,328,-239,-221,1389808530.371547
3,24,0,56096,806,-170,-74,56481,12688,272,2992,55208,432,-132,12,1389808530.371804
2,25,0,43083,1452,-167,-218,43136,9728,-1328,-2400,42618,330,-243,-224,1389808530.383900
3,25,0,58095,1137,-369,-307,58359,12000,560,2384,57786,431,-138,9,1389808530.383908
2,26,0,45073,1494,-83,-308,45017,9904,-1408,-3616,45180,331,-239,-229,1389808530.395439
3,26,0,60095,1379,-470,-492,60237,10656,976,1248,57786,431,-138,9,1389808530.395454
2,27,0,47063,1426,31,-392,46897,9856,-1568,-3968,45180,331,-239,-229,1389808530.401649
3,27,0,62095,1471,-467,-574,62114,9840,1552,560,60365,430,-143,13,1389808530.401835
2,28,0,49052,1241,133,-446,48776,10016,-1520,-3408,47741,329,-240,-232,1389808530.413970
3,28,0,63094,1469,-425,-581,63991,9648,2368,432,62942,429,-149,14,1389808530.413985
2,29,0,50047,1121,175,-458,50656,10432,-720,-2288,50302,327,-243,-237,1389808530.425711
3,29,0,65094,1451,-334,-512,333,9776,2784,176,65520,425,-152,17,1389808530.425720
2,30,0,52037,876,205,-445,52536,10608,688,-976,52862,326,-246,-239,1389808530.425970
3,30,0,1557,1466,-315,-435,2211,9776,3408,-544,65520,425,-152,17,1389808530.432215
2,31,0,54026,741,174,-420,54416,10288,1792,240,52862,326,-246,-239,1389808530.444358
3,31,0,3557,1588,-283,-378,4088,9344,4448,-1472,2562,426,-160,15,1389808530.444367
2,32,0,56016,709,100,-379,56295,9536,2768,1728,55423,325,-244,-240,1389808530.456579
3,32,0,5556,1713,-187,-310,5965,8592,5088,-2192,5140,427,-166,16,1389808530.456589
2,33,0,58006,751,-13,-339,58175,8512,3648,3088,57984,325,-240,-249,1389808530.456898
3,33,0,7556,1737,-52,-194,7843,7824,5296,-2384,7718,424,-170,11,1389808530.456904
2,34,0,59995,947,-134,-232,60055,7504,3600,4144,57984,325,-240,-249,1389808530.474557
3,34,0,9556,1701,83,-44,9721,6784,5232,-2048,7718,424,-170,11,1389808530.474566
2,35,0,61985,1265,-297,-50,61936,6592,3248,4912,60546,323,-239,-245,1389808530.486839
3,35,0,11555,1662,182,96,11597,5696,5232,-1584,10296,422,-168,10,1389808530.486848
2,36,0,63975,1665,-544,142,63816,6352,2608,4832,63108,323,-233,-248,1389808530.487254
3,36,0,12555,1654,227,171,13474,5216,5504,-1248,12875,427,-169,3,1389808530.487263
2,37,0,428,2016,-808,338,160,7088,1808,3792,134,319,-223,-247,1389808530.504814
3,37,0,14554,1677,283,286,15352,5680,5248,-1376,12875,427,-169,3,1389808530.504823
2,38,0,1423,2131,-893,417,2040,8448,1392,1712,134,319,-223,-247,1389808530.517162
3,38,0,16554,1721,356,345,17230,7152,4528,-1888,15454,422,-168,-5,1389808530.517176
2,39,0,3413,2217,-914,474,3921,9904,1152,-624,2696,326,-215,-245,1389808530.517490
3,39,0,18554,1734,391,350,19108,8640,3968,-2160,18032,425,-165,-10,1389808530.517501
2,40,0,5403,2147,-715,345,5801,11232,752,-2544,5258,333,-205,-245,1389808530.535465
3,40,0,20553,1742,393,372,20985,9968,3536,-2240,20610,432,-164,-14,1389808530.535474
2,41,0,7392,1921,-461,170,7682,11440,512,-3136,7820,331,-201,-245,1389808530.535739
3,41,0,22553,1769,409,320,22863,10816,3232,-2464,20610,432,-164,-14,1389808530.547913
2,42,0,9382,1651,-275,9,9562,10464,816,-2352,7820,331,-201,-245,1389808530.548264
3,42,0,24552,1816,461,201,24740,10960,3232,-2832,23188,427,-167,-26,1389808530.548275
2,43,0,11372,1465,-212,-111,11443,8896,1120,-944,10381,335,-197,-245,1389808530.566220
3,43,0,26552,1755,555,104,26618,10544,3424,-3072,25767,424,-162,-29,1389808530.566229
2,44,0,13361,1386,-211,-151,13324,7776,1168,320,12943,338,-196,-251,1389808530.566407
3,44,0,27551,1682,585,74,28495,9408,3632,-2880,28345,428,-163,-40,1389808530.566412
2,45,0,15351,1357,-184,-134,15205,7104,1568,848,12943,338,-196,-251,1389808530.584348
3,45,0,29551,1519,570,65,30372,8304,3840,-2608,28345,428,-163,-40,1389808530.584357
2,46,0,17341,1403,-143,-94,17085,7344,1696,912,15503,334,-190,-250,1389808530.596260
3,46,0,31551,1400,498,76,32249,7456,3920,-2160,30924,425,-166,-44,1389808530.596269
2,47,0,18336,1445,-147,-71,18965,7872,1440,704,18064,338,-187,-249,1389808530.596551
3,47,0,33550,1297,425,108,34127,7008,3568,-1616,33503,425,-160,-53,1389808530.596557
2,48,0,20325,1516,-214,-5,20845,8160,992,720,20625,338,-183,-250,1389808530.614155
3,48,0,35550,1214,388,139,36004,7056,3152,-928,33503,425,-160,-53,1389808530.614165
2,49,0,22315,1584,-289,5,22726,8112,784,576,20625,338,-183,-250,1389808530.626236
3,49,0,37549,1243,309,104,37881,7184,3056,-336,36082,432,-157,-58,1389808530.626246
2,50,0,24305,1631,-336,-40,24606,7744,864,256,23186,336,-176,-256,1389808530.626435
3,50,0,39549,1362,206,5,39758,7392,3168,96,38660,429,-164,-64,1389808530.626441
2,51,0,26294,1633,-341,-64,26486,7264,752,0,25747,333,-172,-252,1389808530.643964
3,51,0,41548,1465,132,-116,41636,7488,3216,320,41238,428,-162,-65,1389808530.643979
2,52,0,28284,1604,-307,-61,28366,6880,640,-192,28308,341,-169,-253,1389808530.656210
3,52,0,42548,1512,113,-154,43513,7264,3424,32,41238,428,-162,-65,1389808530.656219
2,53,0,30274,1556,-281,-23,30246,6512,720,-208,28308,341,-169,-253,1389808530.656489
3,53,0,44548,1610,123,-211,45390,7040,3568,-592,43817,429,-163,-72,1389808530.656495
2,54,0,32263,1545,-248,16,32126,6336,656,-176,30869,341,-163,-253,1389808530.673878
3,54,0,46547,1650,194,-242,47267,6752,3776,-1440,46395,433,-166,-72,1389808530.673886
2,55,0,33258,1542,-231,30,34006,6416,752,-192,33431,338,-160,-255,1389808530.685535
3,55,0,48547,1611,286,-216,48675,6608,3872,-1856,48973,427,-166,-77,1389808530.685544
2,56,0,35248,1531,-186,73,35886,6720,848,-192,35992,345,-152,-253,1389808530.685795
3,56,0,50546,1528,371,-162,50554,6720,3888,-2096,48973,427,-166,-77,1389808530.691955
2,57,0,37238,1510,-149,124,37766,7136,768,-16,35992,345,-152,-253,1389808530.703793
3,57,0,52546,1409,422,-92,52431,6928,3984,-1888,51550,427,-165,-86,1389808530.703841
2,58,0,39227,1480,-116,162,39646,7504,720,144,38553,344,-147,-256,1389808530.715922
3,58,0,54545,1326,424,-51,54309,7152,3888,-1568,54129,426,-167,-94,1389808530.715948
2,59,0,41217,1464,-116,186,41527,7600,688,432,41114,339,-139,-256,1389808530.716143
3,59,0,56545,1292,394,-43,56186,7376,3856,-1248,54129,426,-167,-94,1389808530.716353
2,60,0,43207,1465,-132,196,43407,7840,704,624,41114,339,-139,-256,1389808530.734467
3,60,0,57545,1292,377,-48,58064,7648,3792,-1168,56707,427,-166,-99,1389808530.734476
2,61,0,45196,1470,-157,216,45287,7888,528,512,43675,343,-132,-256,1389808530.746205
3,61,0,59544,1303,357,-90,59941,7824,3872,-1312,59284,427,-163,-105,1389808530.746219
2,62,0,47186,1473,-173,219,47167,7936,208,128,46235,341,-128,-259,1389808530.746545
3,62,0,61544,1324,359,-143,61819,7840,3984,-1632,61862,424,-169,-110,1389808530.746556
2,63,0,49176,1413,-179,189,49048,7952,-16,-352,48795,341,-121,-255,1389808530.764200
2,64,0,50170,1377,-163,169,50929,7904,-176,-704,48795,341,-121,-255,1389808530.775772
3,64,0,7,1184,377,-176,38,7536,4112,-1968,64439,424,-168,-115,1389808530.775782
2,65,0,52160,1278,-101,119,52809,7920,-112,-944,51355,345,-117,-255,1389808530.776035
3,65,0,2006,1084,373,-144,1915,7504,3984,-1968,1480,425,-168,-119,1389808530.776292
2,66,0,54150,1157,-48,78,54690,7872,-48,-1040,53916,349,-115,-259,1389808530.794053
3,66,0,4006,979,367,-103,3793,7536,3872,-1968,4058,425,-168,-123,1389808530.794068
2,67,0,56140,1033,6,46,56570,7856,0,-816,56476,342,-110,-259,1389808530.805859
3,67,0,6006,894,349,-94,5670,7712,3760,-1952,4058,425,-168,-123,1389808530.805868
2,68,0,58129,942,48,50,58451,7824,-160,-416,56476,342,-110,-259,1389808530.806139
3,68,0,7005,862,340,-83,7547,8048,3552,-1808,6637,422,-169,-128,1389808530.806392
2,69,0,60119,869,95,44,60331,7888,-288,-16,59036,344,-106,-258,1389808530.824260
3,69,0,9005,773,322,-78,9424,8208,3440,-1728,9214,422,-167,-136,1389808530.824269
2,70,0,62109,817,102,53,62212,7968,-448,224,61598,346,-102,-258,1389808530.835961
3,70,0,11004,687,301,-100,11301,8416,3376,-1584,9214,422,-167,-136,1389808530.835970
2,71,0,64098,773,106,48,64093,8032,-416,208,64159,345,-100,-262,1389808530.836242
3,71,0,13004,615,285,-140,13179,8576,3376,-1328,11793,421,-165,-139,1389808530.836248
2,72,0,552,713,120,23,436,8192,-512,160,64159,345,-100,-262,1389808530.853803
3,72,0,15004,535,260,-169,15057,8416,3568,-1024,14372,421,-170,-143,1389808530.853811
2,73,0,1547,689,123,5,2315,8304,-544,0,1184,346,-97,-263,1389808530.865326
3,73,0,17003,516,226,-205,16935,8288,3696,-784,16950,421,-171,-145,1389808530.865335
2,74,0,3536,645,151,-28,4196,8240,-624,-128,3745,344,-95,-265,1389808530.871543
3,74,0,19003,551,200,-254,18812,8144,3808,-880,16950,421,-171,-145,1389808530.871794
2,75,0,5526,601,190,-74,6076,8240,-800,-256,3745,344,-95,-265,1389808530.883825
3,75,0,21002,559,178,-284,20689,7968,3792,-1040,19528,421,-170,-145,1389808530.883834
2,76,0,7516,568,224,-106,7957,8176,-896,-384,6305,344,-97,-265,1389808530.896251
3,76,0,22002,546,165,-291,22566,7840,3664,-1264,22106,417,-174,-152,1389808530.896265
2,77,0,9505,524,254,-141,9838,8176,-928,-496,8867,343,-93,-269,1389808530.896591
3,77,0,24001,491,146,-288,24444,7824,3360,-1248,24685,417,-173,-150,1389808530.896602
2,78,0,11495,461,265,-163,11719,8240,-832,-480,11429,343,-93,-273,1389808530.914237
3,78,0,26001,411,137,-286,26321,7984,3152,-1056,24685,417,-173,-150,1389808530.914246
2,79,0,13485,387,275,-177,13599,8368,-720,-208,11429,343,-93,-273,1389808530.925975
3,79,0,28001,304,146,-265,28198,8208,2944,-688,27263,422,-175,-153,1389808530.925990
2,80,0,15475,345,277,-190,15478,8512,-224,-32,13989,342,-92,-273,1389808530.926295
3,80,0,30000,243,145,-265,30075,8624,2896,-272,29841,422,-176,-155,1389808530.926598
2,81,0,16469,338,272,-189,17358,8576,512,128,16549,338,-95,-278,1389808530.944627
3,81,0,32000,265,111,-266,31953,8976,2704,96,29841,422,-176,-155,1389808530.944635
2,82,0,18459,393,277,-146,19238,8624,496,304,19111,340,-93,-278,1389808530.956779
3,82,0,33999,338,87,-299,33830,9440,2592,544,32419,416,-179,-154,1389808530.956828
2,83,0,20449,493,278,-46,21118,8912,384,752,19111,340,-93,-278,1389808530.957231
3,83,0,35999,480,73,-371,35707,9808,2432,640,34997,413,-181,-154,1389808530.957240
2,84,0,22438,534,257,36,22998,9200,288,1328,21672,338,-88,-282,1389808530.974863
3,84,0,36999,565,66,-418,37585,9856,2576,400,37575,416,-185,-161,1389808530.974878
2,85,0,24428,645,211,64,24878,9504,-80,1600,24234,337,-87,-284,1389808530.986387
3,85,0,38998,678,33,-481,39461,9744,2944,96,37575,416,-185,-161,1389808530.986396
2,86,0,26418,807,134,71,26758,9680,-480,1008,24234,337,-87,-284,1389808530.986671
3,86,0,40998,714,26,-512,41339,9456,3296,-272,40154,414,-189,-158,1389808530.986677
2,87,0,28407,939,96,23,28638,9712,-720,-80,26795,336,-86,-285,1389808531.3811
3,87,0,42997,713,14,-491,43216,9008,3552,-560,42731,411,-191,-162,1389808531.3820
2,88,0,30397,1012,119,-51,30518,9568,-928,-976,29356,336,-80,-286,1389808531.15363
3,88,0,44997,701,33,-437,45093,8640,3408,-688,45309,412,-196,-167,1389808531.15371
2,89,0,32387,981,200,-120,32399,9280,-1168,-1472,31915,334,-79,-286,1389808531.21522
3,89,0,46996,656,57,-376,46971,8304,3088,-528,45309,412,-196,-167,1389808531.21776
2,90,0,33382,949,248,-153,34279,8880,-1200,-1520,31915,334,-79,-286,1389808531.33394
3,90,0,48996,555,60,-331,48849,8336,2768,-208,47888,408,-196,-165,1389808531.33403
2,91,0,35371,826,335,-236,36159,8480,-1104,-1264,34477,335,-77,-290,1389808531.45413
3,91,0,50995,489,18,-305,50726,8272,2528,-16,50466,408,-198,-171,1389808531.45422
2,92,0,37361,712,386,-325,38039,8144,-560,-880,37038,331,-76,-295,1389808531.45685
3,92,0,51995,462,-11,-308,52603,8208,2496,-112,50466,408,-198,-171,1389808531.57873
2,93,0,39351,621,425,-407,39919,8352,1136,-560,39599,330,-80,-297,1389808531.58210
3,93,0,53995,452,-72,-343,54481,8512,3184,-240,53044,410,-199,-169,1389808531.58220
2,94,0,41340,548,461,-433,41799,9328,1328,-320,39599,330,-80,-297,1389808531.76157
3,94,0,55994,564,-119,-373,56358,9344,3504,-304,55622,409,-202,-169,1389808531.76166
2,95,0,43330,713,492,-300,43679,10048,976,176,42160,330,-80,-299,1389808531.76437
3,95,0,57994,776,-164,-349,58235,10464,2384,-448,58201,403,-203,-168,1389808531.76443
2,96,0,45320,604,494,-241,45559,10704,2144,672,44721,329,-77,-303,1389808531.94462
3,96,0,59993,892,-244,-514,60112,10896,3312,-576,58201,403,-203,-168,1389808531.94477
2,97,0,47309,681,462,-262,47439,11008,2400,1856,47281,323,-76,-309,1389808531.106127
3,97,0,61993,1079,-313,-573,61989,10720,3824,-1328,60780,407,-206,-165,1389808531.106136
2,98,0,49299,818,337,-328,49319,10816,2816,2704,47281,323,-76,-309,1389808531.106388
3,98,0,63992,1209,-310,-610,63866,10080,4352,-2992,63359,408,-211,-169,1389808531.106395
2,99,0,50294,900,230,-351,50729,10272,3008,2688,49842,320,-76,-308,1389808531.123590
3,99,0,456,1427,-211,-651,207,8944,5200,-4512,401,403,-213,-172,1389808531.123599
2,100,0,52284,1134,6,-281,52609,9056,2960,2192,52403,326,-73,-313,1389808531.135777
3,100,0,1456,1445,-137,-636,2084,7552,4960,-5456,401,403,-213,-172,1389808531.135786
2,101,0,54273,1224,-146,-190,54490,8080,2944,1680,52403,326,-73,-313,1389808531.136024
3,101,0,3455,1219,18,-523,3961,6192,4832,-5456,2979,405,-215,-174,1389808531.136143
2,102,0,56263,1237,-200,-124,56369,7360,2752,1376,54964,322,-71,-311,1389808531.154207
3,102,0,5455,901,109,-312,5839,5328,4736,-4880,5557,405,-213,-180,1389808531.154217
2,103,0,58253,1216,-171,-100,58250,6848,2720,1088,57525,322,-67,-310,1389808531.166031
3,103,0,7454,714,206,-118,7717,5104,4416,-4224,5557,405,-213,-180,1389808531.166041
2,104,0,60242,1130,-105,-55,60129,6720,2720,672,60087,327,-62,-308,1389808531.166284
3,104,0,9454,637,329,-28,9594,5392,4064,-3472,8136,399,-217,-181,1389808531.166292
2,105,0,62232,1048,-39,3,62009,7216,2000,608,60087,327,-62,-308,1389808531.183908
3,105,0,11453,617,379,-4,11471,6528,3904,-2624,10712,398,-211,-187,1389808531.183917
2,106,0,64222,972,-5,29,63889,7808,1504,688,62649,322,-60,-304,1389808531.195827
3,106,0,13453,646,303,-24,13349,7776,3648,-1888,13290,404,-212,-192,1389808531.195842
2,107,0,65217,946,-18,22,233,8192,1392,720,65211,322,-57,-309,1389808531.196226
3,107,0,15453,772,141,-106,15227,8544,3616,-1600,13290,404,-212,-192,1389808531.196468
2,108,0,1670,935,-80,13,2113,8240,1520,592,2235,326,-52,-307,1389808531.214198
3,108,0,16452,866,82,-157,17104,8736,3776,-2016,15869,399,-211,-195,1389808531.214207
2,109,0,3660,995,-119,-7,3993,8304,1488,272,2235,326,-52,-307,1389808531.226227
3,109,0,18452,1059,31,-250,18981,8592,3696,-2656,18447,398,-212,-197,1389808531.226236
2,110,0,5650,1050,-93,1,5873,8384,1504,-48,4797,324,-46,-302,1389808531.226506
3,110,0,20451,1140,68,-319,20858,8240,3536,-3008,21026,401,-211,-200,1389808531.226512
2,111,0,7639,1064,-15,-23,7753,8592,1488,-368,7358,324,-43,-305,1389808531.244543
3,111,0,22451,1075,118,-330,22734,8048,3152,-2848,21026,401,-211,-200,1389808531.244552
2,112,0,9629,1062,82,-75,9633,8800,1376,-336,9919,325,-38,-305,1389808531.256030
3,112,0,24451,978,146,-303,24611,7936,2816,-2432,23605,399,-214,-204,1389808531.256039
2,113,0,11619,1026,121,-144,11515,8768,1360,-32,9919,325,-38,-305,1389808531.256307
3,113,0,26450,940,149,-294,26488,8064,2672,-1904,26183,395,-210,-208,1389808531.256313
2,114,0,13608,982,96,-186,13395,8448,1648,512,12479,323,-38,-303,1389808531.274350
3,114,0,28450,949,122,-332,28364,8208,2720,-1440,26183,395,-210,-208,1389808531.274358
2,115,0,15598,988,50,-191,15276,7952,1856,992,15041,323,-35,-305,1389808531.286411
3,115,0,30449,1004,84,-379,30242,8272,2736,-1136,28761,396,-214,-210,1389808531.286420
2,116,0,16593,1003,28,-170,17156,7280,2064,1264,15041,323,-35,-305,1389808531.286657
3,116,0,31449,1045,62,-404,32118,8112,2816,-1136,31339,393,-214,-215,1389808531.286662
2,117,0,18582,1105,-10,-101,19036,6672,2064,1248,17603,325,-32,-301,1389808531.304230
3,117,0,33449,1161,30,-467,33994,7728,3024,-1472,33918,388,-215,-215,1389808531.304240
2,118,0,20572,1203,-61,-20,20916,6416,1984,944,20165,321,-23,-302,1389808531.316320
3,118,0,35448,1255,23,-526,35871,7264,3200,-1856,33918,388,-215,-215,1389808531.316328
2,119,0,22562,1305,-68,55,22796,6672,1808,208,22726,323,-21,-300,1389808531.316600
3,119,0,37448,1294,64,-539,37747,6992,3232,-2160,36496,393,-215,-219,1389808531.316606
2,120,0,24552,1368,-31,101,24676,7296,1632,-464,22726,323,-21,-300,1389808531.334657
3,120,0,39447,1288,142,-505,39624,6992,3152,-2160,39075,392,-214,-224,1389808531.334666
2,121,0,26541,1365,47,85,26557,8000,1392,-784,25288,323,-17,-297,1389808531.346799
3,121,0,41447,1235,208,-444,41501,7136,2976,-1824,41653,384,-217,-228,1389808531.346814
2,122,0,28531,1297,103,60,28437,8480,1440,-640,27849,322,-10,-296,1389808531.347236
3,122,0,43446,1182,237,-372,43378,7616,2848,-1488,41653,384,-217,-228,1389808531.347249
2,123,0,30521,1262,129,5,30317,8672,1440,-80,30411,320,-5,-298,1389808531.364845
3,123,0,45446,1206,221,-334,45254,8128,2704,-1264,44231,385,-217,-232,1389808531.364860
2,124,0,32510,1276,122,-11,32198,8528,1168,432,30411,320,-5,-298,1389808531.377243
3,124,0,46446,1223,224,-337,47130,8624,2656,-1232,46810,386,-217,-238,1389808531.377258
2,125,0,33505,1295,105,-8,34078,8336,1088,624,32972,325,-3,-294,1389808531.377536
3,125,0,48445,1273,203,-371,49007,8896,2720,-1216,46810,386,-217,-238,1389808531.377547
2,126,0,35495,1363,77,-7,35958,8304,944,288,35532,319,3,-295,1389808531.395947
3,126,0,50445,1323,184,-422,50883,8960,2784,-1344,49389,383,-217,-246,1389808531.395962
2,127,0,37484,1427,55,7,37838,8336,736,-384,38094,319,9,-291,1389808531.396275
3,127,0,52444,1326,175,-449,52760,8688,2800,-1488,51968,380,-212,-249,1389808531.396586
2,128,0,39474,1427,77,-6,39719,8384,672,-1056,38094,319,9,-291,1389808531.414558
3,128,0,54444,1305,176,-452,54637,8304,2704,-1664,54546,381,-215,-254,1389808531.414567
2,129,0,41464,1380,119,-20,41599,8384,608,-1376,40654,320,14,-294,1389808531.426649
3,129,0,56443,1262,185,-429,56514,8128,2672,-1520,54546,381,-215,-254,1389808531.426659
2,130,0,43453,1329,168,-51,43479,8320,832,-1280,43215,324,20,-288,1389808531.426931
3,130,0,58443,1231,217,-413,58390,8080,2704,-1232,57125,375,-216,-260,1389808531.426937
2,131,0,45443,1272,210,-80,45359,8256,1024,-736,43215,324,20,-288,1389808531.445126
3,131,0,60442,1229,222,-398,60266,8128,2576,-960,59703,375,-211,-262,1389808531.445140
2,132,0,47433,1276,232,-76,47239,8032,1040,16,45776,319,24,-290,1389808531.457422
3,132,0,61442,1231,215,-399,62143,8208,2704,-896,62282,378,-210,-266,1389808531.457431
2,133,0,48428,1297,225,-55,49118,7888,976,336,48337,319,27,-292,1389808531.457704
3,133,0,63442,1253,182,-380,64021,8144,2720,-992,62282,378,-210,-266,1389808531.457710
2,134,0,50417,1356,196,-30,50998,7792,784,208,50898,323,33,-290,1389808531.475467
3,134,0,65441,1282,142,-392,361,8096,2640,-1328,64861,372,-211,-274,1389808531.475477
2,135,0,52407,1435,163,0,52878,7808,608,-256,50898,323,33,-290,1389808531.475721
3,135,0,1905,1282,136,-425,2238,7904,2720,-1488,1902,372,-211,-278,1389808531.487163
2,136,0,54397,1463,140,21,54758,7936,368,-880,53460,315,39,-284,1389808531.487439
3,136,0,3904,1264,150,-449,4116,7840,2784,-1632,1902,372,-211,-278,1389808531.487445
2,137,0,56386,1425,134,15,56638,8016,400,-1296,56022,314,44,-286,1389808531.504744
3,137,0,5904,1234,168,-437,5993,7744,2880,-1712,4482,373,-210,-282,1389808531.504753
