nodeID,seqNumber,status,gyroTick,gyroX,gyroY,gyroZ,accelTick,accelX,accelY,accelZ,magTick,magX,magY,magZ,currentTime
2,216,0,11196,2,-14,-30,11275,3600,-7024,-1136,10707,261,-585,-373,1389634565.960575
3,216,0,8565,2,-22,-25,8693,4096,-6512,1584,7739,-60,-531,-241,1389634565.960586
2,217,0,13186,3,-16,-24,13154,3568,-7104,-1168,13270,263,-586,-374,1389634565.963919
3,217,0,10564,-4,-20,-18,10570,4048,-6496,1568,10318,-62,-532,-243,1389634565.963928
2,218,0,15175,-3,-19,-32,15033,3600,-7056,-1120,13270,263,-586,-374,1389634565.963931
3,218,0,11564,4,-16,-13,12447,4080,-6400,1600,10318,-62,-532,-243,1389634565.963944
2,219,0,17165,-8,-21,-26,16912,3584,-7040,-1072,15831,264,-584,-368,1389634565.963945
3,219,0,13563,3,-23,-15,14324,4064,-6496,1600,12897,-60,-532,-243,1389634565.963947
2,220,0,19154,-14,-16,-18,18791,3600,-7072,-1088,18392,262,-586,-371,1389634565.963949
3,220,0,15563,0,-17,-17,16200,4112,-6496,1584,15476,-62,-530,-243,1389634565.963951
2,221,0,20149,-10,-14,-24,20670,3632,-7120,-1088,20954,263,-587,-369,1389634565.963952
3,221,0,17562,1,-7,-16,17607,4096,-6336,1664,18054,-61,-533,-242,1389634565.963954
2,222,0,22139,-8,-11,-27,22548,3568,-7088,-1024,20954,263,-587,-369,1389634565.963956
3,222,0,19561,6,-13,-10,19953,4064,-6448,1520,18054,-61,-533,-242,1389634565.963957
2,223,0,24128,-5,-15,-35,24428,3664,-7024,-1072,23515,262,-588,-370,1389634565.963959
3,223,0,21561,4,-9,-12,21830,4064,-6432,1552,20632,-59,-536,-243,1389634565.963961
2,224,0,26118,-7,-11,-30,26307,3600,-7008,-1104,26077,262,-587,-371,1389634565.963962
3,224,0,23560,3,-11,-14,23706,4096,-6432,1552,23210,-61,-530,-242,1389634565.963964
2,225,0,28107,-4,-12,-30,28186,3584,-7088,-1024,26077,262,-587,-371,1389634565.963966
3,225,0,25560,6,-4,-14,25583,4064,-6480,1584,23210,-61,-530,-242,1389634565.963968
2,226,0,30097,-7,-9,-41,30067,3552,-7104,-1008,28639,262,-590,-372,1389634565.963969
3,226,0,26559,12,-1,-14,27460,4080,-6464,1536,25788,-63,-533,-241,1389634565.963971
2,227,0,32086,-6,-18,-37,31946,3632,-7088,-1056,31199,264,-585,-369,1389634565.963973
3,227,0,28559,9,-13,-23,29336,4096,-6432,1504,28367,-59,-532,-242,1389634565.963974
2,228,0,34076,-6,2,-37,33825,3568,-7072,-1056,33762,266,-585,-370,1389634565.963976
3,228,0,30558,7,0,-16,31213,4096,-6464,1520,30945,-61,-531,-242,1389634565.963978
2,229,0,35071,-8,0,-38,35704,3664,-7104,-1088,33762,266,-585,-370,1389634565.963980
3,229,0,32557,5,-4,-17,33090,4112,-6512,1504,30945,-61,-531,-242,1389634565.963981
2,230,0,37060,-8,7,-42,37583,3664,-7120,-1040,36324,265,-587,-371,1389634565.963983
3,230,0,34557,8,5,-20,34967,4048,-6448,1536,33523,-60,-532,-243,1389634565.963985
2,231,0,39050,-10,3,-40,39462,3680,-7072,-1056,38886,262,-586,-372,1389634565.963986
3,231,0,36556,8,-9,-16,36844,4096,-6496,1552,36103,-63,-532,-243,1389634565.963988
2,232,0,41039,-5,2,-44,41340,3680,-7024,-1072,41449,264,-589,-370,1389634565.963990
3,232,0,38556,26,-4,-19,38252,4048,-6448,1584,38680,-61,-533,-243,1389634565.963991
2,233,0,43029,-4,2,-47,43220,3648,-7072,-1024,41449,264,-589,-370,1389634565.963993
3,233,0,40555,12,-9,-26,40599,4064,-6416,1504,38680,-61,-533,-243,1389634565.963995
2,234,0,45018,-8,2,-54,45099,3616,-7024,-1040,44010,262,-589,-371,1389634565.963996
3,234,0,41555,15,-10,-26,42476,4080,-6448,1568,41258,-62,-534,-241,1389634565.963998
2,235,0,47008,-2,-2,-55,46977,3472,-7088,-1120,46573,264,-588,-368,1389634565.964000
3,235,0,43554,15,-12,-27,44353,4064,-6448,1584,43836,-60,-532,-243,1389634565.964002
2,236,0,48997,1,-4,-54,48856,3440,-7136,-1152,49136,263,-590,-368,1389634565.964003
3,236,0,45553,4,-10,-16,46231,4064,-6464,1552,43836,-60,-532,-243,1389634565.964005
2,237,0,50987,-2,2,-51,50734,3568,-7120,-1104,49136,263,-590,-368,1389634565.964007
3,237,0,47553,8,-1,-16,48108,4064,-6480,1488,46415,-61,-533,-240,1389634565.964008
2,238,0,51982,0,-6,-46,52612,3552,-7072,-1104,51700,260,-588,-369,1389634565.964010
3,238,0,49552,8,-7,-18,49985,4096,-6496,1440,48994,-60,-531,-243,1389634565.964012
2,239,0,53971,3,-13,-50,54491,3600,-7072,-1104,54262,260,-588,-368,1389634565.964013
3,239,0,51552,13,-13,-14,51862,4128,-6496,1456,51573,-60,-529,-245,1389634565.964015
2,240,0,55961,2,-13,-40,56370,3504,-7104,-1136,54262,260,-588,-368,1389634565.964057
3,240,0,53551,1,-5,-14,53739,4064,-6416,1552,51573,-60,-529,-245,1389634565.964059
2,241,0,57950,-1,-10,-43,58249,3504,-7024,-1056,56824,262,-587,-369,1389634565.964061
3,241,0,55550,-8,-12,-15,55147,4032,-6480,1536,54151,-60,-531,-243,1389634565.964062
2,242,0,59940,3,-13,-37,60128,3600,-7088,-1024,59387,261,-586,-370,1389634565.964064
3,242,0,56550,6,-13,-20,57024,4112,-6448,1488,56730,-61,-531,-243,1389634565.964066
2,243,0,61929,-4,-7,-38,62006,3520,-7056,-1120,61949,262,-588,-369,1389634565.964068
3,243,0,58549,6,4,-21,58900,4096,-6432,1568,59308,-62,-531,-241,1389634565.964069
2,244,0,63919,-1,1,-38,63886,3616,-7040,-1040,61949,262,-588,-369,1389634565.964071
3,244,0,60549,-2,-12,-24,60777,4064,-6432,1616,59308,-62,-531,-241,1389634565.964073
2,245,0,372,-6,-8,-45,229,3584,-7008,-1088,64509,259,-590,-368,1389634565.964074
3,245,0,62548,6,-15,-13,62654,4112,-6384,1520,61885,-64,-534,-244,1389634565.964076
2,246,0,2362,-10,-11,-38,2107,3440,-7056,-1024,1535,259,-588,-372,1389634565.964078
3,246,0,64547,-1,-13,-29,64531,4048,-6432,1520,64464,-61,-531,-245,1389634565.964080
2,247,0,3357,-4,-7,-43,3985,3488,-7136,-1072,4097,257,-589,-369,1389634565.964081
3,247,0,1011,0,0,-19,873,4096,-6480,1616,64464,-61,-531,-245,1389634565.964083
2,248,0,5346,7,-3,-39,5864,3472,-7120,-1056,4097,257,-589,-369,1389634565.964085
3,248,0,3010,3,-7,-12,2750,4080,-6400,1536,1506,-63,-531,-243,1389634565.964086
2,249,0,7336,8,-9,-39,7743,3472,-7072,-1168,6659,258,-592,-372,1389634565.964088
3,249,0,5010,2,-4,-24,4627,4032,-6400,1536,4085,-60,-531,-244,1389634565.964090
2,250,0,9325,15,-10,-27,9622,3488,-7136,-1168,9221,260,-588,-371,1389634565.964091
3,250,0,6009,6,-5,-15,6504,4112,-6480,1568,6663,-61,-531,-247,1389634565.964093
2,251,0,11315,0,-7,-22,11501,3520,-7120,-1088,9221,260,-588,-371,1389634565.964095
3,251,0,8009,6,-7,-21,8382,4048,-6480,1520,6663,-61,-531,-247,1389634565.964097
2,252,0,13304,4,-18,-21,13379,3552,-7120,-1056,11782,260,-588,-370,1389634565.964098
3,252,0,10008,5,-3,-23,10260,4080,-6496,1504,9243,-60,-530,-242,1389634565.964100
2,253,0,15294,11,-12,-14,15258,3488,-7024,-1104,14346,260,-589,-373,1389634565.964102
3,253,0,12007,-4,-1,-13,12137,4080,-6512,1488,11821,-61,-532,-243,1389634565.964103
2,254,0,17284,10,-13,-16,17136,3536,-7088,-1136,16909,260,-589,-370,1389634565.964105
3,254,0,14007,-4,-13,-21,14015,4064,-6480,1488,14400,-62,-532,-242,1389634565.964107
2,255,0,18278,8,-12,-16,19015,3552,-7072,-1104,16909,260,-589,-370,1389634565.964108
3,255,0,16006,7,-4,-21,15892,4080,-6432,1472,14400,-62,-532,-242,1389634565.964110
2,0,0,20268,7,-9,-16,20893,3616,-7088,-1040,19471,260,-591,-369,1389634565.964112
3,0,0,18006,-2,-2,-15,17769,4064,-6496,1488,16977,-59,-537,-244,1389634565.964113
2,1,0,22257,1,-11,-13,22772,3584,-7040,-1152,22033,260,-589,-371,1389634565.964115
3,1,0,20005,-1,-11,-24,19646,4048,-6512,1504,19555,-63,-527,-245,1389634565.964117
2,2,0,24247,4,-13,-9,24650,3584,-7040,-1168,24596,261,-586,-370,1389634565.964118
3,2,0,21005,2,-9,-23,21524,4096,-6432,1584,19555,-63,-527,-245,1389634565.964120
2,3,0,26236,0,-13,-17,26529,3568,-7072,-1088,24596,261,-586,-370,1389634565.964122
3,3,0,23004,11,-9,-13,23400,4096,-6416,1648,22135,-62,-535,-244,1389634565.964123
2,4,0,28226,2,-15,-23,28407,3552,-7120,-1104,27157,260,-590,-364,1389634565.964125
3,4,0,25003,2,-8,-26,25277,4080,-6416,1520,24713,-62,-530,-242,1389634565.964127
2,5,0,30216,-4,-23,-8,30287,3488,-7104,-1040,29719,262,-591,-369,1389634565.964128
3,5,0,27003,2,-4,-21,27155,4096,-6512,1536,27292,-61,-532,-243,1389634565.964130
2,6,0,32205,1,-19,-18,32166,3584,-7104,-1072,32281,260,-587,-369,1389634565.964132
3,6,0,29002,12,-9,-10,29032,4064,-6464,1488,27292,-61,-532,-243,1389634565.964133
2,7,0,34195,1,-15,-22,34045,3600,-7088,-1008,32281,260,-587,-369,1389634565.964135
3,7,0,31002,5,-6,-21,30908,4064,-6496,1472,29870,-61,-530,-244,1389634565.964137
2,8,0,35189,2,-12,-15,35924,3568,-7104,-1088,34843,262,-585,-367,1389634565.964138
3,8,0,33001,-2,-2,-26,32786,4064,-6480,1472,32449,-61,-534,-243,1389634565.964151
2,9,0,37179,-3,-16,-20,37802,3552,-7056,-1168,37404,257,-589,-372,1389634565.964153
3,9,0,35000,9,-10,-12,34663,4064,-6464,1504,35027,-60,-531,-243,1389634565.964154
2,10,0,39168,-3,-15,-19,39681,3552,-7120,-1104,37404,257,-589,-372,1389634565.964179
3,10,0,36000,1,-7,-15,36540,4048,-6464,1520,35027,-60,-531,-243,1389634565.964181
2,11,0,41158,-5,-20,-25,41560,3536,-7056,-1120,39965,262,-586,-369,1389634565.964183
3,11,0,37999,-1,-7,-5,38417,4096,-6448,1504,37605,-62,-538,-246,1389634565.964185
2,12,0,43148,-6,-18,-16,43437,3552,-7056,-1152,42527,261,-589,-372,1389634565.964186
3,12,0,39999,2,-7,-15,40295,4064,-6496,1536,40183,-60,-531,-245,1389634565.964188
2,13,0,45137,-6,-16,-15,45316,3552,-7056,-1088,45089,261,-586,-368,1389634565.964190
3,13,0,41998,5,-6,-15,42171,4080,-6480,1536,40183,-60,-531,-245,1389634565.964191
2,14,0,47127,-4,-14,-15,47194,3648,-7024,-1008,45089,261,-586,-368,1389634565.964193
3,14,0,43998,2,-9,-9,44049,4064,-6496,1520,42761,-63,-533,-244,1389634565.964195
2,15,0,49116,3,-13,-25,49073,3600,-7056,-1056,47651,261,-589,-368,1389634565.964196
3,15,0,45997,1,1,-18,45925,4064,-6384,1552,45340,-61,-531,-243,1389634565.964198
2,16,0,51106,-3,-15,-20,50951,3616,-7120,-1072,50213,260,-587,-370,1389634565.964200
3,16,0,47996,-2,-2,-20,47802,4064,-6400,1552,47919,-61,-533,-244,1389634565.964202
2,17,0,52100,-2,-11,-16,52828,3600,-7120,-1120,52774,260,-589,-370,1389634565.964215
3,17,0,49996,9,-4,-22,49680,4080,-6368,1552,47919,-61,-533,-244,1389634565.964217
2,18,0,54090,2,-13,-28,54707,3584,-7072,-1024,52774,260,-589,-370,1389634565.964218
3,18,0,50995,11,-9,-14,51557,4096,-6464,1504,50498,-62,-533,-245,1389634565.964220
2,19,0,56080,2,-11,-22,56586,3552,-7056,-1072,55335,260,-588,-370,1389634565.964222
3,19,0,52995,9,-5,-15,53434,4112,-6432,1520,53077,-60,-533,-245,1389634565.964224
2,20,0,58069,-1,-15,-25,58465,3552,-7088,-1008,57897,262,-587,-372,1389634565.964225
3,20,0,54994,1,1,-18,55312,4080,-6496,1568,55657,-59,-529,-245,1389634565.964227
2,21,0,60059,4,-15,-22,60343,3536,-7104,-1056,60459,261,-589,-370,1389634565.964229
3,21,0,56993,8,-10,-11,57189,4112,-6512,1504,55657,-59,-529,-245,1389634565.964231
2,22,0,62048,4,-14,-16,62222,3552,-7072,-1040,60459,261,-589,-370,1389634565.964232
3,22,0,58993,7,3,-20,59066,4112,-6496,1472,58236,-61,-534,-241,1389634565.964234
2,23,0,64038,7,-2,-29,64101,3616,-7040,-1104,63020,263,-586,-371,1389634565.964246
3,23,0,60992,8,-11,-18,60944,4080,-6480,1536,60814,-60,-533,-243,1389634565.964247
2,24,0,491,9,-13,-28,444,3552,-7088,-1072,45,262,-587,-373,1389634565.964249
3,24,0,62992,7,-8,-25,62822,4064,-6480,1472,60814,-60,-533,-243,1389634565.964251
2,63,0,48660,21,-12,-42,48320,3808,-6800,-1072,47016,62,-230,-164,1389634565.964456
3,63,0,44861,1,10,-16,45300,4144,-6448,1216,43764,277,-358,-124,1389634565.964463
2,64,0,49655,23,-12,-51,50198,3632,-6832,-1088,49578,62,-225,-164,1389634565.982523
3,64,0,46860,4,0,-20,47176,4160,-6432,1216,46342,276,-357,-129,1389634565.982532
2,65,0,51644,15,-21,-68,52077,3728,-6912,-1216,52138,63,-230,-166,1389634565.982808
3,65,0,48859,17,-9,-23,49053,4176,-6352,1136,48922,276,-357,-129,1389634565.982814
2,66,0,53634,5,-15,-77,53956,3632,-6928,-1280,52138,63,-230,-166,1389634566.344
3,66,0,50859,18,1,-28,50929,4208,-6416,1184,48922,276,-357,-129,1389634566.353
2,67,0,55623,-8,-31,-89,55836,3600,-7040,-1248,54700,65,-226,-162,1389634566.11476
3,67,0,52858,9,-8,-38,52805,4176,-6480,1184,51502,275,-355,-126,1389634566.11484
2,68,0,57613,-22,-34,-80,57716,3712,-7088,-1200,57262,62,-229,-163,1389634566.11770
3,68,0,54858,17,-6,-38,54681,4192,-6384,1184,54082,275,-356,-128,1389634566.11775
2,69,0,59603,-25,-29,-82,59596,3600,-7104,-1104,59823,62,-231,-162,1389634566.29960
3,69,0,56857,12,-7,-36,56558,4128,-6416,1280,56660,280,-355,-126,1389634566.29975
2,70,0,61592,-18,-30,-69,61475,3600,-7088,-1056,59823,62,-231,-162,1389634566.42207
3,70,0,58856,9,-15,-39,58435,4176,-6400,1232,56660,280,-355,-126,1389634566.42223
2,71,0,63582,-18,-25,-68,63354,3632,-7136,-1008,62385,60,-230,-161,1389634566.42553
3,71,0,59856,18,-15,-36,60311,4208,-6448,1232,59240,277,-356,-131,1389634566.42631
2,72,0,64576,-20,-22,-62,65233,3680,-7104,-960,64945,60,-229,-165,1389634566.60490
3,72,0,61855,23,0,-37,62188,4176,-6432,1120,61818,278,-358,-131,1389634566.60499
2,73,0,1030,0,-18,-59,1576,3680,-7024,-1056,64945,60,-229,-165,1389634566.72670
3,73,0,63855,23,-11,-51,64065,4144,-6432,1184,64398,278,-357,-129,1389634566.72679
2,74,0,3019,13,-7,-55,3455,3696,-6992,-1088,1971,59,-228,-164,1389634566.72949
3,74,0,318,22,-12,-58,405,4144,-6400,1264,64398,278,-357,-129,1389634566.72955
2,75,0,5009,13,-7,-62,5333,3728,-6944,-1152,4534,60,-230,-166,1389634566.91271
3,75,0,2318,33,2,-55,2281,4176,-6384,1184,1441,274,-357,-130,1389634566.91287
2,76,0,6999,4,-16,-63,7212,3728,-6976,-1184,7096,63,-229,-163,1389634566.91604
3,76,0,4317,42,10,-58,4156,4208,-6400,1088,4021,274,-355,-133,1389634566.91913
2,77,0,8988,-10,-9,-74,9091,3744,-6928,-1168,7096,63,-229,-163,1389634566.110114
3,77,0,6316,42,3,-59,6032,4192,-6384,1056,4021,274,-355,-133,1389634566.110123
2,78,0,10978,-26,-10,-99,10971,3696,-6928,-1200,9657,61,-229,-164,1389634566.122336
3,78,0,8316,38,-7,-71,7908,4208,-6432,1120,6600,275,-356,-129,1389634566.122346
2,79,0,12967,-55,-19,-118,12850,3680,-6960,-1232,12220,58,-233,-166,1389634566.122583
3,79,0,9315,38,-6,-76,9784,4144,-6448,1152,9180,275,-356,-133,1389634566.122590
2,80,0,14957,-91,-14,-108,14730,3696,-6896,-1200,14781,60,-230,-165,1389634566.140715
3,80,0,11315,34,-13,-77,11661,4096,-6592,1120,11757,275,-357,-129,1389634566.140724
2,81,0,15952,-102,-11,-129,16610,3728,-6896,-1152,14781,60,-230,-165,1389634566.146905
3,81,0,13314,29,-17,-80,13537,4112,-6560,1168,11757,275,-357,-129,1389634566.147155
2,82,0,17941,-113,-19,-141,18488,3584,-6880,-1232,17341,60,-231,-164,1389634566.159517
3,82,0,15314,34,-16,-75,15414,4112,-6560,1184,14335,277,-359,-129,1389634566.159526
2,83,0,19931,-137,-25,-159,20367,3344,-7104,-1376,19903,57,-232,-164,1389634566.171216
3,83,0,17313,28,-13,-78,17291,4096,-6496,1120,16914,275,-359,-129,1389634566.171226
2,84,0,21920,-144,-46,-157,22247,3408,-7152,-1120,22464,57,-230,-166,1389634566.171467
3,84,0,19312,28,-18,-62,19168,4064,-6640,1152,19493,277,-359,-128,1389634566.171644
2,85,0,23910,-123,-49,-133,24127,3328,-7376,-976,22464,57,-230,-166,1389634566.189708
3,85,0,21312,21,-14,-57,21045,4064,-6656,1184,19493,277,-359,-128,1389634566.189717
2,86,0,25899,-101,-43,-103,26005,3376,-7312,-736,25025,60,-232,-164,1389634566.202028
3,86,0,23311,20,-14,-42,22921,4016,-6608,1168,22072,272,-357,-128,1389634566.202043
2,87,0,27889,-60,-39,-66,27884,3504,-7344,-720,27587,60,-233,-163,1389634566.202329
3,87,0,24311,17,-8,-40,24798,4128,-6608,1168,24651,274,-354,-130,1389634566.202340
2,88,0,29878,-16,-10,-42,29763,3488,-7264,-784,27587,60,-233,-163,1389634566.220582
3,88,0,26310,8,-9,-35,26675,4096,-6544,1248,24651,274,-354,-130,1389634566.220592
2,89,0,31868,20,2,-20,31642,3520,-7104,-864,30148,57,-231,-164,1389634566.226896
3,89,0,28310,9,-10,-34,28551,4048,-6640,1216,27230,269,-357,-130,1389634566.227214
2,90,0,32863,27,3,-23,33521,3520,-7072,-848,32709,57,-234,-161,1389634566.239532
3,90,0,30309,11,-2,-19,30428,4112,-6528,1200,29809,273,-357,-129,1389634566.239547
2,91,0,34852,45,6,-16,35399,3552,-7088,-912,35271,57,-232,-165,1389634566.251171
3,91,0,32308,9,10,-9,32305,4128,-6576,1152,32388,272,-355,-129,1389634566.251180
2,92,0,36842,58,11,-18,37278,3568,-7072,-1120,35271,57,-232,-165,1389634566.251460
3,92,0,34308,11,-5,-9,34181,4112,-6480,1056,32388,272,-355,-129,1389634566.251644
2,93,0,38831,53,0,-26,39157,3488,-7072,-1216,37834,60,-232,-166,1389634566.269494
3,93,0,36307,8,-5,-8,36057,4144,-6560,1104,34966,272,-357,-126,1389634566.269504
2,94,0,40821,30,-4,-47,41035,3536,-7040,-1232,40395,58,-233,-166,1389634566.281673
3,94,0,38307,0,-5,-12,37934,4112,-6448,1072,37544,271,-359,-129,1389634566.281683
2,95,0,42810,17,-10,-29,42914,3456,-7072,-1216,42955,57,-228,-163,1389634566.281953
3,95,0,39306,-2,-6,-15,39811,4096,-6368,1104,40123,275,-357,-132,1389634566.281959
2,96,0,44800,-3,-13,-19,44793,3472,-7104,-1200,42955,57,-228,-163,1389634566.299197
3,96,0,41306,1,-12,-8,41688,4112,-6496,1088,40123,275,-357,-132,1389634566.299202
2,97,0,46789,-1,-28,-7,46672,3520,-7136,-1024,45517,57,-231,-164,1389634566.310896
3,97,0,43305,9,-4,-16,43565,4160,-6432,1152,42703,273,-358,-131,1389634566.310900
2,98,0,47784,1,-30,-9,48551,3536,-7120,-912,48078,56,-230,-164,1389634566.311067
3,98,0,45304,2,-21,-17,45441,4144,-6432,1184,45283,273,-359,-129,1389634566.321546
2,99,0,49774,6,-21,-2,50431,3536,-7200,-864,48078,56,-230,-164,1389634566.321725
3,99,0,47304,8,-2,-25,47317,4176,-6432,1120,45283,273,-359,-129,1389634566.321729
2,100,0,51763,12,-17,2,52311,3520,-7136,-896,50639,59,-229,-163,1389634566.339042
3,100,0,49303,14,-16,-33,49195,4096,-6448,1168,47862,273,-356,-130,1389634566.339046
2,101,0,53753,49,-15,38,54192,3552,-7184,-1008,53202,60,-233,-166,1389634566.350675
3,101,0,51303,27,0,-52,51072,4080,-6512,1216,50443,274,-356,-131,1389634566.350679
2,102,0,55742,69,-13,54,56070,3648,-7056,-1072,55765,57,-230,-163,1389634566.356093
3,102,0,53302,29,5,-43,52948,4080,-6464,1104,53021,274,-356,-135,1389634566.356212
2,103,0,57732,62,-7,61,57949,3808,-7136,-1216,55765,57,-230,-163,1389634566.367793
3,103,0,54302,27,6,-42,54826,4112,-6512,1088,53021,274,-356,-135,1389634566.367798
2,104,0,59722,51,-4,37,59829,3552,-7072,-1136,58326,58,-232,-163,1389634566.379504
3,104,0,56301,27,5,-42,56702,4144,-6560,992,55600,272,-357,-129,1389634566.379509
2,105,0,61711,34,-8,31,61707,3616,-7040,-1152,60887,57,-228,-165,1389634566.391174
3,105,0,58300,11,-26,-39,58579,4096,-6496,1024,58179,271,-359,-131,1389634566.391178
2,106,0,63701,15,-25,-4,63586,3456,-7040,-1056,63449,55,-231,-165,1389634566.391407
3,106,0,60300,-1,-16,-43,60456,4064,-6480,1104,60759,271,-357,-129,1389634566.391546
2,107,0,64695,19,-30,-11,65464,3712,-6960,-1232,63449,55,-231,-165,1389634566.408206
3,107,0,62299,1,-20,-38,62333,4112,-6544,1056,60759,271,-357,-129,1389634566.408210
2,108,0,1149,-4,-10,-20,1807,3584,-7104,-832,474,58,-229,-165,1389634566.419827
3,108,0,64299,-5,-13,-38,64210,4144,-6480,1056,63339,274,-360,-129,1389634566.419832
2,109,0,3138,5,-8,-26,3686,3696,-7056,-1040,3036,57,-231,-166,1389634566.432015
3,109,0,762,0,-21,-37,551,4144,-6496,1168,383,275,-356,-131,1389634566.432025
2,110,0,5128,16,6,-43,5566,3632,-6992,-1040,5598,56,-231,-164,1389634566.432273
3,110,0,2761,2,-23,-44,2428,4080,-6544,1152,383,275,-356,-131,1389634566.432280
2,111,0,7118,16,4,-56,7445,3504,-7072,-1152,5598,56,-231,-164,1389634566.450308
3,111,0,3761,4,-30,-49,4304,4112,-6448,1168,2962,273,-359,-128,1389634566.450323
2,112,0,9107,13,12,-63,9325,3648,-7024,-1104,8160,56,-228,-165,1389634566.462667
3,112,0,5760,8,-21,-51,6181,4096,-6496,1136,5542,274,-359,-132,1389634566.462682
2,113,0,11097,-2,6,-68,11204,3600,-7104,-1152,10723,57,-229,-169,1389634566.463012
3,113,0,7760,5,-31,-53,8058,4112,-6560,1168,8121,272,-357,-126,1389634566.463022
2,114,0,13086,-6,4,-80,13083,3600,-7056,-1104,10723,57,-229,-169,1389634566.481227
3,114,0,9759,1,-18,-47,9934,4080,-6496,1104,8121,272,-357,-126,1389634566.481242
2,115,0,15076,-3,11,-90,14961,3504,-7056,-1168,13284,59,-232,-165,1389634566.481541
3,115,0,11759,9,-17,-61,11810,4064,-6528,1168,10699,270,-356,-131,1389634566.481771
2,116,0,16071,-7,10,-92,16840,3504,-7104,-1072,15846,59,-234,-167,1389634566.499832
3,116,0,13758,4,-25,-50,13687,4080,-6528,1088,13278,272,-359,-130,1389634566.499841
2,117,0,18060,-6,14,-103,18719,3520,-7072,-1152,18407,57,-232,-167,1389634566.511317
3,117,0,15757,-1,-23,-59,15564,4096,-6512,1136,15858,270,-357,-132,1389634566.511332
2,118,0,20050,-13,0,-91,20599,3440,-7024,-1088,18407,57,-232,-167,1389634566.511639
3,118,0,17757,-3,-17,-44,17440,4048,-6560,1152,15858,270,-357,-132,1389634566.511953
2,119,0,22039,-16,2,-98,22479,3376,-7072,-1040,20970,57,-230,-165,1389634566.530108
3,119,0,18756,0,-21,-44,19317,4064,-6592,1120,18436,271,-363,-131,1389634566.530117
2,120,0,24029,-19,-1,-105,24358,3408,-7072,-1072,23531,56,-233,-167,1389634566.542339
3,120,0,20756,-11,-14,-35,21193,4064,-6592,1072,21013,273,-359,-130,1389634566.542348
2,121,0,26018,-15,2,-92,26238,3440,-7040,-1104,26092,54,-232,-165,1389634566.542656
3,121,0,22755,-6,-16,-38,23069,4048,-6544,1056,21013,273,-359,-130,1389634566.542662
2,122,0,28008,-8,-9,-78,28116,3408,-7056,-1072,26092,54,-232,-165,1389634566.560889
3,122,0,24755,-6,-30,-34,24945,4064,-6544,1104,23592,273,-361,-129,1389634566.560899
2,123,0,29997,1,-2,-71,29995,3360,-7168,-1088,28653,56,-232,-168,1389634566.561148
3,123,0,26754,-8,-23,-28,26822,4048,-6528,1248,26171,271,-359,-130,1389634566.566729
2,124,0,30992,12,-7,-65,31875,3456,-7088,-1088,31213,54,-233,-168,1389634566.578580
3,124,0,28753,-13,-27,-25,28699,4096,-6560,1184,28749,271,-357,-130,1389634566.578595
2,125,0,32982,20,-17,-47,33754,3584,-7136,-1072,33775,56,-231,-166,1389634566.590806
3,125,0,30753,-11,-23,-31,30576,4064,-6528,1120,28749,271,-357,-130,1389634566.590815
2,126,0,34971,13,-7,-36,35634,3552,-7024,-1104,33775,56,-231,-166,1389634566.591064
3,126,0,32752,-21,-22,-29,32453,4048,-6560,1136,31327,271,-361,-127,1389634566.603157
2,127,0,36961,18,-3,-44,37513,3520,-7120,-1056,36336,56,-234,-170,1389634566.603505
3,127,0,33752,-16,-14,-29,34329,4016,-6576,1168,33905,273,-360,-125,1389634566.603517
2,128,0,38950,12,-12,-41,39392,3616,-7056,-1120,38899,53,-233,-169,1389634566.621202
3,128,0,35751,0,-22,-20,36206,4048,-6560,1136,36484,273,-358,-128,1389634566.621212
2,129,0,40940,4,-3,-29,41271,3520,-7040,-1152,38899,53,-233,-169,1389634566.621428
3,129,0,37751,-14,-15,-17,38084,4096,-6528,1120,36484,273,-358,-128,1389634566.621607
2,130,0,42929,13,-10,-37,43151,3488,-7072,-1200,41460,55,-233,-166,1389634566.639593
3,130,0,39750,-16,-23,-17,39960,4064,-6528,1104,39063,271,-363,-127,1389634566.639603
2,131,0,44919,2,-14,-40,45031,3520,-7152,-1120,44022,58,-233,-168,1389634566.651360
3,131,0,41749,-16,-12,-18,41837,4048,-6448,1248,41642,271,-357,-126,1389634566.651369
2,132,0,46908,-9,-12,-29,46910,3408,-7072,-1072,46584,57,-233,-168,1389634566.651639
3,132,0,43749,-8,-15,-16,43714,4048,-6432,1232,41642,271,-357,-126,1389634566.651646
2,133,0,47903,-12,-15,-32,48789,3440,-7152,-1056,46584,57,-233,-168,1389634566.669529
3,133,0,45748,0,-9,-29,45591,4048,-6464,1168,44221,272,-359,-129,1389634566.669538
2,134,0,49893,-1,-10,-29,50668,3488,-7152,-1072,49146,57,-234,-169,1389634566.680949
3,134,0,47748,-4,-10,-29,47468,4064,-6496,1200,46800,272,-357,-130,1389634566.680959
2,135,0,51882,-4,-9,-31,52547,3408,-7136,-1120,51709,55,-236,-171,1389634566.681223
3,135,0,48747,-1,-5,-22,49345,4096,-6496,1152,49378,271,-361,-128,1389634566.687357
2,136,0,53872,-3,-12,-40,54426,3504,-7168,-1104,54271,54,-234,-168,1389634566.699501
3,136,0,50747,2,-12,-20,51222,4112,-6544,1120,49378,271,-361,-128,1389634566.699516
2,137,0,55861,-6,-13,-36,56305,3440,-7136,-1088,54271,54,-234,-168,1389634566.711187
3,137,0,52746,7,-20,-29,53100,4112,-6496,1120,51956,271,-359,-128,1389634566.711197
2,138,0,57851,3,-8,-31,58184,3392,-7104,-1088,56833,57,-232,-165,1389634566.711479
3,138,0,54745,-2,-10,-28,54978,4064,-6496,1088,54533,271,-358,-129,1389634566.711730
2,139,0,59840,-7,-16,-30,60064,3408,-7072,-1104,59395,57,-233,-169,1389634566.728618
3,139,0,56745,-4,-10,-26,56855,4080,-6544,1104,57111,271,-359,-129,1389634566.728627
2,140,0,61830,-2,-25,-32,61944,3424,-7136,-1136,59395,57,-233,-169,1389634566.740729
3,140,0,58744,-4,-10,-18,58732,4048,-6544,1168,57111,271,-359,-129,1389634566.740738
2,141,0,63820,-3,-20,-24,63824,3536,-7152,-1136,61956,54,-234,-164,1389634566.740916
3,141,0,60744,-9,-13,-18,60608,4064,-6528,1136,59690,276,-364,-130,1389634566.752960
2,142,0,64814,2,-26,-25,166,3536,-7056,-1072,64518,54,-232,-164,1389634566.753239
3,142,0,62743,-3,-8,-24,62485,4032,-6624,1040,62268,276,-359,-129,1389634566.753245
2,143,0,1268,-3,-23,-21,1576,3552,-7152,-1072,1544,57,-232,-167,1389634566.770819
3,143,0,63743,-6,-13,-16,64362,4064,-6544,1104,62268,276,-359,-129,1389634566.770827
2,144,0,3257,-6,-18,-27,3455,3504,-7152,-1040,1544,57,-232,-167,1389634566.771088
3,144,0,206,-9,-4,-7,704,4032,-6528,1120,64848,272,-360,-127,1389634566.777475
2,145,0,5247,-8,-20,-16,5334,3424,-7072,-1120,4107,56,-232,-169,1389634566.789758
3,145,0,2205,-18,-8,-10,2582,4096,-6544,1120,1890,272,-360,-126,1389634566.789767
2,146,0,7237,-9,-26,-20,7212,3424,-7120,-1136,6668,55,-233,-168,1389634566.801892
3,146,0,4205,0,-11,-8,4459,4080,-6528,1152,4469,271,-359,-130,1389634566.801907
2,147,0,9226,-5,-19,-21,9091,3440,-7072,-1104,9229,55,-231,-169,1389634566.802223
3,147,0,6204,-12,-17,-13,6335,4032,-6496,1168,4469,271,-359,-130,1389634566.802233
2,148,0,11216,-3,-14,-23,10971,3408,-7088,-1152,9229,55,-231,-169,1389634566.820074
3,148,0,8204,-10,-2,-11,8211,4080,-6624,1120,7049,271,-358,-128,1389634566.820090
2,149,0,13205,9,-27,-29,12851,3456,-7152,-1120,11792,58,-237,-165,1389634566.831369
3,149,0,10203,-14,0,-9,10088,4096,-6544,1024,9628,272,-358,-128,1389634566.831384
2,150,0,14200,1,-26,-20,14731,3456,-7152,-1072,14354,60,-232,-165,1389634566.831700
3,150,0,12202,-23,-10,-1,11966,4048,-6528,1056,12207,272,-358,-127,1389634566.831711
2,151,0,16189,0,-29,-3,16611,3408,-7088,-1120,16915,56,-231,-166,1389634566.849294
3,151,0,13202,-24,-8,1,13843,4080,-6544,1184,12207,272,-358,-127,1389634566.849309
2,152,0,18179,1,-29,-5,18489,3456,-7072,-1120,16915,56,-231,-166,1389634566.861133
3,152,0,15201,-26,-9,6,15719,4096,-6512,1136,14786,272,-362,-128,1389634566.861142
2,153,0,20169,-4,-34,-4,20369,3488,-7136,-1056,19478,57,-237,-164,1389634566.861326
3,153,0,17201,-31,-9,7,17597,4080,-6432,1152,17366,272,-359,-129,1389634566.861535
2,154,0,22158,-6,-28,-1,22248,3504,-7056,-1008,22041,57,-232,-167,1389634566.879372
3,154,0,19200,-27,-10,4,19474,4096,-6448,1152,17366,272,-359,-129,1389634566.879381
2,155,0,24148,-2,-29,0,24127,3504,-7184,-1072,22041,57,-232,-167,1389634566.891525
3,155,0,21200,-28,-9,6,21351,4080,-6480,1248,19944,275,-360,-127,1389634566.891535
2,156,0,26137,-5,-22,1,26006,3488,-7056,-1120,24604,57,-233,-164,1389634566.891739
3,156,0,23199,-30,-5,5,23228,4096,-6496,1264,22522,275,-359,-128,1389634566.891744
2,157,0,28127,-3,-19,3,27884,3472,-7136,-1120,27166,57,-232,-167,1389634566.909430
3,157,0,25198,-25,-4,7,25105,4080,-6480,1136,25101,271,-359,-127,1389634566.909439
2,158,0,30116,3,-20,13,29763,3488,-7104,-1120,29727,59,-232,-166,1389634566.921308
3,158,0,27198,-24,-6,0,26982,4080,-6496,1120,25101,271,-359,-127,1389634566.921323
2,159,0,31111,-5,-24,0,31643,3520,-7072,-1088,29727,59,-232,-166,1389634566.921630
3,159,0,28197,-26,-4,5,28859,4080,-6496,1168,27679,271,-360,-125,1389634566.921860
2,160,0,33101,-5,-15,0,33522,3472,-7136,-976,32288,57,-230,-163,1389634566.939187
3,160,0,30197,-22,-10,4,30736,4064,-6592,1168,30257,272,-358,-127,1389634566.939197
2,161,0,35090,-5,-8,-2,35401,3552,-7072,-1024,34850,60,-233,-164,1389634566.951322
3,161,0,32196,-36,-9,2,32613,4064,-6544,1136,32835,271,-358,-127,1389634566.951337
2,162,0,37080,14,-9,-7,37281,3584,-7072,-1072,37411,60,-234,-166,1389634566.951667
3,162,0,34196,-34,-4,11,34490,4096,-6496,1168,32835,271,-358,-127,1389634566.951677
2,163,0,39069,16,-1,-8,39161,3536,-7088,-1088,37411,60,-234,-166,1389634566.969593
3,163,0,36195,-28,-1,4,36368,4064,-6496,1248,35413,274,-364,-127,1389634566.969608
2,164,0,41059,7,-3,0,41039,3536,-7184,-1136,39972,59,-230,-166,1389634566.981539
3,164,0,38194,-31,4,9,38246,4112,-6496,1264,37993,271,-359,-126,1389634566.981549
2,165,0,43048,20,-1,-9,42919,3488,-7168,-1072,42533,58,-232,-165,1389634566.981828
3,165,0,40194,-24,-6,-3,40123,4128,-6496,1200,37993,271,-359,-126,1389634566.981834
2,166,0,45038,22,2,-8,44799,3552,-7120,-1056,45094,61,-238,-164,1389634566.999774
3,166,0,42193,-20,-4,-2,42001,4080,-6512,1168,40572,275,-360,-125,1389634566.999790
2,167,0,47027,13,0,-9,46679,3552,-7040,-1088,45094,61,-238,-164,1389634567.12398
3,167,0,43193,-25,-5,-1,43878,4112,-6544,1264,43151,276,-361,-125,1389634567.12413
2,168,0,48022,10,7,-15,48559,3536,-7024,-1008,47655,59,-232,-165,1389634567.12742
3,168,0,45192,-23,-8,-6,45754,4112,-6528,1200,45730,272,-361,-125,1389634567.12753
2,169,0,50012,11,8,-9,50438,3616,-7072,-1136,50216,59,-235,-168,1389634567.30923
3,169,0,47192,-20,-13,-2,47631,4112,-6544,1152,45730,272,-361,-125,1389634567.30975
2,170,0,52001,9,14,-5,52319,3552,-7072,-1104,50216,59,-235,-168,1389634567.31215
3,170,0,49191,-18,-11,-8,49508,4144,-6496,1248,48309,272,-359,-125,1389634567.37438
2,171,0,53991,3,16,-11,54199,3568,-7024,-1104,52779,54,-233,-166,1389634567.49766
3,171,0,51190,-20,-9,-4,51385,4064,-6512,1280,50887,274,-361,-126,1389634567.49782
2,172,0,55980,9,14,-23,56079,3584,-7024,-1120,55341,59,-230,-167,1389634567.62020
3,172,0,53190,-18,-5,-8,53261,4016,-6480,1248,53466,274,-358,-126,1389634567.62031
2,173,0,57970,15,6,-31,57958,3536,-7072,-1072,57902,56,-233,-167,1389634567.62307
3,173,0,55189,-19,-3,-13,55138,4112,-6480,1312,53466,274,-358,-126,1389634567.62313
2,174,0,59959,20,5,-35,59837,3504,-7120,-1104,57902,56,-233,-167,1389634567.80124
3,174,0,57189,-16,-9,-11,57014,4080,-6512,1296,56044,275,-362,-125,1389634567.80133
2,175,0,61949,22,7,-31,61718,3552,-7008,-1008,60464,56,-232,-166,1389634567.92536
3,175,0,58188,-10,-5,-7,58891,4080,-6496,1200,58624,271,-361,-126,1389634567.92551
2,176,0,62944,28,4,-37,63597,3488,-7024,-960,63024,60,-233,-167,1389634567.92880
3,176,0,60188,-12,6,-2,60768,4112,-6528,1200,58624,271,-361,-126,1389634567.92890
2,177,0,64933,44,4,-44,65476,3520,-7008,-1056,50,59,-234,-168,1389634567.111164
3,177,0,62187,-10,1,-6,62645,4112,-6480,1248,61202,274,-357,-125,1389634567.111174
2,178,0,1387,53,8,-33,1820,3520,-6976,-1280,50,59,-234,-168,1389634567.111457
3,178,0,64186,-2,-11,-5,64521,4032,-6640,1280,63781,272,-361,-123,1389634567.111705
2,179,0,3376,46,8,-39,3700,3568,-7088,-1168,2613,58,-233,-169,1389634567.129544
3,179,0,650,-7,-5,-5,862,4032,-6576,1360,824,271,-355,-125,1389634567.129552
2,180,0,5366,38,4,-46,5579,3392,-6992,-1264,5175,56,-232,-168,1389634567.140943
3,180,0,2649,-2,7,12,2739,4048,-6496,1280,824,271,-355,-125,1389634567.140966
2,181,0,7356,19,1,-52,7459,3600,-6960,-1056,7736,58,-236,-167,1389634567.141213
3,181,0,4649,0,1,14,4615,4128,-6592,1168,3401,274,-359,-124,1389634567.147443
2,182,0,9345,20,5,-60,9338,3376,-6960,-1136,7736,58,-236,-167,1389634567.159574
3,182,0,6648,-8,17,20,6491,4080,-6608,1232,5979,271,-359,-127,1389634567.159590
2,183,0,11335,11,-1,-71,11217,3488,-6880,-1104,10296,57,-234,-168,1389634567.171991
3,183,0,7648,-6,11,20,8367,4096,-6640,1216,8557,271,-359,-126,1389634567.172007
2,184,0,13324,18,5,-75,13096,3456,-6848,-1056,12858,57,-234,-169,1389634567.172333
3,184,0,9647,-1,23,30,10243,4000,-6736,1216,8557,271,-359,-126,1389634567.172344
2,185,0,14319,18,-2,-79,14976,3488,-7040,-1024,12858,57,-234,-169,1389634567.189916
3,185,0,11646,-8,10,44,12119,3968,-6800,1312,11135,276,-363,-125,1389634567.189926
2,186,0,16308,37,4,-94,16855,3568,-7120,-1120,15418,55,-235,-171,1389634567.202183
3,186,0,13646,-10,19,67,13996,4000,-6816,1200,13714,275,-359,-126,1389634567.202199
2,187,0,18298,43,-2,-77,18735,3440,-7056,-1424,17980,53,-232,-169,1389634567.202521
3,187,0,15645,-15,36,93,15873,4016,-6896,1152,13714,275,-359,-126,1389634567.202532
2,188,0,20288,35,6,-76,20614,3536,-7168,-1152,20541,55,-234,-171,1389634567.219589
3,188,0,17645,-24,51,131,17750,3936,-6912,1008,16293,274,-359,-128,1389634567.219604
2,189,0,22277,-2,14,-63,22493,3504,-7104,-1328,20541,55,-234,-171,1389634567.231818
3,189,0,19644,-63,55,151,19627,4048,-6928,976,18872,275,-359,-128,1389634567.231826
2,190,0,24267,-54,15,-47,24372,3520,-7056,-1408,23102,57,-237,-171,1389634567.232115
3,190,0,21643,-73,68,202,21504,4144,-7008,1056,21450,276,-359,-127,1389634567.232122
2,191,0,26256,-97,12,-52,26251,3616,-7056,-1408,25665,56,-235,-172,1389634567.249719
3,191,0,22643,-61,68,216,23381,4032,-7216,960,21450,276,-359,-127,1389634567.249735
2,192,0,28246,-128,4,-48,28131,3568,-7024,-1296,28226,53,-231,-172,1389634567.261915
3,192,0,24642,-71,103,253,25258,4240,-7344,1280,24028,279,-355,-127,1389634567.261930
2,193,0,30235,-131,2,-84,30011,3360,-7088,-1424,28226,53,-231,-172,1389634567.262261
3,193,0,26642,-109,222,314,27136,3568,-7440,2128,26606,280,-356,-131,1389634567.262272
2,194,0,31230,-138,-5,-86,31891,3360,-7120,-1104,30788,53,-236,-170,1389634567.280559
3,194,0,28641,-80,355,431,29013,2176,-10016,752,29184,279,-353,-133,1389634567.280641
2,195,0,33220,-126,-7,-89,33771,3568,-7392,-832,33349,52,-234,-169,1389634567.286895
3,195,0,30641,-519,598,690,30889,-416,-9456,3824,29184,279,-353,-133,1389634567.287098
2,196,0,35209,-116,-5,-98,35651,3536,-7312,-896,33349,52,-234,-169,1389634567.299181
3,196,0,32640,-285,489,1371,32766,3264,-8960,2464,31763,282,-353,-136,1389634567.299197
2,197,0,37199,-92,9,-78,37531,3440,-7296,-832,35911,52,-233,-172,1389634567.311585
3,197,0,34639,-188,455,1875,34642,3424,-9008,1984,34340,286,-338,-145,1389634567.311601
2,198,0,39188,-58,1,-59,39411,3296,-7344,-976,38474,52,-233,-166,1389634567.311966
3,198,0,36639,-365,579,1978,36518,3888,-8992,2288,34340,286,-338,-145,1389634567.311974
2,199,0,41178,-42,13,-53,41290,3296,-7200,-960,41036,52,-231,-166,1389634567.329146
3,199,0,37638,-414,654,2040,38395,5600,-9888,2160,36918,294,-332,-152,1389634567.329155
2,200,0,43167,-33,8,-41,43169,3376,-7296,-944,41036,52,-231,-166,1389634567.341538
3,200,0,39638,-584,707,2035,40271,5328,-10080,2400,39496,306,-325,-160,1389634567.341548
2,201,0,45157,-23,3,-45,45048,3360,-7184,-1232,43598,50,-234,-170,1389634567.341834
3,201,0,41637,-826,745,1812,42148,3728,-9472,3856,42075,315,-323,-168,1389634567.341840
2,202,0,46152,-26,-6,-38,46928,3456,-7216,-1136,46159,49,-236,-172,1389634567.358158
3,202,0,43637,-798,660,1575,44025,3280,-9392,5792,42075,315,-323,-168,1389634567.358168
2,203,0,48141,-29,-2,-36,48808,3408,-7152,-1184,48719,52,-233,-170,1389634567.370280
3,203,0,45636,-314,639,1230,45901,1568,-9392,6064,44654,320,-319,-177,1389634567.370295
2,204,0,50131,-35,-7,-32,50688,3424,-7152,-1184,48719,52,-233,-170,1389634567.382649
3,204,0,47635,226,593,909,47778,416,-8944,5968,47232,324,-315,-192,1389634567.382665
2,205,0,52120,-43,-10,-33,52567,3328,-7184,-896,51283,51,-236,-164,1389634567.382993
3,205,0,49635,728,489,635,49655,-1376,-8560,4704,49809,327,-314,-209,1389634567.383003
2,206,0,54110,-37,-18,-32,54447,3328,-7184,-784,53845,50,-234,-170,1389634567.401120
3,206,0,51634,956,340,405,51532,-2160,-8640,2432,49809,327,-314,-209,1389634567.401136
2,207,0,56099,-14,-1,-20,56326,3344,-7248,-864,56408,50,-235,-171,1389634567.401486
3,207,0,52634,926,295,305,53408,-1888,-8960,144,52388,332,-312,-227,1389634567.401796
2,208,0,58089,-3,-13,-12,58206,3376,-7168,-1040,56408,50,-235,-171,1389634567.420042
3,208,0,54633,534,248,94,55285,-2016,-9264,-576,54966,343,-313,-241,1389634567.420058
2,209,0,60078,0,-17,-6,60085,3392,-7184,-1040,58970,51,-236,-168,1389634567.432270
3,209,0,56633,-78,219,-209,57162,-2368,-9392,80,54966,343,-313,-241,1389634567.432286
2,210,0,62068,-13,-19,-13,61966,3472,-7072,-1056,61532,53,-236,-171,1389634567.432618
3,210,0,58632,-620,96,-593,59039,-3104,-8512,1680,57545,355,-317,-256,1389634567.432628
2,211,0,63063,-10,-18,-2,63845,3360,-7152,-1136,61532,53,-236,-171,1389634567.450704
3,211,0,60631,-806,-1,-968,60917,-3536,-7872,2656,60123,367,-325,-272,1389634567.450714
2,212,0,65052,-11,-15,-19,189,3232,-7040,-1216,64093,53,-236,-168,1389634567.457020
3,212,0,62631,-704,-109,-1259,62793,-3104,-7792,2864,62701,380,-338,-282,1389634567.457332
2,213,0,1506,-32,-32,-10,2069,3408,-7072,-1200,1119,53,-235,-171,1389634567.469602
3,213,0,64630,-511,-235,-1492,64670,-2368,-8048,2560,62701,380,-338,-282,1389634567.469616
2,214,0,3495,-47,-45,-2,3949,3408,-7056,-1120,3680,52,-233,-171,1389634567.481758
3,214,0,1094,-387,-345,-1704,1011,-1584,-8336,2096,65279,399,-349,-289,1389634567.481767
2,215,0,5485,-48,-35,-5,5829,3408,-7104,-1072,3680,52,-233,-171,1389634567.482037
3,215,0,2093,-360,-393,-1795,2888,-624,-8624,1808,2319,422,-357,-296,1389634567.482043
2,216,0,7474,-65,-48,-7,7708,3248,-7088,-1200,6241,49,-234,-171,1389634567.499652
3,216,0,4093,-388,-501,-1984,4765,352,-8752,1792,4897,445,-372,-291,1389634567.499667
2,217,0,9464,-73,-55,-15,9587,3296,-7008,-1104,8803,52,-234,-171,1389634567.512017
3,217,0,6092,-449,-626,-2170,6643,1216,-8912,1888,4897,445,-372,-291,1389634567.512033
2,218,0,11454,-76,-52,-16,11467,3120,-7136,-1072,11366,54,-235,-169,1389634567.512319
3,218,0,8091,-520,-724,-2312,8519,2000,-8976,2032,7476,471,-389,-280,1389634567.512397
2,219,0,13443,-88,-59,-5,13346,3360,-7136,-816,11366,54,-235,-169,1389634567.530775
3,219,0,10091,-569,-822,-2372,10396,2816,-8896,2192,10054,494,-411,-253,1389634567.530790
2,220,0,14438,-83,-59,-3,15226,3552,-7168,-960,13927,53,-234,-170,1389634567.537017
3,220,0,12090,-597,-905,-2370,12273,3664,-9216,2288,10054,494,-411,-253,1389634567.537270
2,221,0,16427,-87,-51,-1,17106,3456,-7136,-880,16489,53,-235,-167,1389634567.548950
3,221,0,14090,-616,-991,-2349,14150,4768,-9360,2128,12633,515,-433,-221,1389634567.548959
2,222,0,18417,-73,-45,-3,18986,3424,-7200,-880,19050,53,-234,-169,1389634567.561207
3,222,0,16089,-654,-1080,-2329,16027,5648,-9200,2016,15211,530,-458,-181,1389634567.561222
2,223,0,20407,-70,-50,7,20866,3424,-7136,-976,19050,53,-234,-169,1389634567.561530
3,223,0,17089,-687,-1117,-2315,17903,6800,-9152,2208,17790,535,-485,-139,1389634567.561758
2,224,0,22396,-64,-49,9,22745,3344,-7136,-944,21612,51,-233,-168,1389634567.579495
3,224,0,19088,-712,-1171,-2263,19779,7536,-8768,2704,17790,535,-485,-139,1389634567.579505
2,225,0,24386,-41,-54,10,24625,3360,-7136,-944,24174,54,-234,-165,1389634567.591719
3,225,0,21087,-637,-1200,-2284,21655,7632,-8480,2896,20369,527,-261,-91,1389634567.591729
2,226,0,26375,-33,-40,23,26504,3424,-7120,-864,24174,54,-234,-165,1389634567.592000
3,226,0,23087,-492,-1186,-2328,23532,7552,-8432,2752,22947,510,-547,-50,1389634567.592006
2,227,0,28365,-22,-33,34,28384,3296,-7136,-960,26734,54,-233,-164,1389634567.610035
3,227,0,25086,-390,-1165,-2372,25409,6960,-8560,2720,25526,485,-576,-10,1389634567.610044
2,228,0,29359,-15,-32,40,30264,3360,-7136,-1040,29296,50,-232,-163,1389634567.622309
3,228,0,27086,-331,-1129,-2392,27286,7232,-8240,1456,25526,485,-576,-10,1389634567.622318
2,229,0,31349,-16,-49,58,32144,3408,-7104,-928,31857,54,-233,-166,1389634567.622586
3,229,0,29085,-342,-1139,-2361,29162,7328,-7792,800,28105,450,-598,29,1389634567.622592
2,230,0,33339,-11,-61,62,34023,3312,-7088,-1072,31857,54,-233,-166,1389634567.640867
3,230,0,31084,-412,-1171,-2304,31038,7696,-7008,976,30684,408,-618,60,1389634567.640893
2,231,0,35328,-16,-65,87,35902,3360,-7088,-1120,34420,54,-232,-163,1389634567.641101
3,231,0,32084,-430,-1168,-2241,32915,7952,-5856,1296,30684,408,-618,60,1389634567.647172
2,232,0,37318,-34,-79,100,37782,3360,-7136,-1120,36982,52,-231,-163,1389634567.659527
3,232,0,34083,-434,-1131,-2113,34792,8224,-4688,1136,33263,355,-630,87,1389634567.659543
2,233,0,39307,-48,-105,115,39662,3248,-7088,-1344,39542,54,-230,-163,1389634567.671877
3,233,0,36083,-368,-1033,-1947,36669,8800,-3680,256,35842,307,-635,108,1389634567.671892
2,234,0,41297,-65,-146,129,41541,2992,-7248,-1248,39542,54,-230,-163,1389634567.672221
3,234,0,38082,-364,-879,-1779,38545,9152,-2368,-1184,38421,260,-632,124,1389634567.672232
2,235,0,43286,-68,-165,155,43420,3088,-7248,-1152,42104,55,-227,-160,1389634567.690527
3,235,0,40082,-527,-640,-1565,40422,9968,-1136,-2624,38421,260,-632,124,1389634567.690542
2,236,0,45276,-58,-179,180,45299,3472,-7344,-800,44665,56,-228,-161,1389634567.696655
3,236,0,42081,-831,-303,-1271,42298,10688,-16,-2960,41000,220,-630,134,1389634567.696866
2,237,0,46271,-42,-195,215,47178,3536,-7456,-624,44665,56,-228,-161,1389634567.708863
3,237,0,44080,-1068,80,-919,44174,10224,784,-1376,43579,185,-621,149,1389634567.708871
2,238,0,48260,-1,-182,251,49057,3536,-7456,-560,47228,59,-227,-156,1389634567.720586
3,238,0,46080,-942,491,-540,46050,8976,816,864,46159,163,-619,158,1389634567.720601
2,239,0,50250,42,-178,309,50936,3392,-7472,-1008,49788,59,-224,-154,1389634567.726821
3,239,0,47079,-689,709,-340,47928,7952,0,2576,46159,163,-619,158,1389634567.727078
2,240,0,52239,56,-190,358,52814,3392,-7616,-944,52350,58,-222,-154,1389634567.739265
3,240,0,49079,15,1026,-3,49805,7392,-1376,2864,48737,148,-616,157,1389634567.739274
2,241,0,54229,67,-195,411,54694,3776,-7392,-1040,52350,58,-222,-154,1389634567.751478
3,241,0,51078,623,1211,266,51681,7200,-2560,2544,51316,141,-619,146,1389634567.751487
2,242,0,56218,85,-207,478,56573,4768,-6736,-1456,54912,58,-221,-150,1389634567.751807
3,242,0,53078,928,1282,469,53558,7456,-3504,1744,51316,141,-619,146,1389634567.751813
2,243,0,58208,42,-222,548,57983,3824,-7808,-1264,57473,66,-218,-151,1389634567.769342
3,243,0,55077,887,1264,623,55434,7536,-4192,1328,53893,136,-626,132,1389634567.769358
2,244,0,60197,35,-246,612,59863,2944,-7856,-2352,60035,67,-219,-146,1389634567.781694
3,244,0,57076,631,1151,755,57310,-4240,-9952,3184,56473,135,-632,123,1389634567.781710
2,245,0,62187,-294,-200,682,61743,2576,-8352,-2688,60035,67,-219,-146,1389634567.782039
3,245,0,59076,480,823,761,59187,336,-10944,5664,59052,142,-636,122,1389634567.782050
2,246,0,63182,-476,-169,700,63623,3792,-8096,1232,62597,69,-216,-142,1389634567.800300
3,246,0,61075,542,437,691,61064,-9504,-8976,9792,59052,142,-636,122,1389634567.800310
2,247,0,65171,-165,-217,863,65502,3456,-8768,-1520,65158,73,-210,-138,1389634567.812608
3,247,0,62075,821,634,474,62941,-5632,-10464,8160,61631,145,-643,113,1389634567.812624
2,248,0,1625,-256,-169,1099,1845,2976,-8720,-560,2184,80,-210,-133,1389634567.812929
3,248,0,64074,1128,1124,1156,64818,-1488,-5568,3856,64210,145,-640,100,1389634567.812936
2,249,0,3614,-162,-150,1300,3724,3216,-8928,-976,2184,80,-210,-133,1389634567.831208
3,249,0,538,1302,887,1472,1160,2928,-1984,784,1253,147,-636,87,1389634567.831223
2,250,0,5604,-193,-132,1545,5604,2864,-8576,-656,4744,87,-204,-125,1389634567.831525
3,250,0,2537,1057,746,2115,3037,4432,-4400,2608,1253,147,-636,87,1389634567.831748
2,251,0,7593,-162,-150,1806,7484,2976,-8352,-384,7306,94,-197,-121,1389634567.849431
3,251,0,4536,1104,537,2462,4914,7360,-8912,3488,3833,156,-628,84,1389634567.849439
2,252,0,9583,-113,-140,2076,9363,3104,-8400,-368,7306,94,-197,-121,1389634567.860656
3,252,0,6536,1086,328,2295,6791,7536,-10000,3568,6411,169,-628,70,1389634567.860665
2,253,0,11573,-56,-152,2340,11242,3168,-8672,-608,9866,114,-190,-116,1389634567.866782
3,253,0,8535,1089,352,2052,8669,7648,-9600,1072,6411,169,-628,70,1389634567.867106
2,254,0,12567,-40,-184,2485,13120,3008,-8704,-1584,12428,114,-177,-108,1389634567.878817
3,254,0,10535,892,394,1782,10545,6912,-8336,-1232,8991,178,-623,64,1389634567.878826
2,255,0,14557,-85,-264,2741,14999,3536,-8992,-2384,14989,126,-168,-98,1389634567.891158
3,255,0,11534,773,415,1633,12423,7104,-8992,-2896,11570,188,-618,55,1389634567.891174
2,0,0,16546,-195,-419,3034,16878,3552,-8880,-3328,14989,126,-168,-98,1389634567.891481
3,0,0,13534,405,375,1438,14301,6848,-9040,-2032,14149,197,-612,51,1389634567.891789
2,1,0,18536,-351,-661,3304,18758,4320,-9008,-3888,17551,137,-147,-82,1389634567.909162
3,1,0,15533,131,270,1207,16178,5440,-8480,-912,14149,197,-612,51,1389634567.909171
2,2,0,20526,-483,-956,3521,20637,5040,-9168,-3472,20113,151,-129,-68,1389634567.921236
3,2,0,17532,1,282,937,18054,3728,-7648,-640,16730,202,-615,49,1389634567.921251
2,3,0,22515,-613,-1287,3731,22516,6224,-9936,-2048,22675,171,-105,-52,1389634567.921550
3,3,0,19532,-113,289,780,19931,2416,-7040,-48,19309,209,-608,51,1389634567.921773
2,4,0,24505,-717,-1391,3984,24396,7168,-10144,-496,22675,171,-105,-52,1389634567.939995
3,4,0,21531,-232,261,801,21808,2160,-6384,1520,19309,209,-608,51,1389634567.940004
2,5,0,26494,-562,-1303,4125,26275,7744,-10336,96,25236,185,-79,-28,1389634567.952120
3,5,0,23531,-229,277,910,23685,3136,-6208,2592,21888,210,-607,52,1389634567.952129
2,6,0,28484,-282,-1259,4276,28154,6848,-9744,-112,27798,202,-49,-10,1389634567.952564
3,6,0,25530,-120,300,983,25561,4096,-6128,2896,24468,216,-602,58,1389634567.952575
2,7,0,29478,-157,-1255,4356,30034,5968,-9952,-1328,30360,215,-17,10,1389634567.970740
3,7,0,26530,-61,313,980,27438,8736,-7488,5440,27046,228,-601,51,1389634567.970749
2,8,0,31468,-1,-1169,4500,31913,5600,-9280,-2272,30360,215,-17,10,1389634567.970997
3,8,0,28529,168,544,984,29315,8144,-7424,912,27046,228,-601,51,1389634567.983082
2,9,0,33458,51,-1197,4536,33793,8320,-8608,-2256,32921,230,-241,29,1389634567.983364
3,9,0,30528,231,305,594,31191,4528,-5824,1248,29626,229,-598,48,1389634567.983370
2,10,0,35447,-97,-1565,4543,35673,8656,-6432,-3600,35484,242,54,52,1389634568.1654
3,10,0,32528,307,450,386,33068,2800,-6464,2112,32204,235,-596,44,1389634568.1663
2,11,0,37437,-390,-1651,4527,37552,14976,-9008,-3536,35484,242,54,52,1389634568.1936
3,11,0,34527,380,472,449,34946,4160,-7792,1200,34783,236,-595,41,1389634568.1942
2,12,0,39426,-489,-1822,4056,39431,16544,-8688,-3824,38047,257,86,74,1389634568.20127
3,12,0,36527,266,218,456,36823,3440,-7392,-896,34783,236,-595,41,1389634568.20142
2,13,0,41416,-729,-1975,3024,41311,13792,-8080,-4384,40609,257,111,99,1389634568.31806
3,13,0,38526,191,196,364,38700,5328,-7408,1008,37362,241,-600,38,1389634568.31816
2,14,0,43405,-1025,-1771,2048,43190,6304,-6624,-3040,43173,264,133,112,1389634568.32017
3,14,0,40525,178,163,322,40577,5408,-6976,928,39940,244,-593,38,1389634568.32022
2,15,0,45395,-957,-1181,1411,45069,-112,-8080,-2448,43173,264,133,112,1389634568.49513
3,15,0,41525,183,161,251,42453,4224,-6784,896,39940,244,-593,38,1389634568.49528
2,16,0,46390,-798,-926,1052,46948,704,-6912,-3280,45734,273,146,122,1389634568.61777
3,16,0,43524,198,120,178,44329,4304,-6848,752,42518,247,-594,32,1389634568.61786
2,17,0,48379,-751,-578,241,48827,10016,-8976,-768,48296,292,154,133,1389634568.62026
3,17,0,45524,205,97,166,46206,4544,-6608,1360,45097,246,-593,32,1389634568.62033
2,18,0,50369,-623,50,57,50706,4176,-7152,-1600,50857,300,152,136,1389634568.80156
3,18,0,47523,198,69,135,48082,4224,-6752,1504,47675,250,-590,27,1389634568.80166
2,19,0,52358,-371,511,-818,52585,784,-5808,-2720,50857,300,152,136,1389634568.92527
3,19,0,49523,184,57,106,49958,4112,-6592,1408,47675,250,-590,27,1389634568.92542
2,20,0,54348,-380,848,-1292,54465,384,-5232,-3024,53420,318,143,134,1389634568.92877
3,20,0,51522,185,73,62,51834,4144,-6512,1520,50253,250,-592,27,1389634568.92887
2,21,0,56337,-473,1008,-1521,56344,-320,-4816,-2992,55981,339,123,131,1389634568.110889
3,21,0,53521,177,75,43,53711,3904,-6480,1472,52832,251,-592,25,1389634568.110897
2,22,0,58327,-628,1087,-1635,58223,-288,-4752,-2256,55981,339,123,131,1389634568.111142
3,22,0,55521,196,74,38,55588,3952,-6544,1200,55410,250,-593,24,1389634568.117495
2,23,0,60316,-689,1113,-1754,60103,96,-4656,-1376,58544,357,106,129,1389634568.129740
3,23,0,56520,196,69,38,57465,4096,-6528,1008,55410,250,-593,24,1389634568.129750
2,24,0,61311,-694,1120,-1847,61982,720,-4720,-720,61106,374,82,122,1389634568.141947
3,24,0,58520,178,72,36,59342,4144,-6528,928,57988,254,-595,19,1389634568.141956
2,25,0,63301,-652,1106,-2070,63861,1264,-4928,16,63668,394,50,115,1389634568.142229
3,25,0,60519,180,54,33,61219,4016,-6480,1056,60566,251,-592,20,1389634568.142236
2,26,0,65290,-467,1074,-2347,204,1248,-4960,304,63668,394,50,115,1389634568.159859
3,26,0,62519,161,56,25,63096,3968,-6560,1312,60566,251,-592,20,1389634568.159869
2,27,0,1744,-224,1062,-2645,2084,1168,-4992,288,695,421,6,111,1389634568.171854
3,27,0,64518,175,69,30,64972,4176,-6432,1216,63146,249,-593,17,1389634568.171869
2,28,0,3733,-2,1013,-2890,3963,1296,-4944,80,3257,421,217,104,1389634568.172192
3,28,0,981,198,57,31,1313,4144,-6400,976,188,249,-592,17,1389634568.172203
2,29,0,5723,158,980,-3116,5842,1408,-5056,-208,5819,425,-95,97,1389634568.190566
3,29,0,2981,205,37,4,3190,4224,-6560,720,2768,252,-594,14,1389634568.190582
2,30,0,7712,225,925,-3293,7721,1504,-5040,-368,5819,425,-95,97,1389634568.196813
3,30,0,4980,175,17,-7,5068,4128,-6656,752,2768,252,-594,14,1389634568.197071
2,31,0,9702,257,871,-3455,9600,1584,-5264,-240,8381,422,-150,88,1389634568.209189
3,31,0,5980,157,17,2,6945,4128,-6608,832,5348,252,-589,12,1389634568.209199
2,32,0,11692,313,808,-3588,11480,1728,-5504,-32,10942,410,-203,73,1389634568.221435
3,32,0,7979,119,12,11,8823,4064,-6528,928,7926,251,-592,9,1389634568.221450
2,33,0,12686,359,776,-3637,13359,1792,-5824,64,13503,391,-252,58,1389634568.221789
3,33,0,9979,97,10,6,10699,4080,-6656,1024,10504,251,-594,9,1389634568.221799
2,34,0,14676,496,713,-3716,15238,2112,-6304,144,13503,391,-252,58,1389634568.240089
3,34,0,11978,91,21,16,12575,4096,-6576,992,10504,251,-594,9,1389634568.240104
2,35,0,16665,641,659,-3782,17116,2480,-6784,80,16064,359,-37,42,1389634568.252564
3,35,0,13977,89,25,26,14452,4144,-6528,912,13083,251,-592,10,1389634568.252579
2,36,0,18655,766,638,-3825,18995,3088,-7360,-160,18626,320,-324,22,1389634568.252903
3,36,0,15977,93,40,24,16329,4160,-6560,848,15663,251,-591,7,1389634568.252915
2,37,0,20645,857,617,-3889,20874,3552,-7824,-352,18626,320,-324,22,1389634568.270827
3,37,0,17976,82,36,21,18206,4048,-6560,896,15663,251,-591,7,1389634568.270836
2,38,0,22634,917,622,-3963,22753,3904,-8192,-272,21187,274,-342,1,1389634568.271092
3,38,0,19976,71,33,22,20084,4000,-6448,992,18241,253,-591,10,1389634568.277260
2,39,0,24624,993,628,-3997,24631,4112,-8592,-208,23749,227,-348,-20,1389634568.289513
3,39,0,20975,77,45,20,21960,3936,-6496,1056,20820,253,-594,6,1389634568.289528
2,40,0,26613,1075,651,-3953,26510,4416,-9200,-112,26312,182,-342,-44,1389634568.301576
3,40,0,22975,82,64,21,23838,4160,-6656,1120,23399,253,-591,3,1389634568.301585
2,41,0,28603,1177,667,-3853,28390,5056,-10416,80,26312,182,-342,-44,1389634568.301827
3,41,0,24974,91,68,30,25715,4064,-6512,928,23399,253,-591,3,1389634568.301832
2,42,0,29597,1222,698,-3787,30269,6496,-11728,-208,28873,108,-325,-65,1389634568.319754
3,42,0,26973,88,91,38,27592,4032,-6576,848,25978,253,-590,6,1389634568.319769
2,43,0,31587,1259,739,-3673,32149,8112,-12816,-832,31435,108,-300,-85,1389634568.332083
3,43,0,28973,77,101,39,29469,4112,-6624,688,28557,256,-591,3,1389634568.332097
2,44,0,33577,1197,778,-3639,34028,9536,-13856,-944,33997,87,-274,-99,1389634568.332485
3,44,0,30972,57,106,49,30877,4288,-6528,640,31137,256,-590,2,1389634568.332496
2,45,0,35566,1127,795,-3671,35907,11824,-15216,-752,33997,87,-274,-99,1389634568.349923
3,45,0,32972,26,103,58,32754,4096,-6528,544,31137,256,-590,2,1389634568.349932
2,46,0,37556,1150,807,-3752,37786,14432,-16336,-960,36559,78,-508,-106,1389634568.361914
3,46,0,34971,-5,110,47,34631,4224,-6592,576,33716,255,-590,4,1389634568.361924
2,47,0,39545,1208,791,-4037,39665,16064,-16128,-1728,39121,80,-246,-111,1389634568.362193
3,47,0,35971,-18,112,53,36507,4112,-6576,768,36293,255,-589,-1,1389634568.362199
2,48,0,41535,1229,829,-4415,41544,16224,-15008,-2048,41683,93,-3,-105,1389634568.380314
3,48,0,37970,-29,133,52,38384,4208,-6704,640,36293,255,-589,-1,1389634568.380323
2,49,0,43524,1191,973,-4716,43423,14864,-13072,-1936,41683,93,-3,-105,1389634568.392606
3,49,0,39969,-44,135,48,40261,4080,-6848,448,38872,254,-588,2,1389634568.392621
2,50,0,44519,1151,1077,-4762,45302,13936,-11216,-1776,44245,118,-298,-108,1389634568.392936
3,50,0,41969,-85,128,47,42138,4352,-6832,304,41450,254,-589,4,1389634568.392946
2,51,0,46509,1059,1269,-4582,47181,13360,-9792,-1648,46805,132,-344,-112,1389634568.410636
3,51,0,43968,-134,100,58,44014,4032,-6928,400,44028,259,-588,4,1389634568.410644
2,52,0,48498,914,1438,-4172,49061,12864,-8160,192,46805,132,-344,-112,1389634568.416755
3,52,0,45968,-162,122,79,45892,4368,-7056,896,44028,259,-588,4,1389634568.417010
2,53,0,50488,814,1591,-3677,50940,14496,-5392,960,49366,135,-385,-119,1389634568.428916
3,53,0,47967,-161,138,131,47768,4560,-6144,720,46607,259,-588,6,1389634568.428931
2,54,0,52477,824,1728,-3195,52818,17200,-1200,416,51927,105,-420,-121,1389634568.441135
3,54,0,49966,-159,152,146,49645,4528,-6592,1008,49186,255,-585,4,1389634568.441151
2,55,0,54467,521,1736,-2681,54698,22368,5088,1728,54490,105,-447,-132,1389634568.441468
3,55,0,51966,-158,163,154,51523,3856,-6896,1264,51766,255,-585,4,1389634568.441776
2,56,0,56456,262,1476,-2050,56577,21280,9680,7360,54490,105,-447,-132,1389634568.459884
3,56,0,52965,-146,177,169,53400,4032,-6784,928,51766,255,-585,4,1389634568.459893
2,57,0,58446,698,835,-1261,58457,14064,9728,6208,57052,71,-461,-137,1389634568.471900
3,57,0,54965,-139,203,190,55277,3760,-7232,544,54345,263,-579,6,1389634568.471908
2,58,0,60435,831,53,137,60337,10848,5152,432,59614,71,-469,-146,1389634568.472069
3,58,0,56964,-127,224,225,57154,4608,-6688,336,56924,263,-574,2,1389634568.472074
2,59,0,61430,656,-243,847,62215,10560,-800,-2448,62175,73,-469,-148,1389634568.489502
3,59,0,58964,-130,178,298,59031,4544,-7136,512,56924,263,-574,2,1389634568.489544
2,60,0,63420,138,-540,1789,64095,11248,-4496,-3280,62175,73,-469,-148,1389634568.501619
3,60,0,60963,-76,139,344,60909,3792,-7312,1648,59503,265,-576,3,1389634568.501627
2,61,0,65409,-524,-687,1891,438,5216,-5904,-5520,64736,89,-467,-145,1389634568.501899
3,61,0,62962,54,93,429,62786,3200,-8416,-304,62082,265,-571,6,1389634568.501904
2,62,0,1863,-1818,-539,1576,2317,5904,-6864,-5824,1763,104,-463,-134,1389634568.519881
3,62,0,64962,-197,170,619,64663,3664,-7632,1632,64661,267,-566,1,1389634568.519890
2,63,0,3852,-1863,-206,1850,4196,-6720,-13536,-5824,4324,121,-461,-123,1389634568.532071
3,63,0,1425,-88,85,859,1004,3888,-7840,592,64661,267,-566,1,1389634568.532080
2,64,0,5842,-2148,-26,1538,6075,-8864,-13728,-5200,4324,121,-461,-123,1389634568.532349
3,64,0,2425,-133,76,923,2880,3936,-8240,256,1704,271,-556,1,1389634568.532355
2,65,0,7831,-1780,-175,1310,7956,-2512,-8864,1328,6886,139,-464,-110,1389634568.550596
3,65,0,4424,-182,42,1101,4757,3632,-8624,368,4282,277,-542,0,1389634568.550610
2,66,0,9821,-1540,-103,2293,9835,5232,-4896,4704,9446,156,-453,-101,1389634568.556431
3,66,0,6424,-207,12,1326,6634,3296,-9184,544,6861,286,-528,4,1389634568.556654
2,67,0,11811,-988,-71,3055,11715,8288,-9664,2064,9446,156,-453,-101,1389634568.568023
3,67,0,8423,-297,1,1643,8510,2976,-9024,1232,6861,286,-528,4,1389634568.568032
2,68,0,12805,-836,-130,3209,13595,9984,-13168,4288,12007,173,-440,-88,1389634568.580245
3,68,0,10422,-325,74,1962,10387,2912,-9088,608,9441,295,-514,6,1389634568.580254
2,69,0,14795,-330,-280,3046,15474,8800,-12432,4720,14569,218,-427,-88,1389634568.592331
3,69,0,12422,-382,146,2291,12264,3168,-9088,560,12020,307,-745,6,1389634568.592347
2,70,0,16784,-10,-341,2470,17353,8960,-11344,3440,17131,218,-414,-86,1389634568.592662
3,70,0,14421,-442,201,2621,14141,3104,-9184,912,12020,307,-745,6,1389634568.592673
2,71,0,18774,327,-340,2054,19232,7056,-10176,480,17131,218,-414,-86,1389634568.610987
3,71,0,16421,-479,274,2930,16019,3392,-9200,1104,14599,319,-465,3,1389634568.611002
2,72,0,20764,433,-343,1603,21110,4992,-9600,-992,19693,231,-412,-88,1389634568.611309
3,72,0,17420,-504,331,3074,17896,3280,-9168,352,17178,329,-437,3,1389634568.611525
2,73,0,22753,479,-256,1343,22990,4336,-8528,-2016,22254,241,-398,-90,1389634568.629095
3,73,0,19420,-600,391,3408,19773,4320,-9168,2048,19756,342,-401,4,1389634568.629104
2,74,0,24743,460,-191,1081,24869,3152,-7184,-2496,24815,253,-396,-90,1389634568.641408
3,74,0,21419,-556,491,3853,21649,5184,-8624,4176,19756,342,-401,4,1389634568.641423
2,75,0,26732,334,-217,964,26747,2240,-6832,-2320,24815,253,-396,-90,1389634568.641749
3,75,0,23418,-447,655,4281,23526,6416,-8064,3504,22335,354,-359,-3,1389634568.641759
2,76,0,27727,265,-255,955,28626,2624,-6944,-2400,27377,256,-395,-92,1389634568.660012
3,76,0,25418,-467,805,4516,25403,7760,-8016,2752,24914,369,-317,-5,1389634568.660027
2,77,0,29716,152,-323,1025,30506,5216,-8032,-2512,29939,262,-382,-90,1389634568.672314
3,77,0,27417,-577,930,4738,27280,8176,-8112,3824,27493,379,-270,-11,1389634568.672323
2,78,0,31706,-9,-337,1028,32385,5936,-8544,-3632,29939,262,-382,-90,1389634568.672591
3,78,0,29417,-534,1151,4778,29158,7600,-7664,4768,27493,379,-270,-11,1389634568.672597
2,79,0,33696,-301,-386,1019,34265,5744,-7040,-2272,32500,273,-375,-89,1389634568.690284
3,79,0,31416,-430,1291,4880,31034,7232,-7600,5360,30073,381,-478,-20,1389634568.690300
2,80,0,35685,-562,-322,532,36144,1968,-7648,-960,35062,277,-374,-82,1389634568.702098
3,80,0,32416,-365,1364,4852,32911,7744,-6624,5360,32652,383,-177,-35,1389634568.702114
2,81,0,37675,-460,-271,463,38023,2544,-8144,-352,37623,279,-370,-77,1389634568.702459
3,81,0,34415,-186,1542,4853,34788,9520,-5584,5120,32652,383,-177,-35,1389634568.702470
2,82,0,39664,-265,-181,489,39902,2528,-7664,768,37623,279,-370,-77,1389634568.720533
3,82,0,36414,137,1800,4758,36664,10992,-5184,4560,35232,378,-132,-51,1389634568.720542
2,83,0,41654,-165,-236,399,41781,5792,-8560,-80,40183,283,-366,-78,1389634568.726678
3,83,0,38414,378,1958,4568,38541,11952,-4720,3824,37811,368,-89,-61,1389634568.726974
2,84,0,43643,-113,-183,363,43659,4496,-7456,-800,42745,289,-366,-72,1389634568.738651
3,84,0,40413,452,1960,4354,40419,9184,-6272,2656,40391,356,-49,-79,1389634568.738666
2,85,0,44638,-90,-160,222,45538,3328,-7376,-1296,45307,289,-365,-70,1389634568.750555
3,85,0,42413,385,1905,4089,42297,7424,-7520,2112,40391,356,-49,-79,1389634568.750582
2,86,0,46628,-52,-124,190,47417,3744,-7520,-1024,45307,289,-365,-70,1389634568.756803
3,86,0,44412,187,1742,3899,44174,7120,-6944,2144,42970,337,-15,-89,1389634568.757124
2,87,0,48617,-11,-125,143,49295,3632,-7232,-1600,47869,289,-363,-66,1389634568.768994
3,87,0,46411,-44,1704,3683,46052,5136,-5056,2960,45549,317,-241,-102,1389634568.769001
2,88,0,50607,-7,-76,110,51175,3424,-7184,-1584,50431,290,-363,-72,1389634568.781011
3,88,0,47411,-109,1708,3451,47929,3104,-4240,2000,48128,293,38,-110,1389634568.781020
2,89,0,52596,-34,-50,73,53054,3504,-7232,-1296,52993,292,-362,-70,1389634568.781202
3,89,0,49411,-300,1540,3121,49807,-896,-3728,16,48128,293,38,-110,1389634568.781325
2,90,0,54586,-50,-41,60,54933,3472,-7120,-1440,52993,292,-362,-70,1389634568.799416
3,90,0,51410,-703,1563,2633,51683,1296,-2928,896,50707,269,57,-118,1389634568.799432
2,91,0,56575,-94,-25,50,56813,3488,-7184,-1184,55555,290,-361,-66,1389634568.811752
3,91,0,53409,-855,1815,2438,53560,14256,-4672,2704,53285,249,76,-126,1389634568.811763
2,92,0,58565,-90,-32,28,58692,3360,-7264,-960,58117,293,-361,-68,1389634568.812040
3,92,0,55409,-749,1573,1987,55436,13296,-5536,2288,53285,249,76,-126,1389634568.812048
2,93,0,60554,-79,-30,38,60571,3424,-7184,-992,58117,293,-361,-68,1389634568.830022
3,93,0,57408,-615,942,469,57314,8128,-4192,4208,55864,224,88,-136,1389634568.830037
2,94,0,61549,-78,-23,41,62450,3072,-7120,-1040,60679,292,-362,-68,1389634568.842411
3,94,0,59407,-156,451,-438,59191,6448,-3440,4272,58442,203,92,-144,1389634568.842426
2,95,0,63539,-70,-20,27,63860,3008,-7312,-848,63241,290,-361,-66,1389634568.842754
3,95,0,61407,224,-45,-1237,61068,4960,-3024,3952,61021,191,96,-146,1389634568.842765
2,96,0,65528,-55,-16,63,203,3264,-7136,-624,269,291,-360,-65,1389634568.860647
3,96,0,62407,356,-243,-1553,62946,4848,-2880,3824,61021,191,96,-146,1389634568.860663
2,97,0,1982,-35,-3,84,2082,3360,-7200,-624,269,291,-360,-65,1389634568.866256
3,97,0,64406,581,-552,-2084,64823,5136,-2928,3728,63599,176,100,-147,1389634568.866492
2,98,0,3971,-6,24,100,3961,3296,-7264,-752,2830,295,-358,-66,1389634568.877911
3,98,0,869,779,-777,-2577,1163,5472,-3072,3552,642,174,105,-148,1389634568.877921
2,99,0,5961,-3,23,113,5841,3392,-7184,-944,5392,292,-360,-65,1389634568.889840
3,99,0,2869,971,-963,-3070,3041,6976,-3296,3568,3221,175,108,-150,1389634568.889848
2,100,0,7950,6,17,110,7720,3408,-7072,-1008,7953,292,-356,-66,1389634568.901934
3,100,0,4868,1206,-1137,-3666,4918,8304,-2976,3536,3221,175,108,-150,1389634568.901942
2,101,0,9940,10,-1,94,9599,3264,-7040,-976,7953,292,-356,-66,1389634568.902215
3,101,0,6867,1490,-1304,-4354,6796,8592,-2896,2672,5799,184,107,-151,1389634568.902221
2,102,0,10935,14,-4,93,11478,3184,-7088,-1120,10515,295,-358,-67,1389634568.920338
3,102,0,8867,1601,-1428,-4992,8673,7312,-2768,1088,8378,202,98,-154,1389634568.920348
2,103,0,12924,11,-14,80,13357,3360,-7136,-1136,13076,295,-357,-68,1389634568.932446
3,103,0,10866,1364,-1484,-5458,10550,4912,-2160,-448,8378,202,98,-154,1389634568.932455
2,104,0,14914,-3,-23,103,15236,3392,-7120,-864,15638,294,-356,-70,1389634568.932726
3,104,0,11866,1189,-1515,-5616,12427,2144,-2208,-976,10956,232,77,-153,1389634568.932732
2,105,0,16903,4,-19,105,17116,3280,-7088,-896,15638,294,-356,-70,1389634568.950899
3,105,0,13865,780,-1529,-5665,14304,576,-2752,-1264,13534,267,50,-152,1389634568.950914
2,106,0,18893,21,-21,119,18994,3232,-7088,-1056,18200,296,-355,-69,1389634568.951171
3,106,0,15865,335,-1470,-5305,16181,1136,-3056,-816,16112,303,13,-147,1389634568.957420
2,107,0,20883,34,-29,121,20873,3232,-7216,-1072,20760,299,-352,-66,1389634568.969627
3,107,0,17864,-74,-1399,-4909,18058,2224,-3440,-416,16112,303,13,-147,1389634568.969642
2,108,0,22872,36,-26,120,22752,3552,-7120,-928,20760,299,-352,-66,1389634568.981418
3,108,0,19863,-425,-1359,-4668,19935,1808,-3296,80,18692,335,225,-146,1389634568.981427
2,109,0,24862,63,-33,114,24632,3584,-7056,-912,23322,300,-355,-69,1389634568.981699
3,109,0,21863,-671,-1265,-4484,21812,2544,-3728,752,21271,368,-77,-142,1389634568.981706
2,110,0,26851,81,-23,112,26510,3488,-6944,-992,25884,298,-353,-65,1389634568.999075
3,110,0,23862,-784,-1158,-4229,23688,3776,-4672,1312,23850,396,-127,-129,1389634568.999086
2,111,0,27846,83,-19,102,28390,3408,-6992,-832,28445,299,-351,-68,1389634569.11496
3,111,0,25862,-877,-1119,-4095,25565,5072,-5568,1872,23850,396,-127,-129,1389634569.11512
2,112,0,29835,102,19,89,30270,3456,-7088,-848,28445,299,-351,-68,1389634569.11843
3,112,0,26861,-903,-1102,-4073,27441,6160,-6352,2144,26428,420,-189,-115,1389634569.11854
2,113,0,31825,142,61,117,32149,3440,-7152,-1472,31007,300,-350,-68,1389634569.29816
3,113,0,28861,-932,-1133,-4049,29318,7168,-7264,2000,29009,443,-254,-97,1389634569.29826
2,114,0,33815,147,82,110,34029,3680,-7104,-1536,33568,301,-348,-72,1389634569.41515
3,114,0,30860,-959,-1212,-4076,31195,7920,-8080,1520,29009,443,-254,-97,1389634569.41530
2,115,0,35804,131,70,100,35908,3680,-7120,-1312,36129,301,-348,-73,1389634569.41842
3,115,0,32860,-1050,-1324,-4109,33073,8256,-8848,1136,31588,461,-70,-79,1389634569.41853
2,116,0,37794,131,50,95,37787,3568,-7168,-1200,36129,301,-348,-73,1389634569.59514
3,116,0,34859,-1275,-1434,-4110,34949,8464,-9760,1040,34166,469,-396,-46,1389634569.59525
2,117,0,39783,125,17,101,39666,3632,-7136,-1152,38691,304,-351,-74,1389634569.70417
3,117,0,36858,-1577,-1590,-4094,36827,9136,-10592,1760,36745,462,-467,-8,1389634569.70432
2,118,0,41773,127,-3,101,41546,3696,-7312,-1056,41253,302,-347,-75,1389634569.82448
3,118,0,38858,-1794,-1780,-4050,38704,10480,-11136,3104,36745,462,-467,-8,1389634569.82457
2,119,0,43762,138,-33,103,43426,3664,-7312,-960,41253,302,-347,-75,1389634569.82724
3,119,0,40857,-1772,-1976,-4039,40582,11904,-11408,4720,39324,450,-277,31,1389634569.82731
2,120,0,44757,142,-44,117,45306,3616,-7024,-1264,43814,305,-345,-73,1389634569.100832
3,120,0,41857,-1647,-2086,-4031,42459,13520,-11424,5744,41903,422,-589,77,1389634569.100847
2,121,0,46747,127,-61,127,47185,3584,-7200,-1232,46375,305,-347,-74,1389634569.101171
3,121,0,43856,-1176,-2297,-4025,44337,14720,-11232,5872,44481,383,-641,110,1389634569.106930
2,122,0,48736,121,-77,142,49064,3456,-7296,-1232,48938,305,-343,-76,1389634569.119126
3,122,0,45856,-637,-2488,-4054,46214,15392,-10752,4976,44481,383,-641,110,1389634569.119135
2,123,0,50726,105,-86,162,50943,3696,-7104,-1024,48938,305,-343,-76,1389634569.130729
3,123,0,47855,-258,-2597,-4072,48091,15520,-10080,3968,47059,331,-686,140,1389634569.130738
2,124,0,52715,113,-93,181,52823,3488,-7216,-992,51499,304,-343,-74,1389634569.130978
3,124,0,49854,-130,-2588,-4008,49969,15216,-9072,2848,49637,261,-702,149,1389634569.142398
2,125,0,54705,125,-81,206,54703,3168,-7136,-960,54060,306,-344,-72,1389634569.142595
3,125,0,51854,-192,-2480,-3804,51846,14768,-7920,1632,49637,261,-702,149,1389634569.142600
2,126,0,56694,134,-76,225,56582,3232,-7472,-1440,56622,307,-343,-75,1389634569.160799
3,126,0,53853,-437,-2328,-3458,53724,13808,-6672,-128,52217,183,-701,154,1389634569.160814
2,127,0,58684,131,-70,248,58462,2864,-7520,-1472,56622,307,-343,-75,1389634569.161124
3,127,0,55852,-850,-2222,-2964,55601,13520,-5216,-4928,54794,111,-678,150,1389634569.167282
2,128,0,59679,110,-66,253,60341,2976,-7488,-1280,59184,307,-339,-71,1389634569.179575
3,128,0,56852,-1169,-2224,-2661,57478,15776,-2272,-4368,57373,54,-653,156,1389634569.179584
2,129,0,61668,84,-65,279,62220,3760,-7536,-1360,61747,307,-337,-69,1389634569.191688
3,129,0,58852,-1832,-1982,-2165,59355,18144,1968,-4336,57373,54,-653,156,1389634569.191697
2,130,0,63658,64,-67,337,64099,3840,-7248,-1184,64308,312,-335,-73,1389634569.191967
3,130,0,60851,-2134,-1465,-1680,61231,18352,5744,-4976,59952,17,-625,167,1389634569.191973
2,131,0,111,36,-69,378,441,3312,-7744,-1008,64308,312,-335,-73,1389634569.210046
3,131,0,62850,-2212,-719,-1226,63107,15600,6816,-3584,62531,-10,-606,177,1389634569.210056
2,132,0,2101,124,-106,466,2322,2928,-8208,64,1334,312,-331,-70,1389634569.222132
3,132,0,64850,-1789,186,-576,64984,12640,5792,848,65109,-25,-590,191,1389634569.222147
2,133,0,4090,376,-127,651,4201,2096,-8384,-2832,3896,312,-327,-72,1389634569.222479
3,133,0,1313,-769,1048,74,1325,11488,3072,3824,65109,-25,-590,191,1389634569.222489
2,134,0,6080,48,-56,856,6080,3440,-8272,-144,3896,312,-327,-72,1389634569.240787
3,134,0,3312,283,1597,476,3202,10336,128,4016,2151,-29,-581,189,1389634569.240802
2,135,0,8069,243,-55,1114,7960,3088,-8240,-1200,6459,319,-319,-73,1389634569.241050
3,135,0,5312,1897,1729,693,5079,5968,-400,8992,4730,-26,-581,179,1389634569.246891
2,136,0,10059,216,-13,1287,9839,3040,-8272,-832,9021,321,-312,-75,1389634569.258882
3,136,0,6312,3059,1656,570,6956,2896,-5680,4624,4730,-26,-581,179,1389634569.258897
2,137,0,11054,244,-19,1386,11718,3120,-8544,-480,11583,320,-306,-73,1389634569.271227
3,137,0,8311,2794,1302,1152,8834,-1888,-9488,5040,7309,-17,-587,154,1389634569.271243
2,138,0,13043,326,-9,1634,13599,2800,-9072,-512,11583,320,-306,-73,1389634569.271558
3,138,0,10310,2955,1147,1379,10712,-4320,-9504,6432,9887,-11,-588,129,1389634569.271810
2,139,0,15033,412,1,1918,15478,2720,-9552,-656,14144,328,-291,-70,1389634569.289771
3,139,0,12310,2588,812,1928,12590,672,-7136,224,12466,-4,-587,106,1389634569.289780
2,140,0,17022,577,9,2202,17358,2272,-9648,-1648,16706,336,-278,-75,1389634569.301514
3,140,0,14309,1990,397,2983,14468,7920,-8128,-2240,12466,-4,-587,106,1389634569.301528
2,141,0,19012,663,-96,2503,19237,2416,-9232,-1760,19267,352,-258,-77,1389634569.301852
3,141,0,16309,1429,-161,3127,16344,9152,-8496,352,15044,16,-582,92,1389634569.301862
2,142,0,21002,766,-255,2850,21116,2064,-9312,-1232,19267,352,-258,-77,1389634569.319517
3,142,0,18308,1450,-15,2830,18222,10064,-12704,-3488,17622,36,-572,80,1389634569.319532
2,143,0,22991,876,-401,3254,22996,2416,-9360,-720,21831,352,-496,-75,1389634569.331531
3,143,0,20307,946,387,2401,20098,9264,-12064,-6256,20201,51,-565,70,1389634569.331539
2,144,0,24981,1021,-488,3738,24875,2928,-9664,480,24392,359,-210,-71,1389634569.331825
3,144,0,21307,699,588,2058,21975,7328,-9968,-5744,20201,51,-565,70,1389634569.331832
2,145,0,26970,1366,-458,4278,26755,4352,-10496,848,26955,367,-179,-67,1389634569.349255
3,145,0,23306,185,928,1460,23852,5840,-8944,-3152,22779,66,-562,65,1389634569.349264
2,146,0,27965,1588,-401,4534,28634,7040,-9968,512,26955,367,-179,-67,1389634569.361496
3,146,0,25306,-151,919,1141,25729,5072,-7984,912,25358,76,-559,64,1389634569.361512
2,147,0,29954,2160,-254,4954,30513,9072,-11024,-3648,29517,377,-144,-65,1389634569.361839
3,147,0,27305,-320,582,1116,27605,5392,-7008,4480,25358,76,-559,64,1389634569.361850
2,148,0,31944,2530,-246,5191,32393,10160,-11376,-8256,32079,382,-109,-65,1389634569.380036
3,148,0,29305,-215,349,1162,29482,4960,-6272,4736,27936,82,-557,61,1389634569.380052
2,149,0,33934,2106,-553,5185,34272,8768,-10320,-9456,32079,382,-109,-65,1389634569.392556
3,149,0,31304,-17,271,1100,31358,4400,-6336,3360,30515,88,-547,63,1389634569.392572
2,150,0,35923,1093,-925,5038,36151,7296,-9216,-7696,34640,388,-74,-55,1389634569.392919
3,150,0,33303,123,270,995,33234,4112,-6864,2272,33092,97,-547,61,1389634569.392930
2,151,0,37913,334,-1217,4931,38029,7616,-7488,-5456,37202,391,-41,-39,1389634569.411032
3,151,0,35303,203,333,911,35111,6112,-7376,4448,33092,97,-547,61,1389634569.411042
2,152,0,39902,24,-1459,4855,39908,11232,-7312,-3776,39764,387,-10,-23,1389634569.411295
3,152,0,36302,318,489,925,36988,5408,-7296,1280,35671,99,-544,58,1389634569.411541
2,153,0,41892,-37,-1556,4650,41786,10800,-7376,-4096,39764,387,-10,-23,1389634569.429748
3,153,0,38302,396,346,632,38865,5952,-7824,1152,38249,110,-541,55,1389634569.429757
2,154,0,42887,39,-1480,4408,43665,9248,-9776,-3424,42326,384,-242,-7,1389634569.441952
3,154,0,40301,274,268,647,40742,4304,-7216,240,40828,109,-541,52,1389634569.441967
2,155,0,44876,265,-1306,4000,45544,7712,-10256,-896,44888,382,36,11,1389634569.442384
3,155,0,42301,258,269,492,42619,4208,-7120,432,40828,109,-541,52,1389634569.442413
2,156,0,46866,749,-938,3471,47422,5712,-7712,-656,47450,362,50,22,1389634569.460579
3,156,0,44300,224,253,426,44496,4176,-7136,1264,43406,116,-540,47,1389634569.460588
2,157,0,48855,1056,-790,3088,49301,4480,-5008,-2160,47450,362,50,22,1389634569.466768
3,157,0,46299,215,237,412,46373,4464,-6976,1584,45983,120,-540,43,1389634569.467021
2,158,0,50845,988,-947,2515,51180,1120,-3840,-2832,50012,362,56,34,1389634569.479318
3,158,0,48299,214,187,349,48250,4208,-6944,1520,45983,120,-540,43,1389634569.479333
2,159,0,52834,996,-952,1363,53059,2736,-3840,-2320,52574,355,55,45,1389634569.491118
3,159,0,50298,189,160,267,50127,4096,-6912,1280,48561,122,-542,44,1389634569.491128
2,160,0,54824,634,-1364,757,54939,12480,-7984,-4560,52574,355,55,45,1389634569.491402
3,160,0,51298,189,154,248,52004,3872,-6864,1072,51140,124,-538,42,1389634569.491589
2,161,0,56813,2,-1402,-316,56818,6544,-7104,-3200,55136,352,49,64,1389634569.509550
3,161,0,53297,156,139,209,53881,3936,-6784,1120,53719,127,-542,39,1389634569.509566
2,162,0,58803,-305,-1184,-1437,58698,2000,-4992,-3504,57697,348,28,73,1389634569.521976
3,162,0,55297,138,124,196,55758,4064,-6880,992,53719,127,-542,39,1389634569.521991
2,163,0,59798,-484,-1080,-1785,60576,1744,-4256,-3600,60259,349,5,80,1389634569.522269
3,163,0,57296,118,110,195,57635,4032,-6720,1184,56299,126,-540,39,1389634569.522277
2,164,0,61787,-762,-1023,-2275,62455,1824,-4496,-3696,60259,349,5,80,1389634569.540316
3,164,0,59295,116,116,171,59511,3856,-6704,1200,58876,127,-536,39,1389634569.540326
2,165,0,63777,-994,-1078,-2670,64335,1280,-4224,-2944,62821,346,237,88,1389634569.552555
3,165,0,61295,106,116,162,61389,3808,-6640,1296,61455,127,-536,35,1389634569.552570
2,166,0,230,-1200,-1054,-3010,678,1552,-3984,-1696,65383,348,-43,100,1389634569.552905
3,166,0,63294,108,107,169,63266,3888,-6656,1072,61455,127,-536,35,1389634569.552916
2,167,0,2220,-1231,-961,-3231,2556,1440,-3728,-864,2409,343,-75,107,1389634569.571247
3,167,0,65293,107,101,168,65143,4064,-6512,1232,64033,133,-535,32,1389634569.571263
2,168,0,4209,-1105,-812,-3443,4436,1424,-3504,-448,2409,343,-75,107,1389634569.571562
3,168,0,757,110,113,159,1485,3936,-6384,1520,1074,132,-536,33,1389634569.571783
2,169,0,6199,-890,-670,-3575,6315,1600,-3360,-544,4971,344,-107,118,1389634569.589835
3,169,0,2757,128,111,157,3362,3552,-6432,1680,1074,132,-536,33,1389634569.589845
2,170,0,8188,-627,-521,-3706,8195,1312,-3232,-560,7533,340,-138,121,1389634569.601769
3,170,0,4756,142,103,154,5239,3584,-6448,1776,3653,135,-534,31,1389634569.601779
2,171,0,10178,-384,-364,-3758,10075,1040,-3344,-688,10095,326,-171,126,1389634569.602055
3,171,0,6755,180,106,172,7116,4256,-6672,1344,6232,135,-535,30,1389634569.602061
2,172,0,11173,-285,-276,-3763,11953,944,-3504,-912,10095,326,-171,126,1389634569.620291
3,172,0,8755,206,110,157,8993,4304,-6464,1200,8811,135,-535,27,1389634569.620307
2,173,0,13162,-112,-86,-3743,13832,1008,-3904,-1120,12656,326,-200,127,1389634569.632574
3,173,0,10754,184,107,90,10870,4016,-6432,1520,8811,135,-535,27,1389634569.632584
2,174,0,15152,0,79,-3680,15712,1376,-4400,-1312,15218,317,-230,122,1389634569.632856
3,174,0,12754,214,83,83,12747,4176,-6768,1072,11391,139,-534,25,1389634569.632862
2,175,0,17141,74,259,-3632,17591,1824,-4832,-1472,15218,317,-230,122,1389634569.650884
3,175,0,14753,201,74,69,14624,4224,-6496,1040,13968,139,-532,24,1389634569.650894
2,176,0,19131,116,397,-3637,19470,2512,-5488,-1408,17781,304,-254,113,1389634569.651141
3,176,0,15753,184,73,59,16501,4064,-6720,1136,16548,135,-533,26,1389634569.657460
2,177,0,21121,169,509,-3650,21349,3296,-6016,-1120,20342,289,-24,104,1389634569.669809
3,177,0,17752,172,68,48,18377,4208,-6656,848,16548,135,-533,26,1389634569.669824
2,178,0,23110,273,595,-3715,23229,3744,-6288,-672,22903,273,-303,90,1389634569.682111
3,178,0,19751,155,67,52,20255,4144,-6624,1152,19127,135,-531,21,1389634569.682126
2,179,0,25100,440,631,-3793,25108,3984,-6448,-320,22903,273,-303,90,1389634569.682453
3,179,0,21751,135,59,57,22132,4080,-6400,1168,21705,136,-534,19,1389634569.682528
2,180,0,26094,539,642,-3823,26987,4144,-6752,-16,25465,257,-324,73,1389634569.700537
3,180,0,23750,136,70,58,24010,4048,-6544,1264,21705,136,-534,19,1389634569.700546
2,181,0,28084,754,603,-3813,28867,4304,-7056,144,28025,241,-343,49,1389634569.706755
3,181,0,25750,148,81,65,25886,4064,-6512,1184,24284,136,-530,20,1389634569.706982
2,182,0,30073,967,546,-3711,30745,4320,-7664,-80,30586,224,-359,31,1389634569.719128
3,182,0,27749,157,79,57,27764,4112,-6512,1024,26863,142,-531,16,1389634569.719138
2,183,0,32063,1099,481,-3547,32624,4656,-8656,-544,30586,224,-359,31,1389634569.731468
3,183,0,29748,148,94,59,29642,3968,-6400,960,29441,142,-534,15,1389634569.731483
2,184,0,34053,1105,418,-3404,34503,5696,-10256,-720,33148,207,-367,7,1389634569.731813
3,184,0,30748,153,107,59,31520,4128,-6544,784,29441,142,-534,15,1389634569.731823
2,185,0,36042,1070,350,-3325,36381,7296,-11872,-400,35711,186,-372,-10,1389634569.748749
3,185,0,32747,163,96,57,33396,4048,-6592,784,32020,142,-534,14,1389634569.748759
2,186,0,38032,1055,298,-3360,38261,8752,-12544,-96,38272,145,-374,-21,1389634569.760492
3,186,0,34747,138,88,63,35273,4128,-6576,880,34599,142,-531,12,1389634569.760508
2,187,0,40021,1096,207,-3497,40139,9728,-12704,416,38272,145,-374,-21,1389634569.766799
3,187,0,36746,124,95,72,37150,4128,-6512,832,37178,142,-531,13,1389634569.767121
2,188,0,42011,1274,73,-3678,42018,9728,-12912,832,40834,145,-372,-35,1389634569.779471
3,188,0,38746,113,107,93,39027,4000,-6592,928,37178,142,-531,13,1389634569.779487
2,189,0,43006,1398,-8,-3758,43897,10000,-13136,608,43396,132,-377,-40,1389634569.791656
3,189,0,40745,102,112,97,40904,4256,-6384,944,39756,142,-530,11,1389634569.791666
2,190,0,44995,1637,-136,-3887,45776,10416,-13280,-32,43396,132,-377,-40,1389634569.791939
3,190,0,42744,100,120,102,42782,4320,-6512,896,42335,144,-531,10,1389634569.791945
2,191,0,46985,1751,-198,-3979,47654,10752,-13168,-896,45958,125,-384,-50,1389634569.809495
3,191,0,44744,98,120,105,44659,4160,-6528,896,42335,144,-531,10,1389634569.809510
2,192,0,48974,1697,-158,-4067,49533,10560,-12976,-1696,48520,114,-395,-56,1389634569.821875
3,192,0,45743,97,125,101,46536,4064,-6640,784,44914,144,-528,8,1389634569.821890
2,193,0,50964,1550,-70,-4098,51412,10624,-12496,-2000,51080,104,-411,-59,1389634569.822220
3,193,0,47743,87,133,91,48413,4176,-6496,816,47493,144,-529,5,1389634569.822232
2,194,0,52953,1382,63,-4028,53291,11024,-11792,-2048,51080,104,-411,-59,1389634569.840395
3,194,0,49742,71,123,100,50290,3984,-6608,704,50072,144,-528,8,1389634569.840402
2,195,0,54943,1236,252,-3894,55171,11296,-10752,-1808,53642,88,-428,-66,1389634569.851878
3,195,0,51742,66,140,100,52167,4208,-6608,608,50072,144,-528,8,1389634569.851888
2,196,0,56932,1114,497,-3707,57050,11008,-9440,-912,56203,71,-442,-68,1389634569.852041
3,196,0,53741,42,141,97,54044,4144,-6720,384,52650,147,-528,3,1389634569.852046
2,197,0,58922,1052,797,-3472,58929,10208,-7936,688,58764,57,-452,-77,1389634569.869578
3,197,0,55740,1,111,90,55921,4176,-6672,192,55230,147,-527,6,1389634569.869594
2,198,0,59917,1054,960,-3302,60809,9872,-6320,1808,58764,57,-452,-77,1389634569.881893
3,198,0,57740,-46,106,81,57798,4160,-6784,464,57808,150,-527,6,1389634569.881908
2,199,0,61906,1093,1239,-2869,62688,10592,-4384,912,61325,22,-461,-84,1389634569.882237
3,199,0,59739,-79,109,75,59675,4080,-6736,624,57808,150,-527,6,1389634569.882248
2,200,0,63896,942,1384,-2340,64567,12416,-1888,-336,63888,22,-464,-93,1389634569.899418
3,200,0,60739,-97,123,89,61553,4096,-6752,752,60387,150,-526,4,1389634569.899428
2,201,0,349,428,1372,-1831,910,15408,1696,192,63888,22,-464,-93,1389634569.910983
3,201,0,62738,-113,166,100,63430,4208,-6848,848,62966,149,-525,4,1389634569.910998
2,202,0,2339,-104,1089,-1350,2789,15968,4400,4176,913,-1,-471,-97,1389634569.911303
3,202,0,64738,-128,207,127,65308,4128,-6944,992,62966,149,-525,4,1389634569.911530
2,203,0,4328,134,501,-790,4198,13904,4720,5776,3474,-1,-474,-94,1389634569.929746
3,203,0,1201,-118,271,146,1649,4192,-6912,912,9,149,-523,5,1389634569.929827
2,204,0,6318,770,-131,-26,6077,11504,2240,3648,6035,-3,-472,-99,1389634569.942296
3,204,0,3200,-119,313,160,3526,4096,-7152,496,2588,152,-522,1,1389634569.942312
2,205,0,8307,992,-602,711,7956,10240,-992,-256,6035,-3,-472,-99,1389634569.942568
3,205,0,5200,-129,331,204,5403,4288,-7264,816,5166,152,-521,-1,1389634569.942590
2,206,0,9302,876,-785,944,9835,9888,-3520,-3008,8596,-3,-469,-107,1389634569.960788
3,206,0,7199,-106,333,244,7280,4112,-6944,864,5166,152,-521,-1,1389634569.960797
2,207,0,11292,355,-1074,1118,11714,9744,-4416,-4096,11156,5,-464,-107,1389634569.961040
3,207,0,9199,-100,311,317,9156,5168,-6720,816,7745,155,-518,3,1389634569.967192
2,208,0,13281,-215,-1116,1091,13593,10336,-4800,-3152,13718,16,-459,-107,1389634569.979504
3,208,0,10198,-106,308,366,11032,3904,-7984,928,10324,158,-515,-1,1389634569.979519
2,209,0,15271,-975,-828,1044,15471,5552,-7808,-5872,13718,16,-459,-107,1389634569.991677
3,209,0,12198,-52,299,369,12909,2512,-8416,1232,12904,160,-766,-1,1389634569.991686
2,210,0,17260,-2624,-361,984,17350,-416,-8800,-5744,16279,27,-459,-94,1389634569.991959
3,210,0,14197,-92,241,572,14786,3888,-7824,384,12904,160,-766,-1,1389634569.991965
2,211,0,19250,-2712,111,865,19228,-9376,-12608,-4832,18840,33,-451,-74,1389634570.9002
3,211,0,16196,-108,129,898,16663,4176,-8176,-80,15483,165,-503,-4,1389634570.9011
2,212,0,21240,-2320,42,1005,21106,-10512,-10784,-2704,21402,43,-449,-57,1389634570.21121
3,212,0,18196,-143,69,1061,18540,3584,-8512,-112,18061,172,-498,-8,1389634570.21130
2,213,0,23229,-2047,-119,1437,22986,-2240,-7360,5040,21402,43,-449,-57,1389634570.21391
3,213,0,20195,-188,-7,1255,20417,2960,-9040,304,18061,172,-498,-8,1389634570.21595
2,214,0,25219,-1331,28,2272,24865,5424,-5856,4816,23963,65,-445,-49,1389634570.39528
3,214,0,22195,-257,-13,1549,22295,3136,-8816,1152,20640,181,-486,-8,1389634570.39542
2,215,0,26213,-1083,69,2576,26744,8176,-11728,4368,26525,65,-426,-47,1389634570.51695
3,215,0,24194,-335,-21,1862,24172,3072,-8864,400,23218,187,-473,-9,1389634570.51704
2,216,0,28203,-752,-133,2672,28623,9776,-14400,6224,26525,65,-426,-47,1389634570.51973
3,216,0,25194,-373,-7,2017,26049,3104,-9216,-112,25797,199,-454,-11,1389634570.51979
2,217,0,30192,-220,-347,2282,30502,8608,-12384,6304,29087,86,-414,-43,1389634570.70241
3,217,0,27193,-471,17,2324,27926,3072,-9728,-96,25797,199,-454,-11,1389634570.70256
2,218,0,32182,385,-342,1782,32382,6176,-10288,2976,31649,101,-411,-43,1389634570.82422
3,218,0,29192,-619,35,2656,29803,2368,-9488,784,28375,210,-434,-13,1389634570.82433
2,219,0,34172,736,-261,1443,34260,4768,-9552,-240,34210,115,-406,-49,1389634570.82582
3,219,0,31192,-734,69,3025,31680,2560,-9152,2208,30955,227,-409,-13,1389634570.82587
2,220,0,36161,832,-192,1294,36139,4256,-9248,-2192,34210,115,-406,-49,1389634570.99963
3,220,0,33191,-734,211,3524,33557,3200,-8816,3072,33534,239,-381,-15,1389634570.99970
2,221,0,38151,840,-113,1125,38017,4144,-8144,-3712,36771,119,-398,-54,1389634570.111503
3,221,0,35191,-664,408,4043,35434,6480,-8704,3056,33534,239,-381,-15,1389634570.111511
2,222,0,40140,699,-32,933,39896,3440,-7264,-5232,39334,129,-394,-59,1389634570.111782
3,222,0,37190,-770,554,4515,37311,9904,-9584,3344,36113,258,-339,-22,1389634570.111788
2,223,0,42130,462,-18,830,41775,2816,-6880,-5568,41896,135,-391,-61,1389634570.129278
3,223,0,39189,-1095,702,4710,39188,10032,-9184,5392,38693,271,-303,-32,1389634570.129294
2,224,0,43125,331,-13,770,43654,2768,-6816,-4800,41896,135,-391,-61,1389634570.141636
3,224,0,40189,-1150,819,4677,41064,8880,-7728,7424,38693,271,-303,-32,1389634570.141652
2,225,0,45114,98,13,712,45532,2832,-6704,-3984,44457,140,-387,-59,1389634570.141969
3,225,0,42188,-825,1107,4596,42941,7840,-7552,7856,41271,285,-261,-41,1389634570.141980
2,226,0,47104,-117,-21,657,47411,2768,-7040,-2512,47018,143,-385,-63,1389634570.160042
3,226,0,44188,-206,1475,4508,44817,7680,-6832,7104,43850,300,-473,-53,1389634570.160057
2,227,0,49093,-244,-47,641,49290,2624,-7216,-1408,49580,149,-379,-67,1389634570.172495
3,227,0,46187,358,1828,4418,46695,8704,-5488,6416,46429,304,-176,-75,1389634570.173039
2,228,0,51083,-278,-62,667,51169,2096,-7344,-496,49580,149,-379,-67,1389634570.173391
3,228,0,48187,997,2198,4352,48573,9136,-5296,5552,46429,304,-176,-75,1389634570.173403
2,229,0,53072,-256,-76,701,53048,2096,-7712,576,52141,155,-375,-55,1389634570.191644
3,229,0,50186,1504,2356,4206,50449,9616,-5472,4080,49007,307,-135,-93,1389634570.191659
2,230,0,55062,-134,-119,760,54926,2384,-7984,816,54703,155,-371,-60,1389634570.191976
3,230,0,52185,1663,2318,4073,52325,7040,-7552,2288,51586,304,-96,-116,1389634570.191987
2,231,0,57051,2,-187,760,56805,3200,-8272,112,54703,155,-371,-60,1389634570.209475
3,231,0,54185,1535,2174,4035,54202,5376,-7376,1744,54164,299,-58,-132,1389634570.209484
2,232,0,58046,35,-267,737,58684,4272,-8416,-2192,57265,161,-367,-59,1389634570.221575
3,232,0,55184,1419,2049,3994,56080,4960,-6784,1216,54164,299,-58,-132,1389634570.221584
2,233,0,60036,-89,-420,681,60563,4672,-7792,-2672,59827,165,-363,-60,1389634570.221858
3,233,0,57184,1087,1837,4019,57957,4144,-5536,560,56743,287,-20,-146,1389634570.221864
2,234,0,62025,-128,-265,585,62442,4080,-7168,-3376,62389,167,-361,-54,1389634570.239512
3,234,0,59183,611,1640,3912,59834,2112,-4080,160,59322,277,-240,-154,1389634570.239522
2,235,0,64015,-252,-176,457,64322,3184,-7552,-2352,62389,167,-361,-54,1389634570.250783
3,235,0,61183,201,1490,3762,61711,1040,-3488,-688,59322,277,-240,-154,1389634570.250792
2,236,0,468,-317,-133,483,665,3200,-7568,-880,64952,172,-357,-56,1389634570.251010
3,236,0,63182,-348,1404,3674,63589,384,-2480,-624,61900,263,46,-162,1389634570.263078
2,237,0,2458,-277,-148,380,2544,3104,-7712,-544,1978,172,-355,-51,1389634570.263448
3,237,0,65181,-744,1584,3487,65466,5936,-2496,736,64478,242,72,-173,1389634570.263459
2,238,0,4447,-219,-156,312,4423,3104,-7680,-768,4539,176,-352,-49,1389634570.281680
3,238,0,1645,-884,1687,3501,1807,12608,-3888,2352,1521,225,91,-183,1389634570.281695
2,239,0,6437,-184,-161,277,6303,3184,-7440,-1344,4539,176,-352,-49,1389634570.282029
3,239,0,3644,-831,1404,2795,3685,11152,-3840,4048,1521,225,91,-183,1389634570.282040
2,240,0,8426,-194,-142,248,8182,2960,-7232,-1200,7100,177,-351,-50,1389634570.300163
3,240,0,4644,-697,1201,2214,5562,9248,-2480,5872,4099,203,106,-193,1389634570.300172
2,241,0,9421,-197,-140,236,10061,2912,-7344,-1088,9660,179,-353,-47,1389634570.312078
3,241,0,6643,-85,766,1220,7439,8688,-1920,6544,6678,187,121,-196,1389634570.312087
2,242,0,11411,-192,-143,253,11939,3040,-7424,-896,12223,180,-349,-47,1389634570.312374
3,242,0,8643,733,214,280,9317,8160,-1824,6240,9257,178,131,-196,1389634570.312381
2,243,0,13400,-153,-139,268,13819,3040,-7344,-944,12223,180,-349,-47,1389634570.330491
3,243,0,10642,1406,-282,-717,11194,8704,-2272,5600,9257,178,131,-196,1389634570.330507
2,244,0,15390,-124,-146,254,15699,3280,-7296,-1136,14784,183,-344,-44,1389634570.336730
3,244,0,12641,1909,-703,-1702,13071,9024,-2208,4864,11836,175,133,-189,1389634570.336985
2,245,0,17379,-98,-149,247,17578,2672,-7376,-1312,17345,183,-346,-44,1389634570.348490
3,245,0,14641,2282,-997,-2788,14948,9552,-2144,3888,14415,178,133,-174,1389634570.348499
2,246,0,19369,-110,-141,224,19456,2992,-7184,-1392,17345,183,-346,-44,1389634570.359929
3,246,0,16640,2509,-1193,-3826,16825,9504,-1824,3088,14415,178,133,-174,1389634570.359944
2,247,0,21359,-130,-151,215,21335,3344,-7312,-1088,19908,183,-344,-42,1389634570.372112
3,247,0,18640,2559,-1292,-4808,18703,8864,-1808,2192,16993,193,124,-158,1389634570.372121
2,248,0,23348,-137,-134,210,23213,3744,-7184,-1184,22468,183,-343,-41,1389634570.372411
3,248,0,19639,2511,-1303,-5234,20580,8432,-1680,1984,19571,213,112,-145,1389634570.372417
2,249,0,25338,-134,-132,195,25092,3200,-7168,-1504,25030,189,-341,-40,1389634570.390770
3,249,0,21639,2301,-1246,-5956,22457,8192,-1488,1232,22149,237,80,-128,1389634570.390786
2,250,0,26332,-151,-128,170,26971,3232,-7088,-1600,25030,189,-341,-40,1389634570.391088
3,250,0,23638,1945,-1093,-6478,24334,5696,-576,-128,22149,237,80,-128,1389634570.397208
2,251,0,28322,-161,-97,150,28850,3248,-7392,-1216,27591,187,-341,-39,1389634570.409101
3,251,0,25637,1420,-959,-6780,26212,2448,432,-464,24727,262,42,-106,1389634570.409116
2,252,0,30311,-148,-98,154,30728,3168,-7312,-1152,30154,191,-338,-38,1389634570.421470
3,252,0,27637,868,-952,-6743,28089,-1104,-144,352,27305,289,4,-98,1389634570.421485
2,253,0,32301,-122,-96,118,32607,3344,-7328,-1200,32715,190,-339,-39,1389634570.421812
3,253,0,29636,432,-876,-6173,29966,-304,-1680,1584,29885,299,224,-86,1389634570.421823
2,254,0,34291,-111,-82,113,34486,3424,-7248,-864,32715,190,-339,-39,1389634570.440118
3,254,0,31636,130,-862,-5287,31844,2528,-1920,2928,29885,299,224,-86,1389634570.440133
2,255,0,36280,-82,-61,94,36365,3712,-7216,-672,35277,190,-343,-36,1389634570.451441
3,255,0,33635,27,-1044,-4983,33721,2352,-1088,3600,32464,313,-65,-78,1389634570.451450
2,0,0,38270,-38,-60,99,38245,3328,-7152,-624,37838,192,-339,-37,1389634570.451713
3,0,0,34635,48,-1142,-4910,35598,2272,-1136,4032,35041,319,-99,-66,1389634570.451720
2,1,0,40259,-2,-53,114,40124,3440,-7232,-784,37838,192,-339,-37,1389634570.469646
3,1,0,36634,222,-1237,-4608,37007,2992,-1808,3968,35041,319,-99,-66,1389634570.469655
2,2,0,41254,14,-56,97,42003,3344,-7344,-1008,40398,190,-338,-33,1389634570.481991
3,2,0,38633,371,-1359,-4246,38884,3744,-3536,3600,37619,326,-130,-57,1389634570.482007
2,3,0,43244,34,-45,105,43882,3456,-7312,-880,42959,196,-337,-35,1389634570.482334
3,3,0,40633,405,-1589,-3946,40761,4560,-5040,3296,40198,324,-161,-46,1389634570.482345
2,4,0,45233,55,-39,132,45762,3520,-7360,-1008,45520,196,-336,-35,1389634570.499952
3,4,0,42632,310,-1828,-3728,42638,5152,-6064,3136,42777,321,-189,-40,1389634570.499968
2,5,0,47223,61,-38,126,47641,3648,-7120,-1152,45520,196,-336,-35,1389634570.512023
3,5,0,44632,124,-2026,-3625,44515,5712,-7024,3024,42777,321,-189,-40,1389634570.512032
2,6,0,49212,50,-37,127,49521,3424,-7152,-960,48082,193,-336,-33,1389634570.512233
3,6,0,46631,-148,-2204,-3515,46392,6960,-8032,3040,45355,315,-215,-30,1389634570.512238
2,7,0,51202,56,-34,132,51400,3552,-7136,-896,50643,194,-334,-33,1389634570.529373
3,7,0,48630,-466,-2409,-3472,48269,7952,-8608,3280,47933,302,-241,-17,1389634570.529388
2,8,0,53191,68,-35,135,53279,3264,-7200,-832,53203,196,-334,-36,1389634570.540860
3,8,0,49630,-611,-2489,-3477,50146,8400,-9184,3888,50513,293,-8,-5,1389634570.540870
2,9,0,55181,85,-33,165,55157,3616,-7088,-976,53203,196,-334,-36,1389634570.541114
3,9,0,51629,-808,-2623,-3469,52022,9024,-10176,4592,50513,293,-8,-5,1389634570.547378
2,10,0,57170,86,-22,131,57036,3712,-7088,-1104,55763,195,-332,-36,1389634570.559474
3,10,0,53629,-878,-2753,-3451,53900,9648,-11072,5088,53092,284,-292,10,1389634570.559483
2,11,0,58165,89,-28,128,58916,3568,-7008,-944,58325,198,-332,-36,1389634570.571826
3,11,0,55628,-880,-2899,-3422,55777,10912,-11824,5760,55671,276,-328,31,1389634570.571841
2,12,0,60155,77,-24,132,60795,3552,-6992,-1072,60887,197,-336,-34,1389634570.572156
3,12,0,57628,-855,-2990,-3403,57655,12384,-12160,6224,55671,276,-328,31,1389634570.572167
2,13,0,62144,77,-35,134,62674,3536,-7056,-1216,60887,197,-336,-34,1389634570.590479
3,13,0,59627,-811,-3050,-3418,59532,14256,-12080,6448,58251,267,-360,63,1389634570.590495
2,14,0,64134,71,-49,149,64553,3600,-6992,-1248,63449,198,-329,-33,1389634570.596476
3,14,0,61626,-768,-2999,-3495,61409,15808,-11264,6912,60831,243,-392,95,1389634570.596793
2,15,0,587,44,-42,171,896,3488,-7184,-1104,473,205,-329,-36,1389634570.609000
3,15,0,63626,-643,-2805,-3616,63286,16336,-9840,7184,63411,210,-417,120,1389634570.609010
2,16,0,2577,55,-54,150,2776,3456,-7216,-1104,473,205,-329,-36,1389634570.620959
3,16,0,64625,-577,-2670,-3683,65163,15344,-8192,6496,63411,210,-417,120,1389634570.620968
2,17,0,4566,58,-45,173,4654,3520,-7200,-752,3034,205,-329,-36,1389634570.621213
3,17,0,1089,-479,-2317,-3713,1504,13616,-7056,4384,454,171,-430,143,1389634570.621461
2,18,0,6556,61,-37,185,6533,3728,-7184,-1056,5596,200,-326,-37,1389634570.639416
3,18,0,3088,-600,-1933,-3535,3381,12160,-6720,1616,3034,128,-435,160,1389634570.639430
2,19,0,8545,66,-41,200,8413,3488,-7232,-1248,8158,200,-325,-34,1389634570.651131
3,19,0,5088,-1078,-1600,-3128,5259,10592,-6864,-2912,5613,89,-430,177,1389634570.651186
2,20,0,9540,68,-46,203,10292,3600,-7280,-1088,8158,200,-325,-34,1389634570.651395
3,20,0,7087,-1883,-1577,-2596,7136,12080,-4704,-4320,5613,89,-430,177,1389634570.651561
2,21,0,11530,59,-58,187,12171,3664,-7344,-1296,10718,203,-327,-37,1389634570.669329
3,21,0,9086,-2642,-1595,-2098,9013,15232,-1344,-464,8192,61,-425,196,1389634570.669345
2,22,0,13519,67,-62,200,14051,3920,-7264,-1552,13280,202,-323,-36,1389634570.681528
3,22,0,11086,-2398,-1537,-1603,10890,18592,3392,-448,10771,37,-407,216,1389634570.681544
2,23,0,15509,64,-63,240,15930,4064,-7280,-1392,15840,206,-323,-37,1389634570.681896
3,23,0,13085,-1862,-1268,-1171,12767,18480,6272,-2512,10771,37,-407,216,1389634570.681907
2,24,0,17498,30,-81,301,17809,4080,-7408,-1408,15840,206,-323,-37,1389634570.700216
3,24,0,14085,-1637,-998,-930,14644,15824,6336,-1104,13350,17,-395,226,1389634570.700231
2,25,0,19488,18,-105,309,19689,3600,-7536,-1008,18402,207,-323,-35,1389634570.711510
3,25,0,16084,-1037,-453,-207,16521,13184,5088,2816,15929,5,-385,233,1389634570.711518
2,26,0,21478,34,-130,340,21569,3568,-7584,-640,20965,208,-319,-36,1389634570.711755
3,26,0,18084,-65,34,418,18399,11136,1936,4112,18509,4,-383,231,1389634570.711762
2,27,0,23467,257,-171,416,23448,1280,-8736,-2448,23525,210,-317,-36,1389634570.729834
3,27,0,20083,793,186,865,20275,10208,-768,3040,18509,4,-383,231,1389634570.729849
2,28,0,25457,66,-132,633,25327,2672,-8192,-1776,23525,210,-317,-36,1389634570.742180
3,28,0,22082,1464,26,1186,22152,10288,-2000,2944,21088,4,-385,220,1389634570.742195
2,29,0,26451,-12,-107,813,27206,3664,-7856,-528,26087,211,-312,-34,1389634570.742522
3,29,0,24082,1718,-110,1507,24029,2320,-7200,2896,23668,7,-392,211,1389634570.742533
2,30,0,28441,135,-157,999,29086,2960,-8336,-1280,28648,220,-305,-34,1389634570.760723
3,30,0,26081,1585,-821,1584,25906,-2464,-7984,9008,26247,13,-396,200,1389634570.760732
2,31,0,30430,133,-104,1154,30965,2912,-8688,-448,28648,220,-305,-34,1389634570.760978
3,31,0,28081,1728,-679,1867,27782,-3328,-9136,7600,26247,13,-396,200,1389634570.767147
2,32,0,32420,198,-103,1386,32844,2864,-8928,-576,31210,220,-303,-31,1389634570.779460
3,32,0,29080,1769,-623,2361,29659,0,-5376,1168,28826,13,-397,188,1389634570.779475
2,33,0,34410,298,-102,1625,34723,2864,-8912,-624,33772,225,-295,-35,1389634570.791335
3,33,0,31080,1745,-569,3179,31535,1744,-3904,-1616,31405,25,-395,176,1389634570.791350
2,34,0,36399,410,-113,1882,36602,3088,-8944,-320,36334,232,-282,-36,1389634570.791669
3,34,0,33079,1644,-146,3698,33413,7712,-7552,-1152,31405,25,-395,176,1389634570.791680
2,35,0,38389,538,-175,2150,38480,3040,-9232,192,36334,232,-282,-36,1389634570.809270
3,35,0,35078,1573,168,3667,35290,8400,-10752,-1280,33984,37,-391,163,1389634570.809278
2,36,0,40378,757,-210,2465,40359,2336,-9568,560,38896,241,-272,-36,1389634570.821446
3,36,0,37078,1351,725,3064,37167,11840,-14256,-5264,36563,52,-387,151,1389634570.821461
2,37,0,41373,910,-230,2651,42238,2128,-10080,-208,41458,248,-511,-37,1389634570.821791
3,37,0,39077,735,853,2453,39044,10288,-12880,-6464,39143,66,-383,145,1389634570.821802
2,38,0,43363,1232,-304,3142,44116,2496,-10128,16,44020,258,-232,-39,1389634570.839411
3,38,0,41077,276,1063,1439,40921,8160,-10640,-5472,39143,66,-383,145,1389634570.839420
2,39,0,45352,1751,-398,3759,45995,4672,-10224,-464,44020,258,-232,-39,1389634570.851074
3,39,0,43076,-1,1053,1015,42798,7152,-9872,-2736,41722,78,-379,142,1389634570.851084
2,40,0,47342,2614,-510,4396,47874,7152,-11184,-2416,46581,271,-209,-43,1389634570.851374
3,40,0,44076,-109,904,899,44675,6320,-8208,1280,44302,83,-376,134,1389634570.851576
2,41,0,49331,3267,-587,4866,49753,7920,-12048,-3408,49142,281,-179,-43,1389634570.868931
3,41,0,46075,-162,548,735,46552,4432,-5792,4256,46882,90,-373,134,1389634570.868940
2,42,0,51321,3679,-739,5047,51632,7408,-12512,-5856,51704,294,-147,-36,1389634570.880759
3,42,0,48075,-134,369,613,48428,2976,-4912,5008,46882,90,-373,134,1389634570.880775
2,43,0,53310,3666,-1092,5076,53511,7584,-11360,-9712,51704,294,-147,-36,1389634570.881166
3,43,0,50074,32,369,770,50305,6656,-6736,6768,49460,96,-373,133,1389634570.887458
2,44,0,55300,2818,-1530,4954,55390,6864,-10048,-9360,54265,301,-112,-35,1389634570.899818
3,44,0,52073,320,468,1079,52181,4672,-5376,4320,52040,99,-368,129,1389634570.899833
2,45,0,57289,1831,-1747,4786,57269,7968,-10192,-5040,56827,312,-86,-19,1389634570.912001
3,45,0,54073,448,470,543,54057,4320,-6272,2032,52040,99,-368,129,1389634570.912011
2,46,0,58284,1633,-1819,4722,59148,12576,-9328,-2048,56827,312,-86,-19,1389634570.912281
3,46,0,56072,435,480,746,55935,5984,-7744,1600,54618,103,-369,124,1389634570.912287
2,47,0,60274,1800,-2021,4525,61026,13520,-8576,-3168,59388,312,-60,1,1389634570.930532
3,47,0,58071,449,413,767,57811,4416,-6512,1392,57197,108,-366,117,1389634570.930546
2,48,0,62263,2095,-1914,4084,62906,11664,-10784,-2480,61950,310,-37,19,1389634570.936832
3,48,0,59071,455,393,493,59688,4400,-7120,1072,59775,109,-369,114,1389634570.937154
2,49,0,64253,2389,-1747,3368,64785,9936,-10192,-16,64511,309,-25,37,1389634570.949538
3,49,0,61071,426,388,647,61565,4208,-7136,1392,59775,109,-369,114,1389634570.949553
2,50,0,706,2580,-1775,2754,1127,3648,-6112,-1184,64511,309,-25,37,1389634570.961617
3,50,0,63070,410,329,503,63443,4288,-7264,416,62354,113,-366,112,1389634570.961632
2,51,0,2696,2799,-1941,1583,3007,0,-6832,-1888,1536,305,-25,56,1389634570.961929
3,51,0,65069,359,267,470,65320,4752,-7600,528,64934,116,-362,108,1389634570.961940
2,52,0,4685,2753,-1957,161,4885,5440,-5584,-1664,4099,302,-33,75,1389634570.980263
3,52,0,1533,306,225,451,1661,4512,-7280,336,1976,118,-360,106,1389634570.980278
2,53,0,6675,2437,-2610,-200,6764,7920,-7632,-2752,6662,304,-46,95,1389634570.992654
3,53,0,3532,254,174,265,3538,4480,-7104,1008,1976,118,-360,106,1389634570.992669
2,54,0,8664,1908,-2461,-1103,8643,1488,-5936,-1456,6662,304,-46,95,1389634570.992995
3,54,0,5531,238,142,224,5416,4048,-6800,1056,4555,123,-370,103,1389634570.993005
2,55,0,9659,1874,-2253,-1454,10521,-1584,-4880,-2272,9225,299,-73,116,1389634571.11179
3,55,0,7531,222,135,167,7293,3328,-6656,1168,7135,123,-366,103,1389634571.11188
2,56,0,11649,1632,-1818,-2029,12400,-2000,-4352,-1920,11787,297,-94,128,1389634571.11435
3,56,0,8531,219,128,160,9170,4192,-6736,1120,7135,123,-366,103,1389634571.11682
2,57,0,13638,1276,-1481,-2283,14279,-2624,-3792,-736,11787,297,-94,128,1389634571.29760
3,57,0,10530,225,133,182,11047,3728,-6224,1504,9714,125,-362,101,1389634571.29775
2,58,0,15628,1010,-1151,-2323,16158,-2192,-3904,16,14349,292,-121,137,1389634571.42112
3,58,0,12529,220,151,122,12925,4128,-6592,1200,12292,126,-365,97,1389634571.42127
2,59,0,17617,806,-762,-2233,18037,-1488,-4128,736,16910,289,-147,142,1389634571.42455
3,59,0,14529,217,154,139,14803,3968,-6640,1040,14871,127,-362,95,1389634571.42466
2,60,0,19607,680,-379,-2277,19916,-1136,-4240,1728,19472,277,-171,143,1389634571.60722
3,60,0,16528,202,160,158,16681,4064,-6352,1088,14871,127,-362,95,1389634571.60737
2,61,0,21597,688,-27,-2391,21325,-576,-4416,2176,19472,277,-171,143,1389634571.66942
3,61,0,18527,199,164,161,18558,3968,-6560,1104,17450,128,-365,98,1389634571.67203
2,62,0,23586,770,227,-2466,23205,0,-4656,2448,22034,277,-192,137,1389634571.79554
3,62,0,20527,213,172,160,20435,4016,-6480,1216,20028,129,-361,92,1389634571.79569
2,63,0,24581,813,345,-2543,25083,512,-5056,2528,24595,275,-221,128,1389634571.91974
3,63,0,22526,220,180,150,22312,4304,-6432,1248,22607,133,-361,90,1389634571.91989
2,64,0,26570,903,518,-2687,26962,1344,-5824,2336,27157,262,-246,116,1389634571.92316
3,64,0,23526,213,183,151,24189,4208,-6448,992,22607,133,-361,90,1389634571.92327
2,65,0,28560,947,612,-2912,28841,1776,-6400,2352,27157,262,-246,116,1389634571.110200
3,65,0,25525,219,181,122,26066,4288,-6416,1072,25187,132,-362,93,1389634571.110216
2,66,0,30550,942,660,-3150,30720,2336,-6912,2544,29717,255,-18,107,1389634571.122390
3,66,0,27525,217,182,112,27943,4560,-6736,800,27765,130,-363,88,1389634571.122400
2,67,0,32539,927,645,-3387,32599,2704,-7264,2816,32278,242,-297,96,1389634571.122673
3,67,0,29524,222,163,106,29820,4368,-6432,976,27765,130,-363,88,1389634571.122723
2,68,0,34529,907,564,-3653,34478,2848,-7584,3104,34840,226,-320,86,1389634571.140829
3,68,0,31524,209,155,70,31697,4048,-6656,800,30342,131,-359,85,1389634571.140844
2,69,0,36518,942,435,-3886,36358,3088,-7824,3472,34840,226,-320,86,1389634571.141153
3,69,0,33523,198,161,67,33574,4064,-6640,992,32922,134,-359,83,1389634571.147386
2,70,0,38508,1035,271,-4073,38238,3360,-8128,3808,37401,209,-339,78,1389634571.159540
3,70,0,35522,200,164,58,35452,4048,-6640,1168,35500,135,-361,82,1389634571.159555
2,71,0,40497,1162,80,-4231,40118,3584,-8528,3808,39963,188,-358,66,1389634571.171862
3,71,0,37522,187,173,61,37329,4256,-6656,864,35500,135,-361,82,1389634571.171871
2,72,0,41492,1219,-27,-4296,41997,4000,-8976,3584,39963,188,-358,66,1389634571.172144
3,72,0,38521,193,177,55,39207,4416,-6496,976,38080,135,-362,78,1389634571.172151
2,73,0,43482,1292,-234,-4405,43877,4400,-9520,3568,42524,170,-378,58,1389634571.190490
3,73,0,40521,201,184,35,41084,4240,-6608,720,40659,136,-363,78,1389634571.190505
2,74,0,45471,1319,-442,-4520,45755,4576,-10032,3920,45085,154,-398,50,1389634571.196805
3,74,0,42520,179,170,40,42961,4352,-6448,784,43237,136,-362,75,1389634571.197126
2,75,0,47461,1368,-686,-4606,47634,5024,-10368,4768,47647,111,-421,45,1389634571.209525
3,75,0,44520,168,152,26,44839,4368,-6416,592,43237,136,-362,75,1389634571.209540
2,76,0,49450,1490,-947,-4662,49513,5552,-10880,5488,47647,111,-421,45,1389634571.221235
3,76,0,46519,149,145,20,46716,4384,-6560,576,45817,137,-364,76,1389634571.221244
2,77,0,51440,1675,-1269,-4647,51393,6032,-11824,5600,50209,111,-444,38,1389634571.221400
3,77,0,48518,124,127,19,48593,4400,-6608,480,48396,137,-362,71,1389634571.221406
2,78,0,53429,1817,-1614,-4598,53273,6688,-12736,5248,52770,92,-463,29,1389634571.238804
3,78,0,50518,106,96,35,50470,4224,-6496,528,48396,137,-362,71,1389634571.238814
2,79,0,55419,1869,-1968,-4585,55153,7328,-13520,4800,55331,69,-484,17,1389634571.250881
3,79,0,52517,78,90,39,52347,4448,-6672,272,50976,140,-363,73,1389634571.250891
2,80,0,57408,1880,-2350,-4549,57033,8624,-14560,4720,55331,69,-484,17,1389634571.251143
3,80,0,53517,63,93,40,54224,4240,-6576,368,53554,140,-359,68,1389634571.257380
2,81,0,58403,1883,-2535,-4531,58912,9936,-15248,4656,57892,44,-500,5,1389634571.269448
3,81,0,55516,29,78,58,56101,4192,-6544,352,56133,140,-363,70,1389634571.269457
2,82,0,60393,1925,-2866,-4548,60792,10800,-15792,4352,60453,16,-266,-7,1389634571.281527
3,82,0,57516,7,83,85,57977,4192,-6416,496,56133,140,-363,70,1389634571.281536
2,83,0,62382,1968,-3085,-4579,62671,11360,-16320,4160,63015,-15,-534,-18,1389634571.281803
3,83,0,59515,1,99,134,59854,4480,-6496,464,58711,140,-364,70,1389634571.281810
2,84,0,64372,2008,-3117,-4592,64551,12320,-15920,4368,63015,-15,-534,-18,1389634571.300063
3,84,0,61514,-19,105,178,61730,4320,-6656,464,61290,140,-357,67,1389634571.300078
2,85,0,825,2072,-2994,-4630,894,12224,-14064,3296,40,-46,-543,-36,1389634571.312497
3,85,0,63514,-21,79,163,63608,4512,-6448,560,63868,140,-360,67,1389634571.312512
2,86,0,2815,1981,-2815,-4579,2774,11936,-12016,2096,2601,-83,-553,-51,1389634571.312853
3,86,0,65513,-22,73,149,65486,4480,-6336,912,63868,140,-360,67,1389634571.312860
2,87,0,4804,1725,-2634,-4343,4653,11664,-9792,2448,2601,-83,-553,-51,1389634571.331023
3,87,0,1976,-17,82,133,1827,4624,-6176,656,911,141,-355,71,1389634571.331032
2,88,0,6794,1561,-2348,-3956,6533,11552,-7600,3872,5163,-152,-554,-63,1389634571.331273
3,88,0,2976,-18,61,125,3704,4464,-6768,256,3489,141,-359,70,1389634571.331525
2,89,0,7789,1520,-2247,-3694,8411,12432,-5264,4736,7724,-152,-554,-74,1389634571.349024
3,89,0,4976,-58,42,135,5582,4272,-6688,320,3489,141,-359,70,1389634571.349034
2,90,0,9778,1437,-2094,-3108,10291,14592,-2688,4128,10286,-181,-550,-89,1389634571.360405
3,90,0,6975,-91,39,168,7459,3296,-7456,208,6068,144,-356,69,1389634571.360414
2,91,0,11768,1173,-1997,-2552,12170,17168,720,3808,10286,-181,-550,-89,1389634571.372493
3,91,0,8974,-104,23,214,9337,4176,-7008,880,8647,144,-357,71,1389634571.372502
2,92,0,13757,734,-2032,-2078,14050,18400,3808,5248,12848,-206,-552,-99,1389634571.372818
3,92,0,10974,-95,19,280,11214,3744,-6720,336,11226,148,-352,69,1389634571.372824
2,93,0,15747,492,-2259,-1489,15929,16192,4608,5616,15410,-221,-547,-108,1389634571.391060
3,93,0,12973,-73,27,362,13091,4544,-7232,592,11226,148,-352,69,1389634571.391075
2,94,0,17736,425,-2624,-653,17809,13872,1952,3264,17973,-231,-546,-116,1389634571.391329
3,94,0,14973,-25,72,451,14968,4160,-7408,1104,13805,148,-354,73,1389634571.391584
2,95,0,19726,240,-2888,252,19689,13168,-2080,256,17973,-231,-546,-116,1389634571.409795
3,95,0,16972,126,62,513,16845,2720,-8912,-176,16383,152,-348,69,1389634571.409810
2,96,0,21716,-100,-2901,703,21568,12336,-4032,-1008,20535,-227,-554,-124,1389634571.421247
3,96,0,18971,-200,87,703,18722,3184,-7856,1584,18961,152,-345,70,1389634571.421254
2,97,0,23705,-423,-2699,780,23447,6208,-6560,-7584,23096,-223,-554,-126,1389634571.421535
3,97,0,19971,-129,65,872,20600,3872,-8304,960,18961,152,-345,70,1389634571.421542
2,98,0,24700,-1061,-2475,778,25327,8256,-7552,-2832,23096,-223,-554,-126,1389634571.439580
3,98,0,21970,-37,69,1106,22478,3328,-9040,800,21540,160,-341,75,1389634571.439595
2,99,0,26689,-1646,-2012,1121,27207,-464,-8800,-6096,25658,-213,-561,-119,1389634571.451932
3,99,0,23970,-87,67,1366,24355,2992,-9120,960,24119,160,-332,71,1389634571.451947
2,100,0,28679,-2452,-1254,771,29086,-8496,-15680,-5424,28220,-199,-567,-106,1389634571.452205
3,100,0,25969,-58,69,1718,26233,2608,-9792,1232,24119,160,-332,71,1389634571.452213
2,101,0,30669,-1864,-462,686,30966,-15088,-21328,-13888,30781,-189,-572,-94,1389634571.470559
3,101,0,27969,-53,116,2126,28111,2352,-10496,2000,26697,168,-322,70,1389634571.470574
2,102,0,32658,-2329,377,322,32846,-9504,-7600,-9216,30781,-189,-572,-94,1389634571.476846
3,102,0,29968,-11,165,2598,29988,1744,-11056,1344,29276,176,-307,67,1389634571.477084
2,103,0,34648,-3121,365,21,34726,3808,-720,6752,33343,-180,-576,-71,1389634571.489345
3,103,0,31967,19,229,3097,31866,1824,-11568,2688,31855,188,-290,67,1389634571.489355
2,104,0,36637,-1678,474,1439,36606,8560,-9808,7968,35905,-180,-579,-52,1389634571.501637
3,104,0,33967,-6,460,3626,33743,960,-10464,2192,31855,188,-290,67,1389634571.501652
2,105,0,38627,-905,245,1722,38486,8432,-13696,6576,38468,-173,-583,-46,1389634571.501985
3,105,0,34966,-5,607,3904,35621,2672,-10368,3088,34434,201,-274,64,1389634571.501996
2,106,0,40616,-540,-221,1253,40366,5952,-10912,7872,38468,-173,-583,-46,1389634571.520351
3,106,0,36966,126,935,4572,37498,5296,-10656,5280,37013,217,-498,58,1389634571.520367
2,107,0,41611,-252,-353,1049,42246,2272,-7920,3840,41030,-160,-584,-42,1389634571.532517
3,107,0,38965,466,1270,5233,39374,11808,-11056,7040,39592,234,-212,44,1389634571.532525
2,108,0,43601,209,-433,951,44125,288,-8912,-1136,43592,-152,-585,-43,1389634571.532797
3,108,0,40965,1022,1488,5624,41251,13248,-10528,7456,39592,234,-212,44,1389634571.532803
2,109,0,45590,329,-322,1054,46004,1488,-8368,-2944,46154,-144,-586,-44,1389634571.551060
3,109,0,42964,1527,1670,5530,43128,9648,-9392,7472,42170,246,-183,35,1389634571.551076
2,110,0,47580,215,-250,1096,47884,2880,-7024,-3184,46154,-144,-586,-44,1389634571.551398
3,110,0,44963,1941,1776,5256,45005,8688,-7840,6224,44749,261,-156,17,1389634571.551618
2,111,0,49569,153,-229,1047,49763,2944,-7280,-3792,48715,-133,-585,-45,1389634571.569900
3,111,0,46963,2214,2083,5081,46882,10064,-5952,7584,44749,261,-156,17,1389634571.569915
2,112,0,51559,30,-181,1024,51643,2720,-7456,-4256,51278,-128,-584,-49,1389634571.581534
3,112,0,48962,3081,2526,4607,48758,9648,-3488,8096,47328,269,-128,0,1389634571.581544
2,113,0,53548,-117,-104,975,53522,2592,-7344,-3888,51278,-128,-584,-49,1389634571.581814
3,113,0,49962,3651,2614,4307,50635,8912,-2736,7152,49907,280,-101,-21,1389634571.581820
2,114,0,55538,-234,-11,971,55401,2304,-7344,-2848,53839,-121,-592,-49,1389634571.599743
3,114,0,51961,4501,2605,3943,52512,8336,-5680,6464,52487,286,-79,-42,1389634571.599759
2,115,0,56533,-273,14,977,57280,2176,-7168,-1472,56402,-110,-590,-46,1389634571.612100
3,115,0,53961,5181,2561,3670,54390,8976,-6448,4576,52487,286,-79,-42,1389634571.612182
2,116,0,58522,-317,31,1012,59160,2832,-8064,-848,58964,-105,-587,-44,1389634571.612516
3,116,0,55960,5374,2217,3611,56266,9952,-5424,3984,55066,287,-61,-57,1389634571.612537
2,117,0,60512,-297,-18,1069,61039,3904,-8496,-176,58964,-105,-587,-44,1389634571.630653
3,117,0,57959,5247,1700,3059,58142,5760,-2464,3104,57644,289,-38,-67,1389634571.630663
2,118,0,62501,-253,-77,933,62920,4192,-8144,-496,61526,-89,-585,-43,1389634571.630859
3,118,0,59959,5240,1089,2075,60018,-3456,-1808,-128,57644,289,-38,-67,1389634571.643048
2,119,0,64491,-176,-100,744,64800,4128,-8288,-1536,64087,-89,-586,-40,1389634571.643412
3,119,0,61958,4723,513,965,61896,8960,-4112,-3104,60223,289,-29,-72,1389634571.643424
2,120,0,944,-138,-24,588,1145,3872,-8064,-1792,1112,-81,-584,-43,1389634571.661523
3,120,0,63958,3569,-155,1367,63773,18688,-7568,-4336,62801,289,-19,-67,1389634571.661538
2,121,0,2934,-172,60,451,3025,4336,-8368,-1344,1112,-81,-584,-43,1389634571.661867
3,121,0,64957,3018,-440,434,114,8848,-5488,2128,65380,289,-25,-67,1389634571.661878
2,122,0,4923,-217,18,349,4905,3792,-7936,464,3674,-73,-588,-41,1389634571.679935
3,122,0,1421,2771,-624,-1436,1991,4688,-4032,2864,65380,289,-25,-67,1389634571.679942
2,123,0,6913,-108,-21,210,6784,2768,-7584,464,6235,-71,-586,-38,1389634571.691906
3,123,0,3420,2683,-721,-2200,3869,3168,-3152,3584,2423,293,-38,-57,1389634571.691921
2,124,0,7908,-57,-64,208,8664,2448,-7392,-416,8797,-72,-587,-37,1389634571.692250
3,124,0,5419,2649,-650,-2704,5746,2160,-2384,4288,5001,298,-56,-52,1389634571.692260
2,125,0,9897,9,-86,234,10544,2784,-7216,-1120,8797,-72,-587,-37,1389634571.710587
3,125,0,7419,2808,-423,-3004,7623,1936,-2240,4784,7580,298,-77,-54,1389634571.710602
2,126,0,11887,39,-96,272,12423,3264,-7456,-1136,11359,-71,-587,-40,1389634571.716765
3,126,0,9418,3027,-89,-3154,9500,2224,-2304,4880,7580,298,-77,-54,1389634571.717073
2,127,0,13876,46,-89,302,14303,3456,-7616,-1232,13921,-68,-585,-40,1389634571.729292
3,127,0,11418,3223,230,-3203,11377,2528,-2688,5216,10158,298,-100,-53,1389634571.729300
2,128,0,15866,62,-82,268,16183,3248,-7408,-1408,13921,-68,-585,-40,1389634571.741370
3,128,0,13417,3369,445,-3187,13255,3184,-2896,5712,12737,299,-119,-64,1389634571.741380
2,129,0,17855,59,-78,256,18062,3088,-7200,-1824,16483,-65,-590,-42,1389634571.741648
3,129,0,14417,3432,507,-3169,15132,4544,-3024,6224,12737,299,-119,-64,1389634571.741654
2,130,0,19845,42,-62,232,19942,2688,-7008,-1760,19044,-60,-589,-37,1389634571.759602
3,130,0,16416,3505,589,-3217,17008,6144,-2944,6336,15315,297,-142,-73,1389634571.759617
2,131,0,21835,10,-62,266,21822,2752,-7264,-1392,21606,-60,-587,-40,1389634571.771999
3,131,0,18415,3485,638,-3416,18885,7872,-3168,6000,17895,298,-164,-82,1389634571.772014
2,132,0,23824,6,-81,298,23702,2912,-7280,-976,21606,-60,-587,-40,1389634571.772398
3,132,0,20415,3380,586,-3738,20763,9008,-3584,5424,20473,293,-188,-100,1389634571.772409
2,133,0,24819,18,-89,294,25582,3120,-7312,-1184,24167,-59,-585,-42,1389634571.790483
3,133,0,22414,3187,414,-4129,22639,9632,-4048,5616,20473,293,-188,-100,1389634571.790493
2,134,0,26808,47,-110,287,27461,3184,-7312,-1760,26729,-56,-586,-40,1389634571.796711
3,134,0,24414,2929,159,-4489,24516,9696,-4224,6720,23050,290,-213,-112,1389634571.797022
2,135,0,28798,30,-92,248,29340,2848,-7136,-1664,29290,-54,-587,-40,1389634571.809201
3,135,0,26413,2688,-116,-4802,26394,9536,-4128,7920,25628,279,-242,-124,1389634571.809211
2,136,0,30788,-3,-97,221,31219,2928,-7200,-1536,29290,-54,-587,-40,1389634571.821368
3,136,0,28412,2590,-411,-5048,28272,9984,-3792,8960,28206,270,-13,-132,1389634571.821384
2,137,0,32777,-27,-107,208,33099,3392,-7424,-1312,31852,-51,-587,-39,1389634571.821649
3,137,0,29412,2588,-554,-5130,30149,10352,-3440,9888,28206,270,-13,-132,1389634571.821656
2,138,0,34767,-29,-102,131,34978,3680,-7456,-1424,34415,-51,-585,-39,1389634571.838880
3,138,0,31411,2664,-851,-5251,32027,10592,-3104,10640,30785,259,-301,-144,1389634571.838890
2,139,0,36756,-67,-99,52,36857,3632,-7280,-1504,34415,-51,-585,-39,1389634571.850464
3,139,0,33411,2777,-1189,-5295,33905,11248,-3264,11056,33364,246,-326,-153,1389634571.850474
2,140,0,38746,-76,-81,-12,38737,3088,-7248,-1168,36978,-49,-584,-39,1389634571.856080
3,140,0,35410,2855,-1604,-5285,35782,11936,-3568,10944,33364,246,-326,-153,1389634571.856294
2,141,0,39740,-63,-83,-26,40616,2240,-7248,-1376,39540,-49,-583,-38,1389634571.868303
3,141,0,37410,2857,-2108,-5272,37660,11984,-3984,11040,35943,238,-355,-156,1389634571.868319
2,142,0,41730,-53,-90,-8,42495,2416,-7296,-1552,42101,-50,-584,-42,1389634571.880703
3,142,0,39409,2821,-2657,-5157,39537,12080,-4208,11744,38522,222,-391,-159,1389634571.880718
2,143,0,43720,-44,-110,63,44374,3152,-7264,-944,42101,-50,-584,-42,1389634571.881015
3,143,0,41408,2737,-3155,-4985,41415,11824,-4320,12016,41100,206,-418,-160,1389634571.887378
2,144,0,45709,-37,-116,55,46253,3408,-7408,-1120,44662,-47,-586,-37,1389634571.899759
3,144,0,43408,2579,-3619,-4729,43293,11792,-4672,11760,41100,206,-418,-160,1389634571.899775
2,145,0,47699,-17,-98,92,48133,3232,-7168,-1376,47224,-45,-587,-39,1389634571.912162
3,145,0,44407,2462,-3824,-4557,45170,11952,-5344,11488,43678,193,-448,-157,1389634571.912178
2,146,0,49688,-27,-85,89,50011,3200,-7344,-1312,49786,-45,-583,-35,1389634571.912501
3,146,0,46407,2176,-4200,-4221,47047,12240,-5840,11472,46256,174,-475,-148,1389634571.912511
2,147,0,51678,-15,-74,127,51891,3312,-7344,-1136,49786,-45,-583,-35,1389634571.930636
3,147,0,48406,1857,-4491,-3911,48924,12688,-6112,12192,48835,150,-493,-138,1389634571.930651
2,148,0,53667,-15,-74,126,53770,3328,-7376,-1408,52348,-45,-584,-34,1389634571.936896
3,148,0,50406,1657,-4670,-3643,50801,12512,-6368,12064,48835,150,-493,-138,1389634571.937150
2,149,0,55657,-34,-81,142,55650,3040,-7296,-1168,54910,-45,-584,-37,1389634571.949400
3,149,0,52405,1458,-4718,-3428,52679,11888,-7152,11152,51414,133,-511,-127,1389634571.949409
2,150,0,56652,-32,-90,153,57529,2976,-7488,-832,57473,-42,-583,-35,1389634571.961607
3,150,0,54404,1143,-4691,-3195,54556,10976,-8272,10112,53993,107,-267,-115,1389634571.961622
2,151,0,58641,-13,-84,179,59408,3424,-7264,-1360,57473,-42,-583,-35,1389634571.961942
3,151,0,56404,639,-4569,-2970,56432,10384,-9344,9312,53993,107,-267,-115,1389634571.961954
2,152,0,60631,-18,-61,211,61288,3200,-7376,-944,60035,-46,-581,-33,1389634571.980157
3,152,0,58403,4,-4420,-2809,58310,10128,-9904,8384,56572,86,-531,-101,1389634571.980166
2,153,0,62620,9,-35,221,63167,3120,-7616,-640,62596,-39,-581,-37,1389634571.992282
3,153,0,59403,-344,-4333,-2745,60187,10272,-10176,7504,59152,64,-532,-83,1389634571.992291
2,154,0,64610,54,-18,241,65046,3520,-7472,-768,62596,-39,-581,-37,1389634571.992564
3,154,0,61402,-1050,-4119,-2675,62064,10304,-10352,6688,61731,44,-533,-60,1389634571.992570
2,155,0,1063,96,3,250,1390,3424,-7344,-720,65157,-38,-585,-34,1389634572.10683
3,155,0,63402,-1754,-3883,-2664,63941,10240,-10464,6048,61731,44,-533,-60,1389634572.10692
2,156,0,3053,131,21,271,3270,3440,-7136,-1008,2183,-37,-583,-39,1389634572.10943
3,156,0,65401,-2428,-3681,-2674,282,10176,-10496,5440,64311,24,-533,-34,1389634572.23215
2,157,0,5042,139,40,292,5149,3616,-7056,-992,4744,-36,-581,-34,1389634572.23557
3,157,0,1864,-2989,-3527,-2676,2159,9872,-10208,5504,1353,9,-536,0,1389634572.23567
2,158,0,7032,150,51,305,7028,3808,-7280,-880,4744,-36,-581,-34,1389634572.41711
3,158,0,3864,-3320,-3368,-2643,4035,10320,-9904,5216,3932,-7,-538,35,1389634572.41720
2,159,0,8027,142,79,307,8907,3216,-7280,-1840,7306,-34,-581,-43,1389634572.41990
3,159,0,5863,-3483,-3344,-2673,5912,10784,-9312,4432,3932,-7,-538,35,1389634572.41996
2,160,0,10016,139,77,322,10787,3184,-7056,-1088,9869,-28,-580,-41,1389634572.60311
3,160,0,7863,-3547,-3348,-2738,7789,10384,-8496,2320,6513,-24,-536,80,1389634572.60320
2,161,0,12006,142,61,332,12666,2400,-7440,-1776,12429,-28,-580,-40,1389634572.72021
3,161,0,8862,-3592,-3341,-2764,9666,9696,-7808,2816,9091,-48,-535,114,1389634572.72031
2,162,0,13995,85,74,362,14075,3024,-7200,-1424,12429,-28,-580,-40,1389634572.72195
3,162,0,10862,-3694,-3214,-2763,11543,10240,-7840,3984,9091,-48,-535,114,1389634572.72239
2,163,0,15985,94,51,379,15954,3472,-7344,-1152,14989,-28,-579,-46,1389634572.90371
3,163,0,12861,-3536,-2976,-2707,13420,10128,-7088,3472,11669,-81,-522,149,1389634572.90380
2,164,0,17975,93,68,432,17834,3136,-7200,-1248,17550,-24,-579,-43,1389634572.102670
3,164,0,14860,-3134,-2736,-2653,15297,10352,-6288,2336,14248,-113,-765,178,1389634572.102685
2,165,0,19964,138,78,469,19712,3584,-7264,-800,20111,-18,-577,-45,1389634572.102984
3,165,0,16860,-2673,-2438,-2547,17174,11696,-6016,2160,16829,-149,-492,194,1389634572.102997
2,166,0,21954,379,-30,448,21592,3376,-7248,-736,20111,-18,-577,-45,1389634572.121214
3,166,0,18859,-2159,-2030,-2489,19051,12304,-4448,2208,16829,-149,-492,194,1389634572.121223
2,167,0,22948,472,-44,461,23472,3744,-7088,-704,22672,-16,-573,-49,1389634572.121464
3,167,0,20859,-1607,-1478,-2420,20928,12800,-2848,768,19409,-179,-474,204,1389634572.121711
2,168,0,24938,597,-54,492,25352,3856,-7024,-624,25235,-15,-572,-52,1389634572.139823
3,168,0,22858,-1240,-835,-2306,22805,14208,-1984,-2368,21988,-208,-459,212,1389634572.139833
2,169,0,26927,661,-34,510,27232,3872,-7008,-880,25235,-15,-572,-52,1389634572.151401
3,169,0,23858,-1235,-510,-2235,24683,15856,-848,-4960,24567,-230,-447,222,1389634572.151415
2,170,0,28917,729,-14,527,29112,3744,-7392,-2128,27797,-6,-571,-59,1389634572.151744
3,170,0,25857,-1464,93,-2040,26560,15504,1184,-5024,24567,-230,-447,222,1389634572.151755
2,171,0,30907,534,57,573,30992,3584,-7344,-1072,30359,-4,-568,-64,1389634572.170137
3,171,0,27856,-1507,603,-1743,28436,13696,2352,-3296,27145,-241,-432,236,1389634572.170153
2,172,0,32896,604,53,676,32871,3568,-7456,-1392,32921,4,-569,-72,1389634572.182440
3,172,0,29856,-1113,1006,-1239,30314,11856,1744,-1472,29723,-257,-419,241,1389634572.182456
2,173,0,34886,636,49,722,34751,3488,-7616,-1120,32921,4,-569,-72,1389634572.182785
3,173,0,31855,-461,1200,-597,32191,11376,128,-928,29723,-257,-419,241,1389634572.182795
2,174,0,36875,719,23,813,36629,3344,-7824,-1440,35482,4,-561,-76,1389634572.201003
3,174,0,33855,-3,1205,-6,34068,11408,-1696,-992,32303,-261,-416,252,1389634572.201019
2,175,0,38865,786,-7,897,38508,3456,-7728,-1248,38044,14,-563,-82,1389634572.201375
3,175,0,35854,151,1053,444,35946,10848,-2896,-976,34882,-257,-413,253,1389634572.201597
2,176,0,39860,851,-24,955,40387,3584,-7856,-1248,40607,14,-558,-90,1389634572.219363
3,176,0,37853,171,768,799,37824,10048,-3264,-192,37462,-249,-418,259,1389634572.219378
2,177,0,41849,980,-69,1063,42266,3648,-7568,-1216,40607,14,-558,-90,1389634572.231737
3,177,0,38853,218,594,979,39702,-3120,-2624,21136,37462,-249,-418,259,1389634572.231752
2,178,0,43839,1023,-79,1124,44145,3632,-7360,-752,43169,24,-555,-95,1389634572.232079
3,178,0,40852,2566,-293,1313,41579,-6688,-16960,10240,40041,-240,-424,255,1389634572.232090
2,179,0,45828,1171,-44,1162,46024,3872,-7904,-528,45730,34,-549,-104,1389634572.250440
3,179,0,42852,2963,-728,1840,43457,-13584,-9616,16336,42620,-234,-442,238,1389634572.250454
2,180,0,47818,1311,6,1360,47904,3872,-8944,368,45730,34,-549,-104,1389634572.256807
3,180,0,44851,3354,-413,1544,45335,-6912,-3536,1008,45197,-233,-463,215,1389634572.257117
2,181,0,49807,1504,25,1549,49783,2720,-9680,448,48292,39,-542,-117,1389634572.269438
3,181,0,46851,3593,-1,3421,47212,7248,-6192,-10704,45197,-233,-463,215,1389634572.269453
2,182,0,51797,1801,265,1916,51662,2544,-9504,1376,50854,50,-535,-128,1389634572.281682
3,182,0,48850,2465,137,4047,49090,12096,-10704,-4448,47776,-222,-483,201,1389634572.281691
2,183,0,53786,2180,297,2259,53540,2912,-9120,1888,53416,62,-528,-143,1389634572.281963
3,183,0,50849,2131,184,3506,50968,14736,-16688,-4208,50354,-199,-496,185,1389634572.281969
2,184,0,55776,2745,537,2596,55419,4000,-10256,2848,53416,62,-528,-143,1389634572.299657
3,184,0,52849,1628,645,2670,52846,10960,-13856,-7376,50354,-199,-496,185,1389634572.299667
2,185,0,56771,3240,643,2779,57298,5600,-10832,2608,55977,75,-765,-164,1389634572.311953
3,185,0,53849,1276,792,2223,54723,7904,-10576,-5664,52933,-179,-500,175,1389634572.311968
2,186,0,58760,4567,940,3179,59177,4128,-8992,-96,58538,93,-490,-198,1389634572.312372
3,186,0,55848,512,893,1641,56600,6240,-9680,-192,55511,-162,-510,168,1389634572.312378
2,187,0,60750,5555,968,3317,61056,6208,-10944,-3904,61099,130,-461,-243,1389634572.329907
3,187,0,57847,67,817,1305,58478,5168,-7504,4416,58090,-150,-511,174,1389634572.329922
2,188,0,62739,5867,882,3822,62936,6896,-10464,-5136,61099,130,-461,-243,1389634572.342225
3,188,0,59847,-37,652,1153,60355,4688,-5792,6480,58090,-150,-511,174,1389634572.342233
2,189,0,64729,5872,663,3777,64815,7568,-9712,-7888,63660,130,-425,-279,1389634572.342512
3,189,0,61846,72,478,1098,62234,4976,-5840,5776,60669,-141,-256,174,1389634572.342518
2,190,0,1182,5563,579,3696,1158,11664,-10608,-6176,687,147,-384,-316,1389634572.359366
3,190,0,63845,219,410,1056,64111,4304,-6176,4592,63249,-131,-515,172,1389634572.359383
2,191,0,3172,5474,-22,3408,3036,12864,-9696,-6032,3249,162,-345,-335,1389634572.371407
3,191,0,309,361,368,977,451,4528,-6496,3360,291,-123,-516,170,1389634572.371416
2,192,0,5161,5225,-423,2950,4915,13968,-9696,-6592,3249,162,-345,-335,1389634572.371684
