nodeID,seqNumber,status,gyroTick,gyroX,gyroY,gyroZ,accelTick,accelX,accelY,accelZ,magTick,magX,magY,magZ,currentTime
2,127,0,59634,-7,-9,-28,59648,288,-7936,-32,58204,18,-452,-17,1389634486.160552
3,127,0,27421,12,-18,-24,27737,224,-7744,-256,25518,-17,-476,45,1389634486.160565
2,48,0,54527,29819,-1107,-19593,54816,3376,-7056,-1200,50807,18,-451,-12,1389634486.163743
2,49,0,56540,122,69,-358,56694,3792,-6992,-1440,56746,290,-608,-361,1389634486.163753
3,49,0,22482,11823,-18541,11636,22808,3600,-6768,1152,20059,-18,-477,49,1389634486.163755
2,50,0,58554,121,59,-387,58572,3824,-7008,-1344,56746,290,-608,-361,1389634486.163757
3,50,0,24432,280,-1,260,24685,4032,-6656,1360,24759,111,-571,-228,1389634486.163759
2,51,0,60568,119,60,-390,60451,3808,-7008,-1376,59306,290,-609,-365,1389634486.163761
3,51,0,26381,288,0,273,26561,4032,-6656,1312,24759,111,-571,-228,1389634486.163762
2,52,0,62581,123,57,-391,62329,3808,-6992,-1392,61867,289,-612,-365,1389634486.163764
3,52,0,28331,282,4,274,28438,4000,-6640,1312,27338,111,-570,-225,1389634486.163765
2,53,0,63588,121,70,-394,64208,3856,-7008,-1376,64429,289,-612,-362,1389634486.163767
3,53,0,30281,286,4,276,30315,4064,-6592,1376,29915,110,-571,-226,1389634486.163769
2,54,0,44,93,60,-394,550,3776,-6992,-1360,64429,289,-612,-362,1389634486.163770
3,54,0,32230,279,-2,275,32192,4080,-6624,1312,29915,110,-571,-226,1389634486.163772
2,55,0,2032,64,54,-404,2428,3824,-6976,-1328,1455,289,-609,-362,1389634486.163773
3,55,0,34194,284,6,281,34069,4048,-6704,1264,32494,110,-570,-227,1389634486.163775
2,56,0,4021,15,43,-411,4306,3840,-6976,-1376,4016,288,-610,-362,1389634486.163777
3,56,0,36193,280,-22,276,35946,4016,-6656,1312,35071,112,-569,-229,1389634486.163779
2,57,0,6010,-81,32,-406,6184,3792,-6992,-1408,4016,288,-610,-362,1389634486.163780
3,57,0,37192,279,-26,268,37824,4016,-6688,1312,37650,114,-568,-232,1389634486.163782
2,58,0,7999,-153,18,-406,8062,3776,-6976,-1392,6578,291,-610,-363,1389634486.163783
3,58,0,39191,267,-51,257,39702,4032,-6640,1312,37650,114,-568,-232,1389634486.163785
2,59,0,9988,-165,8,-343,9940,3824,-6928,-1424,9139,290,-610,-362,1389634486.163787
3,59,0,41190,247,-95,221,41580,4064,-6624,1360,40228,108,-573,-229,1389634486.163788
2,60,0,11977,-161,1,-267,11817,3808,-6992,-1456,11701,290,-610,-364,1389634486.163790
3,60,0,43189,206,-104,137,43459,4048,-6624,1360,42807,113,-571,-228,1389634486.163792
2,61,0,12972,-156,-8,-228,13696,3824,-7008,-1440,11701,290,-610,-364,1389634486.163793
3,61,0,45188,153,-103,63,45336,4048,-6656,1280,45385,112,-569,-227,1389634486.163795
2,62,0,14962,8,-12,-89,15574,3792,-6992,-1376,14263,288,-609,-364,1389634486.163809
3,62,0,47187,94,-91,7,47214,3984,-6624,1312,45385,112,-569,-227,1389634486.163811
2,63,0,16951,-5,-14,-24,17452,3760,-6992,-1376,16825,291,-609,-363,1389634486.163813
3,63,0,49186,48,-67,-58,49092,4000,-6672,1360,47963,112,-567,-227,1389634486.163815
2,64,0,18940,-3,-13,-36,19330,3856,-6960,-1408,19386,288,-613,-363,1389634486.163816
3,64,0,51185,-9,4,-29,50970,4048,-6608,1296,50543,109,-571,-230,1389634486.163818
2,65,0,20930,-7,-12,-25,21208,3808,-6976,-1344,19386,288,-613,-363,1389634486.163819
3,65,0,52185,0,-16,-8,52848,4016,-6576,1248,50543,109,-571,-230,1389634486.163821
2,66,0,22919,-4,-11,-20,23085,3760,-6944,-1392,21947,292,-612,-364,1389634486.163823
3,66,0,54184,-10,-13,-17,54725,4064,-6608,1312,53122,109,-568,-229,1389634486.163824
2,67,0,24909,2,-14,-32,24962,3792,-7040,-1392,24509,290,-609,-366,1389634486.163826
3,67,0,56183,-7,-13,-13,56602,4016,-6624,1344,55702,110,-569,-229,1389634486.163828
2,68,0,26898,-6,-12,-25,26840,3776,-6992,-1360,27069,290,-611,-363,1389634486.163829
3,68,0,58182,-3,-11,-21,58480,4016,-6624,1328,58282,110,-571,-229,1389634486.163831
2,69,0,28887,3,-10,-38,28718,3792,-7008,-1360,27069,290,-611,-363,1389634486.163832
3,69,0,60182,-7,-15,-17,60358,4064,-6704,1312,58282,110,-571,-229,1389634486.163834
2,70,0,29882,-2,-15,-21,30596,3856,-6976,-1440,29631,289,-611,-362,1389634486.163836
3,70,0,62181,2,-9,-16,62235,4048,-6592,1328,60861,112,-571,-228,1389634486.163837
2,71,0,31871,1,-11,-27,32474,3840,-6992,-1344,32193,291,-610,-362,1389634486.163839
3,71,0,64180,-1,-8,-22,64113,4048,-6640,1296,63440,112,-567,-228,1389634486.163882
2,72,0,33861,-2,-8,-29,34351,3824,-6928,-1456,32193,291,-610,-362,1389634486.163884
3,72,0,643,2,-13,-10,454,3984,-6720,1344,482,110,-569,-230,1389634486.163886
2,73,0,35850,-1,-11,-31,36228,3776,-7024,-1424,34753,290,-612,-365,1389634486.163887
3,73,0,1643,0,-10,-21,2331,4048,-6576,1312,482,110,-569,-230,1389634486.163889
2,74,0,37840,-1,-14,-30,38106,3776,-6976,-1408,37312,290,-611,-363,1389634486.163891
3,74,0,3642,0,-8,-19,4209,4064,-6624,1328,3060,110,-569,-228,1389634486.163892
2,75,0,39829,-12,-14,-19,39984,3808,-6992,-1344,39874,290,-608,-364,1389634486.163894
3,75,0,5642,-1,-13,-15,6086,4032,-6704,1376,5638,109,-568,-226,1389634486.163896
2,76,0,41818,-6,-7,-25,41862,3744,-6944,-1296,39874,290,-608,-364,1389634486.163897
3,76,0,7641,-3,-4,-17,7962,4000,-6656,1328,5638,109,-568,-226,1389634486.163899
2,77,0,43808,-7,-15,-28,43739,3840,-6976,-1376,42435,291,-614,-364,1389634486.163900
3,77,0,9640,-2,-5,-8,9839,4032,-6592,1312,8216,109,-568,-226,1389634486.163902
2,78,0,45797,-9,-16,-26,45616,3872,-6960,-1424,44996,288,-608,-363,1389634486.163904
3,78,0,11639,-9,-17,-12,11715,4032,-6672,1312,10795,111,-568,-230,1389634486.163905
2,79,0,46792,-6,-10,-29,47494,3856,-7008,-1424,47557,289,-611,-362,1389634486.163907
3,79,0,13638,-9,-16,-15,13592,4064,-6656,1344,13374,111,-570,-229,1389634486.163909
2,80,0,48781,-7,-16,-37,49371,3840,-6960,-1408,47557,289,-611,-362,1389634486.163910
3,80,0,15638,-4,-10,-11,15470,4048,-6608,1280,13374,111,-570,-229,1389634486.163912
2,81,0,50771,-15,-11,-30,51250,3824,-6944,-1360,50119,289,-615,-365,1389634486.163913
3,81,0,16637,-9,-11,-18,17348,4048,-6672,1312,15952,109,-569,-229,1389634486.163915
2,82,0,52760,-8,-12,-35,53128,3840,-6976,-1392,52682,288,-613,-362,1389634486.163916
3,82,0,18637,-9,-14,-16,19225,4064,-6672,1376,18530,109,-570,-228,1389634486.163918
2,83,0,54750,-6,-9,-36,55006,3776,-6896,-1408,52682,288,-613,-362,1389634486.163920
3,83,0,20636,-10,-14,-5,21103,4064,-6656,1312,21108,110,-567,-227,1389634486.163921
2,84,0,56739,-7,-6,-42,56884,3824,-6992,-1456,55244,288,-611,-361,1389634486.163923
3,84,0,22635,-13,-7,-7,22979,4048,-6608,1296,21108,110,-567,-227,1389634486.163924
2,85,0,58728,-14,-13,-46,58762,3712,-6992,-1440,57806,290,-610,-364,1389634486.163926
3,85,0,24634,-16,-11,-4,24856,4032,-6672,1312,23687,110,-568,-227,1389634486.163928
2,86,0,60718,-18,-16,-35,60640,3680,-7008,-1360,60367,291,-612,-361,1389634486.163929
3,86,0,26634,-12,-11,-13,26733,4016,-6576,1360,26266,112,-571,-226,1389634486.163931
2,87,0,61713,-21,-15,-39,62517,3712,-7024,-1408,60367,291,-612,-361,1389634486.163933
3,87,0,28633,-15,-8,-7,28609,4000,-6576,1376,26266,112,-571,-226,1389634486.163934
2,88,0,63702,-19,-20,-35,64396,3760,-7040,-1472,62927,290,-610,-362,1389634486.163936
3,88,0,30632,-14,-3,0,30486,4032,-6608,1360,28844,112,-568,-227,1389634486.163937
2,89,0,155,-28,-31,-31,739,3808,-7024,-1440,65488,290,-611,-364,1389634486.163939
3,89,0,31632,-8,-10,1,32363,3984,-6544,1376,31424,112,-569,-231,1389634486.163941
2,90,0,2145,-29,-29,-18,2617,3872,-6976,-1440,2513,289,-610,-360,1389634486.163942
3,90,0,33631,-2,8,-4,34239,4000,-6576,1392,34002,112,-566,-230,1389634486.163944
2,91,0,4134,-34,-31,-21,4495,3840,-6992,-1344,2513,289,-610,-360,1389634486.163946
3,91,0,35630,4,5,-4,36116,4032,-6640,1392,34002,112,-566,-230,1389634486.163947
2,92,0,6124,-29,-21,-20,6373,3840,-7072,-1264,5075,291,-613,-359,1389634486.163949
3,92,0,37629,5,2,-5,37993,4064,-6672,1392,36582,111,-571,-231,1389634486.163950
2,93,0,8113,-20,-21,-22,8252,3840,-7088,-1136,7637,291,-611,-361,1389634486.163952
3,93,0,39629,14,-1,-9,39869,4048,-6624,1328,39161,112,-567,-230,1389634486.163954
2,94,0,10103,-9,-13,-18,10130,3808,-7008,-1088,10200,290,-612,-361,1389634486.163955
3,94,0,41628,12,2,0,41746,4080,-6608,1296,41740,111,-569,-226,1389634486.163957
2,95,0,12092,16,-5,-19,12008,3824,-7088,-1200,10200,290,-612,-361,1389634486.163958
3,95,0,43627,18,1,-7,43623,4080,-6672,1264,41740,111,-569,-226,1389634486.163960
2,96,0,13087,20,-5,-20,13887,3776,-7056,-1296,12761,291,-611,-355,1389634486.163971
3,96,0,45626,8,-11,-12,45500,4048,-6688,1312,44318,111,-570,-226,1389634486.163973
2,97,0,15076,24,-5,-12,15765,3840,-6992,-1360,15324,291,-610,-358,1389634486.163975
3,97,0,46626,1,-11,-21,47377,4080,-6624,1360,46898,112,-568,-231,1389634486.163999
2,98,0,17065,8,2,-4,17643,3872,-6928,-1360,15324,291,-610,-358,1389634486.164001
3,98,0,48625,10,-14,-25,49255,4080,-6624,1312,46898,112,-568,-231,1389634486.164002
2,99,0,19055,17,-4,-13,19522,3856,-6992,-1408,17886,291,-613,-362,1389634486.164004
3,99,0,50624,7,-6,-25,51131,4032,-6576,1264,49477,110,-569,-228,1389634486.164006
2,100,0,21044,13,-4,-13,21399,3840,-6976,-1424,20448,292,-613,-362,1389634486.164007
3,100,0,52624,2,-2,-14,53007,4032,-6576,1344,52055,111,-570,-230,1389634486.164009
2,101,0,23034,10,-10,-11,23277,3840,-6944,-1488,23008,290,-611,-361,1389634486.164010
3,101,0,54623,0,-6,-10,54884,4048,-6592,1344,54633,114,-570,-229,1389634486.164012
2,102,0,25023,-3,-13,-23,25155,3872,-6976,-1408,23008,290,-611,-361,1389634486.164014
3,102,0,56622,5,-13,-20,56761,4048,-6624,1344,54633,114,-570,-229,1389634486.164015
2,103,0,27013,-2,-14,-25,27032,3824,-6928,-1296,25570,292,-614,-364,1389634486.164017
3,103,0,58621,-1,-2,-15,58639,4048,-6624,1296,57213,110,-571,-229,1389634486.164019
2,104,0,29002,-5,-9,-24,28911,3856,-7072,-1296,28132,292,-610,-363,1389634486.164020
3,104,0,60621,-3,-12,-26,60515,4080,-6576,1280,59792,112,-565,-231,1389634486.164022
2,105,0,29997,-5,-7,-34,30789,3824,-7056,-1312,30693,293,-612,-365,1389634486.164023
3,105,0,61620,3,-20,-21,62392,4064,-6576,1408,62370,113,-570,-229,1389634486.164025
2,106,0,31986,5,-11,-25,32667,3824,-7072,-1248,30693,293,-612,-365,1389634486.164027
3,106,0,63620,4,-16,-29,64269,4064,-6624,1344,62370,113,-570,-229,1389634486.164028
2,107,0,33976,8,-6,-34,34545,3872,-7040,-1312,33255,292,-611,-363,1389634486.164030
3,107,0,83,11,1,-22,610,4048,-6640,1280,64951,112,-567,-228,1389634486.164031
2,108,0,35965,15,-3,-27,36422,3872,-7024,-1280,35817,292,-613,-363,1389634486.164033
3,108,0,2082,5,-10,-20,2487,4048,-6672,1312,1995,110,-567,-229,1389634486.164035
2,109,0,37954,17,3,-28,38300,3824,-6992,-1248,38378,290,-610,-365,1389634486.164036
3,109,0,4081,11,-11,-28,4365,4032,-6624,1280,1995,110,-567,-229,1389634486.164038
2,110,0,39944,21,1,-29,40179,3776,-7008,-1344,38378,290,-610,-365,1389634486.164040
3,110,0,6081,10,-2,-20,6242,4016,-6672,1280,4575,109,-567,-228,1389634486.164041
2,111,0,41933,22,4,-34,42058,3840,-6944,-1360,40940,290,-610,-363,1389634486.164043
3,111,0,8080,7,-9,-23,8120,4080,-6640,1312,7153,110,-568,-231,1389634486.164044
2,112,0,43923,25,3,-23,43936,3824,-6976,-1424,43500,291,-612,-362,1389634486.164046
2,19,0,60218,24,45,9,60287,3920,-6880,-1200,59244,195,-305,-9,1389634486.164264
3,19,0,25861,104,-4,-34,26558,3792,-7024,1072,25201,350,-274,-24,1389634486.164269
2,20,0,62208,23,29,5,62165,3808,-6992,-1360,61805,195,-303,-14,1389634486.182160
3,20,0,27861,74,-6,-20,28434,3808,-7168,960,27779,350,-273,-25,1389634486.182169
2,21,0,64197,16,11,4,64044,3920,-7056,-1344,61805,195,-303,-14,1389634486.188242
3,21,0,29860,24,-5,-3,30310,3840,-7008,1024,30357,350,-276,-25,1389634486.188498
2,22,0,65192,15,8,2,386,3984,-7040,-1200,64367,195,-305,-14,1389634486.200002
3,22,0,31859,-11,0,19,32187,3824,-6880,1104,30357,350,-276,-25,1389634486.200011
2,23,0,1645,24,7,11,2264,4000,-7008,-1040,1392,195,-307,-14,1389634486.212124
3,23,0,33859,-26,10,6,34064,3872,-6752,1248,32935,350,-277,-23,1389634486.212139
2,24,0,3635,35,12,17,4143,4032,-7008,-832,3953,196,-304,-10,1389634486.218071
3,24,0,35858,-38,13,22,35940,3792,-6752,1440,35514,349,-272,-24,1389634486.218204
2,25,0,5624,44,21,27,6020,3968,-6912,-832,3953,196,-304,-10,1389634486.230260
3,25,0,37857,-20,18,19,37817,3680,-6656,1472,35514,349,-272,-24,1389634486.230269
2,26,0,7614,69,32,45,7899,4016,-6832,-848,6516,198,-305,-15,1389634486.242258
3,26,0,38857,-13,12,9,39694,3776,-6608,1392,38092,349,-273,-26,1389634486.242267
2,27,0,9603,85,46,51,9779,3984,-6816,-1072,9079,198,-304,-16,1389634486.242513
3,27,0,40856,-9,-3,-2,41571,3808,-6752,1328,40670,351,-272,-22,1389634486.254657
2,28,0,11593,86,45,41,11656,3936,-6832,-1136,11641,198,-306,-17,1389634486.255097
3,28,0,42856,2,4,2,43447,3792,-6704,1168,43249,351,-272,-25,1389634486.255111
2,29,0,13582,87,30,33,13536,3968,-6784,-1232,11641,198,-306,-17,1389634486.272627
3,29,0,44855,-10,2,7,45324,3760,-6736,1216,43249,351,-272,-25,1389634486.272642
2,30,0,15572,78,33,25,15414,4000,-6720,-1328,14202,197,-304,-17,1389634486.273121
3,30,0,46854,-22,14,15,47201,3808,-6832,1152,45827,348,-272,-25,1389634486.273391
2,31,0,16567,73,20,23,17292,3952,-6720,-1632,16763,196,-305,-15,1389634486.291404
3,31,0,48854,-35,20,8,49078,3856,-6768,1168,48406,348,-273,-28,1389634486.291413
2,32,0,18556,45,1,11,19172,3984,-6704,-1648,19325,199,-304,-20,1389634486.303583
3,32,0,50853,-51,19,3,50955,3856,-6816,1200,50984,348,-271,-25,1389634486.303593
2,33,0,20546,7,-25,-13,21051,4032,-6720,-1568,19325,199,-304,-20,1389634486.303829
3,33,0,52852,-57,16,18,52832,3840,-6688,1216,50984,348,-271,-25,1389634486.303835
2,34,0,22535,-22,-45,-19,22930,4032,-6752,-1376,21887,198,-305,-17,1389634486.321204
3,34,0,53852,-59,20,11,54709,3872,-6608,1360,53563,348,-277,-26,1389634486.321219
2,35,0,24525,-48,-52,-28,24809,3984,-6720,-1200,24448,195,-307,-17,1389634486.333478
3,35,0,55851,-56,7,6,56585,3968,-6656,1296,56141,351,-270,-28,1389634486.333485
2,36,0,26514,-64,-62,-39,26688,4048,-6816,-1008,24448,195,-307,-17,1389634486.333669
3,36,0,57850,-50,4,12,58463,3984,-6608,1408,56141,351,-270,-28,1389634486.333674
2,37,0,28504,-67,-56,-41,28566,4032,-6912,-896,27010,198,-305,-17,1389634486.351524
3,37,0,59850,-38,4,2,60340,3888,-6608,1344,58720,351,-269,-24,1389634486.351533
2,38,0,30493,-59,-49,-35,30445,4016,-6880,-816,29571,200,-309,-17,1389634486.363420
3,38,0,61849,-24,-1,6,62218,3872,-6640,1328,61300,350,-273,-22,1389634486.363430
2,39,0,32483,-39,-27,-29,32324,4032,-6912,-864,32132,195,-305,-14,1389634486.363680
3,39,0,63848,-23,-2,1,64095,3824,-6624,1408,63878,350,-274,-23,1389634486.363687
2,40,0,33477,-29,-31,-29,34203,4048,-6864,-1040,32132,195,-305,-14,1389634486.381273
3,40,0,312,-25,0,-8,437,3872,-6656,1312,63878,350,-274,-23,1389634486.381283
2,41,0,35467,-19,-20,-30,36081,4016,-6832,-1104,34692,198,-306,-15,1389634486.393187
3,41,0,2311,-19,-5,-17,2313,3888,-6704,1392,921,351,-273,-24,1389634486.393196
2,42,0,37456,-18,-13,-41,37959,4016,-6864,-1152,37254,198,-303,-15,1389634486.393469
3,42,0,3311,-20,-6,-22,4190,3824,-6640,1392,3499,351,-274,-21,1389634486.393475
2,43,0,39446,-19,-19,-46,39839,4048,-6848,-1104,39816,195,-304,-15,1389634486.410562
3,43,0,5310,-6,-6,-21,6068,3824,-6624,1536,3499,351,-274,-21,1389634486.410572
2,44,0,41435,-26,-19,-28,41718,4000,-6944,-1120,39816,195,-304,-15,1389634486.422142
3,44,0,7309,6,-16,-23,7945,3856,-6608,1440,6077,349,-273,-24,1389634486.422158
2,45,0,43425,-30,-22,-27,43597,4000,-6880,-1104,42377,198,-305,-15,1389634486.428447
3,45,0,9309,9,-2,-26,9821,3888,-6656,1392,8656,349,-274,-23,1389634486.428770
2,46,0,45414,-41,-27,-26,45475,4064,-6800,-1040,44940,198,-304,-13,1389634486.441134
3,46,0,11308,9,1,-21,11698,3904,-6768,1296,11236,350,-273,-24,1389634486.441143
2,47,0,47404,-38,-20,-26,47354,4032,-6848,-1056,44940,198,-304,-13,1389634486.453216
3,47,0,13307,10,-11,-28,13576,3888,-6736,1296,11236,350,-273,-24,1389634486.453232
2,48,0,48399,-41,-16,-46,49233,4144,-6864,-1152,47502,196,-306,-12,1389634486.453448
3,48,0,15307,9,-6,-21,15453,3856,-6640,1232,13814,350,-273,-23,1389634486.453454
2,49,0,50388,-42,-18,-52,51112,4032,-6848,-1200,50063,196,-304,-15,1389634486.471492
3,49,0,17306,7,-16,-27,17330,3968,-6640,1232,16392,352,-272,-25,1389634486.471501
2,50,0,52377,-48,-23,-59,52991,4000,-6784,-1184,52624,195,-305,-15,1389634486.483706
3,50,0,18306,0,-32,-26,19207,3904,-6640,1248,18971,352,-273,-23,1389634486.483715
2,51,0,54367,-49,-43,-72,54869,3808,-6912,-1232,52624,195,-305,-15,1389634486.484015
3,51,0,20305,-1,-33,-44,21084,3824,-6592,1424,18971,352,-273,-23,1389634486.484021
2,52,0,56356,-52,-51,-71,56748,3760,-6944,-1216,55185,197,-307,-13,1389634486.502081
3,52,0,22304,10,-26,-45,22961,3664,-6544,1632,21549,350,-270,-23,1389634486.502095
2,53,0,58346,-58,-56,-64,58627,3920,-7056,-1040,57747,195,-304,-12,1389634486.508443
3,53,0,24304,26,-11,-53,24838,3664,-6656,1600,24128,351,-271,-22,1389634486.508726
2,54,0,60335,-33,-52,-46,60506,3984,-6992,-800,60309,197,-304,-13,1389634486.521074
3,54,0,26303,42,18,-30,26245,3728,-6656,1472,26707,353,-272,-23,1389634486.521089
2,55,0,62325,-7,-34,-33,62385,3952,-7024,-864,60309,197,-304,-13,1389634486.533296
3,55,0,28302,42,9,-24,28591,3680,-6688,1376,26707,353,-272,-23,1389634486.533305
2,56,0,64314,11,-28,-28,64264,3968,-6976,-960,62870,198,-308,-12,1389634486.533557
3,56,0,30302,35,10,-20,30468,3664,-6816,1264,29286,353,-276,-28,1389634486.533565
2,57,0,65309,17,-26,-19,607,3968,-6912,-896,65432,198,-307,-12,1389634486.550986
3,57,0,32301,18,17,-2,32346,3776,-6832,1280,31866,353,-274,-25,1389634486.551005
2,58,0,1763,37,-13,-14,2485,3856,-6992,-896,2457,197,-304,-10,1389634486.563076
3,58,0,33301,20,20,-2,34223,3856,-6768,1168,31866,353,-274,-25,1389634486.563086
2,59,0,3752,58,-12,-19,4363,3984,-6928,-960,2457,197,-304,-10,1389634486.563359
3,59,0,35300,12,11,5,36099,3856,-6720,1232,34443,352,-272,-24,1389634486.563365
2,60,0,5742,71,-11,-12,6241,4032,-6896,-1056,5017,198,-307,-13,1389634486.580787
3,60,0,37299,-7,9,14,37976,3872,-6720,1296,37023,350,-270,-26,1389634486.580796
2,61,0,7731,70,-6,-11,8119,4032,-6912,-992,7579,199,-305,-13,1389634486.592641
3,61,0,39299,-11,2,23,39853,3792,-6752,1280,39601,353,-273,-26,1389634486.592651
2,62,0,9721,73,-3,-17,9997,4016,-6928,-976,7579,199,-305,-13,1389634486.592899
3,62,0,41298,-13,8,32,41730,3856,-6720,1344,39601,353,-273,-26,1389634486.593109
2,63,0,11710,90,12,-22,11876,4048,-6944,-960,10141,195,-305,-13,1389634486.610435
3,63,0,43297,-12,9,15,43607,3888,-6656,1408,42180,352,-271,-25,1389634486.610441
2,64,0,13700,100,17,-13,13755,4000,-6896,-1136,12702,197,-304,-10,1389634486.622052
3,64,0,45296,-2,-9,12,45484,3888,-6704,1280,44758,349,-271,-23,1389634486.622055
2,65,0,15689,107,21,-5,15633,4000,-6880,-1168,15264,197,-306,-13,1389634486.627324
3,65,0,47296,10,-6,7,46891,3856,-6608,1312,47337,353,-272,-24,1389634486.627457
2,66,0,16684,102,22,2,17511,3984,-6992,-1312,15264,197,-306,-13,1389634486.639085
3,66,0,48295,-1,0,-3,49237,4000,-6528,1312,47337,353,-272,-24,1389634486.639090
2,67,0,18673,76,22,2,19390,3984,-7024,-1152,17826,197,-307,-14,1389634486.650638
3,67,0,50295,10,-16,-4,51113,4016,-6576,1344,49915,353,-270,-24,1389634486.650641
2,68,0,20663,40,31,12,21268,4064,-6896,-1216,20387,196,-303,-14,1389634486.662289
3,68,0,52294,18,-7,-29,52990,3968,-6656,1200,52494,353,-270,-28,1389634486.662292
2,69,0,22652,32,25,23,23148,4080,-6800,-976,22949,195,-305,-17,1389634486.662481
3,69,0,54293,28,-5,-43,54866,3840,-6640,1280,52494,353,-270,-28,1389634486.674045
2,70,0,24642,32,28,20,25026,4096,-6752,-1024,22949,195,-305,-17,1389634486.674251
3,70,0,56293,33,-1,-57,56274,3872,-6640,1248,55072,354,-274,-27,1389634486.674254
2,71,0,26631,44,36,4,26906,4112,-6816,-1136,25511,196,-308,-15,1389634486.691541
3,71,0,58292,39,-1,-66,58151,3776,-6624,1312,57652,351,-272,-24,1389634486.691546
2,72,0,28621,53,32,-15,28785,4048,-6832,-1152,28072,196,-306,-17,1389634486.702774
3,72,0,60291,39,3,-65,60028,3776,-6688,1296,60230,351,-269,-25,1389634486.702778
2,73,0,30610,54,26,-32,30664,3968,-6816,-1264,30634,197,-304,-16,1389634486.702986
3,73,0,62291,34,-12,-62,61905,3808,-6720,1296,60230,351,-269,-25,1389634486.702990
2,74,0,31605,48,17,-38,32542,4048,-6768,-1248,30634,197,-304,-16,1389634486.720015
3,74,0,63290,37,-8,-51,63783,3744,-6768,1264,62808,349,-271,-27,1389634486.720020
2,75,0,33595,37,27,-36,34420,3936,-6848,-1056,33194,197,-303,-19,1389634486.731030
3,75,0,65290,21,-13,-28,123,3616,-6800,1376,65387,349,-275,-27,1389634486.731036
2,76,0,35584,38,26,-49,36298,4000,-6928,-928,35755,196,-305,-17,1389634486.743118
3,76,0,1753,5,-6,7,2000,3696,-6768,1328,2430,351,-272,-27,1389634486.743126
2,77,0,37574,56,35,-41,38176,4016,-6912,-1216,35755,196,-305,-17,1389634486.743368
3,77,0,3752,4,5,76,3877,3840,-6736,1200,2430,351,-272,-27,1389634486.743416
2,78,0,39563,79,36,-32,40055,3888,-7072,-1408,38317,195,-307,-19,1389634486.761200
3,78,0,5752,2,1,104,5754,3824,-6656,1280,5009,350,-272,-24,1389634486.761210
2,79,0,41553,80,26,-23,41933,3872,-6976,-1408,40878,196,-308,-17,1389634486.773494
3,79,0,7751,-6,14,97,7631,3824,-6640,1344,7589,351,-267,-26,1389634486.773509
2,80,0,43542,68,23,-6,43811,3920,-6912,-1312,43440,197,-306,-21,1389634486.773835
3,80,0,9750,-6,35,84,9508,3840,-6656,1328,7589,351,-267,-26,1389634486.773845
2,81,0,45532,69,19,35,45689,4000,-6944,-1152,43440,197,-306,-21,1389634486.792044
3,81,0,11750,0,64,173,11386,3872,-6768,1392,10167,350,-267,-27,1389634486.792058
2,82,0,47521,69,16,61,47568,3968,-6848,-1264,46002,196,-305,-19,1389634486.798231
3,82,0,12749,2,74,227,13263,3920,-6688,1376,12747,351,-267,-29,1389634486.798436
3,83,0,14749,0,70,258,15140,3936,-6704,1232,15326,354,-267,-29,1389634486.810077
3,84,0,16748,-3,59,214,17018,3952,-6576,1264,15326,354,-267,-29,1389634486.822271
3,85,0,18747,-5,55,179,18894,4000,-6576,1216,17906,357,-268,-27,1389634486.834593
3,86,0,20747,1,57,155,20771,4048,-6592,1216,20485,357,-262,-29,1389634486.834914
3,87,0,22746,-5,42,129,22648,4048,-6576,1296,23065,355,-261,-26,1389634486.852987
3,88,0,24745,4,42,115,24525,4048,-6560,1312,23065,355,-261,-26,1389634486.853237
3,89,0,26745,8,39,131,26402,4048,-6496,1248,25643,356,-262,-29,1389634486.871576
3,90,0,27744,4,49,127,28279,3968,-6704,1136,28221,359,-263,-33,1389634486.883888
3,91,0,29744,12,39,110,30157,4064,-6432,1472,28221,359,-263,-33,1389634486.884207
3,92,0,31743,21,27,75,32035,3968,-6496,1232,30800,359,-258,-30,1389634486.902340
3,93,0,33742,27,40,40,33912,4000,-6560,1360,33380,357,-258,-32,1389634486.914124
3,94,0,35742,24,27,24,35789,4032,-6528,1248,35959,361,-257,-30,1389634486.914441
3,95,0,37741,25,13,0,37666,4080,-6544,1184,35959,361,-257,-30,1389634486.932501
3,96,0,39740,26,14,-20,39543,4112,-6528,1152,38538,357,-262,-33,1389634486.944582
3,97,0,41739,32,14,-18,41421,4080,-6512,1200,41118,357,-257,-34,1389634486.944891
3,98,0,42739,30,13,-23,43298,4112,-6528,1216,43697,359,-259,-30,1389634486.961619
3,99,0,44738,36,2,-49,45176,4096,-6496,1264,43697,359,-259,-30,1389634486.973240
3,100,0,46738,38,7,-69,47053,4048,-6560,1104,46277,359,-257,-31,1389634486.973495
3,101,0,48737,43,5,-84,48931,4192,-6656,1344,48855,358,-257,-34,1389634486.991383
3,102,0,50736,45,-10,-99,50808,4048,-6592,1344,48855,358,-257,-34,1389634487.3490
3,103,0,52736,56,-7,-104,52685,4016,-6656,1152,51435,358,-257,-35,1389634487.3676
3,104,0,54735,42,-14,-107,54562,3968,-6736,1104,54014,357,-261,-33,1389634487.21244
3,105,0,56734,32,-19,-113,56439,4016,-6704,1152,56592,354,-262,-35,1389634487.33206
3,106,0,57734,27,-13,-115,58316,4000,-6640,1216,56592,354,-262,-35,1389634487.33398
3,107,0,59733,17,-38,-97,60193,3968,-6640,1104,59171,355,-263,-34,1389634487.51279
3,108,0,61733,28,-36,-91,62070,3952,-6736,1104,61750,357,-263,-33,1389634487.63389
3,109,0,63732,10,-35,-88,63946,4032,-6704,1216,61750,357,-263,-33,1389634487.63638
3,110,0,195,11,-21,-87,287,3984,-6720,1264,64329,356,-265,-30,1389634487.81410
3,111,0,2195,4,-21,-82,2164,3984,-6752,1136,1372,354,-261,-28,1389634487.93619
3,112,0,4194,-17,7,-36,4041,3984,-6720,1152,3951,354,-260,-30,1389634487.93901
3,113,0,6193,-18,32,28,5918,3968,-6640,1424,3951,354,-260,-30,1389634487.111821
3,114,0,7193,-21,38,42,7794,4064,-6560,1104,6529,355,-264,-31,1389634487.123636
3,115,0,9192,-17,30,29,9670,4080,-6576,1008,9108,355,-260,-32,1389634487.123995
3,116,0,11192,-20,27,19,11546,4064,-6576,1104,11685,356,-263,-33,1389634487.141799
3,117,0,13191,-13,22,10,13423,4048,-6576,1088,11685,356,-263,-33,1389634487.154014
3,118,0,15190,-15,12,-7,15299,4016,-6544,1088,14263,357,-265,-32,1389634487.154272
3,119,0,17190,-19,9,-15,17176,4032,-6576,1104,16843,356,-263,-34,1389634487.172023
3,120,0,19189,-21,2,-21,19052,4080,-6544,1232,16843,356,-263,-34,1389634487.183822
3,121,0,21188,-13,-17,-28,20930,4016,-6576,1296,19422,356,-261,-32,1389634487.184011
3,122,0,22188,-13,-13,-40,22806,4000,-6560,1232,22001,357,-259,-30,1389634487.201401
3,123,0,24187,16,-23,-51,24682,4016,-6528,1248,24581,354,-265,-32,1389634487.213494
3,124,0,26187,19,-31,-71,26559,4016,-6576,1232,24581,354,-265,-32,1389634487.213746
3,125,0,28186,28,-30,-72,28436,4032,-6640,1184,27160,354,-263,-33,1389634487.231402
3,126,0,30185,28,-30,-83,30314,3968,-6688,1184,29738,357,-263,-33,1389634487.243597
3,127,0,32185,22,-39,-88,32191,3968,-6688,1120,32317,355,-262,-32,1389634487.243905
3,128,0,34184,20,-48,-84,34067,4000,-6704,1120,32317,355,-262,-32,1389634487.261262
3,129,0,36183,15,-50,-79,35944,4000,-6672,1152,34894,354,-266,-33,1389634487.273011
3,130,0,37183,5,-45,-75,37821,3872,-6688,1168,37473,354,-262,-34,1389634487.273266
3,131,0,39182,7,-43,-75,39698,3952,-6640,1232,37473,354,-262,-34,1389634487.291263
3,132,0,41181,-2,-47,-64,41573,3984,-6672,1232,40052,353,-266,-35,1389634487.303394
3,133,0,43181,7,-40,-62,43449,3968,-6640,1168,42630,356,-264,-30,1389634487.303631
3,134,0,45180,6,-32,-57,45326,4000,-6656,1216,45208,351,-266,-33,1389634487.321403
3,135,0,47179,9,-37,-63,47202,3936,-6608,1200,45208,351,-266,-33,1389634487.333190
3,136,0,49179,10,-26,-62,49078,3936,-6672,1168,47788,352,-264,-32,1389634487.333404
3,137,0,51178,6,-31,-57,50954,3984,-6672,1104,50367,354,-265,-32,1389634487.351087
3,138,0,52178,1,-35,-63,52831,3984,-6672,1136,52945,353,-264,-30,1389634487.363115
3,139,0,54177,4,-34,-66,54707,3904,-6720,1216,52945,353,-264,-30,1389634487.363367
3,140,0,56176,-7,-22,-59,56583,4016,-6624,1152,55524,355,-267,-31,1389634487.381458
3,141,0,58176,-2,-24,-47,58459,3920,-6624,1248,58103,352,-268,-31,1389634487.393552
3,142,0,60175,3,-13,-39,60336,3888,-6688,1280,58103,352,-268,-31,1389634487.393861
3,143,0,62174,-9,-17,-37,62212,3888,-6688,1152,60682,355,-267,-32,1389634487.411697
3,144,0,64174,-2,-18,-30,64089,3920,-6592,1168,63260,353,-267,-30,1389634487.423125
3,145,0,637,1,-6,-17,430,3888,-6672,1184,302,355,-268,-34,1389634487.423381
3,146,0,1637,-5,-7,-23,2307,3968,-6672,1280,302,355,-268,-34,1389634487.441162
3,147,0,3636,1,-5,-16,4183,3904,-6672,1264,2881,354,-268,-32,1389634487.453476
3,148,0,5635,9,-10,-14,6060,3952,-6688,1216,5460,352,-265,-30,1389634487.453734
3,149,0,7635,6,-3,-15,7937,3840,-6608,1184,8039,352,-267,-32,1389634487.471656
3,150,0,9634,2,2,-10,9814,3856,-6736,1168,8039,352,-267,-32,1389634487.483654
3,151,0,11633,8,-12,-13,11691,3872,-6656,1184,10618,353,-266,-29,1389634487.483962
3,152,0,13633,3,-3,-13,13568,4000,-6656,1120,13198,353,-265,-31,1389634487.501605
3,153,0,15632,-6,-14,-13,15444,3984,-6688,1168,13198,353,-265,-31,1389634487.513855
3,154,0,16632,-7,-10,-14,17321,4000,-6688,1200,15777,352,-269,-30,1389634487.514114
3,155,0,18631,-3,0,-22,19198,3904,-6624,1264,18356,355,-265,-29,1389634487.532236
3,156,0,20630,-4,-8,-16,21075,3952,-6624,1216,20935,353,-266,-32,1389634487.544442
3,157,0,22630,6,-8,-19,22952,3952,-6672,1136,20935,353,-266,-32,1389634487.544761
3,158,0,24629,5,-7,-29,24829,3952,-6736,1200,23514,352,-267,-32,1389634487.562405
3,159,0,26628,3,-2,-25,26705,3920,-6704,1216,26092,352,-267,-30,1389634487.574483
3,160,0,28628,0,-10,-25,28582,3920,-6704,1168,28671,355,-268,-33,1389634487.574740
3,161,0,30627,-6,-2,-24,30459,3920,-6688,1120,28671,355,-268,-33,1389634487.592712
3,162,0,31627,-5,-1,-22,32337,3952,-6688,1072,31251,354,-265,-28,1389634487.598960
3,163,0,33626,-17,-10,-23,34214,3952,-6656,1104,33829,358,-265,-30,1389634487.610493
3,164,0,35625,-21,-12,-21,36090,3904,-6688,1056,33829,358,-265,-30,1389634487.622616
3,165,0,37625,-21,-11,-19,37967,3904,-6640,1152,36408,351,-267,-32,1389634487.628996
3,166,0,39624,-27,-9,-20,39843,3984,-6624,1184,38987,352,-266,-33,1389634487.641326
3,167,0,41623,-13,-14,-27,41720,3920,-6704,1216,41566,353,-263,-33,1389634487.653503
3,168,0,43622,-20,-9,-35,43596,3968,-6672,1184,41566,353,-263,-33,1389634487.653745
3,169,0,45622,-17,-10,-35,45472,3904,-6656,1248,44146,351,-264,-33,1389634487.671972
3,170,0,46621,-17,-15,-28,47349,3968,-6656,1264,46726,355,-269,-31,1389634487.684146
3,171,0,48621,-2,-20,-38,49226,3952,-6720,1184,49306,352,-266,-32,1389634487.684447
3,172,0,50620,-7,-14,-40,51103,3984,-6640,1216,49306,352,-266,-32,1389634487.702757
3,173,0,52619,-12,-16,-44,52980,3920,-6672,1168,51885,352,-266,-27,1389634487.709049
3,174,0,54619,-9,-25,-39,54856,3984,-6672,1152,54463,353,-267,-32,1389634487.721226
3,175,0,56618,-17,-16,-50,56733,3856,-6704,1264,54463,353,-267,-32,1389634487.733538
3,176,0,58617,-14,-16,-48,58611,3888,-6704,1232,57041,354,-268,-32,1389634487.733810
3,177,0,60617,-20,-14,-43,60488,3888,-6688,1168,59621,351,-269,-33,1389634487.752120
3,178,0,62616,-23,-18,-28,62365,3824,-6688,1248,62200,354,-266,-33,1389634487.764323
3,179,0,63616,-21,-11,-28,64241,3808,-6688,1312,62200,354,-266,-33,1389634487.764586
3,180,0,79,-15,-19,-22,581,3872,-6656,1248,64779,352,-270,-29,1389634487.782038
3,181,0,2078,-13,-14,-24,2459,3872,-6704,1184,1823,355,-268,-32,1389634487.793140
3,182,0,4078,-9,-11,-11,4336,3904,-6704,1216,4401,353,-268,-29,1389634487.793248
3,183,0,6077,-15,-12,-10,6213,3760,-6688,1120,4401,353,-268,-29,1389634487.811015
3,184,0,8076,0,-18,-3,8090,3888,-6672,1312,6980,353,-265,-26,1389634487.823240
3,185,0,10076,-11,-15,-9,9966,3824,-6672,1216,9559,351,-270,-30,1389634487.823563
3,186,0,12075,-3,-13,-2,11843,3920,-6752,1264,9559,351,-270,-30,1389634487.841889
3,187,0,13075,-9,-7,-3,13721,3808,-6720,1328,12138,352,-269,-32,1389634487.854000
3,188,0,15074,-14,10,13,15598,3888,-6784,1264,14716,354,-267,-30,1389634487.854259
3,189,0,17073,-15,10,22,17476,3808,-6800,1296,17295,356,-265,-32,1389634487.872394
3,190,0,19073,-33,21,38,19353,3840,-6752,1312,17295,356,-265,-32,1389634487.884563
3,191,0,21072,-51,38,56,21229,3920,-6944,1360,19874,352,-266,-34,1389634487.884807
3,192,0,23071,-80,65,88,23106,3456,-7024,1280,22454,356,-265,-30,1389634487.902816
3,193,0,25071,-90,66,102,24983,3680,-7008,1616,25033,354,-265,-31,1389634487.909051
3,194,0,27070,-121,92,143,26860,3568,-7216,1360,25033,354,-265,-31,1389634487.921103
3,195,0,28070,-128,112,163,28735,3504,-7136,1568,27612,354,-262,-29,1389634487.933247
3,196,0,30069,-133,168,321,30612,3328,-7408,1568,30191,357,-260,-29,1389634487.933450
3,197,0,32068,-137,212,467,32490,2944,-7664,1856,30191,357,-260,-29,1389634487.951514
3,198,0,34068,-151,268,595,34367,2784,-7936,2048,32771,357,-259,-32,1389634487.963797
3,199,0,36067,-186,364,826,36245,3552,-7712,2160,35350,361,-249,-33,1389634487.964109
3,200,0,38066,-217,491,1041,38121,2720,-8656,1824,37929,361,-247,-34,1389634487.981299
3,201,0,40066,-69,551,1149,39998,2336,-8528,4192,37929,361,-247,-34,1389634487.993405
3,202,0,42065,3,713,1187,41875,3232,-10800,2912,40509,371,-238,-38,1389634487.993612
3,203,0,43064,-202,772,1254,43752,1520,-9808,4432,43088,371,-231,-45,1389634488.11704
3,204,0,45064,-152,840,1187,45629,1776,-11312,5008,45667,378,-229,-46,1389634488.23970
3,205,0,47063,-38,702,1078,47506,16,-11680,5584,45667,378,-229,-46,1389634488.24222
3,206,0,49062,210,541,778,49383,-2272,-11104,5344,48245,378,-227,-45,1389634488.41745
3,207,0,51062,515,310,530,51260,-3888,-10448,4416,50824,386,-227,-45,1389634488.54047
3,208,0,53061,625,163,353,53137,-4656,-10432,2768,50824,386,-227,-45,1389634488.54365
3,209,0,55060,498,46,142,55015,-4912,-10160,2016,53401,386,-238,-37,1389634488.72488
3,210,0,57060,203,18,-81,56892,-4320,-10208,1424,55979,397,-246,-32,1389634488.83998
3,211,0,58059,12,17,-194,58768,-3872,-10144,2272,58557,397,-1,-24,1389634488.84249
3,212,0,60059,-269,-9,-545,60645,-3968,-9648,3088,58557,397,-1,-24,1389634488.100988
3,213,0,62058,-368,-60,-959,62522,-4128,-9040,3664,61137,399,-278,-11,1389634488.113137
3,214,0,64057,-294,-138,-1258,64399,-3520,-8976,3440,63715,399,-298,3,1389634488.113396
3,215,0,521,-194,-242,-1462,740,-2528,-8976,3168,757,383,-320,19,1389634488.131520
3,216,0,2520,-148,-373,-1622,2617,-1488,-9184,3040,757,383,-320,19,1389634488.143824
3,217,0,4519,-141,-523,-1711,4493,-384,-9472,3040,3336,383,-343,34,1389634488.144148
3,218,0,6519,-155,-696,-1778,6370,736,-9536,3136,5913,350,-359,47,1389634488.162512
3,219,0,7518,-163,-782,-1808,8247,1712,-9520,3200,5913,350,-359,47,1389634488.174748
3,220,0,9518,-157,-964,-1855,10124,2528,-9344,3296,8492,350,-377,60,1389634488.175007
3,221,0,11517,-147,-1110,-1886,12001,3056,-9360,3264,11071,306,-384,69,1389634488.193216
3,222,0,13516,-155,-1195,-1894,13878,3792,-9376,3184,13650,306,-392,76,1389634488.193536
3,223,0,15516,-185,-1261,-1915,15755,4128,-9168,3088,13650,306,-392,76,1389634488.211701
3,224,0,17515,-221,-1286,-1941,17633,4496,-8976,2832,16230,267,-401,83,1389634488.223847
3,225,0,19514,-251,-1287,-1933,19510,4704,-8736,2592,18809,267,-411,89,1389634488.224070
3,226,0,21514,-291,-1270,-1925,21386,4560,-8464,2384,21389,237,-419,91,1389634488.242142
3,227,0,22513,-304,-1262,-1907,23263,4560,-8192,2000,21389,237,-419,91,1389634488.254459
3,228,0,24513,-322,-1231,-1855,25140,4464,-8064,1808,23969,237,-428,93,1389634488.254774
3,229,0,26512,-346,-1189,-1784,27017,4512,-7824,1712,26548,212,-437,98,1389634488.271895
3,230,0,28511,-353,-1136,-1721,28895,4624,-7584,1584,26548,212,-437,98,1389634488.283844
3,231,0,30511,-352,-1074,-1681,30771,4640,-7232,1392,29126,212,-447,97,1389634488.284103
3,232,0,32510,-372,-979,-1623,32647,4688,-6928,1280,31706,201,-457,102,1389634488.302106
3,233,0,34509,-410,-868,-1575,34523,4672,-6560,1280,34285,189,-464,99,1389634488.314253
3,234,0,36509,-484,-748,-1506,36399,4624,-6208,1008,34285,189,-464,99,1389634488.314500
3,235,0,37508,-537,-688,-1469,38276,4800,-5968,768,36863,177,-472,105,1389634488.332462
3,236,0,39508,-651,-576,-1379,40153,5360,-5856,832,39442,168,-479,107,1389634488.344354
3,237,0,41507,-755,-489,-1330,42029,6064,-5616,1136,42021,158,-486,114,1389634488.344564
3,238,0,43506,-785,-415,-1314,43905,6480,-5152,1200,42021,158,-486,114,1389634488.362737
3,239,0,45506,-736,-332,-1301,45781,6480,-4656,1136,44599,148,-498,118,1389634488.369027
3,240,0,47505,-643,-235,-1243,47658,6240,-4368,896,47178,140,-504,121,1389634488.380709
3,241,0,49504,-537,-139,-1150,49535,6080,-3872,832,47178,140,-504,121,1389634488.393046
3,242,0,51503,-450,-40,-992,51412,6048,-3616,736,49756,126,-508,123,1389634488.393368
3,243,0,52503,-412,5,-905,53289,6256,-3568,560,52334,118,-511,124,1389634488.411673
3,244,0,54502,-390,78,-717,55166,6256,-3456,480,54913,113,-259,125,1389634488.423946
3,245,0,56502,-388,113,-519,57043,6352,-3568,688,54913,113,-259,125,1389634488.424202
3,246,0,58501,-370,101,-329,58919,6480,-3680,1056,57492,105,-521,128,1389634488.441980
3,247,0,60500,-300,40,-160,60797,6240,-3584,1376,60070,101,-519,132,1389634488.453525
3,248,0,62500,-166,-25,5,62673,6096,-3664,1472,62650,97,-521,131,1389634488.453748
3,249,0,64499,-35,-110,162,64550,5760,-3728,1536,62650,97,-521,131,1389634488.471337
3,250,0,962,62,-168,310,891,5424,-3952,1552,65228,98,-528,132,1389634488.482736
3,251,0,1962,95,-182,395,2768,5232,-4208,1536,2271,100,-530,133,1389634488.489029
3,252,0,3961,144,-232,556,4645,5168,-4384,1472,2271,100,-530,133,1389634488.501009
3,253,0,5961,163,-267,702,6521,5216,-4576,1472,4849,102,-531,133,1389634488.513171
3,254,0,7960,337,-403,827,8397,3728,-6864,208,7428,103,-532,130,1389634488.513491
3,255,0,9959,450,-602,662,10274,-8096,-8672,7728,10007,108,-539,132,1389634488.531777
3,0,0,11959,1028,23,753,12151,-9680,-12496,6400,10007,108,-539,132,1389634488.543601
3,1,0,13958,1295,780,1643,14028,-5712,-5072,1136,12586,113,-541,121,1389634488.543988
3,2,0,15957,1368,1192,2692,15904,112,-3824,-3328,15165,125,-539,104,1389634488.562292
3,3,0,16957,1164,1156,3038,17781,2944,-4944,-3024,17744,140,-534,91,1389634488.574528
3,4,0,18956,622,799,3403,19658,4704,-7696,192,17744,140,-534,91,1389634488.574786
3,5,0,20956,378,548,3324,21534,10512,-10176,2992,20322,170,-527,86,1389634488.593030
3,6,0,22955,348,409,3147,23410,11760,-9936,5552,22901,191,-520,76,1389634488.593259
3,7,0,24954,707,432,2211,25286,7488,-9328,3632,22901,191,-520,76,1389634488.610813
3,8,0,26954,772,645,1747,27163,5296,-8768,384,25482,211,-517,69,1389634488.623074
3,9,0,28953,408,591,1624,29041,6640,-8272,208,28060,223,-513,57,1389634488.623395
3,10,0,30952,105,375,1508,30917,7984,-8032,2064,30639,238,-760,55,1389634488.641722
3,11,0,31952,54,264,1444,32794,7024,-8288,2896,30639,238,-760,55,1389634488.654114
3,12,0,33951,116,132,1131,34671,5456,-7984,1504,33217,247,-503,53,1389634488.654360
3,13,0,35951,174,140,881,36548,4176,-7232,-144,35795,255,-500,50,1389634488.671896
3,14,0,37950,89,178,786,38425,3632,-6912,-224,38374,261,-495,51,1389634488.683981
3,15,0,39949,-5,197,791,40303,3664,-7360,672,38374,261,-495,51,1389634488.684219
3,16,0,41949,-65,226,810,42180,4048,-7232,1728,40952,269,-492,49,1389634488.702165
3,17,0,43948,-47,207,753,44057,4224,-6752,2320,43530,272,-491,48,1389634488.714318
3,18,0,45947,-4,164,693,45933,3952,-6544,2560,43530,272,-491,48,1389634488.714635
3,19,0,46947,31,142,676,47810,6320,-7552,4672,46109,274,-486,44,1389634488.732680
3,20,0,48946,239,300,690,49687,4496,-7280,480,48687,283,-486,42,1389634488.738767
3,21,0,50946,263,211,353,51565,4256,-7072,160,51266,288,-482,38,1389634488.750954
3,22,0,52945,170,201,542,53441,4176,-7392,384,51266,288,-482,38,1389634488.763104
3,23,0,54944,142,184,577,55319,3936,-7424,672,53845,292,-481,36,1389634488.763426
3,24,0,56944,81,153,534,57196,3968,-7296,1056,56423,295,-479,34,1389634488.780950
3,25,0,58943,34,107,535,59072,4288,-7152,1680,59002,300,-475,31,1389634488.792372
3,26,0,60942,7,57,435,60950,4048,-6752,1568,59002,300,-475,31,1389634488.804280
3,27,0,61942,-3,47,372,62826,4144,-6736,2032,61580,305,-472,32,1389634488.804570
3,28,0,63941,-6,43,321,64703,3920,-6592,1920,64159,304,-471,30,1389634488.821501
3,29,0,404,11,42,256,1044,4048,-6544,1760,64159,304,-471,30,1389634488.833198
3,30,0,2404,32,67,269,2920,3968,-6544,1840,1202,308,-471,32,1389634488.833514
3,31,0,4403,47,83,242,4797,4064,-6560,1472,3780,307,-469,28,1389634488.851272
3,32,0,6402,49,77,219,6675,4160,-6592,1184,6359,309,-468,28,1389634488.863480
3,33,0,8402,35,72,197,8553,3952,-6368,1216,6359,309,-468,28,1389634488.863805
3,34,0,10401,26,69,165,10430,4352,-6768,1072,8937,311,-465,29,1389634488.881977
3,35,0,11401,27,74,151,12307,3984,-6432,1424,11516,312,-466,25,1389634488.894144
3,36,0,13400,8,67,123,14184,4032,-6576,1520,14094,314,-463,28,1389634488.894396
3,37,0,15399,9,76,115,16061,4304,-6448,1520,14094,314,-463,28,1389634488.911553
3,38,0,17399,18,69,114,17938,4128,-6400,1696,16674,314,-463,26,1389634488.923818
3,39,0,19398,23,81,90,19816,4048,-6528,1664,19253,316,-464,23,1389634488.924137
3,40,0,21397,35,75,95,21693,4064,-6496,1424,19253,316,-464,23,1389634488.941329
3,41,0,23397,27,83,105,23571,4096,-6464,1376,21832,315,-464,25,1389634488.953553
3,42,0,25396,19,80,109,25449,4192,-6496,1392,24410,318,-463,23,1389634488.953872
3,43,0,26396,10,84,86,27326,4064,-6592,1456,26990,317,-462,20,1389634488.972237
3,44,0,28395,4,90,82,29202,4192,-6512,1408,26990,317,-462,20,1389634488.984560
3,45,0,30394,4,94,98,31079,4320,-6432,1360,29568,315,-462,19,1389634488.984876
3,46,0,32394,2,90,107,32487,4256,-6480,1360,32147,319,-461,23,1389634489.2994
3,47,0,34393,-12,105,106,34364,4288,-6384,1312,34727,316,-461,17,1389634489.3318
3,48,0,36392,-3,89,116,36241,4208,-6496,1312,34727,316,-461,17,1389634489.21565
3,49,0,38392,2,72,117,38119,4336,-6480,1296,37305,321,-459,17,1389634489.33874
3,50,0,40391,-4,70,121,39996,4208,-6416,1376,39884,321,-458,19,1389634489.34186
3,51,0,41391,4,65,107,41873,4224,-6608,1536,39884,321,-458,19,1389634489.52175
3,52,0,43390,15,56,91,43749,3920,-6768,1344,42463,321,-458,20,1389634489.64395
3,53,0,45389,18,71,95,45626,4400,-6128,1440,45043,321,-454,17,1389634489.64646
3,54,0,47389,10,82,143,47502,3632,-7232,1520,47622,321,-455,18,1389634489.83045
3,55,0,49388,23,98,207,49379,4064,-6464,1424,47622,321,-455,18,1389634489.83362
3,56,0,51387,29,99,225,51256,3952,-7104,1824,50200,325,-452,17,1389634489.100673
3,57,0,53387,27,106,201,53133,4288,-6256,1728,52778,327,-452,13,1389634489.113012
3,58,0,55386,72,140,199,55010,4560,-5728,1760,55356,329,-449,12,1389634489.113292
3,59,0,56386,70,137,180,56888,4576,-6336,1104,55356,329,-449,12,1389634489.131495
3,60,0,58385,77,143,159,58764,4080,-6992,976,57934,328,-449,10,1389634489.143776
3,61,0,60384,56,139,148,60641,4336,-6400,1456,60513,324,-448,12,1389634489.144024
3,62,0,62384,54,168,133,62518,4240,-6624,1184,60513,324,-448,12,1389634489.161808
3,63,0,64383,78,163,140,64395,3872,-7008,1408,63093,329,-448,11,1389634489.173692
3,64,0,846,140,118,227,736,3712,-7536,624,135,331,-446,6,1389634489.174007
3,65,0,2846,38,135,408,2613,4288,-7168,784,2713,336,-441,6,1389634489.191696
3,66,0,4845,19,97,510,4490,4048,-7456,592,2713,336,-441,6,1389634489.203721
3,67,0,5845,-4,84,556,6367,4160,-7504,560,5292,336,-437,3,1389634489.203980
3,68,0,7844,-56,69,699,8244,4208,-7520,112,7871,339,-433,5,1389634489.222277
3,69,0,9843,-132,38,840,10121,4336,-7504,544,10450,344,-423,2,1389634489.234595
3,70,0,11843,-190,-3,983,11998,4176,-7616,1040,10450,344,-423,2,1389634489.234900
3,71,0,13842,-215,1,1111,13874,3920,-7648,1536,13029,345,-411,7,1389634489.252867
3,72,0,15841,-211,20,1245,15751,4000,-7744,1632,15607,353,-402,8,1389634489.253194
3,73,0,17840,-246,37,1406,17627,4032,-7968,1296,15607,353,-402,8,1389634489.271307
3,74,0,19840,-290,55,1600,19504,3952,-8480,976,18186,358,-391,8,1389634489.283488
3,75,0,20839,-313,63,1704,21381,3760,-9168,960,20765,359,-369,7,1389634489.283804
3,76,0,22839,-403,108,1978,23258,3296,-9104,1488,23344,369,-357,5,1389634489.301328
3,77,0,24838,-507,208,2330,25135,3008,-9232,1632,23344,369,-357,5,1389634489.312984
3,78,0,26837,-601,369,2644,27012,2912,-9600,976,25922,379,-332,6,1389634489.313230
3,79,0,28837,-624,546,2971,28890,2640,-9680,1968,28500,385,-302,6,1389634489.331376
3,80,0,30836,-583,700,3444,30767,2768,-9008,4176,31079,397,-271,0,1389634489.343665
3,81,0,32835,-400,918,3962,32644,5136,-9056,4640,31079,397,-271,0,1389634489.343986
3,82,0,34835,-401,1077,4449,34521,8704,-9024,4240,33657,407,-489,-7,1389634489.362021
3,83,0,35834,-422,1119,4621,36398,9808,-8496,3744,36235,417,-187,-17,1389634489.374114
3,84,0,37834,-540,1195,4833,38275,8944,-8448,3456,36235,417,-187,-17,1389634489.374367
3,85,0,39833,-724,1325,4863,40151,7936,-8688,4272,38814,421,-143,-24,1389634489.392610
3,86,0,41832,-877,1433,4934,42028,7344,-8096,5888,41393,426,-99,-36,1389634489.398912
3,87,0,43832,-773,1559,4934,43904,8704,-6864,5824,43972,425,-53,-44,1389634489.411019
3,88,0,45831,-612,1748,4954,45781,11104,-7072,4944,43972,425,-53,-44,1389634489.423101
3,89,0,47830,-544,1911,4781,47658,12784,-6672,4224,46550,421,-9,-58,1389634489.423350
3,90,0,49830,-728,1871,4449,49535,13808,-7584,3744,49128,411,-227,-71,1389634489.440868
3,91,0,50829,-936,1829,4321,51411,13024,-10272,1824,51708,397,58,-80,1389634489.453112
3,92,0,52829,-1404,1743,3857,53288,13888,-9024,1680,51708,397,58,-80,1389634489.453367
3,93,0,54828,-1707,1634,3062,55165,5984,-4912,2336,54286,383,80,-95,1389634489.471662
3,94,0,56827,-1567,1766,1615,57041,864,-6864,2784,56865,366,86,-107,1389634489.483995
3,95,0,58827,-1607,1777,408,58919,464,-5120,5760,56865,366,86,-107,1389634489.484316
3,96,0,60826,-1130,2294,-77,60794,8912,-4864,5072,59445,354,86,-123,1389634489.502449
3,97,0,62825,-574,2289,-526,62672,6736,-6608,3056,62024,348,80,-136,1389634489.514542
3,98,0,64825,-332,1975,-1290,64548,2352,-5552,3584,64603,340,67,-146,1389634489.514864
3,99,0,288,-235,1771,-1518,889,1008,-4176,3792,64603,340,67,-146,1389634489.533087
3,100,0,2288,-82,1458,-1764,2766,512,-3280,3760,1647,335,56,-156,1389634489.533412
3,101,0,4287,97,1172,-1803,4642,-48,-2960,3568,4225,328,38,-159,1389634489.551608
3,102,0,6286,253,874,-1789,6519,400,-3184,3408,6804,328,30,-162,1389634489.564001
3,103,0,8286,387,430,-1829,8395,1056,-3312,2624,6804,328,30,-162,1389634489.564325
3,104,0,10285,449,-104,-2000,10272,1664,-3616,1808,9383,318,12,-158,1389634489.582618
3,105,0,12284,374,-642,-2161,12149,2224,-3808,1664,11962,318,252,-147,1389634489.589029
3,106,0,14284,268,-1135,-2292,14025,3216,-4144,1744,11962,318,252,-147,1389634489.600601
3,107,0,15283,230,-1381,-2386,15901,3968,-4176,2112,14540,314,-19,-133,1389634489.612292
3,108,0,17283,221,-1790,-2635,17778,3872,-4080,2128,17118,314,-34,-123,1389634489.624396
3,109,0,19282,305,-2124,-2887,19654,3792,-4192,2048,19698,301,-52,-101,1389634489.624539
3,110,0,21281,371,-2360,-3063,21531,3936,-4480,1792,19698,301,-52,-101,1389634489.642709
3,111,0,23281,403,-2505,-3285,23408,3744,-4800,1424,22276,301,-70,-88,1389634489.649104
3,112,0,25280,382,-2559,-3451,25285,3744,-5008,1264,24855,283,-82,-74,1389634489.661213
3,113,0,27279,353,-2514,-3558,27162,4048,-5280,1104,27433,283,-97,-66,1389634489.673492
3,114,0,29279,298,-2414,-3696,29039,4432,-5568,848,27433,283,-97,-66,1389634489.673822
3,115,0,30278,260,-2341,-3776,30916,4432,-6048,608,30012,267,-112,-59,1389634489.691608
3,116,0,32278,127,-2153,-3916,32793,4640,-6544,368,32591,267,-123,-60,1389634489.703892
3,117,0,34277,-77,-1908,-3996,34669,5104,-7312,544,32591,267,-123,-60,1389634489.704146
3,118,0,36276,-301,-1675,-4101,36547,5856,-8000,704,35170,265,-139,-56,1389634489.722225
3,119,0,38276,-522,-1462,-4176,38424,6704,-8992,880,37749,265,-155,-58,1389634489.734430
3,120,0,40275,-717,-1295,-4285,40300,7568,-9824,1120,40328,270,-172,-50,1389634489.734758
3,121,0,42274,-894,-1180,-4377,42176,8672,-10736,1632,40328,270,-172,-50,1389634489.752756
3,122,0,44273,-1023,-1109,-4488,44053,9856,-11632,2432,42908,270,-200,-41,1389634489.753043
3,123,0,45273,-1065,-1096,-4534,45930,11072,-12640,3024,45486,284,-237,-31,1389634489.770426
3,124,0,47272,-1100,-1143,-4583,47807,12112,-13408,3408,48066,284,-22,-19,1389634489.782621
3,125,0,49272,-1104,-1226,-4634,49684,13104,-14160,3808,48066,284,-22,-19,1389634489.788978
3,126,0,51271,-1094,-1349,-4653,51561,14640,-14480,3856,50644,276,-332,5,1389634489.801185
3,127,0,53270,-1144,-1476,-4609,53438,16176,-14048,3952,53224,276,-374,28,1389634489.813376
3,128,0,55270,-1243,-1552,-4582,55315,17648,-12864,4112,53224,276,-374,28,1389634489.813643
3,129,0,57269,-1386,-1551,-4520,57192,18800,-11008,3712,55804,220,-407,51,1389634489.831844
3,130,0,59268,-1562,-1502,-4388,59069,18928,-8720,2304,58383,220,-419,71,1389634489.844095
3,131,0,60268,-1686,-1475,-4292,60946,16256,-7360,-2368,60961,153,-434,91,1389634489.844346
3,132,0,62267,-2126,-1469,-3976,62822,17600,-3232,-6288,60961,153,-434,91,1389634489.861837
3,133,0,64267,-2754,-1800,-3480,64699,20880,2816,-4544,63540,153,-434,116,1389634489.873645
3,134,0,730,-2949,-1787,-2941,1039,22528,8608,-5392,583,107,-435,136,1389634489.873920
3,135,0,2729,-2642,-1366,-2259,2916,17984,11504,-4528,3161,107,-426,152,1389634489.891856
3,136,0,4729,-1963,-331,-1244,4794,13008,9792,-592,3161,107,-426,152,1389634489.904031
3,137,0,6728,-846,809,6,6671,14224,4368,1536,5739,97,-425,161,1389634489.904284
3,138,0,8727,40,1255,723,8548,13168,144,1632,8318,97,-417,155,1389634489.922293
3,139,0,9727,366,1348,855,10425,12240,-1408,1008,8318,97,-417,155,1389634489.934507
3,140,0,11726,828,1301,951,12302,3168,-352,13648,10897,116,-418,147,1389634489.934758
3,141,0,13726,3633,642,965,14179,6240,-9440,3712,13478,116,-422,127,1389634489.952977
3,142,0,15725,3461,411,1621,16055,-4768,-13824,8320,16056,141,-423,101,1389634489.953297
3,143,0,17724,3725,196,1620,17932,-10576,-8672,7776,16056,141,-423,101,1389634489.970715
3,144,0,19724,3387,459,2996,19809,5344,-10768,-6912,18635,141,-421,79,1389634489.983082
3,145,0,21723,2424,250,3616,21687,8960,-7264,-7936,21214,158,-410,58,1389634489.983388
3,146,0,23722,1845,213,3420,23564,12832,-12368,-7120,23793,180,-404,43,1389634490.838
3,147,0,24722,1538,327,3103,25441,12160,-13888,-7488,23793,180,-404,43,1389634490.13128
3,148,0,26721,816,628,2340,27318,8496,-10816,-7568,26372,198,-397,35,1389634490.13386
3,149,0,28721,119,924,1560,29196,6624,-9200,-4048,28951,212,-383,28,1389634490.31680
3,150,0,30720,-330,891,1154,31073,5472,-7872,2272,28951,212,-383,28,1389634490.43907
3,151,0,32719,-386,616,1082,32949,5344,-7024,5088,31530,218,-379,27,1389634490.44155
3,152,0,34719,-239,375,1150,34826,5360,-5968,5792,34108,227,-374,24,1389634490.62174
3,153,0,36718,-4,272,1086,36703,5168,-5808,4768,36687,234,-368,20,1389634490.74318
3,154,0,38717,202,213,990,38579,4560,-6608,2992,36687,234,-368,20,1389634490.74571
3,155,0,39717,262,195,966,40456,3712,-7072,1824,39266,238,-361,19,1389634490.92745
3,156,0,41716,295,192,924,42332,6096,-7824,3312,41846,244,-358,15,1389634490.99041
3,157,0,43716,405,373,925,44208,5600,-7584,-864,44424,251,-353,11,1389634490.111499
3,158,0,45715,372,287,704,46085,5056,-7600,-32,44424,251,-353,11,1389634490.123622
3,159,0,47714,222,218,700,47962,3648,-7216,672,47003,251,-347,6,1389634490.123944
3,160,0,49714,205,244,652,49839,3632,-6672,1680,49583,257,-345,5,1389634490.141999
3,161,0,51713,209,218,691,51716,4080,-6784,1968,49583,257,-345,5,1389634490.154263
3,162,0,53712,239,187,673,53592,3904,-7248,1328,52164,259,-340,1,1389634490.154581
3,163,0,54712,231,167,627,55469,4048,-7168,1344,54743,262,-336,-1,1389634490.172661
3,164,0,56711,224,172,580,57345,4656,-6976,1504,57321,265,-333,-4,1389634490.178985
3,165,0,58711,213,191,541,59222,4224,-6640,1584,57321,265,-333,-4,1389634490.191303
3,166,0,60710,211,178,486,61099,5024,-6736,1312,59899,270,-332,-6,1389634490.203676
3,167,0,62709,198,175,438,62975,4800,-6992,1184,62477,272,-328,-6,1389634490.203939
3,168,0,64709,185,147,359,64851,4544,-6912,896,65056,276,-325,-9,1389634490.222121
3,169,0,1172,161,138,222,1192,4720,-6512,1056,65056,276,-325,-9,1389634490.234352
3,170,0,3171,137,127,157,3068,4352,-6624,1120,2099,278,-327,-10,1389634490.234668
3,171,0,4171,127,106,122,4946,4352,-6512,832,4678,277,-327,-13,1389634490.253007
3,172,0,6170,89,86,56,6823,4320,-6448,1024,4678,277,-327,-13,1389634490.253318
3,173,0,8169,64,84,27,8699,4320,-6608,1136,7258,278,-326,-16,1389634490.270626
3,174,0,10169,39,71,16,10576,4352,-6560,1216,9838,277,-325,-15,1389634490.282648
3,175,0,12168,36,60,30,12452,4320,-6400,1312,12416,280,-326,-13,1389634490.288845
3,176,0,14167,37,45,22,14330,4384,-6304,1456,12416,280,-326,-13,1389634490.301173
3,177,0,16167,45,44,9,16207,4176,-6400,1456,14995,275,-330,-17,1389634490.313329
3,178,0,18166,52,42,11,18084,4128,-6448,1296,17575,282,-324,-17,1389634490.313581
3,179,0,20165,62,26,-14,19961,4384,-6464,1216,20155,279,-326,-15,1389634490.331750
3,180,0,21165,66,17,-22,21837,4416,-6480,1024,20155,279,-326,-15,1389634490.343999
3,181,0,23164,62,2,-10,23713,4304,-6640,896,22735,280,-324,-14,1389634490.344318
3,182,0,25164,34,1,5,25590,4288,-6592,896,25314,282,-324,-17,1389634490.362590
3,183,0,27163,-5,-3,57,27466,4336,-6464,1008,25314,282,-324,-17,1389634490.368944
3,184,0,29162,-20,-2,78,29342,4160,-6432,1120,27892,278,-323,-16,1389634490.381127
3,185,0,31162,-11,-22,41,31217,4912,-6608,1216,30471,282,-322,-19,1389634490.393455
3,186,0,33161,3,-8,3,33094,4352,-6336,1472,33050,282,-323,-17,1389634490.393772
3,187,0,35160,18,5,21,34971,4064,-6336,1648,33050,282,-323,-17,1389634490.411689
3,188,0,36160,21,19,12,36847,4096,-6336,1472,35628,276,-326,-16,1389634490.423918
3,189,0,38159,28,75,9,38723,4096,-6464,1344,38207,280,-321,-19,1389634490.424175
3,190,0,40159,32,106,26,40600,4016,-6400,1248,40786,279,-325,-19,1389634490.441685
3,191,0,42158,29,151,46,42476,4448,-6512,1184,40786,279,-325,-19,1389634490.453974
3,192,0,44157,6,137,79,44353,4368,-6480,1216,43366,281,-323,-16,1389634490.454291
3,193,0,46157,12,137,69,46230,4304,-6608,992,45946,280,-322,-24,1389634490.472474
3,194,0,48156,1,161,67,48106,4448,-6432,1248,45946,280,-322,-24,1389634490.484723
3,195,0,50155,-11,178,52,49983,3968,-7200,1392,48525,283,-318,-24,1389634490.485039
3,196,0,51155,-9,165,66,51859,4512,-6992,1456,51104,282,-319,-24,1389634490.503159
3,197,0,53154,-23,177,94,53736,4352,-6768,1200,53684,282,-319,-28,1389634490.503413
3,198,0,55154,-44,184,120,55612,4320,-7040,960,53684,282,-319,-28,1389634490.520904
3,199,0,57153,-56,176,142,57489,4816,-6624,1088,56262,286,-323,-24,1389634490.533065
3,200,0,59152,-68,163,158,59365,4272,-6880,912,58842,284,-317,-27,1389634490.533339
3,201,0,61152,-76,172,237,61242,4192,-6896,784,58842,284,-317,-27,1389634490.551379
3,202,0,63151,-73,181,275,63119,4048,-6992,1888,61422,286,-317,-25,1389634490.563546
3,203,0,65150,180,81,332,64996,3888,-7984,208,64002,287,-316,-27,1389634490.563803
3,204,0,614,81,100,396,1338,3536,-7616,1088,1045,287,-309,-30,1389634490.581982
3,205,0,2613,-107,98,540,3215,4128,-7440,784,1045,287,-309,-30,1389634490.594302
3,206,0,4613,-82,76,721,5092,4048,-7552,560,3624,290,-307,-30,1389634490.594624
3,207,0,6612,-162,50,844,6968,4192,-7264,1264,6204,291,-301,-30,1389634490.612954
3,208,0,8611,-156,33,981,8846,4528,-7120,960,8783,295,-296,-29,1389634490.613250
3,209,0,10611,-186,22,1128,10724,4176,-7360,1168,8783,295,-296,-29,1389634490.631422
3,210,0,12610,-201,37,1252,12601,3984,-7504,1024,11362,301,-288,-30,1389634490.643711
3,211,0,14609,-239,49,1395,14477,4000,-7520,1152,13942,304,-277,-32,1389634490.644036
3,212,0,15609,-257,48,1481,16354,4208,-7568,1232,13942,304,-277,-32,1389634490.661679
3,213,0,17608,-296,90,1657,18231,3952,-8096,944,16523,307,-268,-28,1389634490.673876
3,214,0,19608,-352,143,1866,20109,3856,-8656,416,19102,316,-510,-27,1389634490.674125
3,215,0,21607,-461,187,2120,21986,3312,-9136,224,21681,321,-236,-28,1389634490.692399
3,216,0,23606,-575,223,2403,23864,3088,-9824,352,21681,321,-236,-28,1389634490.704277
3,217,0,25606,-689,289,2762,25740,2224,-9872,1408,24258,327,-217,-29,1389634490.704497
3,218,0,27605,-760,465,3188,27617,1808,-9232,2736,26837,332,-196,-31,1389634490.722281
3,219,0,29604,-721,699,3739,29493,3456,-9184,2880,29416,342,-170,-34,1389634490.733637
3,220,0,30604,-706,776,4056,31371,6352,-9600,2544,29416,342,-170,-34,1389634490.733819
3,221,0,32603,-871,817,4658,33248,9904,-9920,2496,31995,349,-132,-41,1389634490.750198
3,222,0,34603,-1239,849,5059,35124,10336,-10336,4144,34574,355,-94,-45,1389634490.761496
3,223,0,36602,-1547,949,5227,37000,9456,-9584,6960,34574,355,-94,-45,1389634490.773140
3,224,0,38601,-1413,1240,5148,38877,7984,-8480,8240,37151,358,-56,-55,1389634490.773326
3,225,0,40601,-834,1504,5135,40755,8320,-7696,7200,39729,357,-15,-63,1389634490.790756
3,226,0,42600,-362,1807,5109,42631,10688,-6096,6224,42308,354,-236,-77,1389634490.803082
3,227,0,44599,125,2143,5023,44507,11280,-5408,5488,42308,354,-236,-77,1389634490.803335
3,228,0,45599,306,2221,4861,46384,9760,-7344,4208,44886,351,57,-93,1389634490.821361
3,229,0,47598,338,2175,4678,48261,8464,-10352,2640,47465,343,91,-103,1389634490.833611
3,230,0,49597,-88,1971,4545,50138,9520,-10736,2384,50043,330,120,-116,1389634490.833835
3,231,0,51597,-607,1735,4200,52014,8368,-8576,3184,50043,330,120,-116,1389634490.852027
3,232,0,53596,-869,1595,3474,53892,5552,-4688,3104,52622,318,141,-122,1389634490.864177
3,233,0,55595,-672,1391,2664,55769,-1488,-2992,1792,55201,309,156,-134,1389634490.864405
3,234,0,57595,-668,1451,1461,57646,-64,-1936,3392,55201,309,156,-134,1389634490.882385
3,235,0,59594,-362,1722,1449,59523,17088,-5008,3008,57779,301,163,-143,1389634490.894650
3,236,0,60594,-101,1501,1413,61400,10000,-6224,3408,60359,298,163,-152,1389634490.894936
3,237,0,62593,26,1186,-419,63277,4736,-4864,4256,62937,290,155,-157,1389634490.912494
3,238,0,64592,429,758,-1354,65154,3200,-3776,3840,62937,290,155,-157,1389634490.924636
3,239,0,1056,659,464,-1959,1493,2416,-3440,3520,65516,300,144,-156,1389634490.924955
3,240,0,3055,803,272,-2356,3370,2112,-3312,3584,2559,306,127,-150,1389634490.942927
3,241,0,5054,943,150,-2595,5247,2080,-3120,3440,5138,316,106,-144,1389634490.943183
3,242,0,7054,1064,48,-2831,7123,1888,-3440,2928,5138,316,106,-144,1389634490.961316
3,243,0,9053,1087,-90,-3014,9000,2768,-3824,2400,7718,327,84,-136,1389634490.973603
3,244,0,10053,1072,-205,-3111,10877,3760,-4016,2400,10296,337,56,-126,1389634490.973930
3,245,0,12052,1027,-455,-3392,12754,4160,-4000,1984,10296,337,56,-126,1389634490.991239
3,246,0,14051,1014,-653,-3729,14631,4176,-3840,1648,12876,346,29,-115,1389634491.3397
3,247,0,16051,925,-840,-3998,16508,3424,-4096,960,15454,346,250,-105,1389634491.3720
3,248,0,18050,620,-1005,-4188,18384,3376,-4544,784,18032,353,-42,-96,1389634491.21780
3,249,0,20049,258,-1166,-4323,20262,3840,-4784,896,18032,353,-42,-96,1389634491.33954
3,250,0,22049,-23,-1334,-4437,22138,3728,-4704,1248,20611,352,-81,-82,1389634491.34208
3,251,0,24048,-152,-1483,-4540,24015,3856,-3648,1168,23190,348,-117,-70,1389634491.52256
3,252,0,25048,-159,-1552,-4521,25893,3920,-4864,1904,25770,338,-156,-62,1389634491.64242
3,253,0,27047,-202,-1640,-4517,27771,4320,-5328,2000,25770,338,-156,-62,1389634491.64494
3,254,0,29046,-230,-1699,-4520,29648,4608,-6064,1824,28350,326,-185,-41,1389634491.82873
3,255,0,31046,-294,-1722,-4517,31525,5104,-7072,1632,30929,306,-215,-36,1389634491.83110
3,0,0,33045,-405,-1689,-4476,33401,6224,-7904,1376,30929,306,-215,-36,1389634491.101277
3,1,0,35044,-573,-1645,-4457,35279,7248,-8688,1152,33509,284,-239,-22,1389634491.113161
3,2,0,37044,-810,-1604,-4517,37156,8112,-9504,976,36088,266,-1,-8,1389634491.113421
3,3,0,39043,-1139,-1505,-4538,39033,8800,-10272,1296,38666,245,-273,3,1389634491.131564
3,4,0,40043,-1321,-1468,-4540,40910,9952,-10944,2288,38666,245,-273,3,1389634491.143674
3,5,0,42042,-1607,-1416,-4530,42786,10720,-11328,3984,41245,217,-285,16,1389634491.143875
3,6,0,44041,-1599,-1446,-4554,44664,11248,-11664,5456,43824,194,-293,32,1389634491.162047
3,7,0,46041,-1294,-1558,-4532,46540,12016,-11968,6368,46403,170,-298,45,1389634491.174403
3,8,0,48040,-817,-1747,-4463,48417,12672,-12416,6112,46403,170,-298,45,1389634491.174719
3,9,0,50039,-448,-1919,-4382,50294,13248,-12656,5152,48982,152,-299,56,1389634491.192903
3,10,0,52039,-342,-2029,-4305,52171,13584,-12288,4512,51561,137,-303,54,1389634491.193152
3,11,0,54038,-465,-2054,-4210,54047,13856,-11728,4416,51561,137,-303,54,1389634491.211448
3,12,0,55038,-562,-2055,-4145,55923,13984,-10736,4128,54140,124,-311,66,1389634491.223333
3,13,0,57037,-734,-2103,-3947,57800,13840,-9536,3344,56720,116,-320,78,1389634491.223666
3,14,0,59036,-867,-2178,-3711,59678,13200,-8240,1728,59299,105,-330,94,1389634491.241272
3,15,0,61036,-1021,-2287,-3379,61555,12304,-7296,-2176,59299,105,-330,94,1389634491.252962
3,16,0,63035,-1324,-2465,-2923,63432,13008,-4624,-1744,61878,97,-338,110,1389634491.253279
3,17,0,65034,-1662,-2434,-2430,65308,14416,-1296,160,64457,82,-345,128,1389634491.270592
3,18,0,1498,-1548,-2139,-1937,1647,16432,2320,-944,1500,69,-341,146,1389634491.282895
3,19,0,3497,-1498,-1503,-1504,3523,17760,4144,-4144,1500,69,-341,146,1389634491.283144
3,20,0,4497,-1649,-1113,-1333,5400,16224,4592,-3808,4079,58,-344,159,1389634491.301014
3,21,0,6496,-1959,-329,-919,7276,13536,4496,816,6657,46,-334,166,1389634491.313327
3,22,0,8495,-1535,418,-382,9153,11968,2912,4592,6657,46,-334,166,1389634491.313645
2,23,0,13420,-27962,12689,20409,13709,3760,-8192,-1552,9700,197,-304,-21,1389634491.331902
3,23,0,10495,-402,872,39,11029,11104,1200,4656,9236,45,-332,171,1389634491.331911
2,24,0,15434,118,62,-367,15587,3504,-8560,-656,15636,411,-395,-27,1389634491.344223
3,24,0,12494,637,981,284,12906,11072,-640,2544,11816,47,-328,171,1389634491.344233
2,25,0,17447,120,61,-388,17466,3472,-8512,16,15636,411,-395,-27,1389634491.344503
3,25,0,14493,1084,890,513,14782,11168,-2304,528,14395,50,-332,164,1389634491.344509
2,26,0,19460,117,61,-393,19344,3920,-8464,-1888,18197,155,-392,-28,1389634491.362136
3,26,0,16493,940,666,731,16660,10608,-3072,48,14395,50,-332,164,1389634491.362145
2,27,0,21474,125,62,-393,21223,3760,-8432,-224,20758,165,-383,-32,1389634491.368307
3,27,0,18492,592,322,895,18537,9136,-2752,800,16974,53,-332,156,1389634491.368560
2,28,0,22481,121,55,-389,23101,4128,-8480,-992,23320,165,-375,-32,1389634491.380829
3,28,0,19492,448,151,992,20414,5936,-2192,2016,19554,56,-332,158,1389634491.380845
2,29,0,24473,93,47,-405,24979,3696,-8288,-624,23320,165,-375,-32,1389634491.393027
3,29,0,21491,722,-318,1293,22292,-592,-12800,4256,22133,61,-332,159,1389634491.393037
2,30,0,26461,69,51,-340,26857,3984,-8256,-160,25881,171,-366,-29,1389634491.393235
3,30,0,23490,1937,-976,1214,24168,-25920,-14688,20512,22133,61,-332,159,1389634491.393241
2,31,0,28450,25,31,-255,28735,3760,-9008,448,28442,177,-356,-29,1389634491.411281
3,31,0,25490,2447,168,1129,25576,-25968,-6752,11504,24712,61,-338,152,1389634491.411291
2,32,0,30439,-33,21,-59,30613,3456,-9680,-80,28442,177,-356,-29,1389634491.423351
3,32,0,27489,2723,97,3595,27453,12112,-6832,-9792,27289,60,-335,140,1389634491.423361
2,33,0,32428,-47,-8,397,32491,3504,-9664,-752,31004,187,-343,-33,1389634491.423596
3,33,0,29488,1359,-107,4529,29331,10080,-1840,-5632,27289,60,-335,140,1389634491.423602
2,34,0,34417,84,-120,1214,34370,3440,-9472,-896,33565,196,-324,-31,1389634491.441244
3,34,0,31488,1226,-605,4189,31207,14448,-11840,128,29868,75,-325,133,1389634491.441292
2,35,0,36407,325,-342,2153,36249,3008,-9904,-1488,36126,206,-305,-29,1389634491.453332
3,35,0,33487,1219,-82,3437,33083,12224,-15728,-3072,32448,89,-316,134,1389634491.453342
2,36,0,37401,448,-487,2647,38126,2976,-10240,-2512,36126,206,-305,-29,1389634491.453624
3,36,0,34487,1094,351,3028,34959,10016,-13168,-9360,35028,95,-312,124,1389634491.453631
2,37,0,39391,682,-831,3743,40004,3264,-10416,-4384,38688,217,-284,-28,1389634491.471298
3,37,0,36486,455,911,2262,36835,8624,-9904,-6176,35028,95,-312,124,1389634491.471314
2,38,0,41380,524,-1035,4473,41883,6640,-10528,-4304,41249,229,-511,-22,1389634491.483614
3,38,0,38485,-122,1253,1413,38711,6448,-9088,-448,37606,99,-312,124,1389634491.483629
2,39,0,43370,351,-1194,5000,43761,9296,-10432,-2384,43810,250,-219,-13,1389634491.483949
3,39,0,40485,-323,1158,978,40588,5680,-7232,4848,40187,106,-302,120,1389634491.483960
2,40,0,45359,543,-1237,5198,45640,10016,-10224,-2112,43810,250,-219,-13,1389634491.502139
3,40,0,42484,-263,686,1122,42464,5680,-5728,7856,42766,108,-297,120,1389634491.502154
2,41,0,47349,933,-1279,5287,47519,8656,-10368,-2608,46372,250,-187,-7,1389634491.508446
3,41,0,44483,-42,260,1228,44342,5888,-5600,7520,42766,108,-297,120,1389634491.508765
2,42,0,49338,1224,-1398,5366,49398,7104,-9840,-4144,48933,257,-151,3,1389634491.521050
3,42,0,46482,259,149,1162,46218,5760,-6528,4400,45345,114,-295,121,1389634491.521065
2,43,0,51328,1259,-1571,5425,51277,9632,-9648,-5280,51493,257,-120,16,1389634491.533294
3,43,0,48482,414,148,1166,48095,3888,-7008,2656,47924,119,-294,115,1389634491.533303
2,44,0,53317,816,-2004,5209,53155,8992,-6720,-5216,51493,257,-120,16,1389634491.533572
3,44,0,49481,418,196,1013,49973,4208,-7088,960,47924,119,-294,115,1389634491.533578
2,45,0,54312,548,-2012,5259,55032,11392,-7712,-3376,54056,255,-84,32,1389634491.551880
3,45,0,51481,432,251,1014,51849,4144,-7776,896,50502,122,-290,116,1389634491.551889
2,46,0,56301,415,-1938,5064,56911,10928,-7552,-1488,56618,251,-57,50,1389634491.564178
3,46,0,53480,385,337,937,53726,5888,-7792,2032,53082,122,-288,111,1389634491.564193
2,47,0,58291,678,-1934,4641,58789,10176,-8608,-816,56618,251,-57,50,1389634491.564524
3,47,0,55479,405,363,799,55603,7216,-8816,-1472,55662,127,-285,112,1389634491.564535
2,48,0,60280,1124,-1754,4162,60667,8896,-9296,-784,59181,242,-32,65,1389634491.582123
3,48,0,57479,163,197,758,57480,3424,-6624,608,55662,127,-285,112,1389634491.582132
2,49,0,62270,1542,-1585,3701,62545,7648,-7840,-1424,61743,226,-17,82,1389634491.588417
3,49,0,59478,148,253,675,59357,3200,-6816,1680,58240,130,-285,108,1389634491.588737
2,50,0,64259,1734,-1394,3163,64423,4656,-4064,-1728,64304,218,-4,96,1389634491.599958
3,50,0,61477,229,276,700,61234,2832,-6448,1856,60820,129,-285,106,1389634491.599968
2,51,0,712,1885,-1239,1847,765,-1088,-3360,-3056,64304,218,-4,96,1389634491.612305
3,51,0,63477,246,252,771,63110,3920,-7120,1232,63399,130,-281,106,1389634491.612320
2,52,0,2702,1706,-1215,699,2643,16480,-6320,-3792,1329,203,-8,108,1389634491.612624
3,52,0,64476,280,213,761,64988,3872,-7664,720,63399,130,-281,106,1389634491.618098
2,53,0,4691,955,-732,240,4521,11552,-7680,-2448,3889,194,-7,117,1389634491.630206
3,53,0,940,262,171,681,1329,4544,-7280,768,444,136,-279,106,1389634491.630221
2,54,0,5686,872,-514,-672,6399,4016,-5248,-3536,6451,180,-20,126,1389634491.642144
3,54,0,2939,309,193,544,3206,6208,-7568,912,3023,137,-279,103,1389634491.642153
2,55,0,7676,618,16,-1773,8277,2144,-4000,-3072,6451,180,-20,126,1389634491.642396
3,55,0,4938,286,169,430,5082,4544,-6672,1808,3023,137,-279,103,1389634491.653324
2,56,0,9665,288,389,-2289,10155,1248,-3520,-2832,9012,180,-39,126,1389634491.653478
3,56,0,6938,217,83,326,6959,4176,-6976,1712,5603,140,-278,103,1389634491.653484
2,57,0,11654,-2,638,-2565,12033,-64,-3408,-2240,11574,168,-44,124,1389634491.671617
3,57,0,8937,194,58,270,8836,4384,-6336,1728,8182,140,-275,98,1389634491.671632
2,58,0,13644,-269,810,-2608,13910,-208,-3808,-1584,11574,168,-44,124,1389634491.684023
3,58,0,10936,182,30,186,10714,4224,-6416,2064,10762,139,-280,102,1389634491.684107
2,59,0,15633,-487,1018,-2523,15788,640,-3424,-480,14135,168,-56,124,1389634491.684450
3,59,0,12936,182,33,99,12591,4160,-6832,1008,10762,139,-280,102,1389634491.684461
2,60,0,17623,-503,1220,-2592,17667,1040,-3024,-320,16697,168,-67,123,1389634491.702534
3,60,0,13935,141,60,69,14469,4160,-6800,1088,13341,139,-277,100,1389634491.702541
2,61,0,19612,-553,1349,-2684,19545,2224,-3280,304,19260,164,-78,123,1389634491.702784
3,61,0,15935,103,60,67,16345,4112,-6784,832,15920,137,-280,96,1389634491.702967
2,62,0,20607,-551,1405,-2753,21423,2992,-3616,784,19260,164,-78,123,1389634491.720961
3,62,0,17934,63,62,51,18222,4176,-6608,896,18500,137,-276,99,1389634491.720977
2,63,0,22596,-445,1503,-2989,23300,3008,-3680,928,21823,160,-83,121,1389634491.733198
3,63,0,19933,32,40,61,20099,4080,-6624,1280,18500,137,-276,99,1389634491.733208
2,64,0,24586,-306,1588,-3283,25179,2944,-3504,1136,24384,163,-98,116,1389634491.733480
3,64,0,21933,31,40,66,21976,4000,-6560,1296,21078,139,-276,101,1389634491.733487
2,65,0,26575,-161,1623,-3505,27056,3056,-3792,1088,26947,161,-111,113,1389634491.751638
3,65,0,23932,39,52,89,23853,4112,-6464,1376,23658,139,-279,97,1389634491.751647
2,66,0,28565,-19,1584,-3659,28934,2880,-3632,1168,26947,161,-111,113,1389634491.764005
3,66,0,25931,37,68,92,25730,4064,-6592,1456,23658,139,-279,97,1389634491.764020
2,67,0,30554,88,1545,-3787,30812,2448,-3488,1520,29508,158,-130,113,1389634491.764326
3,67,0,27931,39,88,93,27608,4064,-6464,1456,26237,142,-275,95,1389634491.764332
2,68,0,32544,210,1448,-3795,32690,2528,-3760,1696,32070,157,-148,106,1389634491.781585
3,68,0,28930,36,86,94,29485,4240,-6384,1312,28815,142,-276,97,1389634491.781594
2,69,0,34533,355,1332,-3658,34568,3152,-4896,1760,34631,158,-164,103,1389634491.793958
3,69,0,30930,17,60,79,31364,4336,-6544,1200,31395,143,-276,99,1389634491.793973
2,70,0,36523,417,1309,-3534,36446,4672,-5216,608,34631,158,-164,103,1389634491.794299
3,70,0,32929,10,53,43,33240,4224,-6560,1296,31395,143,-276,99,1389634491.794309
2,71,0,37517,384,1286,-3518,38324,5728,-5632,-96,37193,155,-182,104,1389634491.812234
3,71,0,34928,17,55,45,35117,4208,-6640,1104,33975,143,-272,95,1389634491.812250
2,72,0,39507,204,1202,-3569,40202,6992,-6064,176,39755,131,-197,96,1389634491.812560
3,72,0,36928,-1,42,55,36995,4064,-6512,1200,36555,142,-274,98,1389634491.818900
2,73,0,41496,58,1050,-3614,42080,7824,-6576,880,39755,131,-197,96,1389634491.831054
3,73,0,38927,-17,44,67,38873,3872,-6720,1392,39135,142,-273,96,1389634491.831063
2,74,0,43486,115,827,-3689,43958,7616,-7072,1600,42317,131,-209,95,1389634491.842898
3,74,0,40926,-13,51,88,40750,4144,-6528,1264,39135,142,-273,96,1389634491.842912
2,75,0,45475,346,602,-3745,45835,7632,-7936,1696,44878,120,-213,95,1389634491.843240
3,75,0,42926,-17,58,105,42628,4160,-6576,1184,41716,146,-272,95,1389634491.843250
2,76,0,47465,645,374,-3708,47712,8240,-8400,928,47440,102,-219,94,1389634491.860976
3,76,0,43925,-23,50,111,44505,4176,-6544,1200,44293,146,-273,96,1389634491.860985
2,77,0,49454,808,232,-3691,49590,9248,-8576,112,47440,102,-219,94,1389634491.872784
3,77,0,45925,-32,46,106,46383,4208,-6608,1232,44293,146,-273,96,1389634491.872799
2,78,0,51444,789,159,-3704,51468,10352,-8992,-448,50002,89,-220,95,1389634491.873101
3,78,0,47924,-46,29,96,48260,4288,-6528,1312,46871,143,-273,96,1389634491.873111
2,79,0,53433,691,115,-3758,53345,10976,-9520,-544,52563,80,-215,100,1389634491.891324
3,79,0,49923,-44,34,88,50138,4112,-6544,1296,49450,143,-273,97,1389634491.891334
2,80,0,54428,663,99,-3792,55222,11344,-10016,-496,55126,73,-213,107,1389634491.903578
3,80,0,51923,-47,45,92,52015,4160,-6512,1376,52029,142,-270,97,1389634491.903587
2,81,0,56417,663,136,-3891,57100,11152,-10288,-608,55126,73,-213,107,1389634491.903913
3,81,0,53922,-42,54,103,53892,4336,-6320,1456,52029,142,-270,97,1389634491.903920
2,82,0,58407,680,263,-4003,58979,10640,-10208,-1120,57688,70,-215,112,1389634491.921770
3,82,0,55921,-44,56,107,55769,4608,-6496,1216,54608,142,-270,98,1389634491.921786
2,83,0,60396,634,441,-4039,60856,10256,-10320,-1616,60249,78,-224,124,1389634491.934192
3,83,0,57921,-57,64,116,57646,4336,-6624,1248,57187,145,-269,91,1389634491.934201
2,84,0,62386,519,655,-3989,62735,9968,-10304,-1728,62810,88,-237,132,1389634491.934473
3,84,0,58920,-67,61,127,59523,3808,-6976,1120,59766,145,-267,96,1389634491.934479
2,85,0,64375,411,827,-3886,64612,9760,-10272,-1232,62810,88,-237,132,1389634491.952734
3,85,0,60920,-117,125,145,61400,4112,-6592,1184,59766,145,-267,96,1389634491.952743
2,86,0,829,379,946,-3742,954,9408,-10352,-880,65371,97,-255,138,1389634491.953010
3,86,0,62919,-142,180,253,63278,4336,-6512,1152,62345,148,-266,96,1389634491.953016
2,87,0,2818,388,1018,-3560,2831,8848,-10112,-960,2397,121,-284,142,1389634491.970581
3,87,0,64918,-151,142,277,65156,4608,-6448,1264,64922,148,-269,98,1389634491.970597
2,88,0,3813,371,1036,-3451,4709,8576,-9808,-784,2397,121,-284,142,1389634491.982491
3,88,0,1382,-118,94,245,1496,4464,-6688,1568,64922,148,-269,98,1389634491.982500
2,89,0,5802,280,1096,-3183,6586,8288,-9216,-816,4957,121,-316,144,1389634491.982685
3,89,0,3381,-103,78,238,3373,4432,-6432,1776,1967,148,-262,92,1389634491.982925
2,90,0,7792,175,1148,-2841,8464,8928,-9008,-704,7519,125,-347,142,1389634492.1001
3,90,0,5380,-59,92,240,5249,4176,-6224,1616,4546,148,-261,94,1389634492.1010
2,91,0,9781,48,1221,-2492,10342,10832,-8640,-1152,10081,121,-373,138,1389634492.13238
3,91,0,7380,-28,102,221,7125,4592,-6304,1488,7124,153,-262,96,1389634492.13248
2,92,0,11771,-164,1251,-2293,12220,11152,-6816,-1232,10081,121,-373,138,1389634492.13477
3,92,0,8379,-17,103,219,9002,4672,-6512,1040,7124,153,-262,96,1389634492.13484
2,93,0,13760,-406,1208,-2221,14098,10464,-5248,-512,12642,116,-397,135,1389634492.31694
3,93,0,10379,-13,97,196,10879,4496,-6816,928,9704,152,-261,95,1389634492.31709
2,94,0,15750,-493,1090,-2064,15975,9888,-4096,352,15203,102,-412,139,1389634492.44090
3,94,0,12378,-74,104,195,12757,3712,-6912,1696,12283,153,-257,93,1389634492.44105
2,95,0,17739,-401,825,-1815,17852,9632,-2240,1232,17764,91,-422,141,1389634492.44429
3,95,0,14377,-46,36,224,14633,4224,-6880,944,14862,154,-258,96,1389634492.44439
2,96,0,19728,-118,435,-1491,19731,9744,-688,1824,17764,91,-422,141,1389634492.62481
3,96,0,16377,-83,22,325,16509,4576,-6688,1008,14862,154,-258,96,1389634492.62490
2,97,0,20723,59,215,-1302,21608,10400,-112,2112,20324,76,-439,137,1389634492.62738
3,97,0,18376,-91,-2,351,18386,4304,-6512,1168,17441,154,-509,93,1389634492.62986
2,98,0,22713,431,-170,-918,23487,10160,128,1312,22883,65,-443,137,1389634492.81120
3,98,0,20375,-92,-3,379,20262,4352,-6448,1424,20020,152,-252,94,1389634492.81130
2,99,0,24702,568,-444,-559,25364,9248,-192,-16,22883,65,-443,137,1389634492.93390
3,99,0,22375,-117,8,411,22139,4400,-6576,1216,20020,152,-252,94,1389634492.93405
2,100,0,26692,378,-609,-165,27243,8768,-1168,-992,25443,57,-450,139,1389634492.93704
3,100,0,23374,-125,13,421,24015,4480,-6544,992,22599,154,-250,91,1389634492.93714
2,101,0,28681,11,-668,205,29120,8304,-2384,-1696,28004,46,-451,135,1389634492.111311
3,101,0,25374,-143,4,463,25891,4560,-6448,1264,25178,157,-245,94,1389634492.111319
2,102,0,30670,-329,-670,475,30998,7488,-3536,-2000,30566,38,-453,138,1389634492.123443
3,102,0,27373,-163,0,497,27769,4496,-6320,1456,27757,157,-241,96,1389634492.123459
2,103,0,32660,-526,-642,669,32876,6736,-4352,-1856,30566,38,-453,138,1389634492.123789
3,103,0,29372,-178,-8,515,29646,4928,-6368,1152,27757,157,-241,96,1389634492.123799
2,104,0,34649,-596,-520,804,34754,6048,-5104,-1824,33128,38,-451,141,1389634492.142067
3,104,0,31372,-190,-19,545,31523,4608,-6528,1120,30335,156,-239,97,1389634492.142077
2,105,0,36639,-609,-289,829,36632,4928,-5504,-1952,35690,44,-448,145,1389634492.148361
3,105,0,33371,-204,-32,594,33400,4432,-6288,1664,32914,160,-236,94,1389634492.148632
2,106,0,37634,-613,-138,831,38510,4128,-5520,-2640,38253,46,-447,148,1389634492.160578
3,106,0,35370,-202,-28,623,35277,4352,-6608,1600,35494,161,-232,98,1389634492.160588
2,107,0,39623,-700,227,832,40388,3728,-5248,-3056,38253,46,-447,148,1389634492.172964
3,107,0,37370,-196,-32,676,37154,4928,-6368,1504,35494,161,-232,98,1389634492.173049
2,108,0,41613,-857,655,849,42265,3568,-4496,-2432,40813,50,-442,155,1389634492.173402
3,108,0,38369,-197,-25,714,39030,4720,-6256,1744,38072,160,-228,94,1389634492.173408
2,109,0,43602,-913,1155,929,44144,4160,-4016,-1568,43375,52,-443,150,1389634492.191166
3,109,0,40369,-191,-14,757,40907,4592,-6192,2032,40652,166,-224,95,1389634492.191181
2,110,0,45591,-853,1657,1081,46023,-7504,-7168,-16,45936,63,-441,146,1389634492.203367
3,110,0,42368,-179,16,821,42784,4720,-6048,1968,40652,166,-224,95,1389634492.203376
2,111,0,47581,-221,1847,1138,47902,-2672,-9120,-304,45936,63,-441,146,1389634492.203647
3,111,0,44367,-142,46,888,44661,4928,-5984,1936,43232,165,-213,96,1389634492.203653
2,112,0,49570,170,1992,1570,49780,-14784,-16576,-13456,48496,77,-437,141,1389634492.221205
3,112,0,46367,-124,78,944,46538,4896,-6176,1792,45811,165,-210,94,1389634492.221215
2,113,0,51560,-659,1093,1378,51659,-14000,-12624,-14624,51056,88,-434,131,1389634492.232787
3,113,0,48366,-114,99,1002,48416,4912,-6480,1696,48391,168,-208,96,1389634492.232797
2,114,0,52555,-1233,418,1642,53538,5264,-9920,10224,51056,88,-434,131,1389634492.232999
3,114,0,50365,-109,122,1069,50293,4704,-6768,1984,48391,168,-208,96,1389634492.233003
2,115,0,54544,-2097,-309,2106,55417,7648,-4528,8736,53617,103,-427,138,1389634492.251094
3,115,0,52365,-103,165,1183,52170,4496,-6864,2384,50970,171,-199,91,1389634492.251103
2,116,0,56534,-646,-205,2932,56825,11088,-8336,5984,56177,109,-418,140,1389634492.263048
3,116,0,53364,-98,185,1261,54048,4416,-6880,2496,53550,171,-192,91,1389634492.263057
2,117,0,58523,39,-176,3068,58703,10944,-12000,1728,58738,132,-409,139,1389634492.263250
3,117,0,55364,-96,280,1438,55925,4496,-6928,2736,56129,174,-182,90,1389634492.263256
2,118,0,60512,176,-267,2654,60581,9184,-12016,4512,58738,132,-409,139,1389634492.281304
3,118,0,57363,-89,416,1646,57803,4416,-7216,3312,56129,174,-182,90,1389634492.281314
2,119,0,62502,635,-176,2188,62460,8304,-10560,2640,61298,132,-406,134,1389634492.293605
3,119,0,59362,6,555,1854,59680,4160,-7392,2368,58708,178,-170,88,1389634492.293621
2,120,0,64491,921,-142,1767,64338,6880,-8720,256,63859,143,-401,126,1389634492.293972
3,120,0,61362,30,687,2155,61557,5744,-7344,3744,61285,179,-157,84,1389634492.293982
2,121,0,945,927,-220,1483,681,5680,-8048,-336,883,149,-396,122,1389634492.310942
3,121,0,63361,54,877,2453,63434,6448,-7088,3808,61285,179,-157,84,1389634492.310949
2,122,0,2934,904,-177,1324,2558,4416,-7552,-1888,883,149,-396,122,1389634492.322785
3,122,0,65360,127,978,2608,65311,8768,-7600,3632,63864,181,-144,81,1389634492.322795
2,123,0,3929,862,-148,1249,4437,3072,-6848,-3824,3444,158,-395,119,1389634492.323069
3,123,0,1823,-13,1104,2717,1652,8832,-7152,4128,906,184,-128,72,1389634492.323074
2,124,0,5919,677,-162,1188,6316,8128,-7792,-6224,6007,163,-392,112,1389634492.341125
3,124,0,2823,-115,1154,2638,3529,9312,-7536,3520,3485,187,-109,67,1389634492.341140
2,125,0,7908,128,-302,1353,8195,5440,-6672,-6016,8569,171,-389,114,1389634492.353487
3,125,0,4822,-418,1344,2597,5406,9600,-6848,4240,3485,187,-109,67,1389634492.353503
2,126,0,9898,-493,-260,912,10072,3648,-5600,-4480,8569,171,-389,114,1389634492.353829
3,126,0,6822,-663,1513,2463,7282,8144,-4736,5328,6064,190,-95,56,1389634492.353840
2,127,0,11887,-884,-366,897,11951,944,-8960,-2720,11129,174,-382,120,1389634492.371926
3,127,0,8821,-595,1700,2374,9159,8848,-5776,4272,8645,193,-77,47,1389634492.371941
2,128,0,13876,-646,-129,974,13829,3056,-8896,528,13689,178,-376,121,1389634492.378008
3,128,0,10820,-700,1845,2384,11036,9376,-5936,4576,11223,192,-62,35,1389634492.378323
2,129,0,15866,-410,-327,623,15707,8816,-7504,768,13689,178,-376,121,1389634492.390504
3,129,0,12820,-660,2105,2116,12913,7312,-4384,4672,11223,192,-62,35,1389634492.390514
2,130,0,17855,-325,-162,348,17585,3840,-6288,-1696,16251,179,-377,125,1389634492.402747
3,130,0,14819,-461,2145,1715,14790,6000,-4992,1552,13802,195,-47,21,1389634492.402757
2,131,0,19845,-245,-125,207,19463,4736,-7984,512,18811,184,-373,127,1389634492.403026
3,131,0,16818,-735,2295,1555,16668,8464,-4848,1152,16381,197,-31,6,1389634492.403076
2,132,0,20840,-177,-115,203,21342,3776,-7488,800,21373,183,-370,124,1389634492.421279
3,132,0,17818,-978,2287,1399,18545,7168,-3904,1648,16381,197,-31,6,1389634492.421288
2,133,0,22829,11,-67,197,23220,4464,-7328,-144,21373,183,-370,124,1389634492.433622
3,133,0,19817,-1372,2299,880,20423,4528,-2752,3072,18960,196,-21,-7,1389634492.433636
2,134,0,24819,116,-9,208,25098,3968,-7264,-400,23935,183,-372,129,1389634492.433964
3,134,0,21817,-1461,2315,322,22300,4016,-2624,3872,21539,196,-13,-24,1389634492.433974
2,135,0,26808,167,26,180,26975,4064,-7040,-816,26497,182,-370,127,1389634492.452214
3,135,0,23816,-1294,2188,-85,24178,4576,-2544,3968,24119,200,-7,-41,1389634492.452223
2,136,0,28797,190,31,187,28853,3872,-6944,-1664,29059,185,-369,125,1389634492.452468
3,136,0,25815,-966,2009,-436,26055,6512,-2512,4064,24119,200,-7,-41,1389634492.464783
2,137,0,30787,152,31,179,30731,3936,-6928,-1584,29059,185,-369,125,1389634492.465044
3,137,0,27815,-630,1779,-588,27932,7040,-2256,3696,26699,200,-5,-54,1389634492.465049
2,138,0,32776,148,8,166,32609,3920,-6960,-1600,31620,185,-370,125,1389634492.483154
3,138,0,29814,-295,1480,-660,29809,5568,-2224,3072,29278,202,-4,-66,1389634492.483163
2,139,0,34766,164,-13,143,34487,3840,-6848,-1568,34182,187,-370,121,1389634492.483389
3,139,0,31813,-148,1079,-912,31687,4400,-2304,2544,31857,201,-2,-76,1389634492.483394
2,140,0,36755,171,-12,147,36365,3872,-6944,-1232,36745,186,-369,124,1389634492.501056
3,140,0,32813,-150,901,-1004,33564,4336,-2416,1744,31857,201,-2,-76,1389634492.501072
2,141,0,37750,178,-19,144,38244,3856,-7072,-1184,36745,186,-369,124,1389634492.513292
3,141,0,34812,-227,637,-1069,35442,3824,-1840,1072,34437,204,-2,-85,1389634492.513301
2,142,0,39740,188,-33,154,40122,3984,-7088,-896,39306,188,-370,120,1389634492.513571
3,142,0,36812,-298,420,-1110,37319,2976,-1392,320,37016,201,-252,-87,1389634492.513577
2,143,0,41729,172,-34,185,42000,4016,-6960,-688,41865,187,-370,123,1389634492.532005
3,143,0,38811,-401,276,-1088,39196,3072,-1312,-768,37016,201,-252,-87,1389634492.532034
2,144,0,43719,188,-35,207,43879,3984,-6944,-848,41865,187,-370,123,1389634492.538216
3,144,0,40810,-620,131,-1013,41074,3328,-1376,-1648,39596,209,3,-93,1389634492.538541
2,145,0,45708,206,-36,224,45757,4064,-6848,-1008,44427,186,-367,121,1389634492.550951
3,145,0,42810,-897,-7,-945,42951,3728,-1456,-1856,42175,209,7,-101,1389634492.550966
2,146,0,47697,222,-44,239,47634,4128,-6944,-1136,46988,189,-366,119,1389634492.563284
3,146,0,44809,-1084,-109,-912,44828,4160,-1488,-1808,44755,214,7,-103,1389634492.563299
2,147,0,49687,238,-48,243,49512,4144,-6816,-1216,49549,191,-368,118,1389634492.563626
3,147,0,46808,-1125,-166,-917,46706,4464,-1712,-1984,44755,214,7,-103,1389634492.563636
2,148,0,51676,212,-52,235,51390,4160,-6672,-1360,49549,191,-368,118,1389634492.581681
3,148,0,47808,-1114,-171,-910,48583,5440,-2112,-2480,47334,220,11,-107,1389634492.581695
2,149,0,52671,189,-50,220,53268,4128,-6480,-1376,52110,191,-372,118,1389634492.593223
3,149,0,49807,-1102,-131,-891,50459,6208,-2320,-2864,49913,218,8,-112,1389634492.593232
2,150,0,54661,138,-47,186,55146,3968,-6528,-1632,54672,193,-364,118,1389634492.593428
3,150,0,51807,-1151,-51,-946,52336,6480,-2432,-3216,52491,222,9,-118,1389634492.593433
2,151,0,56650,70,-50,148,57024,3968,-6624,-1696,57235,193,-364,116,1389634492.611251
3,151,0,53806,-1268,90,-987,54213,6560,-2592,-3952,52491,222,9,-118,1389634492.611266
2,152,0,58640,40,-60,132,58901,4112,-6768,-1456,57235,193,-364,116,1389634492.622653
3,152,0,55805,-1416,290,-1029,56090,6816,-2816,-4352,55071,228,4,-124,1389634492.622663
2,153,0,60629,26,-75,119,60780,4096,-6720,-1360,59796,193,-368,116,1389634492.622901
3,153,0,57805,-1566,502,-1045,57967,7136,-2832,-4400,57651,236,7,-131,1389634492.623153
2,154,0,62619,16,-84,111,62658,4240,-6768,-1408,62357,196,-363,112,1389634492.640742
3,154,0,59804,-1625,687,-1040,59845,7248,-2832,-4336,57651,236,7,-131,1389634492.640752
2,155,0,64608,6,-86,101,64535,4272,-6720,-1328,62357,196,-363,112,1389634492.653025
3,155,0,61803,-1632,826,-998,61722,7680,-2976,-4256,60230,238,2,-142,1389634492.653034
2,156,0,1061,-16,-76,78,877,4208,-6656,-1248,64918,194,-364,118,1389634492.653308
3,156,0,62803,-1625,882,-966,63600,8256,-3008,-4048,62809,244,2,-151,1389634492.653313
2,157,0,3051,-36,-60,42,2756,4240,-6752,-1216,1944,195,-364,118,1389634492.671437
3,157,0,64802,-1573,952,-912,65477,8640,-3024,-4320,65388,248,254,-164,1389634492.671447
2,158,0,4046,-42,-45,34,4634,4256,-6848,-1008,4505,193,-362,117,1389634492.683712
3,158,0,1266,-1511,949,-855,1819,8752,-3152,-4688,65388,248,254,-164,1389634492.683727
2,159,0,6035,-61,-9,-4,6512,4544,-6752,-848,4505,193,-362,117,1389634492.684047
3,159,0,3265,-1468,889,-755,3697,8960,-3264,-4640,2431,253,-7,-172,1389634492.684058
2,160,0,8025,-39,22,-30,8390,4208,-6672,-1184,7067,193,-364,121,1389634492.702165
3,160,0,5264,-1416,774,-583,5574,9216,-3376,-4432,5010,257,-7,-181,1389634492.702174
2,161,0,10014,-21,25,-67,10267,3872,-6960,-1264,9629,196,-361,113,1389634492.702423
3,161,0,7264,-1304,649,-417,7452,9376,-3520,-4192,7590,259,-9,-187,1389634492.714739
2,162,0,12004,-22,22,-53,12145,4128,-6704,-1328,12190,192,-359,118,1389634492.715064
3,162,0,9263,-1154,557,-251,9329,9456,-3856,-3952,7590,259,-9,-187,1389634492.715075
2,163,0,13993,-12,9,-43,14021,4016,-6880,-1024,12190,192,-359,118,1389634492.732385
3,163,0,11262,-996,519,-94,11207,9568,-4176,-3904,10169,262,-15,-195,1389634492.732395
2,164,0,15983,19,10,-46,15899,4128,-6976,-1008,14752,192,-361,122,1389634492.732640
3,164,0,12262,-918,521,-41,13084,9696,-4512,-3952,12748,263,-12,-202,1389634492.738870
2,165,0,17972,65,9,-19,17778,4240,-6864,-848,17315,193,-363,119,1389634492.751280
3,165,0,14261,-789,543,49,14961,9632,-4720,-3776,12748,263,-12,-202,1389634492.751295
2,166,0,19961,113,20,4,19656,4176,-6928,-960,19875,193,-363,116,1389634492.763519
3,166,0,16261,-692,595,87,16838,9392,-4688,-3520,15327,267,-13,-201,1389634492.763528
2,167,0,20956,137,20,13,21534,4160,-6896,-1264,19875,193,-363,116,1389634492.763798
3,167,0,18260,-589,656,116,18715,9024,-4704,-3216,17905,268,-14,-206,1389634492.763804
2,168,0,22946,138,30,18,23412,4176,-6880,-1104,22435,195,-363,121,1389634492.781330
3,168,0,20259,-475,712,140,20592,8640,-4704,-2864,20484,268,-14,-212,1389634492.781339
2,169,0,24935,121,38,11,25289,4208,-6800,-1136,24996,194,-362,114,1389634492.793618
3,169,0,22259,-360,729,162,22468,8160,-4640,-2752,20484,268,-14,-212,1389634492.793633
2,170,0,26925,144,40,6,27167,4000,-6896,-1296,24996,194,-362,114,1389634492.793910
3,170,0,24258,-250,730,205,24345,7744,-4560,-2528,23062,265,-15,-217,1389634492.793921
2,171,0,28914,151,34,21,29045,4096,-6960,-1584,27557,198,-363,113,1389634492.811635
3,171,0,26257,-136,680,262,26221,7248,-4544,-2224,25640,266,-13,-220,1389634492.811650
2,172,0,30904,161,37,42,30922,4080,-6960,-1136,30119,196,-362,113,1389634492.823860
3,172,0,27257,-86,639,293,28098,6896,-4512,-2080,28220,265,-15,-223,1389634492.823869
2,173,0,32893,168,34,64,32801,4128,-6864,-1280,32681,197,-363,112,1389634492.824079
3,173,0,29256,14,552,354,29976,6656,-4432,-1776,28220,265,-15,-223,1389634492.824086
2,174,0,34883,167,29,69,34679,4160,-6752,-1344,32681,197,-363,112,1389634492.842016
3,174,0,31256,101,461,405,31853,6416,-4544,-1600,30799,263,-12,-226,1389634492.842031
2,175,0,35877,161,30,76,36557,4192,-6768,-1376,35243,199,-363,113,1389634492.848319
3,175,0,33255,199,355,451,33731,6160,-4512,-1504,33378,263,-8,-224,1389634492.848636
2,176,0,37867,144,37,63,38435,4224,-6688,-1488,37805,199,-362,112,1389634492.860997
3,176,0,35254,258,237,489,35607,6096,-4880,-1376,33378,263,-8,-224,1389634492.861012
2,177,0,39856,110,40,43,40313,4272,-6624,-1328,40367,199,-363,110,1389634492.872675
3,177,0,37254,324,137,517,37485,6496,-5056,-1216,35957,260,-8,-227,1389634492.872683
2,178,0,41846,94,38,2,42190,4416,-6512,-1360,40367,199,-363,110,1389634492.872951
3,178,0,39253,391,26,471,39363,6176,-4880,-1200,38535,262,-6,-221,1389634492.873196
2,179,0,43835,84,51,-40,44068,4368,-6544,-1456,42929,202,-365,109,1389634492.891285
3,179,0,41252,473,-46,360,41240,5632,-4624,-1488,41114,260,-3,-225,1389634492.891368
2,180,0,45825,55,40,-76,45945,4176,-6512,-1616,45490,200,-364,109,1389634492.903014
3,180,0,43252,487,-78,292,43118,5120,-4736,-1952,41114,260,-3,-225,1389634492.903024
2,181,0,47814,37,33,-118,47823,3632,-6848,-2080,48052,200,-363,110,1389634492.903294
3,181,0,44251,453,-87,257,44994,4736,-4672,-2016,43693,259,-253,-220,1389634492.903300
2,182,0,49804,-5,0,-82,49701,3936,-6768,-2096,48052,200,-363,110,1389634492.921644
3,182,0,46251,372,-87,191,46871,4432,-4496,-1744,46272,259,1,-216,1389634492.921660
2,183,0,51793,-36,-15,-70,51579,4128,-6576,-1488,50614,199,-365,107,1389634492.933945
3,183,0,48250,312,-75,147,48748,4224,-4320,-1232,48851,258,3,-219,1389634492.933960
2,184,0,52788,-43,-15,-77,53457,4160,-6688,-1392,53176,201,-361,104,1389634492.934293
3,184,0,50249,297,-51,137,50624,4512,-4336,-1136,48851,258,3,-219,1389634492.934303
2,185,0,54777,-55,-16,-77,55335,4192,-6640,-1504,53176,201,-361,104,1389634492.951969
3,185,0,52249,315,-62,136,52500,4880,-4352,-1120,51430,261,4,-214,1389634492.951978
2,186,0,56767,-66,-8,-87,57213,4240,-6720,-1344,55738,201,-363,110,1389634492.958190
3,186,0,54248,309,-99,120,54377,5136,-4336,-1024,54009,262,5,-217,1389634492.958513
2,187,0,58756,-46,0,-111,59091,4240,-6800,-1120,58299,198,-364,107,1389634492.970970
3,187,0,56247,296,-126,107,56253,5472,-4416,-864,54009,262,5,-217,1389634492.970985
2,188,0,60746,-3,4,-127,60969,4224,-6992,-1120,60860,200,-367,109,1389634492.983203
3,188,0,58247,277,-182,81,58129,5856,-4432,-800,56588,260,6,-213,1389634492.983212
2,189,0,62735,46,9,-122,62846,4224,-6880,-1216,60860,200,-367,109,1389634492.983478
3,189,0,59246,270,-215,63,60005,6080,-4416,-720,59166,261,10,-213,1389634492.983484
2,190,0,64725,58,18,-113,64724,4208,-6800,-1296,63422,198,-366,108,1389634493.1659
3,190,0,61246,262,-277,10,61881,6320,-4512,-720,61745,262,11,-211,1389634493.1674
2,191,0,1178,64,31,-114,1066,4128,-6784,-1312,448,197,-366,108,1389634493.13870
2,192,0,3168,69,32,-123,2944,4032,-6736,-1376,3010,195,-365,106,1389634493.14149
3,192,0,65244,264,-377,-96,98,6656,-4416,-912,64323,264,10,-210,1389634493.14154
2,193,0,4162,69,32,-127,4821,3856,-6896,-1424,3010,195,-365,106,1389634493.31597
3,193,0,1708,263,-415,-145,1974,6752,-4272,-1024,1365,266,11,-208,1389634493.31605
2,194,0,6152,64,38,-125,6699,3936,-6960,-1360,5572,196,-370,106,1389634493.43913
3,194,0,3707,253,-449,-155,3851,6656,-4208,-1168,3944,266,12,-205,1389634493.43928
2,195,0,8141,66,39,-92,8577,3968,-6928,-1440,8134,196,-368,106,1389634493.44255
3,195,0,5706,240,-449,-143,5727,6752,-4128,-1200,3944,266,12,-205,1389634493.44265
2,196,0,10131,67,35,-79,10455,3920,-6784,-1584,8134,196,-368,106,1389634493.62686
3,196,0,7706,230,-433,-108,7604,6992,-4096,-1184,6523,269,11,-203,1389634493.62701
2,197,0,12120,73,24,-65,12334,3936,-6928,-1648,10696,196,-367,108,1389634493.63003
3,197,0,8705,232,-419,-88,9480,7104,-3920,-1120,9102,273,16,-201,1389634493.63225
2,198,0,14110,63,20,-52,14211,4080,-6816,-1344,13257,197,-370,107,1389634493.81209
3,198,0,10705,248,-382,-66,11356,7392,-4064,-1056,9102,273,16,-201,1389634493.81218
2,199,0,16099,87,26,-41,16089,4096,-6864,-1424,15818,197,-371,104,1389634493.93368
3,199,0,12704,284,-355,-35,13232,7984,-4128,-944,11681,276,14,-199,1389634493.93383
2,200,0,18089,115,40,-45,17967,4144,-6992,-1360,15818,197,-371,104,1389634493.93713
3,200,0,14703,312,-330,-14,15109,8224,-4144,-912,14261,277,17,-198,1389634493.93723
2,201,0,19083,130,47,-40,19845,4144,-7040,-1248,18379,198,-369,103,1389634493.111908
3,201,0,16703,368,-319,-20,16985,8224,-4048,-992,16839,283,17,-194,1389634493.111922
2,202,0,21073,148,58,-54,21723,4112,-7008,-1232,20940,197,-370,104,1389634493.117650
3,202,0,18702,369,-282,-30,18862,8080,-4064,-1216,16839,283,17,-194,1389634493.117852
2,203,0,23062,185,74,-65,23601,4160,-6944,-1264,23503,196,-373,105,1389634493.129996
3,203,0,20701,348,-236,-14,20739,7824,-3936,-1312,19418,279,16,-194,1389634493.130006
2,204,0,25052,205,86,-77,25479,4000,-6768,-1552,23503,196,-373,105,1389634493.141712
3,204,0,22701,296,-202,7,22616,7520,-3824,-1184,21995,282,19,-190,1389634493.141795
2,205,0,27041,209,94,-83,27356,3904,-6704,-1808,26063,196,-370,98,1389634493.154004
3,205,0,23700,291,-177,23,24492,7456,-3776,-1008,24574,283,18,-188,1389634493.154014
2,206,0,29031,184,88,-78,29234,3952,-6592,-1856,28625,198,-370,98,1389634493.154285
3,206,0,25700,293,-142,63,26369,7424,-3696,-944,24574,283,18,-188,1389634493.154291
2,207,0,31020,155,79,-76,31112,3952,-6528,-1936,31186,199,-373,97,1389634493.172606
3,207,0,27699,310,-119,96,28245,7392,-3664,-976,27154,283,24,-184,1389634493.172622
2,208,0,33010,123,65,-81,32990,3936,-6512,-2048,31186,199,-373,97,1389634493.172933
3,208,0,29698,332,-120,137,30122,7312,-3600,-976,29733,285,23,-185,1389634493.173161
2,209,0,34999,67,41,-86,34867,3824,-6384,-2032,33747,196,-372,98,1389634493.191316
3,209,0,31698,343,-117,173,31999,7136,-3664,-912,29733,285,23,-185,1389634493.191331
2,210,0,35994,49,19,-86,36746,3776,-6368,-2080,36308,194,-373,95,1389634493.203079
3,210,0,33697,335,-128,211,33876,7008,-3600,-896,32311,286,23,-182,1389634493.203088
2,211,0,37984,-7,-23,-86,38625,3760,-6592,-2208,36308,194,-373,95,1389634493.203334
3,211,0,35696,331,-133,237,35752,6784,-3376,-832,34890,285,25,-183,1389634493.203340
2,212,0,39973,-68,-65,-63,40504,3888,-6608,-2144,38869,194,-376,100,1389634493.220798
3,212,0,37696,330,-145,264,37629,6528,-3264,-848,37469,284,29,-184,1389634493.220813
2,213,0,41962,-144,-77,-64,42382,3792,-6384,-2208,41429,198,-372,99,1389634493.233111
3,213,0,38695,333,-151,286,39506,6304,-3152,-912,37469,284,29,-184,1389634493.233120
2,214,0,43952,-220,-147,-62,44262,3200,-5920,-2624,43991,195,-372,98,1389634493.233391
3,214,0,40695,336,-158,342,41383,6160,-3104,-880,40049,283,27,-179,1389634493.233397
2,215,0,45941,-358,-196,-30,46140,3152,-5952,-3168,43991,195,-372,98,1389634493.251538
3,215,0,42694,344,-140,407,43260,6320,-3104,-752,42626,286,36,-179,1389634493.251554
2,216,0,47931,-549,-242,49,48019,3696,-6368,-2592,46551,195,-373,105,1389634493.263233
3,216,0,44693,383,-116,463,45137,6896,-3456,-448,45206,286,39,-179,1389634493.263242
2,217,0,49920,-692,-293,74,49897,4768,-7552,-1344,49113,195,-372,107,1389634493.263510
3,217,0,46693,453,-92,464,47014,7376,-3600,-496,45206,286,39,-179,1389634493.263516
2,218,0,51910,-609,-250,-20,51776,4768,-6720,-608,51675,193,-370,111,1389634493.281566
3,218,0,48692,502,-69,372,48891,7456,-3584,-928,47784,285,45,-171,1389634493.281610
2,219,0,52905,-565,-217,-99,53654,4352,-7264,-1120,51675,193,-370,111,1389634493.293689
3,219,0,50691,470,-50,255,50768,7312,-3584,-1328,50364,279,46,-175,1389634493.293699
2,220,0,54894,-457,-99,-148,55533,4192,-7696,848,54236,191,-370,116,1389634493.293970
3,220,0,52691,355,-35,173,52644,7008,-3728,-1616,50364,279,46,-175,1389634493.293976
2,221,0,56884,-332,-45,-136,57411,4112,-7600,384,56798,188,-369,116,1389634493.312366
3,221,0,53690,277,-32,152,54521,6640,-3840,-1472,52942,285,47,-174,1389634493.312381
2,222,0,58873,-136,15,-81,59290,4032,-7360,-448,59361,188,-368,116,1389634493.312688
3,222,0,55690,107,-18,114,56398,6784,-3712,-960,55521,286,49,-171,1389634493.318409
2,223,0,60863,7,34,-45,61168,4032,-7120,-688,59361,188,-368,116,1389634493.330507
3,223,0,57689,-24,7,105,58276,7120,-3664,-512,58100,285,49,-172,1389634493.330523
2,224,0,62852,87,34,-43,63047,4000,-7008,-1408,61922,191,-371,114,1389634493.342352
3,224,0,59688,-40,17,69,60153,7264,-3648,-192,58100,285,49,-172,1389634493.342368
2,225,0,64842,130,20,-42,64926,3872,-6800,-1728,64484,192,-372,117,1389634493.342681
3,225,0,61687,9,7,19,62030,7712,-3792,-272,60679,288,47,-174,1389634493.348964
2,226,0,1295,115,18,-57,1269,3840,-6784,-1616,64484,192,-372,117,1389634493.360737
3,226,0,63687,64,-11,-47,63907,7664,-3776,-480,63258,285,51,-175,1389634493.360752
2,227,0,2290,102,22,-62,3148,4032,-6704,-1664,1510,192,-370,116,1389634493.372937
3,227,0,150,71,-39,-114,248,7472,-3824,-672,63258,285,51,-175,1389634493.372946
2,228,0,4279,62,22,-83,5027,4352,-6752,-1520,4071,193,-371,114,1389634493.373217
3,228,0,2149,27,-66,-156,2124,7392,-3856,-704,300,287,54,-171,1389634493.373266
2,229,0,6269,29,38,-117,6905,4576,-6800,-1040,6633,192,-372,115,1389634493.390906
3,229,0,3149,10,-92,-160,4001,7344,-3728,-480,2880,287,49,-169,1389634493.390915
2,230,0,8258,65,53,-184,8783,4416,-7120,-944,6633,192,-372,115,1389634493.403096
3,230,0,5148,-14,-121,-150,5878,7360,-3616,-256,5459,291,47,-173,1389634493.403105
2,231,0,10248,116,71,-236,10661,4256,-7264,-1184,9193,191,-375,113,1389634493.403331
3,231,0,7148,4,-179,-131,7755,7472,-3584,-176,5459,291,47,-173,1389634493.403336
2,232,0,12237,155,123,-283,12540,3952,-7152,-1648,11756,189,-375,114,1389634493.420634
3,232,0,9147,53,-223,-86,9632,7600,-3648,-432,8037,291,50,-170,1389634493.420650
2,233,0,14227,145,164,-294,14418,3760,-6896,-1920,14316,189,-377,113,1389634493.433031
3,233,0,11146,106,-284,-30,11509,7776,-3872,-688,10616,291,49,-168,1389634493.433046
2,234,0,16216,80,162,-319,16297,3408,-6912,-1376,14316,189,-377,113,1389634493.433373
3,234,0,13146,138,-332,21,13386,8048,-4128,-928,13196,291,49,-168,1389634493.433384
2,235,0,18206,52,154,-296,18176,3232,-7216,-544,16878,190,-379,112,1389634493.451455
3,235,0,15145,146,-384,69,15263,8256,-4336,-1088,13196,291,49,-168,1389634493.451464
2,236,0,19200,70,129,-268,20054,3552,-7312,-784,19440,188,-380,110,1389634493.463624
3,236,0,17144,131,-407,110,17140,8624,-4416,-1360,15776,295,48,-164,1389634493.463640
2,237,0,21190,125,87,-246,21932,3664,-7120,-1136,22003,187,-384,111,1389634493.463971
3,237,0,18144,121,-413,121,19018,8784,-4288,-1584,18355,295,51,-160,1389634493.463981
2,238,0,23179,151,90,-243,23811,3728,-7152,-1184,22003,187,-384,111,1389634493.482183
3,238,0,20143,82,-397,147,20894,8704,-4080,-1440,18355,295,51,-160,1389634493.482192
2,239,0,25169,171,116,-234,25689,3504,-7104,-1200,24564,187,-382,107,1389634493.482441
3,239,0,22143,87,-340,199,22772,8592,-3888,-1088,20934,295,52,-157,1389634493.494453
2,240,0,27158,190,118,-232,27567,3264,-6976,-1424,27128,185,-384,106,1389634493.494731
3,240,0,24142,141,-257,244,24649,8400,-3888,-976,23513,295,54,-154,1389634493.494738
2,241,0,29148,195,107,-217,29446,3136,-6912,-1600,27128,185,-384,106,1389634493.512849
3,241,0,26141,265,-161,289,26526,8368,-3872,-960,26092,298,59,-151,1389634493.512858
2,242,0,31137,211,128,-171,31325,3120,-6896,-1776,29690,185,-386,103,1389634493.513131
3,242,0,28141,360,-62,346,28404,8400,-3840,-1088,26092,298,59,-151,1389634493.513136
2,243,0,33127,221,143,-128,33203,3520,-7216,-1632,32250,184,-385,103,1389634493.531342
3,243,0,30140,405,10,398,30280,8400,-3952,-1248,28671,298,57,-152,1389634493.531356
2,244,0,35116,228,133,-98,35081,3904,-7184,-1232,34811,184,-386,100,1389634493.543654
3,244,0,32139,411,49,445,32158,8224,-3856,-1312,31250,297,58,-151,1389634493.543663
2,245,0,36111,229,129,-105,36960,3776,-7088,-1088,34811,184,-386,100,1389634493.543934
3,245,0,33139,409,50,480,34035,8128,-3808,-1456,33828,297,63,-144,1389634493.543941
2,246,0,38100,245,124,-118,38838,3664,-7072,-1360,37372,183,-390,97,1389634493.562318
3,246,0,35138,378,20,555,35912,8016,-3600,-1424,33828,297,63,-144,1389634493.562333
2,247,0,40090,250,128,-121,40716,3456,-6976,-1552,39934,183,-386,96,1389634493.562645
3,247,0,37138,333,-25,643,37788,7760,-3296,-1312,36407,294,65,-142,1389634493.568921
2,248,0,42079,238,105,-130,42594,3408,-6800,-1760,42496,182,-384,94,1389634493.581145
3,248,0,39137,294,-92,728,39665,7360,-2976,-1248,38986,294,70,-142,1389634493.581161
2,249,0,44069,216,90,-116,44471,3488,-6816,-1808,42496,182,-384,94,1389634493.593156
3,249,0,41136,276,-156,835,41542,6848,-2784,-1168,38986,294,70,-142,1389634493.593165
2,250,0,46058,193,77,-121,46348,3408,-6704,-1744,45057,182,-391,95,1389634493.593419
3,250,0,43136,263,-213,942,43419,6544,-2528,-1072,41567,292,79,-138,1389634493.593426
2,251,0,48048,168,55,-116,48226,3072,-6736,-2208,47619,181,-386,93,1389634493.610885
3,251,0,45135,257,-260,1067,44827,6352,-2432,-992,44147,292,81,-135,1389634493.610900
2,252,0,50037,143,19,-73,50104,2800,-6432,-2672,47619,181,-386,93,1389634493.622500
3,252,0,47134,262,-291,1181,46704,6192,-2192,-832,46726,285,90,-132,1389634493.622510
2,253,0,51032,115,4,-53,51981,2800,-6368,-2656,50181,181,-389,92,1389634493.622839
3,253,0,48134,252,-300,1240,48581,6128,-2112,-736,46726,285,90,-132,1389634493.623087
2,254,0,53022,33,-37,22,53859,2864,-6400,-2608,52742,181,-390,92,1389634493.640566
3,254,0,50133,260,-289,1346,50458,6256,-1936,-560,49304,285,97,-128,1389634493.640575
2,255,0,55011,-51,-77,105,55737,3216,-6496,-2464,55302,182,-389,91,1389634493.652837
3,255,0,52133,278,-259,1435,52334,6528,-1920,-672,51882,278,108,-126,1389634493.652852
2,0,0,57000,-114,-103,170,57616,3296,-6624,-1824,55302,182,-389,91,1389634493.653179
3,0,0,54132,295,-245,1441,54212,6752,-1904,-640,54461,278,116,-124,1389634493.653190
2,1,0,58990,-148,-134,241,59494,4336,-7648,-1728,57863,182,-390,93,1389634493.671318
3,1,0,56131,314,-223,1414,56087,7200,-1792,-640,54461,278,116,-124,1389634493.671327
2,2,0,60979,-102,-109,254,61372,4384,-7216,-1040,60425,184,-387,91,1389634493.683660
3,2,0,58131,315,-204,1330,57964,7664,-1776,-544,57039,272,127,-116,1389634493.683676
2,3,0,62969,-73,-92,106,63250,3712,-7184,-1344,62986,183,-386,96,1389634493.684003
3,3,0,60130,319,-190,1199,59841,7808,-1648,-416,59618,272,132,-116,1389634493.684014
2,4,0,64958,-38,-86,94,64658,3408,-7024,-1856,62986,183,-386,96,1389634493.702230
3,4,0,62129,330,-171,1023,61718,7680,-1584,-288,59618,272,132,-116,1389634493.702239
2,5,0,1412,-21,-41,90,1001,3472,-6976,-1824,12,186,-385,105,1389634493.702482
3,5,0,63129,344,-160,939,63595,7616,-1504,-160,62198,266,136,-110,1389634493.708646
2,6,0,2407,-19,-41,93,2879,3744,-7008,-1648,2573,188,-384,95,1389634493.721052
3,6,0,65128,402,-135,755,65472,7456,-1424,-176,64777,266,144,-110,1389634493.721068
2,7,0,4396,-22,-38,105,4756,3744,-6928,-1712,5135,188,-385,95,1389634493.733234
3,7,0,1592,447,-121,555,1813,7312,-1360,-464,1819,263,146,-108,1389634493.733243
2,8,0,6386,-1,-34,90,6635,3632,-6992,-1744,5135,188,-385,95,1389634493.733514
3,8,0,3591,464,-123,379,3690,7184,-1264,-704,1819,263,146,-108,1389634493.733520
2,9,0,8375,-1,-22,94,8512,3520,-7040,-1344,7697,189,-383,100,1389634493.751905
3,9,0,5590,424,-118,213,5567,7136,-1280,-976,4398,263,148,-107,1389634493.751914
2,10,0,10365,4,-29,96,10390,3632,-7104,-1568,10259,187,-383,96,1389634493.758205
3,10,0,7590,342,-118,67,7444,7056,-1216,-1200,6978,264,148,-102,1389634493.758524
2,11,0,12354,8,-24,105,12269,3872,-7056,-1616,10259,187,-383,96,1389634493.770034
3,11,0,9589,238,-114,-31,9322,7040,-1104,-1280,9556,264,151,-100,1389634493.770044
2,12,0,14344,28,-2,105,14147,4192,-7344,-1168,12820,189,-383,99,1389634493.782271
3,12,0,11588,129,-88,-99,11199,7088,-1040,-1216,9556,264,151,-100,1389634493.782294
2,13,0,16333,69,40,64,16024,4192,-7312,-1024,15382,187,-381,97,1389634493.782540
3,13,0,12588,84,-69,-118,13077,7024,-928,-992,12136,264,149,-96,1389634493.788848
2,14,0,18323,111,69,24,17903,3888,-7040,-1424,17943,187,-381,94,1389634493.800548
3,14,0,14587,22,-18,-154,14953,7008,-896,-800,14714,262,148,-99,1389634493.800557
2,15,0,19317,115,71,0,19782,3472,-6992,-1728,17943,187,-381,94,1389634493.812946
3,15,0,16587,-13,53,-165,16831,7120,-864,-528,14714,262,148,-99,1389634493.812961
2,16,0,21307,126,71,11,21660,3568,-6944,-1744,20505,187,-382,95,1389634493.813289
3,16,0,18586,-17,121,-144,18708,7408,-912,-480,17294,265,147,-100,1389634493.813299
2,17,0,23296,122,62,30,23538,3712,-6688,-1888,23067,189,-380,89,1389634493.830888
3,17,0,20585,-11,131,-136,20585,7504,-1040,-544,19873,268,148,-104,1389634493.830904
2,18,0,25286,96,55,40,25415,3616,-6672,-2064,25628,189,-377,91,1389634493.843234
3,18,0,22585,-6,119,-132,22462,7616,-1104,-528,22454,267,149,-103,1389634493.843249
2,19,0,27275,70,50,49,27295,3712,-6720,-2032,25628,189,-377,91,1389634493.843575
3,19,0,24584,-5,89,-110,24339,7744,-1216,-448,22454,267,149,-103,1389634493.843586
2,20,0,29265,37,38,58,29173,3744,-6784,-2080,28190,191,-383,87,1389634493.860863
3,20,0,26583,-19,51,-88,26216,7984,-1184,-384,25033,268,148,-101,1389634493.860879
2,21,0,31254,24,4,63,31051,3696,-6624,-2224,30752,192,-381,91,1389634493.873143
3,21,0,27583,-20,19,-87,28094,8256,-1280,-368,27612,269,148,-103,1389634493.873195
2,22,0,33244,-13,-16,58,32929,3680,-6720,-2224,33315,190,-380,89,1389634493.873469
3,22,0,29582,-15,-53,-90,29970,8480,-1360,-208,30192,268,148,-104,1389634493.873476
2,23,0,34238,-33,-27,53,34807,3824,-6768,-2048,33315,190,-380,89,1389634493.891786
3,23,0,31582,10,-137,-107,31848,9056,-1552,48,30192,268,148,-104,1389634493.891801
2,24,0,36228,-60,-50,76,36685,3648,-6688,-2144,35875,190,-381,89,1389634493.903466
3,24,0,33581,98,-219,-128,33725,9680,-1632,512,32770,270,148,-101,1389634493.903475
2,25,0,38217,-95,-73,68,38563,3664,-6912,-1888,38437,192,-379,91,1389634493.903747
3,25,0,35580,251,-296,-250,35602,9760,-1760,704,35350,271,145,-101,1389634493.903753
2,26,0,40207,-97,-78,75,40441,4016,-6944,-1424,38437,192,-379,91,1389634493.922043
3,26,0,37580,441,-343,-448,37479,9696,-1904,480,35350,271,145,-101,1389634493.922058
2,27,0,42196,-80,-85,48,42319,3760,-6784,-1808,40998,192,-380,93,1389634493.928383
3,27,0,39579,596,-387,-652,39356,8880,-1968,32,37930,273,146,-95,1389634493.928701
2,28,0,44186,-84,-98,52,44198,3712,-6816,-2112,43560,193,-380,94,1389634493.940908
3,28,0,41578,640,-412,-816,41234,7920,-2048,-656,40510,276,139,-91,1389634493.940924
2,29,0,46175,-107,-123,70,46075,3728,-6688,-1984,46122,193,-379,96,1389634493.953218
3,29,0,42578,619,-417,-856,43111,7312,-2144,-1280,43089,278,137,-87,1389634493.953227
2,30,0,48165,-134,-123,65,47953,3664,-6784,-1904,46122,193,-379,96,1389634493.953488
3,30,0,44577,479,-425,-869,44989,6864,-2048,-1696,43089,278,137,-87,1389634493.953496
2,31,0,50154,-157,-97,78,49831,3888,-6864,-1520,48683,193,-382,95,1389634493.971622
3,31,0,46577,268,-426,-797,46866,6480,-1760,-1664,45669,284,131,-83,1389634493.971637
2,32,0,51149,-161,-100,82,51708,3744,-6880,-1488,51245,194,-376,93,1389634493.983877
3,32,0,48576,94,-399,-650,48742,6464,-1552,-1104,48248,286,126,-75,1389634493.983887
2,33,0,53139,-172,-110,103,53586,3856,-6944,-1632,53804,194,-378,100,1389634493.984156
3,33,0,50575,-24,-348,-459,50620,6528,-1264,-768,50828,289,125,-72,1389634493.984162
2,34,0,55128,-184,-86,111,55464,3984,-6976,-1552,53804,194,-378,100,1389634494.2142
3,34,0,52575,-76,-284,-284,52497,6288,-1072,-688,50828,289,125,-72,1389634494.2151
2,35,0,57117,-195,-76,101,57342,4016,-7184,-1376,56366,194,-379,101,1389634494.2397
3,35,0,54574,-85,-230,-66,54373,6432,-992,-432,53407,290,125,-71,1389634494.14477
2,36,0,59107,-147,-67,81,59221,4144,-7040,-1168,58926,197,-375,99,1389634494.14756
3,36,0,56573,-57,-188,160,56251,6960,-1056,-176,55986,292,128,-73,1389634494.14762
2,37,0,61096,-94,-50,57,61099,4016,-6992,-1440,58926,197,-375,99,1389634494.32899
3,37,0,57573,-41,-174,275,58129,7616,-1168,-176,55986,292,128,-73,1389634494.32914
2,38,0,63086,-79,-57,47,62977,3856,-7056,-1584,61488,192,-376,101,1389634494.33247
3,38,0,59572,-30,-157,454,60006,8240,-1200,-176,58565,291,133,-70,1389634494.33257
2,39,0,65075,-80,-53,43,64856,4000,-6896,-1568,64049,194,-373,100,1389634494.51095
3,39,0,61572,-46,-151,587,61883,9024,-1232,-192,61144,291,136,-72,1389634494.51102
2,40,0,1529,-68,-58,44,1197,3936,-6864,-1584,1074,197,-374,103,1389634494.63203
3,40,0,63571,-77,-170,650,63761,9824,-1168,-160,63723,289,142,-71,1389634494.63218
2,41,0,2524,-70,-65,37,3075,3920,-6992,-1376,1074,197,-374,103,1389634494.63546
3,41,0,34,-103,-219,645,103,10736,-1264,-80,63723,289,142,-71,1389634494.63556
2,42,0,4513,-65,-47,36,4954,4000,-6960,-1440,3634,194,-373,103,1389634494.81983
3,42,0,2034,-84,-255,572,1981,11600,-1184,160,767,285,146,-68,1389634494.82012
2,43,0,6503,-46,-36,38,6832,3968,-6928,-1552,6195,195,-373,103,1389634494.87735
3,43,0,4033,-35,-301,409,3858,12128,-1040,208,3346,288,145,-69,1389634494.87944
2,44,0,8492,-43,-27,31,8709,3888,-6880,-1616,8757,193,-371,105,1389634494.100161
3,44,0,6032,55,-305,189,5736,12320,-960,-48,5925,283,145,-67,1389634494.100176
2,45,0,10482,-31,-26,30,10587,3456,-7056,-1664,8757,193,-371,105,1389634494.112377
3,45,0,7032,89,-311,97,7614,10208,-752,48,5925,283,145,-67,1389634494.112393
2,46,0,12471,-1,-29,40,12465,4208,-6816,-1600,11317,193,-371,105,1389634494.112797
3,46,0,9031,91,-161,-89,9492,9024,-704,-2784,8504,285,150,-64,1389634494.113094
2,47,0,14461,15,-38,60,14343,4160,-6864,-1168,13878,197,-373,103,1389634494.131169
3,47,0,11031,-87,226,-314,11369,9856,-1120,-704,11083,284,148,-65,1389634494.131178
2,48,0,16450,55,-28,71,16222,4016,-6896,-1424,16439,197,-373,101,1389634494.143155
3,48,0,13030,199,88,20,13247,8304,-1104,-1488,11083,284,148,-65,1389634494.143170
2,49,0,17445,60,-21,66,18100,4080,-6832,-1456,16439,197,-373,101,1389634494.143500
3,49,0,15029,0,2,-6,15124,7712,-1296,-928,13662,280,144,-66,1389634494.143510
2,50,0,19434,44,9,40,19978,4096,-6848,-1456,18998,195,-373,106,1389634494.161946
3,50,0,17029,-152,87,69,17001,7280,-944,-640,16241,285,143,-64,1389634494.161955
2,51,0,21424,30,24,15,21856,4016,-6768,-1568,21559,196,-373,104,1389634494.168243
3,51,0,19028,-156,125,149,18879,7408,-1024,-640,18820,283,147,-66,1389634494.168608
2,52,0,23413,20,19,14,23734,4016,-6720,-1616,21559,196,-373,104,1389634494.180920
3,52,0,21027,-108,112,227,20757,7712,-1360,-672,18820,283,147,-66,1389634494.180935
2,53,0,25403,7,8,-12,25612,4064,-6784,-1520,24121,195,-370,100,1389634494.193215
3,53,0,22027,-106,108,262,22635,7968,-1488,-672,21400,278,146,-68,1389634494.193230
2,54,0,27392,5,10,-46,27490,3968,-6816,-1584,26681,199,-370,100,1389634494.193556
3,54,0,24026,-143,88,284,24513,7936,-1440,-592,23979,280,146,-67,1389634494.193567
2,55,0,29382,13,8,-59,29368,4096,-6848,-1440,29242,196,-372,105,1389634494.211023
3,55,0,26026,-143,78,274,26391,7904,-1584,-624,26558,278,148,-69,1389634494.211032
2,56,0,31371,19,3,-59,31246,4096,-6816,-1456,29242,196,-372,105,1389634494.223254
3,56,0,28025,-137,59,258,28269,7728,-1600,-608,26558,278,148,-69,1389634494.223269
2,57,0,33361,28,8,-67,33125,4064,-6816,-1472,31804,194,-373,101,1389634494.223598
3,57,0,30024,-154,38,229,30147,7504,-1600,-688,29137,278,147,-70,1389634494.223608
2,58,0,34355,31,10,-63,35003,4048,-6816,-1520,34365,197,-373,102,1389634494.241754
3,58,0,32024,-179,27,203,32024,7440,-1600,-688,31716,273,150,-71,1389634494.241764
2,59,0,36345,29,16,-80,36881,3968,-6752,-1584,36926,198,-372,103,1389634494.254057
3,59,0,34023,-211,26,177,33903,7440,-1568,-752,31716,273,150,-71,1389634494.254072
2,60,0,38334,21,8,-93,38760,3984,-6800,-1568,36926,198,-372,103,1389634494.254402
3,60,0,36022,-258,8,159,35780,7552,-1584,-752,34295,271,152,-72,1389634494.254412
2,61,0,40324,13,-2,-97,40637,3888,-6752,-1632,39487,198,-374,103,1389634494.272097
3,61,0,37022,-269,4,142,37658,7616,-1584,-576,36874,271,150,-76,1389634494.272106
2,62,0,42313,-3,-9,-115,42517,3824,-6800,-1760,42049,196,-372,103,1389634494.278329
3,62,0,39021,-284,-9,130,39536,7584,-1520,-512,39453,271,150,-78,1389634494.278644
2,63,0,44303,-10,-20,-113,44395,3808,-6912,-1712,44611,196,-376,105,1389634494.290247
3,63,0,41021,-277,-28,112,41414,7552,-1536,-384,39453,271,150,-78,1389634494.290263
2,64,0,46292,-20,-27,-100,46273,3904,-6736,-1616,44611,196,-376,105,1389634494.302497
3,64,0,43020,-262,-45,104,43292,7648,-1488,-240,42033,266,152,-76,1389634494.302513
2,65,0,48282,-18,-23,-91,48151,3840,-6784,-1584,47171,197,-372,103,1389634494.302882
3,65,0,45019,-228,-48,96,45170,7904,-1488,-160,44612,263,150,-78,1389634494.303196
2,66,0,50271,-28,-29,-83,50029,3776,-6864,-1616,49732,195,-375,101,1389634494.320686
3,66,0,47019,-179,-44,74,47047,8288,-1552,-96,47191,266,153,-77,1389634494.320701
2,67,0,51266,-22,-29,-88,51907,3904,-6944,-1408,49732,195,-375,101,1389634494.332980
3,67,0,49018,-111,-42,32,48924,8640,-1664,16,47191,266,153,-77,1389634494.332989
2,68,0,53256,-16,-27,-71,53785,3936,-6944,-1504,52293,198,-375,104,1389634494.333259
3,68,0,51017,-33,-21,-39,50800,8800,-1584,-16,49772,263,152,-80,1389634494.333265
2,69,0,55245,-10,-17,-68,55663,3872,-6960,-1488,54853,195,-374,103,1389634494.350979
3,69,0,52017,-3,-4,-87,52678,8656,-1648,-240,52351,263,151,-80,1389634494.350994
2,70,0,57235,-10,-28,-61,57541,3840,-6864,-1648,57414,192,-375,101,1389634494.362668
3,70,0,54016,21,43,-189,54555,8464,-1648,-544,52351,263,151,-80,1389634494.362677
2,71,0,59224,-10,-28,-58,59420,3936,-6832,-1664,57414,192,-375,101,1389634494.362966
3,71,0,56016,-16,108,-258,56433,8224,-1696,-848,54930,260,147,-80,1389634494.363155
2,72,0,61214,-15,-28,-58,61298,3936,-6896,-1536,59975,192,-374,106,1389634494.381090
3,72,0,58015,-93,167,-299,58310,8080,-1520,-992,57510,263,148,-84,1389634494.381106
2,73,0,63203,-4,-27,-55,63176,3984,-6944,-1552,62537,192,-375,102,1389634494.392878
3,73,0,60014,-184,204,-297,60186,8128,-1408,-896,60089,265,144,-87,1389634494.392887
2,74,0,65192,-5,-42,-61,65054,3888,-6832,-1872,65099,191,-375,103,1389634494.393156
3,74,0,62014,-252,222,-261,62063,8192,-1248,-752,60089,265,144,-87,1389634494.393161
2,75,0,651,-11,-44,-64,1396,3904,-6784,-1792,65099,191,-375,103,1389634494.411242
3,75,0,64013,-275,233,-226,63940,8112,-1152,-448,62670,266,144,-88,1389634494.411251
2,76,0,2641,-35,-61,-70,3274,3792,-6736,-1888,2124,191,-378,105,1389634494.423533
3,76,0,476,-258,238,-182,281,8096,-1072,-384,65249,263,141,-90,1389634494.423549
2,77,0,4630,-87,-99,-91,5152,3648,-6704,-2000,4684,190,-377,104,1389634494.423893
3,77,0,1476,-239,222,-151,2158,8016,-1120,-320,2291,265,143,-93,1389634494.423904
2,78,0,6620,-127,-130,-101,7030,3680,-6816,-1856,7245,190,-378,105,1389634494.442161
3,78,0,3475,-201,206,-90,4035,7968,-1120,-336,2291,265,143,-93,1389634494.442176
2,79,0,8609,-165,-122,-99,8908,3920,-6912,-1520,7245,190,-378,105,1389634494.448480
3,79,0,5475,-168,190,-25,5911,8016,-1248,-368,4870,263,141,-94,1389634494.448689
2,80,0,10599,-160,-115,-88,10786,3872,-6880,-1296,9806,190,-375,108,1389634494.460263
3,80,0,7474,-174,168,25,7788,8048,-1296,-464,7449,264,140,-97,1389634494.460271
2,81,0,12588,-174,-104,-94,12664,3888,-6944,-1296,12367,190,-377,110,1389634494.472420
3,81,0,9473,-199,140,72,9665,8096,-1376,-448,7449,264,140,-97,1389634494.472436
2,82,0,14578,-214,-92,-93,14541,3840,-6928,-1344,12367,190,-377,110,1389634494.472747
3,82,0,11473,-223,118,99,11542,8096,-1488,-256,10029,260,139,-97,1389634494.473061
2,83,0,16567,-237,-69,-100,16419,3968,-6992,-1056,14927,190,-378,112,1389634494.491256
3,83,0,13472,-237,113,106,13420,8128,-1472,-160,12609,260,142,-97,1389634494.491265
2,84,0,17562,-245,-63,-114,18296,3856,-6960,-1248,17487,188,-379,110,1389634494.503539
3,84,0,15471,-231,104,92,15296,8080,-1552,-32,15187,259,141,-103,1389634494.503554
2,85,0,19551,-258,-79,-98,20174,3776,-6992,-1488,20047,187,-375,115,1389634494.503892
3,85,0,16471,-221,103,78,17174,7952,-1584,32,15187,259,141,-103,1389634494.503903
2,86,0,21541,-269,-95,-97,22054,3648,-6944,-1616,20047,187,-375,115,1389634494.522236
3,86,0,18470,-205,125,40,19051,7872,-1680,16,17767,257,142,-104,1389634494.522245
2,87,0,23530,-253,-93,-101,23932,3664,-6896,-1312,22610,190,-379,115,1389634494.522444
3,87,0,20470,-213,154,-3,20927,7776,-1664,-128,20346,254,142,-106,1389634494.528673
2,88,0,25520,-228,-98,-86,25810,3744,-7120,-1136,25170,191,-378,117,1389634494.540974
3,88,0,22469,-251,170,-45,22804,7744,-1760,-224,22925,253,140,-109,1389634494.540988
2,89,0,27509,-186,-85,-56,27689,3776,-7120,-1104,27732,185,-377,119,1389634494.553380
3,89,0,24468,-310,186,-58,24681,7984,-1680,-176,22925,253,140,-109,1389634494.553396
2,90,0,29499,-158,-58,-46,29567,3792,-7104,-1008,27732,185,-377,119,1389634494.553722
3,90,0,26468,-363,187,-79,26558,8112,-1584,-64,25505,254,138,-110,1389634494.553733
2,91,0,31488,-121,-44,-36,31445,3696,-7184,-1104,30293,185,-379,121,1389634494.571877
3,91,0,28467,-398,186,-106,28435,8112,-1568,-48,28084,251,137,-111,1389634494.571887
2,92,0,33478,-73,-59,-17,33322,3728,-7024,-1136,32855,185,-377,122,1389634494.578038
3,92,0,30466,-421,178,-125,30312,8112,-1536,16,28084,251,137,-111,1389634494.578360
2,93,0,34473,-55,-63,-18,35201,3616,-7168,-1424,32855,185,-377,122,1389634494.590183
3,93,0,31466,-431,172,-128,32189,8096,-1456,32,30664,255,135,-117,1389634494.590192
2,94,0,36462,-41,-73,-13,37079,3648,-6992,-1600,35417,185,-378,120,1389634494.601969
3,94,0,33465,-453,177,-145,34065,8272,-1360,16,33243,249,133,-118,1389634494.601999
2,95,0,38451,-56,-94,-10,38958,3728,-6896,-1536,37978,185,-377,122,1389634494.608173
3,95,0,35465,-471,186,-163,35943,8320,-1328,-48,35821,252,134,-119,1389634494.608485
2,96,0,40441,-67,-104,-6,40836,3712,-7056,-1664,40540,184,-373,124,1389634494.620581
3,96,0,37464,-499,185,-179,37820,8352,-1280,-192,35821,252,134,-119,1389634494.620590
2,97,0,42430,-93,-115,-5,42714,3696,-6976,-1504,40540,184,-373,124,1389634494.632938
3,97,0,39463,-540,185,-184,39696,8464,-1296,-240,38401,248,129,-125,1389634494.632954
2,98,0,44420,-117,-112,-4,44592,3904,-6912,-1120,43103,186,-375,124,1389634494.633283
3,98,0,41463,-591,182,-164,41573,8608,-1136,-368,40981,251,129,-126,1389634494.633294
2,99,0,46409,-129,-97,-12,46471,3952,-6960,-1040,45662,184,-375,126,1389634494.651606
3,99,0,43462,-612,175,-150,43450,8752,-1056,-368,43559,253,128,-132,1389634494.651621
2,100,0,48399,-132,-64,-16,48350,3840,-6928,-992,48224,184,-376,125,1389634494.663914
3,100,0,45461,-627,147,-122,45327,8816,-960,-288,43559,253,128,-132,1389634494.663922
2,101,0,49394,-129,-58,-14,50228,3760,-6928,-1296,48224,184,-376,125,1389634494.664121
3,101,0,46461,-630,135,-98,47204,9008,-768,-448,46138,252,125,-134,1389634494.664128
2,102,0,51383,-138,-44,2,52107,3728,-7040,-1520,50787,184,-375,129,1389634494.682129
3,102,0,48460,-619,120,-60,49081,9072,-848,-432,48717,249,125,-138,1389634494.682145
2,103,0,53373,-173,-44,7,53985,3888,-7088,-944,53349,184,-372,129,1389634494.682460
3,103,0,50460,-601,101,-26,50958,9024,-752,-512,48717,249,125,-138,1389634494.688785
2,104,0,55362,-190,-38,13,55864,3888,-7040,-704,55911,183,-373,126,1389634494.701141
3,104,0,52459,-587,96,-3,52835,9040,-848,-560,51295,251,120,-140,1389634494.701156
2,105,0,57352,-167,-26,26,57741,3840,-7152,-832,55911,183,-373,126,1389634494.713346
3,105,0,54458,-577,109,21,54712,8992,-800,-816,53875,251,120,-142,1389634494.713362
2,106,0,59341,-149,-24,41,59619,3968,-7088,-768,58471,183,-374,131,1389634494.713683
3,106,0,56458,-606,137,34,56590,8896,-704,-912,56454,244,119,-145,1389634494.713694
2,107,0,61331,-162,5,39,61498,3936,-6992,-560,61033,183,-375,132,1389634494.731540
3,107,0,58457,-635,174,36,58466,8576,-832,-1088,56454,244,119,-145,1389634494.731555
2,108,0,63320,-144,20,45,63377,3968,-7024,-608,61033,183,-375,132,1389634494.743860
3,108,0,60456,-679,226,51,60344,8416,-752,-1248,59034,243,116,-147,1389634494.743869
2,109,0,65310,-146,22,46,65254,3952,-7024,-736,63595,183,-372,129,1389634494.744140
3,109,0,61456,-708,241,53,62221,8256,-720,-1360,61613,244,116,-154,1389634494.744146
2,110,0,768,-148,14,51,1597,3968,-6992,-816,620,181,-370,128,1389634494.762402
3,110,0,63455,-770,293,66,64098,8080,-688,-1552,64192,242,112,-153,1389634494.762417
2,111,0,2758,-147,16,35,3475,3936,-7040,-896,3180,183,-371,130,1389634494.762722
3,111,0,65455,-822,331,83,439,7840,-672,-1760,64192,242,112,-153,1389634494.762947
2,112,0,4747,-135,-3,20,5354,3984,-7024,-928,3180,183,-371,130,1389634494.780908
3,112,0,1918,-877,370,96,2316,7888,-848,-1728,1235,238,108,-156,1389634494.780949
2,113,0,6737,-157,11,22,7232,3952,-6912,-976,5741,183,-370,131,1389634494.793112
3,113,0,3917,-900,391,97,4192,7808,-928,-1728,3813,236,107,-160,1389634494.793121
2,114,0,8726,-159,-2,21,9110,3968,-6896,-976,8302,185,-368,133,1389634494.793393
3,114,0,5917,-893,412,75,6069,7728,-1056,-1840,3813,236,107,-160,1389634494.793399
2,115,0,10716,-175,-10,-5,10989,3824,-6976,-848,10864,187,-370,134,1389634494.811720
3,115,0,7916,-878,448,35,7947,7536,-1088,-1984,6391,237,105,-167,1389634494.811735
2,116,0,12705,-154,-14,-22,12868,3872,-6976,-752,10864,187,-370,134,1389634494.822861
3,116,0,9915,-857,486,-20,9823,7408,-1280,-2096,8970,233,101,-170,1389634494.822871
2,117,0,14695,-129,-19,-24,14747,3920,-6960,-672,13424,185,-370,134,1389634494.823141
3,117,0,10915,-855,501,-56,11701,6976,-1328,-2240,11549,229,96,-175,1389634494.823147
2,118,0,16684,-110,-23,-22,16626,3856,-6960,-816,15985,183,-369,133,1389634494.841191
3,118,0,12914,-863,542,-144,13577,6512,-1504,-2352,11549,229,96,-175,1389634494.841206
2,119,0,17679,-99,-22,-22,18505,3920,-7056,-944,18545,184,-371,134,1389634494.852482
3,119,0,14914,-874,616,-222,15454,6048,-1744,-2464,14126,229,94,-180,1389634494.852533
2,120,0,19668,-82,-17,-15,20384,3936,-7024,-688,18545,184,-371,134,1389634494.852821
3,120,0,16913,-903,688,-309,17331,5664,-2112,-2528,16705,224,85,-184,1389634494.853072
2,121,0,21658,-60,-25,-11,22262,3904,-7056,-736,21106,184,-369,133,1389634494.871061
3,121,0,18912,-941,791,-422,19207,5520,-2480,-2224,19284,218,84,-190,1389634494.871071
2,122,0,23647,-49,-33,-10,24141,3952,-7024,-928,23669,184,-367,135,1389634494.883241
3,122,0,20912,-959,901,-593,21084,5136,-2672,-2064,19284,218,84,-190,1389634494.883250
2,123,0,25637,-36,-22,-12,26019,3904,-7056,-800,23669,184,-367,135,1389634494.883522
3,123,0,22911,-972,1031,-847,22961,4560,-2816,-2176,21863,217,75,-199,1389634494.883528
2,124,0,27626,-42,-15,-11,27898,3968,-6912,-912,26231,184,-372,137,1389634494.901933
3,124,0,24910,-1070,1167,-1104,24838,4192,-2880,-2224,24442,216,67,-208,1389634494.901948
2,125,0,29616,-37,-46,-24,29776,3840,-6928,-1040,28792,183,-368,133,1389634494.908273
3,125,0,25910,-1129,1211,-1215,26715,3840,-2896,-2320,24442,216,67,-208,1389634494.908591
