nodeID,seqNumber,status,gyroTick,gyroX,gyroY,gyroZ,accelTick,accelX,accelY,accelZ,magTick,magX,magY,magZ,currentTime
2,62,0,16819,3,-8,-31,17406,3920,-6912,-1008,17089,50,-830,-301,1389634531.358851
3,62,0,14395,5,-25,-27,14347,4016,-6512,1680,12850,128,-724,-142,1389634531.358871
2,63,0,18808,5,-2,-29,19284,3824,-6976,-1072,17089,50,-830,-301,1389634531.358873
3,63,0,16395,3,-16,-34,16223,3984,-6464,1648,15429,127,-723,-141,1389634531.358875
2,64,0,20798,4,-3,-28,21163,3776,-7008,-1056,19651,50,-833,-302,1389634531.358876
3,64,0,18394,3,-10,-27,18100,4016,-6512,1696,18007,125,-722,-140,1389634531.358878
2,65,0,22787,11,-6,-41,23041,3808,-6896,-1072,22211,50,-833,-299,1389634531.358880
3,65,0,20394,-8,-11,-34,19977,3984,-6544,1728,18007,125,-722,-140,1389634531.358881
2,66,0,24777,8,-4,-34,24920,3856,-6896,-1072,24773,51,-831,-302,1389634531.358883
3,66,0,21393,1,-15,-28,21853,4000,-6528,1696,20585,127,-727,-140,1389634531.358885
2,67,0,26766,7,-4,-36,26799,3824,-6896,-1104,24773,51,-831,-302,1389634531.358887
3,67,0,23393,5,-3,-19,23729,3952,-6560,1632,23165,126,-726,-140,1389634531.358888
2,68,0,28756,7,-10,-31,28678,3840,-6992,-1184,27334,51,-832,-301,1389634531.358890
3,68,0,25392,-1,-9,-21,25606,4000,-6512,1680,25743,125,-724,-141,1389634531.358892
2,69,0,30745,7,-12,-32,30556,3808,-6960,-1120,29896,51,-832,-302,1389634531.358893
3,69,0,27391,-3,-9,-21,27481,3984,-6480,1680,25743,125,-724,-141,1389634531.358895
2,70,0,32735,7,-9,-31,32435,3888,-6928,-1072,32458,49,-833,-301,1389634531.358897
3,70,0,29391,-10,-13,-21,29358,4032,-6560,1664,28322,127,-724,-140,1389634531.358899
2,71,0,33729,3,-6,-37,34313,3872,-6992,-1072,32458,49,-833,-301,1389634531.358900
3,71,0,31390,-8,-16,-20,31234,4000,-6496,1680,30901,125,-724,-140,1389634531.358902
2,72,0,35719,5,-8,-32,36192,3840,-6976,-1072,35021,49,-833,-299,1389634531.358904
3,72,0,33389,-7,-11,-28,33110,3968,-6496,1680,33480,125,-726,-139,1389634531.358905
2,73,0,37708,4,-9,-26,38071,3856,-6928,-1072,37582,51,-835,-303,1389634531.358907
3,73,0,35389,-3,4,-15,34987,4016,-6576,1664,33480,125,-726,-139,1389634531.358909
2,74,0,39698,4,-10,-33,39950,3856,-6976,-1104,40142,48,-832,-302,1389634531.358910
3,74,0,36388,-2,-8,-5,36863,3984,-6512,1728,36058,125,-721,-139,1389634531.358912
2,75,0,41687,0,-7,-33,41829,3792,-6944,-1104,40142,48,-832,-302,1389634531.358914
3,75,0,38388,0,-13,-28,38739,3968,-6496,1712,38637,125,-724,-142,1389634531.358915
2,76,0,43677,6,-12,-44,43708,3856,-6960,-1072,42702,49,-831,-302,1389634531.358917
3,76,0,40387,-10,-9,-27,40615,3984,-6496,1696,38637,125,-724,-142,1389634531.358919
2,77,0,45666,2,-5,-29,45586,3792,-6928,-1088,45263,51,-833,-301,1389634531.358921
3,77,0,42386,5,-9,-18,42491,3984,-6464,1728,41216,125,-725,-138,1389634531.358922
2,78,0,47656,0,-3,-32,47465,3792,-6976,-1088,45263,51,-833,-301,1389634531.358924
3,78,0,44386,4,-13,-32,44367,4000,-6480,1696,43794,123,-724,-141,1389634531.358926
2,79,0,48651,0,-9,-34,49343,3840,-6992,-1088,47825,50,-833,-300,1389634531.358927
3,79,0,46385,11,-11,-18,46244,4000,-6544,1664,46373,125,-722,-139,1389634531.358929
2,80,0,50640,-1,-11,-34,51221,3856,-6944,-1088,50386,50,-832,-301,1389634531.358943
3,80,0,48384,6,-11,-28,48121,4016,-6496,1632,46373,125,-722,-139,1389634531.358944
2,81,0,52630,0,-8,-33,53099,3904,-6976,-1072,52947,50,-830,-300,1389634531.358946
3,81,0,50384,3,-18,-27,49998,3984,-6480,1632,48953,124,-726,-139,1389634531.358948
2,82,0,54619,3,-6,-34,54978,3840,-6928,-1072,52947,50,-830,-300,1389634531.358949
3,82,0,51383,-4,-14,-25,51875,3984,-6528,1680,51531,125,-722,-138,1389634531.358951
2,83,0,56609,-6,-7,-24,56856,3872,-6960,-1088,55508,50,-832,-299,1389634531.358953
3,83,0,53383,5,-24,-25,53752,3984,-6576,1616,54110,126,-725,-139,1389634531.358954
2,84,0,58598,-4,-10,-35,58734,3824,-6976,-1104,58069,49,-832,-301,1389634531.358956
3,84,0,55382,2,-11,-33,55628,3952,-6432,1664,54110,126,-725,-139,1389634531.358958
2,85,0,60588,-2,-16,-24,60613,3840,-6976,-1120,60630,50,-833,-301,1389634531.358959
3,85,0,57381,1,-10,-32,57505,3920,-6512,1712,56689,124,-723,-139,1389634531.358961
2,86,0,62577,2,-10,-30,62492,3872,-6928,-1104,60630,50,-833,-301,1389634531.358963
3,86,0,59381,-1,-13,-29,59381,3952,-6560,1712,59267,125,-724,-139,1389634531.359006
2,87,0,64567,-5,-10,-34,64370,3920,-6928,-1088,63191,50,-832,-299,1389634531.359008
3,87,0,61380,8,-20,-24,61258,3984,-6512,1648,59267,125,-724,-139,1389634531.359010
2,88,0,25,-8,-16,-35,713,3856,-6960,-1136,217,50,-828,-299,1389634531.359012
3,88,0,63379,0,-8,-21,63134,3952,-6512,1664,61845,125,-726,-137,1389634531.359013
2,89,0,2015,-9,-7,-41,2591,3872,-6960,-1136,2777,50,-830,-300,1389634531.359015
3,89,0,65379,0,-12,-25,65011,3968,-6560,1616,64423,122,-722,-140,1389634531.359017
2,90,0,4005,-8,-10,-30,4470,3888,-7040,-1072,2777,50,-830,-300,1389634531.359019
3,90,0,842,9,-13,-23,1352,3952,-6592,1696,1467,123,-723,-143,1389634531.359020
2,91,0,5994,-8,-9,-39,6348,3856,-6912,-1088,5339,50,-833,-300,1389634531.359022
3,91,0,2842,8,-16,-29,3229,3984,-6560,1648,1467,123,-723,-143,1389634531.359024
2,92,0,7984,-8,-11,-44,8225,3872,-6976,-1056,7900,48,-834,-301,1389634531.359025
3,92,0,4841,8,-13,-26,5107,3968,-6560,1632,4046,124,-726,-141,1389634531.359027
2,93,0,9973,-18,-15,-44,10103,3872,-6992,-1008,7900,48,-834,-301,1389634531.359029
3,93,0,6841,3,-14,-36,6983,3920,-6576,1680,6626,126,-722,-139,1389634531.359030
2,94,0,11963,-12,-8,-42,11982,3872,-6944,-1008,10461,51,-833,-298,1389634531.359032
3,94,0,8840,9,-13,-33,8860,3952,-6480,1664,9206,122,-723,-139,1389634531.359034
2,95,0,13952,-15,-14,-38,13860,3840,-6960,-1088,13022,47,-831,-301,1389634531.359036
3,95,0,10839,1,-15,-23,10736,3968,-6496,1696,9206,122,-723,-139,1389634531.359037
2,96,0,15942,-13,-10,-43,15738,3696,-7040,-1056,15585,48,-830,-301,1389634531.359039
3,96,0,12839,3,-7,-27,12613,3936,-6544,1728,11784,126,-730,-139,1389634531.359041
2,97,0,16936,-13,-12,-44,17615,3840,-6992,-1008,15585,48,-830,-301,1389634531.359042
3,97,0,14838,6,3,-14,14490,3920,-6576,1712,14364,122,-730,-142,1389634531.359044
2,98,0,18926,-15,-13,-45,19494,3840,-6992,-1024,18146,49,-831,-298,1389634531.359046
3,98,0,15838,12,-13,-19,16366,3984,-6496,1648,14364,122,-730,-142,1389634531.359048
2,99,0,20915,-7,-12,-45,21372,3824,-6928,-1040,20706,51,-833,-300,1389634531.359049
3,99,0,17837,8,-4,-21,18243,3904,-6560,1632,16944,123,-722,-139,1389634531.359051
2,100,0,22905,-6,-11,-37,23250,3824,-7024,-1008,23267,49,-835,-301,1389634531.359053
3,100,0,19836,7,-9,-20,20119,3904,-6528,1696,19522,123,-725,-141,1389634531.359054
2,101,0,24894,-8,-9,-40,25127,3840,-6960,-1024,23267,49,-835,-301,1389634531.359056
3,101,0,21836,5,-5,-21,21996,3952,-6560,1680,22101,126,-724,-140,1389634531.359058
2,102,0,26884,1,-9,-35,27006,3840,-6992,-1040,25828,49,-832,-297,1389634531.359059
3,102,0,23835,-3,-13,-11,23873,3920,-6496,1616,22101,126,-724,-140,1389634531.359061
2,103,0,28873,-6,-2,-30,28884,3872,-6880,-1168,28389,49,-834,-300,1389634531.359063
3,103,0,25834,-3,-4,-18,25749,4032,-6544,1600,24680,125,-728,-143,1389634531.359065
2,104,0,30863,0,-7,-35,30763,3792,-6992,-1040,30949,51,-834,-299,1389634531.359066
3,104,0,27834,-8,-16,-19,27626,3952,-6464,1680,27259,125,-724,-141,1389634531.359068
2,105,0,31858,-4,-10,-33,32641,3840,-7040,-1008,30949,51,-834,-299,1389634531.359070
3,105,0,29833,-6,-11,-19,29503,3920,-6528,1680,29838,125,-725,-140,1389634531.359071
2,106,0,33847,-4,-9,-36,34519,3840,-6992,-1040,33510,47,-831,-303,1389634531.359073
3,106,0,30833,-3,-16,-21,31380,3968,-6512,1696,29838,125,-725,-140,1389634531.359075
2,107,0,35837,-2,-11,-42,36396,3840,-7008,-1056,36073,48,-834,-301,1389634531.359076
3,107,0,32832,-9,-22,-23,33257,3936,-6544,1664,32417,123,-729,-143,1389634531.359078
2,108,0,37826,-1,-9,-35,38274,3840,-7008,-1072,36073,48,-834,-301,1389634531.359080
3,108,0,34831,-10,-5,-22,35135,3936,-6544,1696,34995,124,-723,-142,1389634531.359081
2,109,0,39816,-2,-14,-27,40153,3808,-6896,-1056,38634,46,-833,-298,1389634531.359083
3,109,0,36831,-8,-12,-10,37012,3920,-6560,1760,34995,124,-723,-142,1389634531.359085
2,110,0,41805,6,-9,-26,42031,3792,-7008,-1008,41195,48,-832,-299,1389634531.359086
3,110,0,38830,-5,-1,-16,38889,3936,-6512,1776,37574,123,-725,-142,1389634531.359088
2,111,0,43795,3,-10,-27,43909,3824,-6992,-1120,43756,48,-834,-299,1389634531.359101
3,111,0,40829,-4,-9,-17,40766,3920,-6624,1664,40153,123,-725,-140,1389634531.359103
2,112,0,45784,6,-8,-25,45787,3808,-6976,-1072,43756,48,-834,-299,1389634531.359122
3,112,0,42829,-4,-13,-10,42642,3984,-6512,1584,42731,126,-726,-142,1389634531.359124
2,113,0,47774,2,-12,-32,47665,3792,-6976,-1072,46318,45,-840,-299,1389634531.359126
3,113,0,44828,-2,-7,-16,44518,4016,-6560,1616,42731,126,-726,-142,1389634531.359127
2,114,0,48768,7,-12,-33,49543,3808,-6992,-1056,48880,50,-831,-302,1389634531.359129
3,114,0,45828,-10,-15,-16,46396,3984,-6560,1552,45309,124,-723,-139,1389634531.359131
2,115,0,50758,11,-5,-32,51420,3792,-7008,-1104,51441,47,-833,-299,1389634531.359132
3,115,0,47827,-12,-15,-18,48273,3984,-6624,1600,47888,124,-724,-137,1389634531.359134
2,116,0,52747,8,-7,-29,53297,3792,-6960,-1088,51441,47,-833,-299,1389634531.359136
3,116,0,49826,-17,-7,-7,50150,3952,-6560,1648,50466,123,-725,-138,1389634531.359138
2,117,0,54737,-1,-16,-22,55175,3792,-6960,-1104,54003,47,-837,-299,1389634531.359139
3,117,0,51826,-19,-8,-17,52027,3952,-6512,1696,50466,123,-725,-138,1389634531.359142
2,118,0,56726,6,-7,-27,57053,3824,-7024,-1008,56565,50,-831,-296,1389634531.359144
3,118,0,53825,-13,-14,-14,53904,3968,-6480,1712,53045,122,-728,-139,1389634531.359145
2,119,0,58716,-2,-15,-21,58931,3776,-6944,-1056,56565,50,-831,-296,1389634531.359147
3,119,0,55824,-14,-2,-15,55781,3888,-6480,1728,55623,124,-724,-138,1389634531.359149
2,120,0,60706,3,-11,-20,60809,3776,-7040,-1056,59125,49,-832,-297,1389634531.359151
3,120,0,57824,-13,-8,-8,57658,3936,-6496,1728,55623,124,-724,-138,1389634531.359152
2,121,0,62695,10,-12,-16,62687,3776,-6960,-1040,61686,50,-835,-300,1389634531.359154
3,121,0,59823,-6,-4,-15,59536,3952,-6480,1776,58202,121,-723,-137,1389634531.359156
2,122,0,64685,10,-6,-19,64564,3776,-6960,-1120,64247,48,-832,-300,1389634531.359157
3,122,0,60823,-5,-4,-10,61414,3984,-6528,1744,60780,125,-722,-138,1389634531.359159
2,123,0,143,9,-7,-25,905,3808,-7024,-1136,64247,48,-832,-300,1389634531.359161
3,123,0,62822,-6,-6,-7,63290,3904,-6512,1680,63359,121,-721,-135,1389634531.359163
2,124,0,2133,5,-12,-9,2783,3808,-7024,-1104,1272,49,-834,-299,1389634531.359165
3,124,0,64822,-11,-19,-12,65167,3968,-6528,1680,63359,121,-721,-135,1389634531.359167
2,125,0,4122,3,-15,-15,4661,3920,-6960,-1056,3835,48,-833,-299,1389634531.359168
3,125,0,1285,3,-16,-21,1507,3968,-6528,1664,402,121,-724,-138,1389634531.359170
2,186,0,47849,-11,-28,-44,47593,4000,-6688,-1216,46944,155,-197,-85,1389634531.359400
3,186,0,44946,39,39,-16,44622,4000,-6416,1744,43102,323,-406,-126,1389634531.359407
2,187,0,48843,-11,-26,-47,49472,4000,-6928,-1040,49506,153,-200,-85,1389634531.371532
3,187,0,45946,46,28,-22,46499,4048,-6384,1600,45682,326,-406,-126,1389634531.371548
2,188,0,50833,-2,-7,-55,51351,3968,-6960,-912,49506,153,-200,-85,1389634531.371862
3,188,0,47945,49,30,-29,48376,4000,-6448,1584,48260,325,-405,-129,1389634531.378117
2,189,0,52822,23,5,-46,53229,3936,-6944,-928,52069,153,-199,-81,1389634531.390305
3,189,0,49945,41,24,-30,50253,4064,-6496,1568,48260,325,-405,-129,1389634531.390315
2,190,0,54812,52,24,-19,55106,3936,-6928,-976,54630,151,-201,-85,1389634531.402348
3,190,0,51944,29,7,-33,52129,3984,-6496,1808,50839,324,-405,-127,1389634531.402358
2,191,0,56801,73,35,-2,56985,3904,-6960,-1152,57192,152,-199,-82,1389634531.402678
3,191,0,53943,31,5,-37,54006,3888,-6544,1872,53418,325,-405,-128,1389634531.402685
2,192,0,58791,88,32,10,58864,3856,-6976,-1424,57192,152,-199,-82,1389634531.420218
3,192,0,55943,37,14,-35,55882,4000,-6544,1760,55997,322,-405,-127,1389634531.420233
2,193,0,60780,89,20,19,60742,4000,-6752,-1568,59755,151,-200,-83,1389634531.432462
3,193,0,57942,31,9,-16,57759,3984,-6512,1696,55997,322,-405,-127,1389634531.432477
2,194,0,62770,63,16,15,62621,3984,-6848,-1520,62316,151,-197,-85,1389634531.432808
3,194,0,59941,30,5,-8,59637,4032,-6480,1616,58576,326,-404,-127,1389634531.432819
2,195,0,64760,51,7,-1,64499,3968,-6832,-1408,62316,151,-197,-85,1389634531.451035
3,195,0,60941,39,5,-19,61514,4016,-6528,1536,61156,323,-403,-128,1389634531.451087
2,196,0,218,42,7,-10,842,3920,-6816,-1472,64877,151,-197,-87,1389634531.462554
3,196,0,62940,21,-8,-21,63391,3984,-6560,1600,61156,323,-403,-128,1389634531.462563
2,197,0,2208,35,1,-17,2721,3952,-6800,-1472,1902,152,-201,-87,1389634531.462835
3,197,0,64940,11,-5,-29,65268,3904,-6544,1648,63736,326,-408,-132,1389634531.462841
2,198,0,4197,24,-16,-14,4600,3920,-6832,-1536,4463,151,-199,-87,1389634531.481245
3,198,0,1403,5,-1,-21,1608,4000,-6576,1728,779,328,-406,-128,1389634531.481260
2,199,0,6187,12,-18,-24,6479,3936,-6928,-1520,4463,151,-199,-87,1389634531.487162
3,199,0,3403,0,-11,-16,3486,4016,-6592,1600,3358,326,-405,-127,1389634531.487375
2,200,0,8176,-5,-17,-20,8357,4000,-6928,-1376,7025,153,-199,-87,1389634531.499006
3,200,0,5402,0,-13,8,5362,4032,-6496,1584,3358,326,-405,-127,1389634531.499022
2,201,0,10166,5,-12,-17,10235,4000,-6928,-1296,9587,148,-201,-88,1389634531.510963
3,201,0,7401,-11,-3,3,7239,4064,-6448,1680,5937,325,-406,-128,1389634531.510978
2,202,0,12155,-6,-13,-23,12113,3952,-6800,-1184,12149,153,-198,-83,1389634531.523217
3,202,0,9401,-6,2,3,9116,4032,-6256,1760,8515,323,-405,-128,1389634531.523233
2,203,0,14145,4,-4,-27,13993,4016,-6816,-1200,12149,153,-198,-83,1389634531.523563
3,203,0,10400,-1,0,-1,10993,3920,-6288,1792,11093,324,-405,-129,1389634531.523573
2,204,0,15140,1,-5,-24,15871,4032,-6736,-1216,14712,153,-200,-85,1389634531.541925
3,204,0,12400,-4,-2,-20,12870,4000,-6304,1824,11093,324,-405,-129,1389634531.541940
2,205,0,17129,15,3,-29,17750,3968,-6736,-1200,17273,151,-197,-85,1389634531.542252
3,205,0,14399,25,7,-18,14746,3952,-6368,1824,13671,324,-404,-125,1389634531.542478
2,206,0,19119,28,8,-23,19629,4000,-6848,-1216,19835,151,-200,-86,1389634531.560504
3,206,0,16398,24,6,-33,16623,4048,-6480,1696,16250,324,-403,-131,1389634531.560514
2,207,0,21108,39,14,-31,21507,3968,-6896,-1296,19835,151,-200,-86,1389634531.572377
3,207,0,18398,39,14,-33,18500,4016,-6528,1664,16250,324,-403,-131,1389634531.572386
2,208,0,23098,37,25,-22,23386,3920,-6944,-1344,22395,149,-198,-88,1389634531.572655
3,208,0,20397,33,8,-28,20377,4032,-6512,1632,18828,324,-403,-130,1389634531.572662
2,209,0,25087,35,19,-18,25265,3936,-6880,-1424,24956,152,-197,-84,1389634531.590805
3,209,0,22397,26,1,-29,22254,4032,-6544,1648,21406,325,-402,-129,1389634531.590820
2,210,0,27077,33,22,-14,27143,3952,-6816,-1440,24956,152,-197,-84,1389634531.602899
3,210,0,24396,37,8,-36,24131,3952,-6608,1712,23986,325,-407,-132,1389634531.602907
2,211,0,29066,36,15,-16,29023,3968,-6848,-1408,27517,151,-196,-90,1389634531.603186
3,211,0,25396,27,1,-30,26008,4064,-6560,1552,23986,325,-407,-132,1389634531.603192
2,212,0,31056,30,11,-21,30901,3952,-6752,-1312,30079,150,-200,-87,1389634531.620897
3,212,0,27395,22,-8,-40,27885,4048,-6512,1648,26565,322,-404,-129,1389634531.620912
2,213,0,32051,26,13,-31,32780,3968,-6736,-1392,32639,149,-200,-87,1389634531.633114
3,213,0,29394,28,-7,-35,29762,4032,-6528,1584,29144,323,-405,-131,1389634531.633123
2,214,0,34040,11,13,-38,34659,3952,-6720,-1504,32639,149,-200,-87,1389634531.633362
3,214,0,31394,28,5,-36,31640,4032,-6576,1568,31723,325,-405,-128,1389634531.633369
2,215,0,36030,8,6,-43,36537,3968,-6704,-1488,35200,151,-198,-90,1389634531.650708
3,215,0,33393,24,-13,-50,33517,4016,-6512,1616,31723,325,-405,-128,1389634531.650716
2,216,0,38019,-6,9,-61,38415,4000,-6704,-1472,37761,151,-196,-90,1389634531.662752
3,216,0,35392,21,-14,-59,35395,4032,-6496,1552,34301,323,-406,-128,1389634531.662761
2,217,0,40009,-24,2,-67,40294,3952,-6800,-1504,40324,149,-197,-87,1389634531.663032
3,217,0,37392,13,-26,-61,37271,4000,-6496,1600,36881,324,-407,-130,1389634531.663038
2,218,0,41998,-44,-6,-90,42172,3952,-6800,-1520,40324,149,-197,-87,1389634531.680945
3,218,0,39391,13,-23,-69,39148,4016,-6464,1664,36881,324,-407,-130,1389634531.680952
2,219,0,43988,-53,-17,-92,44051,3888,-6848,-1472,42886,149,-201,-87,1389634531.692077
3,219,0,40391,13,-29,-78,41026,4032,-6448,1600,39460,325,-404,-130,1389634531.692080
2,220,0,45977,-65,-21,-86,45929,3920,-6816,-1472,45447,148,-199,-87,1389634531.692302
3,220,0,42390,21,-32,-80,42903,4016,-6512,1600,42039,323,-408,-129,1389634531.692306
2,221,0,47967,-89,-21,-105,47807,3904,-6896,-1440,45447,148,-199,-87,1389634531.709290
3,221,0,44390,31,-34,-88,44779,4032,-6464,1632,44616,323,-408,-128,1389634531.709297
2,222,0,48962,-97,-28,-108,49687,3936,-6816,-1456,48010,152,-196,-87,1389634531.720937
3,222,0,46389,33,-31,-99,46656,3968,-6480,1632,44616,323,-408,-128,1389634531.720942
2,223,0,50951,-112,-31,-108,51566,3904,-6848,-1280,50571,150,-198,-89,1389634531.732570
3,223,0,48388,36,-36,-100,48533,3984,-6480,1584,47195,326,-407,-131,1389634531.732574
2,224,0,52941,-114,-34,-109,53444,3952,-6928,-1280,53132,149,-199,-87,1389634531.732775
3,224,0,50388,41,-26,-94,50411,3936,-6512,1584,49774,322,-406,-131,1389634531.732778
2,225,0,54930,-120,-27,-109,55323,3952,-6960,-1264,53132,149,-199,-87,1389634531.749573
3,225,0,52387,39,-36,-99,52288,3936,-6592,1600,52352,321,-408,-130,1389634531.749579
2,226,0,56920,-116,-28,-110,57202,3952,-7008,-1248,55694,147,-199,-84,1389634531.760686
3,226,0,54386,42,-26,-85,54165,3920,-6608,1600,52352,321,-408,-130,1389634531.760695
2,227,0,58909,-104,-24,-115,59079,3920,-7056,-1136,58256,146,-198,-82,1389634531.772311
3,227,0,55386,37,-31,-90,56043,3856,-6624,1536,54932,319,-410,-127,1389634531.772316
2,228,0,60899,-87,-12,-101,60957,3968,-7008,-1088,60816,144,-200,-85,1389634531.772516
3,228,0,57385,19,-36,-76,57921,3888,-6544,1552,57512,320,-407,-127,1389634531.772528
2,229,0,62888,-70,-8,-103,62836,3920,-6960,-1232,60816,144,-200,-85,1389634531.790024
3,229,0,59385,7,-44,-72,59798,3856,-6496,1680,57512,320,-407,-127,1389634531.790032
2,230,0,63883,-66,-13,-113,64714,3952,-6896,-1184,63376,145,-201,-81,1389634531.801997
3,230,0,61384,12,-31,-75,61676,3856,-6448,1792,60091,318,-412,-129,1389634531.802005
2,231,0,337,-60,-7,-102,1057,3904,-6944,-1280,399,146,-202,-84,1389634531.802298
3,231,0,63384,30,-30,-91,63553,3888,-6512,1744,62670,318,-408,-128,1389634531.802303
2,232,0,2326,-51,-13,-103,2935,3840,-7024,-1248,2960,146,-203,-85,1389634531.820193
3,232,0,65383,33,-15,-99,65431,3760,-6704,1680,65248,319,-408,-130,1389634531.820201
2,233,0,4316,-53,-11,-95,4813,3824,-7088,-1312,2960,146,-203,-85,1389634531.832358
3,233,0,1846,42,1,-100,1773,3792,-6736,1584,65248,319,-408,-130,1389634531.832367
2,234,0,6305,-38,-10,-95,6692,3984,-7056,-1600,5521,146,-200,-83,1389634531.832638
3,234,0,3846,45,3,-74,3650,3888,-6816,1552,2291,317,-411,-126,1389634531.832644
2,235,0,8295,-33,-1,-78,8570,3520,-7184,-656,8082,143,-204,-85,1389634531.850193
3,235,0,4845,36,-3,-67,5527,3824,-6784,1472,4870,317,-410,-126,1389634531.850208
2,236,0,10284,-22,3,-72,10449,3696,-6912,-1328,8082,143,-204,-85,1389634531.862237
3,236,0,6845,12,-20,-57,7404,3600,-6720,1632,7450,318,-408,-129,1389634531.862247
2,237,0,12274,-6,-14,-62,12327,3776,-6976,-1328,10643,143,-201,-86,1389634531.862481
3,237,0,8844,-12,-7,-38,9282,3632,-6688,1728,7450,318,-408,-129,1389634531.862488
2,238,0,14263,-5,-2,-43,14204,3520,-7072,-1392,13204,145,-201,-86,1389634531.880566
3,238,0,10843,-10,0,-15,11159,3920,-6624,1584,10030,318,-410,-126,1389634531.880576
2,239,0,15258,-19,-24,-49,16082,3728,-6800,-1456,15766,144,-201,-86,1389634531.892677
3,239,0,12843,-20,-2,-2,13036,3952,-6560,1472,12608,317,-411,-127,1389634531.892686
2,240,0,17248,-14,-18,-33,17961,3936,-6800,-1264,15766,144,-201,-86,1389634531.892956
3,240,0,14842,-38,-5,-12,14913,3856,-6608,1504,12608,317,-411,-127,1389634531.892963
2,241,0,19237,-26,-14,-36,19839,3904,-6832,-1152,18327,142,-200,-84,1389634531.911136
3,241,0,16842,-36,-9,-9,16791,3888,-6544,1600,15188,317,-408,-132,1389634531.911145
2,242,0,21227,-30,-24,-50,21717,3872,-6896,-1232,20888,143,-201,-84,1389634531.922662
3,242,0,18841,-37,-4,-12,18669,3872,-6544,1584,17767,314,-413,-130,1389634531.922677
2,243,0,23216,-38,-17,-60,23596,3808,-6848,-1200,23448,143,-202,-85,1389634531.922954
3,243,0,19841,-35,-12,-6,20546,3840,-6416,1664,20347,314,-410,-132,1389634531.922961
2,244,0,25206,-43,-7,-67,25474,3824,-6944,-1152,23448,143,-202,-85,1389634531.941199
3,244,0,21840,-36,-11,-14,22424,3808,-6416,1696,20347,314,-410,-132,1389634531.941215
2,245,0,27195,-32,-19,-66,27352,3888,-7120,-976,26009,143,-201,-87,1389634531.947580
3,245,0,23839,-18,-13,-4,24302,3808,-6512,1632,22925,318,-408,-129,1389634531.947896
2,246,0,29185,-16,9,-56,29229,3728,-7024,-1312,28570,144,-203,-85,1389634531.959564
3,246,0,25839,-17,-7,-12,26180,3904,-6496,1696,25505,318,-408,-129,1389634531.959574
2,247,0,31174,-9,-9,-58,31108,3920,-7056,-976,31131,144,-202,-86,1389634531.971773
3,247,0,27838,-5,-11,-9,28057,3840,-6592,1712,28083,317,-408,-127,1389634531.971788
2,248,0,32169,4,-11,-60,32986,4016,-7136,-1456,31131,144,-202,-86,1389634531.972146
3,248,0,29837,-6,-1,-18,29934,3872,-6544,1696,28083,317,-408,-127,1389634531.972455
2,249,0,34159,24,23,-50,34864,3664,-7104,-880,33693,144,-201,-85,1389634531.990742
3,249,0,31837,2,1,-5,31811,3808,-6576,1696,30663,317,-410,-127,1389634531.990758
2,250,0,36148,16,9,-35,36743,3728,-7232,-784,36253,140,-201,-87,1389634532.2356
3,250,0,33836,13,-1,-16,33689,3856,-6528,1712,33242,319,-410,-129,1389634532.2371
2,251,0,38138,44,7,-46,38620,3600,-6912,-1840,36253,140,-201,-87,1389634532.2706
3,251,0,34836,9,4,-13,35566,3904,-6496,1648,33242,319,-410,-129,1389634532.2718
2,252,0,40127,31,7,-20,40498,3856,-6896,-1280,38814,143,-201,-89,1389634532.20347
3,252,0,36835,12,0,-13,37443,3920,-6544,1680,35820,319,-409,-127,1389634532.20356
2,253,0,42117,32,1,-20,42377,3760,-6928,-1248,41375,141,-202,-88,1389634532.32411
3,253,0,38835,14,-2,-12,39321,3904,-6576,1648,38398,317,-407,-127,1389634532.32421
2,254,0,44106,31,-3,-28,44256,3552,-7072,-720,43935,142,-201,-87,1389634532.32687
3,254,0,40834,19,2,-18,41198,3920,-6592,1616,40977,317,-411,-126,1389634532.32693
2,255,0,46096,36,6,-27,46135,3632,-6960,-1488,43935,142,-201,-87,1389634532.50797
3,255,0,42833,24,-1,-22,43076,3904,-6640,1632,40977,317,-411,-126,1389634532.50807
2,0,0,47091,24,1,-26,48012,3808,-7024,-1200,46496,140,-202,-88,1389634532.62967
3,0,0,44833,12,-8,-22,44953,3872,-6624,1520,43557,318,-411,-129,1389634532.62974
2,1,0,49080,33,5,-21,49891,3728,-7024,-1312,49059,142,-201,-88,1389634532.63215
3,1,0,46832,9,-12,-30,46830,3888,-6592,1600,46137,318,-410,-130,1389634532.63220
2,2,0,51070,34,1,-21,51769,3744,-7040,-1280,51620,141,-205,-88,1389634532.80642
3,2,0,48831,3,1,-32,48707,3888,-6560,1584,48716,318,-410,-129,1389634532.80650
2,3,0,53059,35,3,-32,53647,3744,-6992,-1264,51620,141,-205,-88,1389634532.92721
3,3,0,49831,0,-18,-24,50585,3936,-6544,1568,48716,318,-410,-129,1389634532.92731
2,4,0,55049,38,-2,-20,55526,3808,-6896,-1312,54181,143,-202,-84,1389634532.93000
3,4,0,51830,4,-7,-25,52462,3872,-6544,1600,51297,318,-411,-130,1389634532.93007
2,5,0,57038,40,-6,-23,57404,3712,-6928,-1264,56743,142,-202,-86,1389634532.110825
3,5,0,53830,9,-17,-30,54340,3952,-6576,1584,53876,318,-408,-130,1389634532.110835
2,6,0,59028,29,-8,-23,59283,3664,-6944,-1296,56743,142,-202,-86,1389634532.122893
3,6,0,55829,0,-9,-38,56217,3888,-6592,1600,53876,318,-408,-130,1389634532.122902
2,7,0,61017,37,-9,-22,61161,3648,-6928,-1312,59304,141,-201,-88,1389634532.123170
3,7,0,57829,8,-11,-37,58095,3888,-6544,1648,56455,318,-407,-128,1389634532.123176
2,8,0,63007,32,-10,-25,63039,3776,-6880,-1424,61865,141,-203,-88,1389634532.141213
3,8,0,59828,13,-21,-30,59972,3712,-6464,1728,59035,315,-412,-131,1389634532.141222
2,9,0,64002,34,-9,-32,64917,3776,-6960,-1440,64427,140,-203,-88,1389634532.146832
3,9,0,61827,10,-15,-37,61851,3744,-6512,1776,61616,315,-409,-130,1389634532.147105
2,10,0,455,21,-20,-18,1260,3744,-6896,-1312,64427,140,-203,-88,1389634532.159352
3,10,0,63827,22,3,-31,63728,3920,-6576,1568,61616,315,-409,-130,1389634532.159367
2,11,0,2445,19,-19,-14,3138,3856,-6912,-1328,1453,144,-202,-88,1389634532.170892
3,11,0,64826,20,7,-22,69,3968,-6560,1472,64196,317,-411,-128,1389634532.170902
2,12,0,4434,-1,-14,-22,5017,3824,-6880,-1312,4015,141,-203,-87,1389634532.182542
3,12,0,1290,12,-13,-18,1947,3952,-6608,1488,1239,318,-410,-131,1389634532.182551
2,13,0,6424,-8,-16,-21,6896,3760,-6896,-1312,6576,142,-202,-91,1389634532.182863
3,13,0,3289,-1,-19,-33,3825,3888,-6624,1472,3817,316,-412,-130,1389634532.182869
2,14,0,8413,-8,-19,-21,8775,3776,-6928,-1360,6576,142,-202,-91,1389634532.201074
3,14,0,5288,-14,-18,-31,5702,3872,-6608,1536,3817,316,-412,-130,1389634532.201084
2,15,0,10403,-26,-26,-27,10184,3744,-7008,-1232,9137,141,-207,-88,1389634532.212484
3,15,0,7288,-28,-11,-20,7579,3856,-6560,1616,6397,315,-411,-128,1389634532.212493
2,16,0,12392,-20,-23,-22,12062,3744,-6944,-1232,11700,142,-201,-88,1389634532.212706
3,16,0,9287,-21,-23,-30,9456,3872,-6528,1648,8977,317,-410,-129,1389634532.212711
2,17,0,14382,-11,-26,-18,13940,3760,-6992,-1200,14262,140,-203,-87,1389634532.229877
3,17,0,11287,-7,-23,-31,11333,3920,-6544,1648,8977,317,-410,-129,1389634532.229886
2,18,0,15377,-9,-20,-22,15818,3808,-6992,-1168,14262,140,-203,-87,1389634532.241824
3,18,0,13286,3,-16,-22,13210,3840,-6544,1744,11556,319,-410,-128,1389634532.241833
2,19,0,17366,-7,-15,-25,17696,3728,-6960,-1200,16823,142,-206,-86,1389634532.242122
3,19,0,14286,4,-15,-21,15087,3840,-6560,1712,14136,318,-410,-127,1389634532.242370
2,20,0,19356,3,-17,-29,19575,3776,-6880,-1216,19384,141,-200,-86,1389634532.259747
3,20,0,16285,1,4,-18,16964,3808,-6496,1776,16716,315,-408,-129,1389634532.259756
2,21,0,21345,1,-16,-24,21452,3728,-6992,-1232,19384,141,-200,-86,1389634532.271221
3,21,0,18284,14,-13,-21,18842,3872,-6544,1696,16716,315,-408,-129,1389634532.271229
2,22,0,23335,-5,-13,-26,23330,3808,-7008,-1248,21945,142,-200,-86,1389634532.277372
3,22,0,20284,16,-6,-29,20720,3888,-6528,1616,19295,315,-409,-129,1389634532.277563
2,23,0,25324,-4,-18,-15,25209,3824,-6992,-1248,24508,142,-200,-84,1389634532.289714
3,23,0,22283,14,-10,-36,22598,3872,-6592,1616,21876,319,-410,-129,1389634532.289730
2,24,0,27314,-10,-29,-5,27088,3776,-6912,-1280,27069,143,-202,-91,1389634532.301868
3,24,0,24282,13,-6,-18,24476,3920,-6624,1696,24456,314,-411,-129,1389634532.301878
2,25,0,29303,-9,-20,-1,28966,3776,-6896,-1280,27069,143,-202,-91,1389634532.302127
3,25,0,26282,11,-6,-21,26354,3888,-6592,1616,24456,314,-411,-129,1389634532.302378
2,26,0,30298,-13,-21,-12,30844,3776,-6912,-1248,29631,144,-200,-85,1389634532.319433
3,26,0,28281,19,-3,-18,28231,3872,-6592,1552,27035,315,-410,-128,1389634532.319442
2,27,0,32288,-13,-27,8,32722,3776,-6976,-1264,32192,142,-202,-87,1389634532.331061
3,27,0,29281,8,-7,-27,30109,3936,-6592,1552,29615,320,-412,-126,1389634532.331070
2,28,0,34277,-7,-20,-10,34600,3760,-6976,-1216,34754,142,-201,-87,1389634532.343127
3,28,0,31280,11,2,-22,31987,3872,-6576,1536,29615,320,-412,-126,1389634532.343136
2,29,0,36267,-10,-18,0,36479,3744,-6960,-1280,34754,142,-201,-87,1389634532.343403
3,29,0,33280,-1,-7,-18,33865,3824,-6512,1584,32195,315,-408,-129,1389634532.343409
2,30,0,38256,-10,-27,-7,38358,3808,-6960,-1248,37315,142,-200,-83,1389634532.361286
3,30,0,35279,-3,-10,-15,35743,3840,-6592,1696,34775,315,-410,-128,1389634532.361301
2,31,0,40246,-9,-16,-2,40236,3792,-6912,-1264,39877,143,-202,-85,1389634532.367452
3,31,0,37278,-1,-9,-23,37621,3808,-6608,1728,37355,317,-411,-131,1389634532.367712
2,32,0,42235,-4,-18,-6,42115,3792,-7024,-1296,42438,140,-203,-86,1389634532.379142
3,32,0,39278,11,-15,-13,39499,3808,-6592,1712,37355,317,-411,-131,1389634532.379151
2,33,0,44225,-8,-14,-8,43993,3792,-6960,-1264,42438,140,-203,-86,1389634532.391235
3,33,0,41277,4,1,-27,41377,3872,-6592,1648,39934,313,-411,-128,1389634532.391251
2,34,0,46214,-17,-24,-12,45872,3872,-6848,-1248,44999,142,-198,-80,1389634532.397544
3,34,0,43276,8,-3,-24,43254,3792,-6544,1584,42513,318,-410,-129,1389634532.397864
2,35,0,47209,-14,-26,-12,47751,3760,-6880,-1280,47560,141,-201,-84,1389634532.410156
3,35,0,44276,8,-10,-19,45133,3856,-6544,1584,45094,317,-411,-128,1389634532.410172
2,36,0,49199,-10,-24,-25,49629,3840,-6896,-1264,47560,141,-201,-84,1389634532.422539
3,36,0,46275,8,-2,-26,47011,3824,-6560,1568,45094,317,-411,-128,1389634532.422549
2,37,0,51188,-14,-18,-29,51507,3776,-6928,-1264,50120,141,-200,-87,1389634532.422773
3,37,0,48275,11,-6,-19,48889,3824,-6624,1632,47673,316,-411,-132,1389634532.422780
2,38,0,53178,-20,-25,-25,53384,3760,-7008,-1248,52681,141,-199,-85,1389634532.440288
3,38,0,50274,14,2,-25,50766,3872,-6608,1616,50252,315,-410,-129,1389634532.440304
2,39,0,55167,-10,-24,-17,55261,3792,-6928,-1232,55242,140,-200,-88,1389634532.452630
3,39,0,52274,10,-7,-27,52643,3888,-6560,1616,50252,315,-410,-129,1389634532.452645
2,40,0,57157,-18,-23,-25,57140,3824,-6960,-1200,55242,140,-200,-88,1389634532.452970
3,40,0,54273,7,-7,-24,54521,3840,-6560,1648,52830,318,-410,-130,1389634532.452981
2,41,0,59146,-21,-24,-19,59018,3776,-6992,-1200,57805,142,-201,-85,1389634532.471198
3,41,0,56272,16,-10,-23,56398,3904,-6576,1648,55409,314,-412,-130,1389634532.471208
2,42,0,61136,-8,-17,-16,60896,3744,-6944,-1280,60367,142,-202,-86,1389634532.477391
3,42,0,58272,12,2,-23,58276,3824,-6608,1552,57989,313,-410,-133,1389634532.477645
2,43,0,63125,-9,-15,-16,62775,3744,-7024,-1264,62928,144,-200,-85,1389634532.489949
3,43,0,59271,2,-1,-14,60154,3872,-6576,1536,57989,313,-410,-133,1389634532.489964
2,44,0,64120,-10,-19,-17,64653,3856,-7008,-1184,62928,144,-200,-85,1389634532.501589
3,44,0,61271,9,-10,-30,62031,3872,-6656,1600,60567,313,-410,-130,1389634532.501604
2,45,0,574,-10,-14,-7,996,3856,-6960,-1200,65491,147,-201,-85,1389634532.501913
3,45,0,63270,10,-7,-22,63908,3808,-6672,1584,63146,315,-408,-130,1389634532.508196
2,46,0,2563,-12,-18,-5,2874,3808,-6896,-1184,2516,144,-201,-87,1389634532.520478
3,46,0,65269,6,-7,-18,249,3824,-6672,1584,189,314,-409,-129,1389634532.520487
2,47,0,4553,-6,-18,-9,4752,3792,-6896,-1232,5079,145,-201,-85,1389634532.532524
3,47,0,1733,3,-9,-21,2125,3904,-6640,1568,189,314,-409,-129,1389634532.532534
2,48,0,6542,-1,-10,-18,6630,3792,-6944,-1216,5079,145,-201,-85,1389634532.532807
3,48,0,3732,9,0,-23,4002,3856,-6624,1616,2767,317,-413,-130,1389634532.532814
2,49,0,8532,-8,-22,-18,8508,3792,-6928,-1296,7639,142,-201,-85,1389634532.551241
3,49,0,5732,12,-1,-15,5880,3888,-6640,1600,5346,314,-411,-130,1389634532.551256
2,50,0,10521,3,-12,-17,10386,3824,-6944,-1216,10200,143,-201,-84,1389634532.557251
3,50,0,7731,12,-9,-17,7757,3840,-6624,1664,5346,314,-411,-130,1389634532.557574
2,51,0,12511,0,-12,-30,12264,3856,-6960,-1232,10200,143,-201,-84,1389634532.569821
3,51,0,8731,13,-6,-19,9634,3824,-6560,1584,7924,316,-409,-129,1389634532.569829
2,52,0,13506,0,-13,-27,14142,3792,-6928,-1232,12761,143,-204,-86,1389634532.582061
3,52,0,10730,12,-9,-16,11511,3856,-6576,1568,10503,315,-409,-131,1389634532.582071
2,53,0,15495,1,-17,-28,16020,3792,-6912,-1200,15322,143,-203,-84,1389634532.582340
3,53,0,12729,13,-2,-26,13388,3872,-6576,1616,13082,313,-410,-129,1389634532.582347
2,54,0,17485,-2,-10,-31,17898,3808,-6912,-1232,17883,144,-199,-84,1389634532.600533
3,54,0,14729,26,-2,-28,15265,3808,-6576,1536,13082,313,-410,-129,1389634532.600549
2,55,0,19474,1,-11,-44,19776,3792,-6976,-1216,17883,144,-199,-84,1389634532.612889
3,55,0,16728,11,-11,-30,17142,3840,-6608,1552,15660,314,-411,-130,1389634532.612905
2,56,0,21464,-2,-10,-32,21654,3808,-6944,-1232,20445,147,-202,-83,1389634532.613219
3,56,0,18727,9,-14,-20,19019,3920,-6704,1552,18239,316,-412,-127,1389634532.613231
2,57,0,23453,1,-11,-52,23533,3744,-6912,-1200,23006,144,-201,-85,1389634532.631359
3,57,0,20727,14,-9,-26,20896,3872,-6576,1568,20819,317,-409,-130,1389634532.631368
2,58,0,25443,-2,-2,-43,25411,3792,-6960,-1216,25568,140,-199,-86,1389634532.637533
3,58,0,22726,13,-5,-12,22774,3824,-6544,1632,20819,317,-409,-130,1389634532.637734
2,59,0,27432,-4,-10,-43,27288,3792,-6944,-1152,25568,140,-199,-86,1389634532.649172
3,59,0,23726,16,-5,-21,24651,3760,-6592,1600,23397,315,-411,-131,1389634532.649181
2,60,0,29422,-1,-9,-53,29167,3760,-6928,-1216,28129,146,-203,-86,1389634532.660505
3,60,0,25725,6,3,-16,26528,3840,-6576,1584,25977,314,-411,-131,1389634532.660514
2,61,0,30417,-2,-5,-55,31045,3744,-7024,-1232,30692,144,-203,-84,1389634532.672543
3,61,0,27725,13,5,-13,28404,3856,-6624,1520,25977,314,-411,-131,1389634532.672552
2,62,0,32406,-5,-6,-49,32924,3744,-6992,-1296,30692,144,-203,-84,1389634532.672833
3,62,0,29724,12,-4,-25,30281,3872,-6640,1552,28556,317,-407,-132,1389634532.672882
2,63,0,34396,-8,-8,-47,34803,3792,-6976,-1152,33253,144,-200,-88,1389634532.690936
3,63,0,31723,10,-8,-19,32159,3872,-6672,1520,31135,317,-408,-132,1389634532.690951
2,64,0,36385,-6,-9,-32,36681,3824,-6960,-1168,35816,146,-203,-87,1389634532.703164
3,64,0,33723,7,-2,-19,34035,3840,-6640,1568,33715,315,-408,-132,1389634532.703173
2,65,0,38375,2,-6,-34,38559,3792,-6944,-1232,38377,145,-203,-88,1389634532.703443
3,65,0,35722,7,-3,-15,35912,3856,-6608,1568,33715,315,-408,-132,1389634532.703449
2,66,0,40364,1,-10,-36,40437,3792,-6896,-1248,38377,145,-203,-88,1389634532.721571
3,66,0,37721,11,-5,-18,37789,3872,-6640,1584,36294,315,-407,-129,1389634532.721586
2,67,0,42354,2,-9,-29,42315,3760,-6848,-1216,40938,143,-203,-86,1389634532.721899
3,67,0,38721,11,-9,-7,39667,3856,-6576,1536,38872,317,-410,-132,1389634532.727770
2,68,0,44343,2,-9,-40,44193,3728,-6944,-1248,43499,143,-203,-83,1389634532.739288
3,68,0,40721,1,0,-6,41545,3856,-6576,1536,41451,315,-407,-129,1389634532.739297
2,69,0,46333,-2,-17,-26,46071,3712,-6928,-1296,46059,141,-204,-84,1389634532.751485
3,69,0,42720,0,6,-9,43422,3824,-6560,1584,41451,315,-407,-129,1389634532.751495
2,70,0,47328,0,-16,-28,47950,3744,-6960,-1216,46059,141,-204,-84,1389634532.751738
3,70,0,44719,2,-3,-12,45299,3792,-6592,1552,44030,316,-410,-129,1389634532.757972
2,71,0,49317,3,-15,-25,49829,3808,-7008,-1200,48621,142,-199,-82,1389634532.770125
3,71,0,46719,2,1,-15,46707,3728,-6640,1552,46609,318,-408,-131,1389634532.770135
2,72,0,51307,2,-12,-23,51707,3760,-6960,-1216,51182,145,-200,-83,1389634532.782245
3,72,0,48718,10,-6,-16,48584,3840,-6592,1584,46609,318,-408,-131,1389634532.782254
2,73,0,53296,7,-9,-23,53586,3744,-6928,-1200,53743,144,-202,-85,1389634532.782527
3,73,0,50717,2,7,-7,50461,3840,-6560,1568,49188,316,-406,-130,1389634532.782533
2,74,0,55286,7,-12,-6,55464,3760,-6960,-1280,53743,144,-202,-85,1389634532.800059
3,74,0,52717,2,9,-10,52338,3856,-6656,1568,51766,315,-408,-130,1389634532.800070
2,75,0,57275,1,-14,-15,57342,3792,-6960,-1232,56304,142,-203,-83,1389634532.812347
3,75,0,53716,0,2,-10,54215,3856,-6688,1504,54346,316,-408,-133,1389634532.812363
2,76,0,59265,10,-12,-10,59221,3760,-6896,-1248,58865,143,-205,-85,1389634532.812679
3,76,0,55716,-3,-6,5,56092,3888,-6576,1504,54346,316,-408,-133,1389634532.812691
2,77,0,61254,-5,-18,-2,61100,3824,-6960,-1248,58865,143,-205,-85,1389634532.830577
3,77,0,57715,-1,-9,0,57969,3888,-6624,1472,56926,315,-408,-132,1389634532.830586
2,78,0,62249,6,-13,-1,62980,3808,-6960,-1216,61426,143,-198,-85,1389634532.841606
3,78,0,59715,-2,-7,-4,59847,3872,-6608,1504,59506,316,-409,-133,1389634532.841621
2,79,0,64239,10,-9,-12,64858,3792,-6944,-1168,63988,144,-202,-86,1389634532.841927
3,79,0,61714,-1,-15,-8,61723,3872,-6560,1504,62085,315,-408,-131,1389634532.848161
2,80,0,692,6,-19,-17,1201,3744,-6992,-1248,1013,141,-201,-87,1389634532.860466
3,80,0,63713,-8,-16,-3,63600,3856,-6560,1536,62085,315,-408,-131,1389634532.860482
2,81,0,2682,5,-11,-14,3079,3792,-6912,-1200,1013,141,-201,-87,1389634532.872211
3,81,0,177,-14,-15,-4,65478,3856,-6592,1504,64664,317,-412,-131,1389634532.872226
2,82,0,4671,10,-7,-14,4958,3824,-6976,-1248,3575,145,-203,-85,1389634532.872554
3,82,0,2176,-12,-11,-8,1819,3904,-6624,1552,1708,320,-407,-130,1389634532.872565
2,83,0,6661,12,-11,-10,6837,3792,-6928,-1280,6135,145,-202,-88,1389634532.890565
3,83,0,3176,-11,-11,-16,3696,3856,-6624,1552,1708,320,-407,-130,1389634532.890575
2,84,0,8650,13,-10,-9,8716,3840,-6912,-1232,8697,142,-202,-83,1389634532.902442
3,84,0,5175,-12,-7,-1,5574,3936,-6592,1552,4286,316,-409,-132,1389634532.902452
2,85,0,10640,7,-12,-12,10595,3792,-6928,-1248,8697,142,-202,-83,1389634532.902722
3,85,0,7174,-10,-6,-6,7451,3840,-6624,1568,6865,317,-409,-130,1389634532.902729
2,86,0,12629,8,-7,-12,12474,3808,-6912,-1312,11257,142,-201,-88,1389634532.920451
3,86,0,9174,-14,0,-7,9328,3824,-6592,1568,9445,317,-410,-133,1389634532.920461
2,87,0,13624,4,-13,-13,14353,3808,-6896,-1280,13818,144,-201,-85,1389634532.932144
3,87,0,11173,-18,-3,-9,11205,3872,-6592,1584,9445,317,-410,-133,1389634532.932182
2,88,0,15614,8,-12,-13,16231,3808,-6896,-1280,16379,144,-204,-85,1389634532.932366
3,88,0,13172,-14,-8,-13,13082,3872,-6576,1536,12024,314,-408,-129,1389634532.932371
2,89,0,17603,6,-9,-15,18109,3808,-6912,-1248,16379,144,-204,-85,1389634532.950350
3,89,0,15172,-8,-2,-2,14960,3840,-6624,1616,14603,316,-408,-130,1389634532.950365
2,90,0,19593,7,-10,-14,19989,3840,-6960,-1280,18941,145,-203,-85,1389634532.962636
3,90,0,17171,-14,-7,-8,16837,3872,-6608,1552,17181,316,-408,-128,1389634532.962652
2,91,0,21582,7,-10,-27,21867,3792,-6912,-1248,21503,143,-200,-83,1389634532.962951
3,91,0,18171,-11,-11,-5,18715,3872,-6592,1568,17181,316,-408,-128,1389634532.962958
2,92,0,23572,6,-7,-17,23746,3760,-6912,-1264,21503,143,-200,-83,1389634532.981185
3,92,0,20170,-11,-9,-13,20592,3856,-6560,1600,19761,315,-409,-132,1389634532.981194
2,93,0,25561,2,-8,-23,25624,3840,-6992,-1264,24064,146,-204,-88,1389634532.987428
3,93,0,22170,-9,-4,-14,22469,3824,-6576,1584,22338,315,-410,-132,1389634532.987752
2,94,0,27551,1,-10,-28,27503,3808,-7008,-1264,26624,146,-201,-86,1389634533.157
3,94,0,24169,-12,-10,-23,24346,3872,-6544,1600,22338,315,-410,-132,1389634533.172
2,95,0,29540,5,-7,-30,29382,3808,-6896,-1248,29186,146,-200,-84,1389634533.12252
3,95,0,26168,-2,-13,-18,26223,3872,-6592,1584,24918,317,-408,-129,1389634533.12261
2,96,0,30535,-1,-12,-32,31261,3776,-6960,-1280,29186,146,-200,-84,1389634533.12499
3,96,0,28168,-4,-14,-16,28100,3760,-6608,1552,27497,315,-408,-128,1389634533.12506
2,97,0,32525,1,-12,-32,33139,3856,-6960,-1248,31747,144,-201,-86,1389634533.30016
3,97,0,30167,-2,-13,-11,29977,3840,-6576,1600,30076,317,-409,-133,1389634533.30025
2,98,0,34514,3,-20,-22,35019,3792,-6992,-1184,34308,144,-201,-85,1389634533.42094
3,98,0,32166,2,-11,-12,31854,3888,-6560,1568,30076,317,-409,-133,1389634533.42102
2,99,0,36504,5,-8,-16,36898,3856,-6976,-1280,36869,145,-201,-84,1389634533.42374
3,99,0,33166,2,-18,-14,33731,3872,-6656,1536,32655,316,-407,-128,1389634533.42380
2,100,0,38493,7,-9,-31,38776,3808,-6896,-1232,36869,145,-201,-84,1389634533.60177
3,100,0,35166,2,-10,-6,35608,3904,-6624,1504,35234,317,-409,-130,1389634533.60193
2,101,0,40483,7,-11,-9,40654,3824,-6976,-1264,39431,144,-201,-86,1389634533.72521
3,101,0,37165,-6,-9,-5,37485,3920,-6640,1584,37813,315,-407,-132,1389634533.72537
2,102,0,42472,9,-13,-23,42533,3808,-6944,-1248,41992,144,-201,-84,1389634533.72864
3,102,0,39164,-1,-11,-13,39362,3872,-6576,1568,37813,315,-407,-132,1389634533.72875
2,103,0,44462,5,-12,-13,44411,3840,-6912,-1264,44553,143,-202,-82,1389634533.91239
3,103,0,41164,2,-14,-14,41239,3840,-6592,1616,40392,317,-411,-129,1389634533.91255
2,104,0,45456,0,-13,-20,46290,3840,-6864,-1296,44553,143,-202,-82,1389634533.97556
3,104,0,43163,4,0,-11,43115,3856,-6592,1616,42970,316,-407,-129,1389634533.97880
2,105,0,47446,-2,-11,-26,48169,3824,-6928,-1264,47114,141,-203,-81,1389634533.110270
3,105,0,45162,3,0,-12,44993,3840,-6544,1552,42970,316,-407,-129,1389634533.110285
2,106,0,49436,1,-14,-32,50047,3824,-6928,-1296,49675,146,-201,-86,1389634533.122622
3,106,0,47162,-5,-5,-13,46871,3856,-6592,1520,45548,316,-409,-129,1389634533.122637
2,107,0,51425,-2,-16,-26,51925,3808,-6880,-1280,49675,146,-201,-86,1389634533.122965
3,107,0,48161,3,-1,-8,48747,3840,-6592,1600,48127,316,-407,-130,1389634533.122976
2,108,0,53415,0,-20,-33,53804,3808,-6928,-1264,52236,145,-200,-85,1389634533.140718
3,108,0,50161,8,1,-14,50625,3872,-6640,1552,50706,318,-410,-130,1389634533.140727
2,109,0,55404,-8,-15,-29,55683,3792,-6896,-1264,54797,144,-201,-83,1389634533.153019
3,109,0,52160,9,-2,-12,52502,3904,-6608,1552,50706,318,-410,-130,1389634533.153034
2,110,0,57394,-9,-19,-23,57562,3760,-6912,-1248,57359,146,-202,-86,1389634533.153355
3,110,0,54160,6,-2,-13,54380,3872,-6576,1600,53284,316,-407,-130,1389634533.153367
2,111,0,59383,-11,-16,-31,59441,3776,-6976,-1264,57359,146,-202,-86,1389634533.171301
3,111,0,56159,6,-6,-17,56258,3840,-6528,1600,55864,315,-408,-131,1389634533.171316
2,112,0,61373,1,-16,-30,61319,3840,-6992,-1280,59919,145,-209,-85,1389634533.177650
3,112,0,58158,22,-7,-15,58135,3840,-6608,1552,58443,316,-411,-129,1389634533.178049
2,113,0,62367,-7,-14,-28,63198,3856,-6944,-1184,62479,145,-203,-86,1389634533.189492
3,113,0,60158,14,5,-20,60013,3872,-6672,1504,58443,316,-411,-129,1389634533.189501
2,114,0,64357,-4,-15,-31,65077,3760,-6976,-1152,65039,143,-199,-85,1389634533.201641
3,114,0,62157,8,2,-13,61891,3888,-6560,1568,61022,315,-412,-128,1389634533.201657
2,115,0,811,0,-8,-31,1420,3744,-6976,-1232,65039,143,-199,-85,1389634533.201963
3,115,0,63157,8,-4,-15,63768,3904,-6608,1488,63600,319,-409,-131,1389634533.202275
2,116,0,2800,1,-8,-17,3300,3744,-6928,-1232,2065,144,-203,-86,1389634533.220568
3,116,0,65156,5,-7,-16,110,3888,-6640,1472,63600,319,-409,-131,1389634533.220583
2,117,0,4790,4,-17,-25,5179,3808,-6960,-1232,4626,146,-203,-83,1389634533.232962
3,117,0,1619,-4,-12,-13,1988,3840,-6624,1504,645,316,-409,-129,1389634533.232977
2,118,0,6779,3,-12,-17,7058,3808,-6912,-1232,4626,146,-203,-83,1389634533.233303
3,118,0,3619,-10,-3,-7,3865,3872,-6576,1520,3223,318,-406,-131,1389634533.233315
2,119,0,8769,-3,-15,-21,8936,3808,-6944,-1280,7188,145,-203,-84,1389634533.250856
3,119,0,5618,-8,-11,-9,5741,3888,-6560,1616,5803,318,-408,-129,1389634533.250865
2,120,0,10758,-10,-12,-28,10814,3808,-6864,-1296,9749,142,-202,-86,1389634533.263029
3,120,0,7618,-6,-10,-12,7618,3840,-6576,1600,5803,318,-408,-129,1389634533.263039
2,121,0,12748,-5,-15,-24,12692,3840,-6976,-1280,12311,141,-201,-84,1389634533.263309
3,121,0,9617,-6,-5,-14,9495,3904,-6512,1584,8383,317,-409,-131,1389634533.263315
2,122,0,13742,-6,-15,-24,14571,3744,-6960,-1264,12311,141,-201,-84,1389634533.281521
3,122,0,11616,7,-9,-9,11372,3856,-6624,1584,10961,317,-408,-131,1389634533.281536
2,123,0,15732,-6,-18,-38,16449,3808,-6928,-1200,14872,145,-204,-85,1389634533.281838
3,123,0,12616,3,-9,-18,13248,3936,-6608,1584,13541,316,-408,-131,1389634533.288078
2,124,0,17722,-7,-12,-18,18327,3792,-6992,-1184,17433,146,-203,-84,1389634533.300207
3,124,0,14615,12,-17,-16,15124,3856,-6592,1536,13541,316,-408,-131,1389634533.300216
2,125,0,19711,-3,-17,-24,20205,3744,-6992,-1184,19995,146,-199,-86,1389634533.312518
3,125,0,16615,-4,0,-22,17001,3824,-6624,1520,16121,315,-410,-129,1389634533.312534
2,126,0,21701,3,-9,-15,22083,3808,-6864,-1200,19995,146,-199,-86,1389634533.312864
3,126,0,18614,-5,2,-15,18877,3856,-6640,1536,18699,315,-406,-133,1389634533.312875
2,127,0,23690,9,-15,-22,23961,3808,-6912,-1216,22557,148,-202,-79,1389634533.330827
3,127,0,20613,-7,-10,-16,20754,3840,-6592,1552,18699,315,-406,-133,1389634533.330836
2,128,0,25680,0,-10,-16,25840,3808,-6864,-1264,25119,148,-203,-86,1389634533.342485
3,128,0,22613,-4,-15,-8,22631,3904,-6640,1632,21278,313,-409,-131,1389634533.342495
2,129,0,27669,6,-12,-28,27719,3808,-6944,-1312,27680,146,-201,-86,1389634533.342781
3,129,0,24612,-5,-16,-15,24508,3888,-6608,1600,23857,318,-409,-131,1389634533.342788
2,130,0,28664,6,-11,-26,29597,3792,-6960,-1264,27680,146,-201,-86,1389634533.359799
3,130,0,26612,-8,-10,-13,26385,3856,-6624,1600,26435,316,-406,-132,1389634533.359808
2,131,0,30653,0,-12,-31,31475,3776,-6944,-1216,30241,144,-199,-82,1389634533.372212
3,131,0,27611,-2,-4,-21,28262,3824,-6528,1632,26435,316,-406,-132,1389634533.372227
2,132,0,32643,1,-15,-31,33355,3856,-6928,-1184,32802,147,-200,-83,1389634533.372553
3,132,0,29611,2,-8,-17,30139,3856,-6576,1616,29014,316,-410,-131,1389634533.372565
2,133,0,34633,-3,-15,-22,35233,3840,-6992,-1232,32802,147,-200,-83,1389634533.390767
3,133,0,31610,-1,5,-12,32017,3872,-6624,1568,31593,318,-408,-131,1389634533.390777
2,134,0,36622,4,-15,-27,37111,3792,-6928,-1216,35365,147,-201,-85,1389634533.402995
3,134,0,33609,4,-9,-19,33894,3872,-6592,1568,34171,318,-407,-132,1389634533.403004
2,135,0,38612,3,-18,-26,38989,3840,-6928,-1216,37927,145,-202,-82,1389634533.403276
3,135,0,35609,5,3,-19,35772,3856,-6608,1536,34171,318,-407,-132,1389634533.403283
2,136,0,40601,-1,-13,-18,40867,3840,-6976,-1216,40488,145,-200,-82,1389634533.421222
3,136,0,37608,-2,-2,-10,37649,3840,-6656,1552,36750,319,-412,-129,1389634533.421251
2,137,0,42591,2,-9,-21,42745,3824,-6976,-1312,40488,145,-200,-82,1389634533.427424
3,137,0,39607,-7,-10,-15,39526,3872,-6608,1568,39328,319,-406,-132,1389634533.427682
2,138,0,44580,-1,-10,-17,44623,3776,-6960,-1232,43049,143,-198,-85,1389634533.439395
3,138,0,41607,-5,-11,-14,41403,3856,-6608,1536,39328,319,-406,-132,1389634533.439403
2,139,0,45575,-4,-14,-23,46501,3824,-6944,-1264,45612,144,-202,-83,1389634533.451457
3,139,0,42606,-2,-13,-13,43280,3872,-6592,1552,41907,316,-409,-127,1389634533.451467
2,140,0,47564,2,-19,-27,48379,3776,-6896,-1264,48173,144,-202,-87,1389634533.451716
3,140,0,44606,-3,-11,-11,45156,3840,-6544,1520,44485,316,-407,-131,1389634533.457947
2,141,0,49554,2,-13,-31,50257,3776,-6912,-1248,48173,144,-202,-87,1389634533.470286
3,141,0,46605,-2,-4,-17,47033,3888,-6560,1536,47064,317,-410,-128,1389634533.470301
2,142,0,51544,3,-18,-19,52135,3808,-6976,-1184,50735,142,-201,-86,1389634533.482627
3,142,0,48605,-5,-12,-6,48910,3824,-6592,1568,47064,317,-410,-128,1389634533.482642
2,143,0,53533,-3,-12,-13,54013,3840,-6928,-1184,53295,142,-200,-84,1389634533.482971
3,143,0,50604,-3,-13,-17,50787,3872,-6576,1568,49642,317,-406,-132,1389634533.482982
2,144,0,55523,0,-16,-22,55421,3856,-6928,-1264,55856,146,-202,-83,1389634533.500539
3,144,0,52603,3,-3,-12,52664,3872,-6544,1584,52222,318,-407,-127,1389634533.500555
2,145,0,57512,3,-9,-9,57768,3888,-6976,-1216,55856,146,-202,-83,1389634533.512334
3,145,0,54603,-1,-5,-9,54541,3872,-6656,1568,54801,318,-406,-132,1389634533.512349
2,146,0,59502,4,-8,-15,59177,3872,-6880,-1200,58417,147,-200,-88,1389634533.512681
3,146,0,56602,-4,-6,-17,56418,3888,-6608,1552,54801,318,-406,-132,1389634533.512692
2,147,0,61491,0,-11,-18,61057,3808,-6944,-1232,60978,148,-201,-84,1389634533.530761
3,147,0,57602,-9,-13,-7,58295,3840,-6528,1552,57380,317,-409,-130,1389634533.530770
2,148,0,62486,2,-11,-18,62936,3808,-6928,-1264,60978,148,-201,-84,1389634533.542875
3,148,0,59601,-5,-8,-10,60172,3888,-6560,1568,59958,317,-409,-129,1389634533.542884
2,149,0,64475,3,-9,-28,64814,3856,-6944,-1216,63540,147,-202,-85,1389634533.543150
3,149,0,61600,-1,-8,-9,62050,3920,-6560,1520,59958,317,-409,-129,1389634533.543157
2,150,0,929,3,-10,-29,1157,3904,-6960,-1248,566,146,-202,-84,1389634533.560587
3,150,0,63600,-5,-7,-3,63927,3888,-6624,1552,62538,316,-406,-131,1389634533.560603
2,151,0,2919,4,-17,-22,3035,3776,-6912,-1232,3128,146,-203,-86,1389634533.572897
3,151,0,63,-15,-5,-12,269,3840,-6576,1536,65117,316,-407,-132,1389634533.572906
2,152,0,4908,7,-14,-15,4912,3792,-6880,-1312,3128,146,-203,-86,1389634533.573177
3,152,0,2063,-7,-5,1,2146,3856,-6624,1536,2160,318,-404,-130,1389634533.573183
2,153,0,6898,6,-15,-16,6791,3824,-6928,-1296,5691,146,-202,-87,1389634533.591360
3,153,0,4062,5,-9,-10,4024,3872,-6608,1632,2160,318,-404,-130,1389634533.591368
2,154,0,8887,6,-17,-22,8670,3808,-6944,-1312,8252,145,-200,-82,1389634533.597541
3,154,0,6061,-2,-2,-20,5902,3888,-6560,1600,4740,318,-406,-129,1389634533.597801
2,155,0,10877,7,-10,-32,10548,3776,-6864,-1296,10814,145,-198,-84,1389634533.610104
3,155,0,7061,1,-1,-18,7779,3888,-6528,1600,7318,318,-405,-133,1389634533.610119
2,156,0,11871,5,-13,-30,12427,3792,-6880,-1248,10814,145,-198,-84,1389634533.622449
3,156,0,9060,0,6,-6,9656,3776,-6624,1648,9897,318,-406,-130,1389634533.622465
2,157,0,13861,1,-16,-30,14304,3792,-6912,-1232,13376,146,-201,-84,1389634533.622796
3,157,0,11060,11,-7,-10,11533,3856,-6608,1488,9897,318,-406,-130,1389634533.622807
2,158,0,15850,3,-18,-24,16183,3760,-6944,-1312,15938,146,-200,-82,1389634533.641166
3,158,0,13059,5,-7,-12,13410,3904,-6608,1520,12476,318,-408,-129,1389634533.641182
2,159,0,17840,1,-15,-15,18060,3824,-6928,-1184,15938,146,-200,-82,1389634533.647439
3,159,0,15058,2,-6,-14,15287,3888,-6608,1520,15055,318,-406,-130,1389634533.647694
2,160,0,19830,7,-13,-16,19939,3808,-6928,-1232,18500,145,-200,-82,1389634533.659896
3,160,0,17058,1,-3,-9,17166,3904,-6576,1568,15055,318,-406,-130,1389634533.659912
2,161,0,21819,11,-14,-26,21818,3792,-6912,-1216,21062,146,-202,-84,1389634533.671822
3,161,0,19057,2,-6,-7,19043,3872,-6576,1616,17635,318,-407,-131,1389634533.671903
2,162,0,23809,12,-12,-16,23696,3824,-6976,-1264,23624,144,-199,-83,1389634533.672213
3,162,0,21057,-5,-5,-17,20920,3888,-6512,1616,20213,319,-408,-131,1389634533.672452
2,163,0,25798,6,-12,-17,25575,3792,-7008,-1312,23624,144,-199,-83,1389634533.690771
3,163,0,22056,3,-7,-6,22798,3904,-6624,1536,22793,318,-408,-129,1389634533.690786
2,164,0,27788,1,-11,-21,27453,3792,-6976,-1280,26185,143,-200,-80,1389634533.703189
3,164,0,24056,8,-11,-1,24676,3904,-6560,1616,22793,318,-408,-129,1389634533.703204
2,165,0,28782,-1,-15,-29,29331,3792,-6976,-1296,28747,147,-200,-84,1389634533.703529
3,165,0,26055,7,4,-15,26554,3936,-6560,1584,25371,315,-407,-132,1389634533.703536
2,166,0,30772,0,-11,-26,31210,3808,-6928,-1200,31309,145,-200,-82,1389634533.721831
3,166,0,28054,14,-3,-9,28431,3872,-6544,1536,27950,316,-406,-131,1389634533.721841
2,167,0,32761,-11,-19,-28,33089,3824,-6960,-1200,31309,145,-200,-82,1389634533.722051
3,167,0,30054,7,0,-16,30308,3888,-6576,1536,30528,319,-408,-131,1389634533.722246
2,168,0,34751,-3,-17,-35,34968,3808,-6976,-1200,33872,144,-197,-82,1389634533.739565
3,168,0,32053,2,2,-17,32185,3872,-6464,1552,30528,319,-408,-131,1389634533.739575
2,169,0,36741,-2,-8,-29,36847,3840,-6960,-1248,36433,146,-202,-80,1389634533.750943
3,169,0,34052,4,-9,-29,34062,3888,-6608,1456,33106,319,-406,-130,1389634533.750953
2,170,0,38730,0,-11,-22,38725,3808,-6912,-1248,38995,144,-201,-83,1389634533.763022
3,170,0,36052,11,-15,-30,35940,3840,-6640,1536,35685,315,-406,-131,1389634533.763032
2,171,0,40720,3,-7,-20,40604,3808,-6960,-1264,38995,144,-201,-83,1389634533.763300
3,171,0,38051,5,-2,-10,37816,3872,-6576,1488,35685,315,-406,-131,1389634533.763307
2,172,0,42709,5,-16,-29,42483,3792,-6880,-1296,41556,143,-201,-80,1389634533.781386
3,172,0,39051,-5,-10,-22,39694,3936,-6544,1536,38264,315,-409,-131,1389634533.781396
2,173,0,44699,8,-11,-27,44361,3888,-6912,-1264,44117,143,-202,-83,1389634533.787632
3,173,0,41050,-4,-9,-12,41571,3904,-6576,1504,40843,317,-406,-130,1389634533.787956
2,174,0,45693,9,-15,-28,46239,3808,-6864,-1248,44117,143,-202,-83,1389634533.799623
3,174,0,43050,-13,-14,-14,43448,3904,-6512,1536,43422,318,-406,-132,1389634533.799630
2,175,0,47683,2,-9,-21,48117,3792,-6896,-1248,46678,145,-200,-84,1389634533.811420
3,175,0,45049,-5,-1,-13,45326,3936,-6528,1584,43422,318,-406,-132,1389634533.811437
2,176,0,49672,1,-10,-24,49996,3824,-6944,-1248,49239,145,-199,-84,1389634533.817698
3,176,0,47048,-7,-9,-9,47204,3840,-6576,1552,46001,318,-411,-134,1389634533.818015
2,177,0,51662,4,-16,-21,51874,3808,-6960,-1232,51799,146,-200,-83,1389634533.830405
3,177,0,49048,-2,-16,-14,49081,3936,-6560,1552,48580,318,-406,-130,1389634533.830421
2,178,0,53652,3,-17,-22,53753,3856,-6848,-1280,51799,146,-200,-83,1389634533.842748
3,178,0,51047,-1,-8,-18,50959,3888,-6496,1552,51159,315,-406,-135,1389634533.842763
2,179,0,55641,2,-12,-27,55631,3808,-6896,-1216,54359,144,-199,-86,1389634533.843130
3,179,0,53046,4,-9,-19,52837,3888,-6592,1536,51159,315,-406,-135,1389634533.843141
2,180,0,57631,5,-11,-17,57511,3872,-6960,-1232,56920,144,-202,-85,1389634533.860285
3,180,0,54046,10,-12,-15,54715,3856,-6576,1520,53738,320,-410,-129,1389634533.860294
2,181,0,59620,9,-11,-17,59389,3824,-6976,-1216,59480,146,-199,-84,1389634533.872154
3,181,0,56046,-4,-7,-13,56591,3856,-6560,1520,56317,317,-403,-132,1389634533.872162
2,182,0,60615,3,-14,-21,61268,3856,-6928,-1248,59480,146,-199,-84,1389634533.872373
3,182,0,58045,-1,-13,-27,58469,3840,-6608,1536,56317,317,-403,-132,1389634533.872377
2,183,0,62604,7,-13,-17,63147,3840,-6880,-1232,62042,145,-200,-84,1389634533.889607
3,183,0,60044,2,-6,-15,60346,3872,-6624,1552,58897,316,-406,-129,1389634533.889615
2,184,0,64594,6,-14,-22,65024,3792,-6928,-1264,64604,146,-200,-82,1389634533.901771
3,184,0,62044,0,-12,-25,62224,3904,-6592,1536,61476,317,-409,-135,1389634533.901781
2,185,0,1047,8,-16,-15,1367,3792,-6848,-1264,1629,146,-200,-84,1389634533.902076
3,185,0,64043,-7,-17,-14,64102,3904,-6608,1536,64055,319,-407,-132,1389634533.902249
2,186,0,3037,9,-15,-9,3245,3840,-6944,-1216,1629,146,-200,-84,1389634533.920377
3,186,0,506,-14,-10,-19,444,3936,-6544,1584,64055,319,-407,-132,1389634533.920387
2,187,0,5027,12,-13,-20,5124,3808,-6928,-1264,4189,145,-201,-84,1389634533.932682
3,187,0,2506,-7,-9,-17,2321,3920,-6608,1584,1099,318,-411,-132,1389634533.932696
2,188,0,7016,6,-6,-25,7002,3808,-6928,-1248,6751,145,-198,-84,1389634533.933020
3,188,0,3505,-7,-10,-17,4199,3872,-6608,1520,3678,317,-407,-133,1389634533.933031
2,189,0,9006,2,-10,-21,8881,3808,-6912,-1216,6751,145,-198,-84,1389634533.951126
3,189,0,5505,-4,-2,-10,6075,3920,-6512,1552,6258,318,-406,-130,1389634533.951135
2,190,0,10995,9,-18,-24,10759,3792,-6944,-1216,9313,146,-201,-83,1389634533.957324
3,190,0,7504,-15,-8,-24,7953,3792,-6512,1600,6258,318,-406,-130,1389634533.957584
2,191,0,11990,12,-12,-16,12637,3856,-6944,-1168,11873,148,-199,-84,1389634533.969066
3,191,0,9504,-7,-6,-24,9830,3888,-6608,1568,8837,317,-408,-130,1389634533.969075
2,192,0,13979,9,-9,-31,14516,3872,-6976,-1216,14436,144,-200,-84,1389634533.981292
3,192,0,11503,-6,-9,-13,11707,3888,-6640,1568,11416,319,-408,-130,1389634533.981308
2,193,0,15969,13,-3,-26,16394,3872,-6960,-1200,14436,144,-200,-84,1389634533.987561
3,193,0,13502,-6,-4,-18,13584,3824,-6544,1600,11416,319,-408,-130,1389634533.987817
2,194,0,17958,9,-12,-23,18273,3824,-6912,-1248,16998,147,-200,-84,1389634534.190
3,194,0,15502,-9,-3,-17,15462,3856,-6560,1584,13996,317,-408,-133,1389634534.206
2,195,0,19948,9,-8,-33,20152,3808,-6992,-1264,19559,146,-201,-83,1389634534.11940
3,195,0,17501,-10,-2,-16,17338,3920,-6624,1536,16574,316,-408,-127,1389634534.11955
2,196,0,21938,11,-5,-35,22031,3904,-6992,-1264,22120,145,-199,-87,1389634534.12322
3,196,0,18501,-11,-7,-15,19215,3824,-6640,1616,19153,315,-408,-134,1389634534.12333
2,197,0,23927,8,-5,-43,23910,3856,-6816,-1280,22120,145,-199,-87,1389634534.30159
3,197,0,20500,-14,-5,-17,21092,3888,-6576,1552,19153,315,-408,-134,1389634534.30174
2,198,0,25917,6,-8,-33,25789,3760,-6912,-1296,24681,143,-200,-83,1389634534.42381
3,198,0,22499,-15,-5,-14,22968,3872,-6560,1600,21731,316,-412,-134,1389634534.42396
2,199,0,27906,-3,-13,-37,27667,3760,-6960,-1312,27241,147,-197,-84,1389634534.42726
3,199,0,24499,-11,-6,-18,24845,3856,-6560,1568,24309,316,-406,-130,1389634534.42737
2,200,0,28901,-2,-14,-36,29546,3776,-6912,-1280,29802,147,-202,-83,1389634534.61199
3,200,0,26498,-12,-7,-18,26722,3888,-6560,1584,24309,316,-406,-130,1389634534.61215
2,201,0,30890,-6,-8,-34,31425,3808,-6928,-1168,29802,147,-202,-83,1389634534.67503
3,201,0,28498,2,-10,-26,28599,3872,-6512,1536,26888,316,-409,-131,1389634534.67824
2,202,0,32880,-7,0,-22,33304,3840,-6912,-1184,32364,145,-202,-85,1389634534.80108
3,202,0,30497,-5,-11,-23,30476,3856,-6560,1584,29467,317,-407,-128,1389634534.80123
2,203,0,34869,-7,9,-16,35182,3840,-6896,-1248,34925,145,-199,-84,1389634534.92501
3,203,0,32496,0,-9,-35,32353,3936,-6528,1568,32046,316,-407,-130,1389634534.92516
2,204,0,36859,-14,12,-13,37061,3856,-6960,-1280,34925,145,-199,-84,1389634534.92793
3,204,0,33496,0,-10,-26,34231,3904,-6608,1568,32046,316,-407,-130,1389634534.92800
2,205,0,38849,-27,13,-7,38940,3760,-6880,-1344,37486,147,-198,-85,1389634534.111143
3,205,0,35495,1,-2,-12,36108,3920,-6592,1568,34626,315,-408,-131,1389634534.111153
2,206,0,40838,-33,4,-19,40818,3808,-6896,-1264,40047,145,-201,-87,1389634534.117448
3,206,0,37495,1,-7,-22,37986,3904,-6560,1568,37206,320,-405,-134,1389634534.117763
2,207,0,42828,-24,-2,-27,42697,3808,-6928,-1264,42608,145,-201,-86,1389634534.130231
3,207,0,39494,4,0,-31,39864,3840,-6592,1552,39786,316,-407,-130,1389634534.130260
2,208,0,43822,-23,-1,-29,44576,3888,-6976,-1248,42608,145,-201,-86,1389634534.142473
3,208,0,41493,0,-9,-22,41741,3856,-6608,1552,39786,316,-407,-130,1389634534.142489
2,209,0,45812,-17,-3,-24,46454,3824,-6976,-1264,45170,144,-207,-85,1389634534.142812
3,209,0,43493,7,-9,-19,43618,3808,-6592,1568,42365,315,-410,-131,1389634534.142823
2,210,0,47801,-10,-12,-39,48333,3808,-6960,-1200,47731,145,-200,-86,1389634534.160471
3,210,0,45492,-6,-10,-20,45495,3824,-6624,1504,44943,314,-408,-133,1389634534.160481
2,211,0,49791,3,-12,-35,50212,3792,-7008,-1184,50292,144,-201,-85,1389634534.172785
3,211,0,47492,-7,-4,-14,47372,3872,-6608,1536,44943,314,-408,-133,1389634534.172795
2,212,0,51780,9,-13,-25,52091,3824,-6960,-1200,50292,144,-201,-85,1389634534.173104
3,212,0,48491,-18,-11,-19,49248,3888,-6560,1536,47522,317,-405,-131,1389634534.173111
2,213,0,53770,14,-14,-27,53970,3824,-6960,-1216,52853,146,-203,-85,1389634534.191247
3,213,0,50491,-12,-12,-4,51124,3920,-6608,1520,50101,319,-405,-128,1389634534.191262
2,214,0,55760,21,-11,-25,55848,3808,-6960,-1232,55414,144,-201,-86,1389634534.197488
3,214,0,52490,-8,-9,-12,53001,3904,-6560,1632,52681,317,-407,-129,1389634534.197805
2,215,0,57749,28,-6,-31,57726,3760,-7024,-1280,55414,144,-201,-86,1389634534.210119
3,215,0,54489,-3,-16,-14,54877,3872,-6576,1568,52681,317,-407,-129,1389634534.210128
2,216,0,59739,23,-11,-19,59605,3824,-6912,-1312,57976,144,-199,-83,1389634534.222385
3,216,0,56489,1,-12,-17,56754,3888,-6544,1680,55259,319,-408,-129,1389634534.222401
2,217,0,60733,14,-7,-25,61484,3824,-6944,-1360,60537,146,-200,-86,1389634534.222724
3,217,0,58488,4,-2,-15,58632,3888,-6592,1584,57837,317,-410,-131,1389634534.222736
2,218,0,62723,23,-16,-14,63362,3856,-6896,-1248,63099,145,-198,-87,1389634534.240718
3,218,0,60487,0,-14,-16,60508,3888,-6560,1568,60417,317,-410,-131,1389634534.240733
2,219,0,64712,14,-12,-17,65240,3856,-6896,-1248,63099,145,-198,-87,1389634534.251829
3,219,0,62487,-3,-15,-13,62385,3856,-6608,1536,60417,317,-410,-131,1389634534.251839
2,220,0,1166,18,-9,-17,1583,3840,-6928,-1280,125,147,-200,-83,1389634534.252039
3,220,0,63486,2,-3,-13,64262,3904,-6608,1536,62995,317,-411,-129,1389634534.252262
2,221,0,3155,20,-19,-27,3462,3856,-6976,-1200,2686,145,-201,-84,1389634534.269872
3,221,0,65486,8,-16,-8,604,3904,-6592,1552,37,318,-408,-131,1389634534.269882
2,222,0,5145,20,-10,-31,5341,3904,-6832,-1200,5246,147,-201,-85,1389634534.281949
3,222,0,1949,2,-5,-16,2481,3872,-6608,1552,37,318,-408,-131,1389634534.281958
2,223,0,7135,26,-6,-28,7220,3872,-6880,-1216,5246,147,-201,-85,1389634534.282227
3,223,0,3949,7,-15,-11,4357,3888,-6576,1600,2616,318,-409,-132,1389634534.282233
2,224,0,9124,22,-5,-23,9099,3824,-6928,-1280,7807,146,-201,-84,1389634534.300368
3,224,0,5948,-5,-10,-14,6234,3824,-6496,1616,5195,316,-408,-131,1389634534.300384
2,225,0,11114,24,-3,-33,10977,3824,-6960,-1296,10367,142,-199,-82,1389634534.312701
3,225,0,7947,0,1,-8,8112,3888,-6560,1600,7773,314,-407,-134,1389634534.312711
2,226,0,12108,23,4,-29,12856,3776,-6896,-1248,12928,144,-199,-87,1389634534.312956
3,226,0,9947,-1,1,-6,9989,3920,-6656,1568,7773,314,-407,-134,1389634534.312963
2,227,0,14098,30,-3,-25,14735,3840,-6848,-1344,12928,144,-199,-87,1389634534.331250
3,227,0,11946,5,-5,-10,11866,3920,-6624,1568,10351,319,-410,-133,1389634534.331266
2,228,0,16087,33,-2,-25,16615,3888,-6832,-1344,15488,143,-201,-82,1389634534.337545
3,228,0,12946,2,-5,-13,13743,3952,-6576,1600,12929,319,-408,-132,1389634534.337868
2,229,0,18077,33,-2,-33,18494,3840,-6896,-1264,18049,142,-201,-88,1389634534.350164
3,229,0,14945,6,0,-9,15621,3952,-6560,1584,15508,315,-408,-131,1389634534.350179
2,230,0,20067,46,1,-39,20373,3808,-6880,-1264,18049,142,-201,-88,1389634534.362409
3,230,0,16944,-4,-2,-15,17498,3920,-6672,1584,15508,315,-408,-131,1389634534.362418
2,231,0,22056,43,4,-34,22251,3808,-6944,-1296,20609,142,-199,-89,1389634534.362696
3,231,0,18944,-3,-10,-22,19376,3952,-6592,1568,18088,317,-408,-130,1389634534.362702
2,232,0,24046,47,-11,-30,24129,3792,-6928,-1328,23170,145,-202,-87,1389634534.380754
3,232,0,20943,1,-14,-7,21253,3920,-6640,1552,20667,319,-407,-129,1389634534.380770
2,233,0,26035,45,-4,-39,26007,3808,-6880,-1312,25732,147,-199,-86,1389634534.393163
3,233,0,22943,3,0,-15,23131,3904,-6576,1520,20667,319,-407,-129,1389634534.393179
2,234,0,27030,40,-4,-32,27887,3808,-6912,-1312,25732,147,-199,-86,1389634534.393489
3,234,0,24942,3,-5,-14,25008,3824,-6560,1584,23247,320,-410,-130,1389634534.393498
2,235,0,29019,38,4,-38,29765,3840,-6912,-1296,28294,145,-198,-89,1389634534.411098
3,235,0,26941,6,5,-10,26885,3792,-6560,1552,25826,316,-411,-130,1389634534.411149
2,236,0,31009,43,0,-30,31645,3712,-6928,-1376,30857,144,-199,-84,1389634534.417303
3,236,0,27941,9,10,-16,28762,3680,-6512,1696,28407,317,-407,-132,1389634534.417516
2,237,0,32998,35,1,-35,33523,3776,-6912,-1520,33418,144,-201,-85,1389634534.429761
3,237,0,29940,8,20,-6,30639,3728,-6640,1680,28407,317,-407,-132,1389634534.429776
2,238,0,34988,23,-16,-34,35402,3760,-6976,-1312,33418,144,-201,-85,1389634534.442111
3,238,0,31940,6,20,3,32517,3712,-6720,1616,30986,318,-410,-133,1389634534.442126
2,239,0,36978,25,-19,-31,37280,3776,-6816,-1056,35981,142,-199,-88,1389634534.442458
3,239,0,33939,6,32,17,34395,3952,-6752,1536,33565,320,-405,-133,1389634534.442469
2,240,0,38967,33,-17,-35,39159,3856,-6848,-1008,38542,144,-197,-87,1389634534.460876
3,240,0,35938,-4,15,30,36273,3808,-6768,1616,36144,317,-407,-135,1389634534.460891
2,241,0,40957,41,2,-29,41037,3776,-6848,-1136,41103,142,-199,-86,1389634534.472174
3,241,0,37938,-11,17,40,38150,3840,-6720,1584,36144,317,-407,-135,1389634534.472184
2,242,0,42946,38,21,-27,42916,3872,-6864,-1328,41103,142,-199,-86,1389634534.472448
3,242,0,39937,-21,20,53,40027,3600,-6832,1648,38723,316,-407,-130,1389634534.472455
2,243,0,43941,34,18,-14,44794,3888,-6832,-1424,43665,146,-200,-86,1389634534.490555
3,243,0,41937,-51,45,79,41904,3856,-6832,1520,41302,316,-407,-132,1389634534.490569
2,244,0,45930,27,21,-25,46673,3856,-6832,-1440,46226,145,-198,-86,1389634534.502793
3,244,0,42936,-71,50,95,43781,3856,-6736,1728,41302,316,-407,-132,1389634534.502802
2,245,0,47920,20,26,-35,48552,3856,-6848,-1456,46226,145,-198,-86,1389634534.503132
3,245,0,44936,-110,66,112,45659,3552,-6736,1600,43881,319,-405,-130,1389634534.503139
2,246,0,49909,15,21,-44,50432,3776,-6896,-1456,48788,145,-201,-85,1389634534.521231
3,246,0,46935,-155,110,135,47535,3584,-6768,1728,46460,322,-404,-136,1389634534.521241
2,247,0,51899,12,3,-56,52311,3744,-6912,-1360,51349,144,-199,-87,1389634534.527523
3,247,0,48934,-158,146,211,49412,3840,-7040,1696,49040,321,-403,-135,1389634534.527825
2,248,0,53889,10,-2,-55,54189,3856,-6912,-1296,53911,142,-196,-87,1389634534.540018
3,248,0,50934,-166,171,225,51289,3728,-6880,1584,49040,321,-403,-135,1389634534.540033
2,249,0,55878,11,-9,-51,56068,3792,-6976,-1248,53911,142,-196,-87,1389634534.552417
3,249,0,52933,-183,222,340,53166,3776,-7136,1664,51618,322,-400,-136,1389634534.552432
2,250,0,57868,4,12,-43,57947,3888,-6944,-1360,56473,143,-198,-88,1389634534.552758
3,250,0,54932,-192,285,406,55044,3680,-7232,1632,54196,324,-399,-136,1389634534.552769
2,251,0,59857,11,14,-43,59826,3744,-6928,-1360,59034,143,-199,-86,1389634534.570826
3,251,0,56932,-192,393,592,56921,3552,-7312,1616,56775,326,-395,-143,1389634534.570835
2,252,0,60852,-1,21,-37,61706,3712,-6880,-1408,61596,140,-199,-88,1389634534.583121
3,252,0,57932,-207,437,715,58799,3024,-7712,2784,56775,326,-395,-143,1389634534.583131
2,253,0,62841,-10,20,-29,63585,3712,-6976,-1440,61596,140,-199,-88,1389634534.583397
3,253,0,59931,-69,421,862,60676,3168,-8640,1984,59354,332,-392,-141,1389634534.583404
2,254,0,64831,-18,17,-35,65465,3744,-6976,-1360,64159,141,-200,-88,1389634534.601466
3,254,0,61930,-160,448,1011,62553,3536,-8000,2592,61933,331,-386,-153,1389634534.601476
2,255,0,1284,-24,3,-48,1808,3680,-7024,-1424,1185,141,-199,-87,1389634534.601663
3,255,0,63930,-195,522,1090,64430,3728,-7888,2976,61933,331,-386,-153,1389634534.607818
2,0,0,3274,-17,0,-56,3687,3680,-7072,-1344,1185,141,-199,-87,1389634534.619279
3,0,0,393,-164,556,1178,771,4304,-7888,3280,64512,338,-378,-159,1389634534.619287
2,1,0,5264,-18,-13,-37,5565,3712,-6944,-1392,3746,138,-199,-91,1389634534.631414
3,1,0,2392,-67,573,1216,2649,4304,-8176,3840,1555,345,-371,-165,1389634534.631429
2,2,0,7253,-21,-7,-45,7444,3728,-7056,-1344,6307,142,-198,-85,1389634534.631647
3,2,0,4392,79,572,1228,4527,4752,-9264,3648,4133,348,-361,-176,1389634534.637850
2,3,0,9243,-16,-16,-38,9323,3776,-7024,-1344,8868,141,-196,-86,1389634534.649859
3,3,0,6391,136,515,1118,6404,3952,-9264,4784,4133,348,-361,-176,1389634534.649875
2,4,0,11232,-14,-14,-28,11201,3616,-7088,-1296,8868,141,-196,-86,1389634534.662223
3,4,0,7391,239,495,1014,8281,2128,-8736,5360,6713,358,-355,-186,1389634534.662238
2,5,0,12227,-16,-17,-23,13080,3744,-7040,-1344,11430,141,-198,-89,1389634534.662567
3,5,0,9390,559,431,870,10158,1168,-8528,4848,9292,362,-350,-199,1389634534.662579
2,6,0,14216,-25,-27,-8,14958,3824,-6928,-1360,13993,139,-196,-85,1389634534.680285
3,6,0,11390,855,316,794,12035,576,-8464,3680,11870,367,-340,-211,1389634534.680300
2,7,0,16206,-15,-23,1,16837,3792,-6960,-1328,16554,142,-197,-87,1389634534.692630
3,7,0,13389,915,227,716,13913,-16,-8240,3056,11870,367,-340,-211,1389634534.692645
2,8,0,18195,-9,-28,7,18715,3744,-6912,-1328,16554,142,-197,-87,1389634534.692973
3,8,0,15388,797,147,625,15790,-336,-8160,2640,14449,373,-333,-218,1389634534.692984
2,9,0,20185,-24,-29,9,20594,3744,-6880,-1456,19116,139,-199,-85,1389634534.711219
3,9,0,17388,642,54,503,17666,-64,-8384,1968,17028,383,-322,-230,1389634534.711234
2,10,0,22175,-10,-28,5,22472,3760,-6960,-1312,21677,142,-199,-88,1389634534.716893
3,10,0,19387,342,-19,372,19543,-320,-8192,2352,17028,383,-322,-230,1389634534.717169
2,11,0,24164,-10,-28,7,24351,3712,-7008,-1312,24239,141,-196,-84,1389634534.729309
3,11,0,21386,87,-92,164,21420,-1008,-7904,2992,19607,392,-319,-239,1389634534.729325
2,12,0,26154,-14,-33,17,26231,3792,-6912,-1440,24239,141,-196,-84,1389634534.741649
3,12,0,22386,9,-156,55,23297,-1808,-7280,3392,22186,404,-314,-245,1389634534.741665
2,13,0,27148,8,-27,29,27640,3760,-7040,-1264,26799,142,-199,-87,1389634534.741973
3,13,0,24385,-19,-225,-148,25174,-2192,-7008,3296,24765,419,-312,-245,1389634534.742192
2,14,0,29138,8,-22,32,29519,3872,-6960,-1168,29361,140,-197,-89,1389634534.759587
3,14,0,26385,9,-301,-252,27051,-1888,-7056,2896,24765,419,-312,-245,1389634534.759596
2,15,0,31127,27,-15,48,31398,3856,-7008,-1248,29361,140,-197,-89,1389634534.771787
3,15,0,28384,-4,-352,-339,28928,-1120,-7504,2576,27343,431,-310,-243,1389634534.771797
2,16,0,33117,27,-9,41,33277,3872,-6944,-1264,31922,141,-199,-85,1389634534.772067
3,16,0,30384,-86,-418,-437,30336,-224,-7776,2592,29923,450,-305,-235,1389634534.772320
2,17,0,35106,25,-12,35,35156,3904,-6928,-1392,34484,143,-198,-85,1389634534.790163
3,17,0,32383,-171,-532,-602,32214,784,-8112,2976,32502,468,-305,-224,1389634534.790172
2,18,0,37096,21,-7,35,37035,3808,-6928,-1248,37045,144,-196,-86,1389634534.802468
3,18,0,34382,-181,-649,-826,34091,1456,-8080,3392,32502,468,-305,-224,1389634534.802483
2,19,0,39086,21,-12,39,38913,3872,-6896,-1408,37045,144,-196,-86,1389634534.802810
3,19,0,36382,-99,-770,-1072,35968,1520,-7968,3424,35081,507,-312,-205,1389634534.802821
2,20,0,41075,15,-13,33,40792,3856,-6832,-1360,39607,144,-196,-83,1389634534.821118
3,20,0,37381,-67,-822,-1187,37844,1392,-8048,3168,37661,507,-322,-188,1389634534.821128
2,21,0,43065,16,-20,44,42671,3776,-6960,-1360,42169,143,-193,-84,1389634534.827315
3,21,0,39381,-29,-902,-1369,39721,1216,-7904,2832,37661,507,-322,-188,1389634534.827569
2,22,0,44059,11,-22,47,44549,3680,-6960,-1328,44730,144,-193,-87,1389634534.839750
3,22,0,41380,-33,-960,-1484,41597,1360,-7808,2656,40240,532,-338,-166,1389634534.839760
2,23,0,46049,14,-30,60,46428,3760,-7008,-1280,44730,144,-193,-87,1389634534.852131
3,23,0,43379,-75,-991,-1529,43473,1712,-7712,2624,42819,532,-356,-136,1389634534.852141
2,24,0,48038,18,-35,79,48307,3776,-6960,-1408,47293,142,-194,-84,1389634534.852388
3,24,0,45379,-95,-1015,-1557,45349,2096,-7600,2752,45397,543,-374,-103,1389634534.852395
2,25,0,50028,25,-42,88,50186,3888,-6928,-1328,49854,144,-193,-82,1389634534.870374
3,25,0,47378,-101,-1028,-1548,47227,2352,-7472,2800,45397,543,-374,-103,1389634534.870382
2,26,0,52017,31,-38,97,52064,3952,-6848,-1296,52415,144,-194,-84,1389634534.882400
3,26,0,49378,-82,-1038,-1566,49104,2272,-7280,2816,47976,543,-400,-69,1389634534.882416
2,27,0,54007,29,-30,93,53943,3872,-6880,-1360,52415,144,-194,-84,1389634534.882738
3,27,0,51377,-57,-1009,-1500,50981,2112,-7392,2960,50555,535,-431,-35,1389634534.882748
2,28,0,55997,31,-42,97,55821,3888,-6880,-1312,54976,141,-192,-82,1389634534.901095
3,28,0,52377,-70,-972,-1417,52858,2432,-7904,2992,53134,535,-459,-2,1389634534.901105
2,29,0,57986,42,-40,100,57699,3856,-6864,-1376,57537,146,-189,-83,1389634534.913317
3,29,0,54376,-165,-926,-1239,54735,3872,-8400,2784,53134,535,-459,-2,1389634534.913333
2,30,0,59976,31,-36,109,59577,3920,-6928,-1376,57537,146,-189,-83,1389634534.913659
3,30,0,56375,-291,-955,-1122,56612,4816,-8320,2720,55712,507,-488,35,1389634534.913670
2,31,0,60970,35,-40,112,61456,3872,-6896,-1344,60098,145,-192,-80,1389634534.931504
3,31,0,58375,-441,-1010,-1119,58490,5648,-8256,2720,58292,507,-264,70,1389634534.931513
2,32,0,62960,43,-37,122,63334,3936,-6912,-1392,62659,145,-191,-84,1389634534.931756
3,32,0,60374,-591,-1100,-1139,60367,6160,-8112,2864,58292,507,-264,70,1389634534.938125
2,33,0,64949,34,-38,130,65212,3968,-6896,-1344,65221,148,-190,-83,1389634534.950458
3,33,0,62373,-729,-1219,-1212,62244,5872,-7824,3264,60870,446,-551,106,1389634534.950473
2,34,0,1403,43,-44,134,1555,3968,-6928,-1312,65221,148,-190,-83,1389634534.962851
3,34,0,64373,-787,-1310,-1253,64121,5664,-7344,3568,63450,446,-572,135,1389634534.962866
2,35,0,3392,48,-29,144,3433,4000,-6928,-1312,2245,148,-190,-81,1389634534.963156
3,35,0,836,-755,-1390,-1245,463,5520,-6784,3744,493,352,-586,167,1389634534.963163
2,36,0,5382,51,-40,158,5312,4000,-6848,-1392,4807,147,-190,-81,1389634534.981148
3,36,0,1836,-719,-1418,-1224,2340,5472,-6576,3696,493,352,-586,167,1389634534.981157
2,37,0,7372,50,-33,164,7192,3968,-6864,-1408,7368,147,-188,-82,1389634534.987306
3,37,0,3835,-643,-1439,-1173,4218,5664,-6528,3488,3072,352,-589,188,1389634534.987537
2,38,0,9361,46,-42,173,9070,4080,-6848,-1328,7368,147,-188,-82,1389634534.999531
3,38,0,5835,-605,-1457,-1104,6095,5936,-6256,3232,5651,257,-587,201,1389634534.999541
2,39,0,10356,42,-44,180,10948,4032,-6816,-1344,9930,149,-188,-82,1389634535.11673
3,39,0,7834,-586,-1466,-1058,7972,6128,-6112,2960,8230,257,-579,213,1389634535.11689
2,40,0,12345,48,-44,182,12827,3760,-6992,-1600,12492,150,-186,-83,1389634535.11996
3,40,0,9833,-556,-1464,-1041,9849,6176,-5888,2768,8230,257,-579,213,1389634535.12310
2,41,0,14335,44,-50,197,14705,3952,-7136,-1328,15053,148,-187,-81,1389634535.30373
3,41,0,11833,-546,-1451,-1020,11726,6256,-5712,2480,10810,175,-568,218,1389634535.30381
2,42,0,16324,47,-55,211,16582,4512,-6496,-1328,15053,148,-187,-81,1389634535.42197
3,42,0,13832,-547,-1428,-1000,13603,6176,-5488,2336,13388,175,-554,219,1389634535.42212
2,43,0,18314,60,-52,224,18461,4080,-6768,-1424,17613,149,-184,-80,1389634535.42558
3,43,0,15831,-543,-1379,-963,15480,6432,-5200,2128,13388,175,-554,219,1389634535.42569
2,44,0,20303,47,-44,236,20339,4112,-6720,-1184,20174,151,-183,-78,1389634535.60807
3,44,0,16831,-537,-1353,-944,17358,6368,-4704,2032,15967,115,-537,220,1389634535.60823
2,45,0,22293,71,-52,255,22218,4800,-6496,-1344,20174,151,-183,-78,1389634535.73107
3,45,0,18830,-515,-1277,-925,19235,6176,-4320,2048,18545,115,-525,220,1389634535.73117
2,46,0,24283,91,-47,268,24097,3840,-6848,-1488,22735,153,-180,-75,1389634535.73393
3,46,0,20830,-491,-1171,-884,21113,6016,-4000,2096,21124,76,-512,215,1389634535.73400
2,47,0,26272,112,-44,272,25977,3968,-6960,-1168,25296,153,-180,-78,1389634535.91319
3,47,0,22829,-460,-1020,-803,22990,5984,-3792,1968,21124,76,-512,215,1389634535.91329
2,48,0,27267,146,-47,286,27856,4048,-6992,-1104,27857,158,-178,-80,1389634535.97515
3,48,0,24829,-467,-849,-721,24867,6064,-3648,1760,23701,76,-760,214,1389634535.97772
2,49,0,29256,256,-65,305,29735,4048,-7104,-1232,27857,158,-178,-80,1389634535.110167
3,49,0,26828,-504,-663,-626,26743,6272,-3488,1552,26280,51,-493,209,1389634535.110183
2,50,0,31246,300,-60,370,31614,3760,-7232,-1968,30418,158,-181,-78,1389634535.121678
3,50,0,28827,-612,-481,-556,28620,6416,-3344,1376,28860,51,-484,207,1389634535.121688
2,51,0,33235,149,-21,420,33493,4160,-7088,-1200,32980,158,-175,-78,1389634535.121911
3,51,0,30827,-704,-327,-491,30497,6640,-3168,1424,28860,51,-484,207,1389634535.122085
2,52,0,35225,202,-35,493,35372,4000,-7008,-1712,35541,160,-174,-79,1389634535.139517
3,52,0,31826,-746,-255,-452,32375,6384,-2960,1808,31439,34,-474,205,1389634535.139533
2,53,0,37215,177,-27,553,37250,4096,-7168,-1344,35541,160,-174,-79,1389634535.151757
3,53,0,33826,-748,-109,-367,34252,6272,-2704,2288,34017,34,-466,206,1389634535.151767
2,54,0,39204,205,-27,632,39129,4224,-7104,-1232,38101,158,-172,-77,1389634535.152059
3,54,0,35825,-667,18,-253,36129,6000,-2544,2720,34017,34,-466,206,1389634535.152307
2,55,0,41194,226,-5,718,41008,4240,-7200,-1168,40663,162,-163,-78,1389634535.170468
3,55,0,37825,-496,131,-107,38006,5872,-2576,3056,36595,31,-461,203,1389634535.170484
2,56,0,43183,274,12,797,42886,4288,-7152,-1120,40663,162,-163,-78,1389634535.182326
3,56,0,39824,-282,239,62,39883,5872,-2752,3152,39174,25,-455,196,1389634535.182334
2,57,0,44178,307,26,852,44765,4112,-6912,-992,43225,165,-164,-79,1389634535.182656
3,57,0,41823,-49,302,227,41761,848,-1648,13632,41753,22,-450,194,1389634535.182664
2,58,0,46167,349,38,947,46643,4256,-7104,-1216,45786,165,-158,-79,1389634535.200177
3,58,0,43823,1560,687,275,43638,7488,-3632,4704,41753,22,-450,194,1389634535.200193
2,59,0,48157,405,48,1071,48521,4240,-7040,-1328,48346,170,-154,-80,1389634535.211886
3,59,0,45822,1680,517,895,45516,-2352,-3088,4400,44331,25,-455,178,1389634535.211896
2,60,0,50146,448,49,1171,50399,4096,-7392,-1456,48346,170,-154,-80,1389634535.212101
3,60,0,46822,2073,585,645,47393,-1696,-8032,8272,46910,29,-462,159,1389634535.212108
2,61,0,52136,496,49,1304,52277,4176,-7408,-1424,50907,178,-143,-79,1389634535.229954
3,61,0,48821,2496,731,1157,49271,-1920,-10608,5536,49487,35,-465,138,1389634535.229961
2,62,0,54126,531,46,1429,54156,4048,-7744,-1952,53469,178,-138,-77,1389634535.242045
3,62,0,50820,2353,779,1538,51148,1120,-6816,608,49487,35,-465,138,1389634535.242055
2,63,0,56115,560,-2,1563,56034,4064,-7632,-2304,56030,180,-133,-80,1389634535.242272
3,63,0,52820,2024,701,2027,53026,2768,-5920,-672,52066,42,-465,115,1389634535.242280
2,64,0,58105,556,-69,1709,57913,4144,-7488,-2304,56030,180,-133,-80,1389634535.259644
3,64,0,54819,1629,600,2335,54904,4448,-7952,304,54644,58,-461,97,1389634535.259653
2,65,0,59099,564,-105,1800,59791,4240,-7120,-1808,58591,190,-123,-72,1389634535.271937
3,65,0,56819,1472,560,2378,56781,6736,-10192,-384,54644,58,-461,97,1389634535.271954
2,66,0,61089,583,-162,1939,61669,4400,-7088,-1808,61154,191,-109,-74,1389634535.272263
3,66,0,58818,1117,709,2207,58659,7936,-10640,-2144,57223,73,-456,84,1389634535.272537
2,67,0,63078,603,-204,2115,63547,4352,-7216,-1856,63715,200,-96,-73,1389634535.290540
3,67,0,60817,698,689,1849,60536,6896,-9504,-2544,59803,87,-451,72,1389634535.290549
2,68,0,65068,610,-213,2291,65425,4640,-7360,-1584,63715,200,-96,-73,1389634535.302842
3,68,0,61817,499,677,1641,62413,6720,-9072,-2112,62381,100,-445,64,1389634535.302857
2,69,0,1521,614,-218,2525,1767,5184,-7664,-976,740,205,-82,-67,1389634535.303128
3,69,0,63816,108,594,1372,64290,6496,-8864,-768,62381,100,-445,64,1389634535.303134
2,70,0,3511,682,-187,2783,3645,5184,-7792,-1456,3302,215,-65,-62,1389634535.321352
3,70,0,280,-137,459,1102,631,5936,-8432,800,64960,112,-439,58,1389634535.321368
2,71,0,5501,746,-166,3040,5523,5680,-8096,-2352,3302,215,-65,-62,1389634535.327640
3,71,0,2279,-194,344,886,2509,5120,-7824,1456,2003,113,-438,53,1389634535.327957
2,72,0,7490,755,-187,3262,7401,6240,-7872,-2960,5863,219,-47,-56,1389634535.340165
3,72,0,4278,-214,292,743,4386,4352,-6928,2256,4582,119,-436,53,1389634535.340174
2,73,0,9480,823,-237,3490,9279,6560,-7392,-3600,8424,230,-24,-53,1389634535.352435
3,73,0,6278,-172,281,637,6264,3632,-6480,3072,4582,119,-436,53,1389634535.352451
2,74,0,10474,865,-282,3621,11157,7008,-7440,-3040,10985,232,-255,-45,1389634535.352776
3,74,0,8277,-99,264,614,8141,2912,-5856,3904,7160,120,-431,55,1389634535.352787
2,75,0,12464,1016,-347,3785,13036,8160,-7632,-3536,10985,232,-255,-45,1389634535.371111
3,75,0,10277,10,234,641,10019,2880,-5616,3968,9739,124,-427,54,1389634535.371127
2,76,0,14453,1105,-459,3935,14914,9024,-6816,-5696,13547,247,28,-37,1389634535.377447
3,76,0,11276,71,237,677,11897,4880,-6624,5648,9739,124,-427,54,1389634535.377857
2,77,0,16443,982,-651,3959,16792,9264,-6896,-5600,16108,247,53,-31,1389634535.390098
3,77,0,13276,295,411,738,13776,5136,-6560,2784,12318,127,-425,45,1389634535.390108
2,78,0,18432,767,-785,4009,18670,8272,-6592,-4880,18668,254,86,-20,1389634535.402135
3,78,0,15275,417,318,511,15653,4128,-6352,1936,14897,132,-423,42,1389634535.402144
2,79,0,20422,703,-904,3979,20548,7296,-5552,-4880,18668,254,86,-20,1389634535.402417
3,79,0,17274,390,304,441,17531,4368,-7168,1024,17477,134,-425,37,1389634535.402424
2,80,0,22412,682,-975,3993,22427,9568,-5376,-4304,21228,259,113,-8,1389634535.420716
3,80,0,19274,370,245,519,19408,3792,-7408,448,17477,134,-425,37,1389634535.420731
2,81,0,24401,773,-1112,3930,24305,11952,-4512,-3696,23790,263,137,6,1389634535.433139
3,81,0,21273,335,245,464,21286,4048,-7648,-624,20055,139,-421,33,1389634535.433154
2,82,0,26391,961,-1045,3706,26183,12000,-5104,-3600,26350,264,162,18,1389634535.433431
3,82,0,23272,210,252,439,23163,4224,-7776,608,22635,142,-421,31,1389634535.433438
2,83,0,27385,1089,-1013,3556,28061,10976,-6576,-3008,26350,264,162,18,1389634535.451203
3,83,0,25272,135,206,409,25041,4080,-7152,1200,25213,144,-417,29,1389634535.451220
2,84,0,29375,1338,-987,3106,29939,9280,-7088,-2400,28912,270,180,30,1389634535.457525
3,84,0,26271,113,183,366,26919,4176,-6912,1680,25213,144,-417,29,1389634535.457860
2,85,0,31364,1601,-950,2619,31817,6992,-6560,-2448,31474,270,196,43,1389634535.470067
3,85,0,28271,71,165,336,28796,4096,-6752,1840,27791,146,-419,26,1389634535.470078
2,86,0,33354,1729,-854,2273,33696,6992,-5088,-3264,31474,270,196,43,1389634535.482199
3,86,0,30270,65,153,287,30674,3888,-6672,1840,30369,147,-420,25,1389634535.482214
2,87,0,35343,1673,-883,2087,35574,4176,-4304,-4288,34034,275,209,58,1389634535.482540
3,87,0,32270,67,151,241,32551,3696,-6624,2032,30369,147,-420,25,1389634535.482551
2,88,0,37333,1480,-901,1401,37452,1680,-5024,-5360,36596,279,215,76,1389634535.500736
3,88,0,34269,82,157,218,34428,3984,-6560,2048,32947,152,-420,22,1389634535.500746
2,89,0,39323,1117,-1061,403,39331,11872,-6592,-6352,39157,286,207,91,1389634535.513141
3,89,0,36268,116,163,196,36305,4240,-6608,1840,35526,150,-416,22,1389634535.513157
2,90,0,41312,366,-1197,26,41209,10656,-7904,-5536,39157,286,207,91,1389634535.513480
3,90,0,38268,137,149,133,38182,3872,-6480,2000,38104,149,-414,18,1389634535.513491
2,91,0,42307,-72,-1063,-538,43087,4816,-6368,-4096,41718,309,198,102,1389634535.531727
3,91,0,40267,151,131,118,40061,4032,-6560,1904,38104,149,-414,18,1389634535.531743
2,92,0,44296,-512,-782,-1493,44966,2640,-5520,-3488,44279,309,176,104,1389634535.532096
3,92,0,41267,160,129,103,41938,4128,-6576,1472,40683,155,-416,18,1389634535.532313
2,93,0,46286,-816,-596,-2070,46843,2368,-5056,-2816,46839,328,150,104,1389634535.550418
3,93,0,43266,145,130,76,43816,4032,-6768,1168,43262,151,-415,16,1389634535.550434
2,94,0,48275,-930,-561,-2436,48721,1632,-4752,-2272,46839,328,150,104,1389634535.562637
3,94,0,45265,132,119,60,45692,3984,-6800,816,45841,155,-416,14,1389634535.562653
2,95,0,50265,-987,-562,-2681,50600,832,-4320,-1440,49400,344,118,101,1389634535.562983
3,95,0,47265,109,100,56,47569,4176,-6848,1056,45841,155,-416,14,1389634535.562995
2,96,0,52255,-977,-574,-2868,52478,512,-3968,-576,51960,357,77,104,1389634535.581354
3,96,0,49264,82,66,43,49446,4304,-6768,1616,48419,151,-414,15,1389634535.581370
2,97,0,54244,-843,-573,-2975,54358,576,-3872,-160,54520,368,38,102,1389634535.587530
3,97,0,51264,84,9,40,51323,4080,-6528,1168,50998,158,-414,13,1389634535.587785
2,98,0,56234,-633,-547,-3010,56237,1056,-4144,-176,54520,368,38,102,1389634535.599892
3,98,0,53263,62,39,49,53200,3856,-6432,1712,50998,158,-414,13,1389634535.599907
2,99,0,58223,-420,-477,-3088,58115,1632,-4544,-384,57081,377,255,105,1389634535.612171
3,99,0,55262,77,45,38,55077,3968,-6256,2096,53578,157,-412,12,1389634535.612187
2,100,0,59218,-335,-431,-3162,59994,2048,-4544,-592,59641,377,-40,105,1389634535.612512
3,100,0,56262,97,50,50,56954,3632,-6352,1584,56156,156,-413,11,1389634535.612523
2,101,0,61207,-219,-288,-3327,61872,2256,-4592,-688,59641,377,-40,105,1389634535.630687
3,101,0,58261,133,113,21,58831,4112,-6432,1760,58734,157,-411,11,1389634535.630702
2,102,0,63197,-155,-123,-3484,63750,2016,-4704,-800,62202,377,-81,102,1389634535.642676
3,102,0,60261,156,126,-7,60708,4160,-6496,1776,58734,157,-411,11,1389634535.642685
2,103,0,65186,-122,66,-3589,93,2016,-5200,-864,64765,371,-119,97,1389634535.642957
3,103,0,62260,135,99,-2,62586,3968,-6528,1504,61313,154,-413,8,1389634535.642964
2,104,0,1640,-86,248,-3646,1971,2464,-5600,-1024,1790,355,-156,87,1389634535.660716
3,104,0,64259,121,110,5,64462,3840,-6528,1504,63891,154,-413,6,1389634535.660731
2,105,0,3630,-96,396,-3738,3850,2816,-5984,-1056,1790,355,-156,87,1389634535.673082
3,105,0,723,121,157,-16,804,4144,-6816,1408,933,156,-411,4,1389634535.673091
2,106,0,5619,-111,520,-3861,5729,3296,-6320,-720,4351,331,-193,76,1389634535.673366
3,106,0,2722,115,164,-3,2682,4000,-6560,1568,933,156,-411,4,1389634535.673372
2,107,0,7609,-50,601,-3999,7606,3648,-6464,-192,6913,331,-217,63,1389634535.691313
3,107,0,4722,95,202,1,4558,3952,-6512,1456,3512,158,-411,3,1389634535.691322
2,108,0,9598,101,665,-4131,9485,3536,-6464,128,9475,315,-242,45,1389634535.691571
3,108,0,5721,98,214,-13,6436,4160,-6560,1328,6092,156,-413,4,1389634535.703499
2,109,0,10593,193,676,-4169,11363,3568,-6736,224,9475,315,-242,45,1389634535.703774
3,109,0,7721,86,192,-11,8313,4112,-6704,1264,6092,156,-413,4,1389634535.703781
2,110,0,12582,387,666,-4150,13242,4000,-7152,64,12036,301,-13,29,1389634535.721799
3,110,0,9720,59,180,13,10190,3808,-6592,1280,8671,160,-414,0,1389634535.721809
2,111,0,14572,547,584,-4034,15120,4608,-7632,-80,14597,289,-282,14,1389634535.722006
3,111,0,11719,51,211,3,12066,4112,-6576,1264,11249,156,-413,0,1389634535.722203
2,112,0,16561,654,509,-3885,16999,5360,-8352,-400,14597,289,-282,14,1389634535.739463
3,112,0,13719,21,180,13,13944,4128,-6608,1200,13828,158,-411,-5,1389634535.739469
2,113,0,18551,674,424,-3774,18878,5616,-9296,-512,17157,279,-304,-5,1389634535.750959
3,113,0,15718,13,184,20,15821,4048,-6656,1168,13828,158,-411,-5,1389634535.750968
2,114,0,20541,667,329,-3668,20755,6480,-10656,-832,19718,277,-328,-22,1389634535.762549
3,114,0,17718,-1,188,23,17698,3984,-6656,1168,16408,158,-410,-6,1389634535.762566
2,115,0,22530,693,209,-3590,22634,8608,-12080,-1248,22279,273,-354,-40,1389634535.762895
3,115,0,19717,-7,194,30,19575,4048,-6656,1216,18987,159,-414,-2,1389634535.762906
2,116,0,24520,764,108,-3649,24512,10128,-12416,-1232,22279,273,-354,-40,1389634535.780890
3,116,0,20717,-16,188,38,21451,4160,-6704,1088,21566,156,-409,-5,1389634535.780906
2,117,0,25514,821,70,-3729,26391,10736,-12176,-1232,24840,267,-385,-51,1389634535.793086
3,117,0,22716,-29,184,44,23328,4208,-6720,1072,21566,156,-409,-5,1389634535.793096
2,118,0,27504,924,40,-3844,28270,11248,-12352,-1552,27401,256,-413,-62,1389634535.793362
3,118,0,24715,-40,154,56,25205,4176,-6624,1184,24145,157,-409,-3,1389634535.793368
2,119,0,29493,1029,72,-3887,30148,11440,-12160,-2128,29961,230,-433,-71,1389634535.811171
3,119,0,26715,-47,147,56,27081,3840,-6544,1232,26724,161,-410,-4,1389634535.811181
2,120,0,31483,1028,145,-3886,32026,11616,-11744,-2544,29961,230,-433,-71,1389634535.817406
3,120,0,28714,-43,135,78,28957,3888,-6784,1088,26724,161,-410,-4,1389634535.817722
2,121,0,33472,944,232,-3797,33904,12576,-11776,-2672,32523,182,-454,-64,1389634535.830078
3,121,0,30713,-66,80,103,30834,2960,-7424,1328,29303,161,-408,-6,1389634535.830088
2,122,0,35462,846,364,-3702,35782,13392,-11536,-2976,35083,182,-476,-66,1389634535.842247
3,122,0,32713,-58,60,152,32711,4240,-6016,1152,31883,162,-409,-5,1389634535.842256
2,123,0,37452,761,537,-3672,37660,14080,-11200,-3360,37644,157,-501,-67,1389634535.842527
3,123,0,34712,-50,92,159,34588,3840,-6704,1440,34461,163,-406,-5,1389634535.842533
2,124,0,39441,664,751,-3636,39537,14240,-10336,-2816,37644,157,-501,-67,1389634535.860651
3,124,0,35712,-53,100,176,36464,3216,-7232,1488,34461,163,-406,-5,1389634535.860666
2,125,0,41431,636,1012,-3621,41415,13168,-8848,-1744,40204,124,-259,-59,1389634535.872491
3,125,0,37711,-40,101,187,38341,3616,-6896,1232,37040,163,-405,-7,1389634535.872500
2,126,0,42425,660,1139,-3566,43293,11616,-7776,-640,42766,88,-529,-62,1389634535.872706
3,126,0,39711,-42,98,187,40218,4608,-6464,944,39619,163,-405,-7,1389634535.872711
2,127,0,44415,748,1355,-3373,45171,11232,-6512,1104,42766,88,-529,-62,1389634535.890192
3,127,0,41710,-25,100,200,42095,4240,-6688,1152,42198,167,-406,-9,1389634535.890199
2,128,0,46404,887,1570,-3050,47048,11680,-4912,304,45327,52,-538,-63,1389634535.902418
3,128,0,43709,-30,76,206,43972,4096,-6736,1264,42198,167,-406,-9,1389634535.902434
2,129,0,48394,922,1663,-2674,48928,12352,-2896,-1392,47889,16,-540,-70,1389634535.902708
3,129,0,45709,-29,91,226,45849,4192,-6864,1264,44776,167,-402,-11,1389634535.902718
2,130,0,50383,546,1611,-2269,50806,13840,-80,-1536,50450,-10,-539,-70,1389634535.920071
3,130,0,47708,20,82,263,47726,3600,-7264,1520,47356,170,-401,-12,1389634535.920087
2,131,0,52373,-22,1399,-1811,52684,15984,3056,1184,50450,-10,-539,-70,1389634535.932292
3,131,0,49707,6,64,322,49603,3200,-7600,880,47356,170,-401,-12,1389634535.932307
2,132,0,54363,-144,993,-1353,54562,15632,4864,4736,53012,-29,-537,-66,1389634535.932635
3,132,0,50707,-82,71,370,51479,4080,-6928,1264,49935,171,-400,-10,1389634535.932646
2,133,0,56352,376,406,-822,56441,12896,4256,4560,55573,-46,-536,-61,1389634535.950800
3,133,0,52706,-76,68,533,53357,4064,-7184,704,52514,172,-396,-11,1389634535.950809
2,134,0,58342,837,-146,-108,58319,11024,1440,1584,58134,-57,-533,-68,1389634535.962964
3,134,0,54706,-107,48,598,55233,4016,-7040,960,55092,178,-390,-11,1389634535.962974
2,135,0,59336,855,-379,236,60197,10496,-1264,-1376,58134,-57,-533,-68,1389634535.963245
3,135,0,56705,-131,42,693,57110,4192,-6944,1152,55092,178,-390,-11,1389634535.963251
2,136,0,61326,526,-728,708,62074,10208,-2784,-2704,60695,-52,-531,-70,1389634535.981541
3,136,0,58705,-143,36,782,58987,4112,-6928,1568,57671,179,-387,-9,1389634535.981556
2,137,0,63315,-4,-915,878,63953,9888,-3408,-2704,63258,-52,-528,-69,1389634535.981868
3,137,0,60704,-151,44,863,60864,4224,-6928,1360,60250,183,-383,-11,1389634535.987549
2,138,0,65305,-461,-860,960,65362,1648,-7408,-10912,284,-50,-528,-62,1389634535.999147
3,138,0,62703,-152,42,953,62742,4240,-7024,1616,62828,188,-374,-12,1389634535.999156
2,139,0,1759,-2024,-551,1000,2174,2816,-7728,-4000,284,-50,-528,-62,1389634536.10698
3,139,0,64703,-166,54,1059,64619,4112,-7104,1536,62828,188,-374,-12,1389634536.10708
2,140,0,3748,-2052,-111,1199,4052,-7792,-13136,-4144,2844,-45,-526,-43,1389634536.22850
3,140,0,166,-181,69,1108,961,4016,-7376,1344,65406,190,-368,-12,1389634536.22859
2,141,0,5738,-1853,13,1074,5932,-9296,-13024,-5168,5406,-38,-523,-29,1389634536.23083
3,141,0,2166,-207,82,1230,2838,4032,-7744,960,2449,201,-357,-14,1389634536.23090
2,142,0,7727,-1732,-213,1261,7811,-2800,-9056,-112,5406,-38,-523,-29,1389634536.41278
3,142,0,4165,-255,86,1382,4716,4048,-8144,864,2449,201,-357,-14,1389634536.41294
2,143,0,8722,-1828,-266,1471,9689,4416,-5360,4896,7968,-33,-519,-15,1389634536.47528
3,143,0,6164,-312,113,1577,6593,3504,-8416,1408,5027,205,-350,-15,1389634536.47780
2,144,0,10711,-1211,5,2223,11098,8176,-7648,2656,10528,-24,-512,-3,1389634536.59854
3,144,0,8164,-375,170,1839,8470,3584,-8400,1616,7604,212,-336,-15,1389634536.59863
2,145,0,12701,-815,30,2491,12976,9728,-12512,3392,13088,-10,-763,-1,1389634536.72156
3,145,0,10163,-427,257,2115,10347,3440,-8352,1296,10182,222,-322,-19,1389634536.72171
2,146,0,14690,-399,-202,2332,14854,9376,-12832,4816,13088,-10,-763,-1,1389634536.72501
3,146,0,12163,-480,349,2370,12224,3664,-8448,1040,10182,222,-322,-19,1389634536.72512
2,147,0,16680,56,-382,1860,16732,7792,-10432,4688,15650,4,-500,3,1389634536.90523
3,147,0,14162,-535,426,2660,14101,3344,-8736,1408,12761,226,-303,-24,1389634536.90532
2,148,0,18670,468,-366,1492,18609,6304,-9552,1776,18212,13,-494,-1,1389634536.101894
3,148,0,15162,-557,473,2836,15978,3456,-8272,3600,15339,238,-282,-26,1389634536.101902
2,149,0,20659,662,-289,1233,20488,4944,-9296,-1504,20774,20,-492,-7,1389634536.102147
3,149,0,17161,-449,614,3249,17856,4784,-8016,4544,17917,250,-257,-31,1389634536.102335
2,150,0,22649,655,-220,1049,22367,4560,-8528,-3296,20774,20,-492,-7,1389634536.120267
3,150,0,19160,-298,815,3679,19733,7680,-8272,4528,17917,250,-257,-31,1389634536.120283
2,151,0,24638,554,-138,843,24245,3936,-7552,-4128,23336,29,-493,-9,1389634536.132487
3,151,0,21160,-277,949,4007,21610,7968,-7824,3488,20496,257,-484,-41,1389634536.132502
2,152,0,25633,468,-105,774,26123,3472,-7168,-4704,25897,29,-486,-11,1389634536.132831
3,152,0,23159,-340,988,4116,23486,8320,-8208,2544,23073,268,-196,-54,1389634536.132841
2,153,0,27622,259,-82,689,28001,3216,-7184,-4480,25897,29,-486,-11,1389634536.151052
3,153,0,25159,-554,1069,4166,25362,7760,-7728,2880,23073,268,-196,-54,1389634536.151061
2,154,0,29612,41,-69,588,29879,3232,-6976,-3440,28459,31,-488,-14,1389634536.163338
3,154,0,27158,-689,1164,4195,27239,7088,-7056,3536,25651,276,-164,-59,1389634536.163353
2,155,0,31601,-95,-56,520,31757,2864,-7200,-2192,31020,38,-485,-13,1389634536.163672
3,155,0,29157,-681,1256,4294,29115,6976,-7200,4080,28230,280,-129,-71,1389634536.163683
2,156,0,33591,-144,-39,490,33636,2480,-7264,-1408,33582,42,-482,-15,1389634536.181859
3,156,0,30157,-682,1274,4327,30992,7024,-6048,4256,30811,283,-96,-82,1389634536.181874
2,157,0,35581,-159,-73,509,35515,2464,-7552,-240,33582,42,-482,-15,1389634536.182180
3,157,0,32156,-595,1339,4330,32869,9488,-5632,3856,30811,283,-96,-82,1389634536.182409
2,158,0,37570,-107,-86,514,37394,2432,-7680,304,36144,42,-483,-11,1389634536.200494
3,158,0,34156,-478,1570,4342,34746,11440,-5504,3792,33389,290,-60,-94,1389634536.200504
2,159,0,39560,2,-118,559,39272,2272,-7680,224,38706,50,-480,-12,1389634536.212489
3,159,0,36155,-406,1653,4142,36623,12720,-4928,3312,35969,290,-27,-109,1389634536.212498
2,160,0,41549,100,-156,608,41150,2704,-7584,-736,41267,48,-476,-14,1389634536.212759
3,160,0,38154,-506,1563,3807,38500,11520,-7312,2256,38548,278,2,-120,1389634536.212766
2,161,0,42544,108,-187,620,43029,3280,-7456,-1184,41267,48,-476,-14,1389634536.231018
3,161,0,40154,-886,1488,3476,40377,12272,-8160,1296,38548,278,2,-120,1389634536.231033
2,162,0,44533,115,-225,643,44907,3232,-7280,-1680,43829,53,-475,-7,1389634536.243161
3,162,0,42153,-1298,1372,3123,42255,13104,-5984,2928,41127,278,31,-129,1389634536.243171
2,163,0,46523,87,-207,631,46786,3488,-7568,-2752,46390,59,-474,-12,1389634536.243437
3,163,0,44153,-1252,1273,2237,44132,4960,-3472,1696,43706,267,48,-140,1389634536.243443
2,164,0,48512,-31,-264,645,48664,5216,-7856,-2640,48951,59,-468,-14,1389634536.260553
3,164,0,45152,-1146,1319,1528,46009,832,-4736,2976,43706,267,48,-140,1389634536.260562
2,165,0,50502,-126,-169,564,50542,4368,-7152,-2400,48951,59,-468,-14,1389634536.272810
3,165,0,47152,-917,1298,482,47886,-1600,-5568,2960,46285,267,56,-150,1389634536.272825
2,166,0,52492,-235,-156,451,52421,3408,-7200,-1872,51512,64,-470,-9,1389634536.273150
3,166,0,49151,-743,1313,-109,49763,6288,-4224,5328,48863,269,64,-157,1389634536.273161
2,167,0,54481,-297,-139,451,54299,2912,-7520,-944,54073,64,-467,-9,1389634536.291462
3,167,0,51150,-413,1588,-236,51640,8064,-4736,3280,51442,269,69,-166,1389634536.291478
2,168,0,56471,-253,-173,468,56177,3152,-7376,-832,54073,64,-467,-9,1389634536.291784
3,168,0,53150,-24,1425,-867,53517,3008,-4768,3168,51442,269,69,-166,1389634536.298048
2,169,0,57465,-236,-191,451,58055,3296,-7328,-1056,56634,65,-466,-7,1389634536.310046
3,169,0,55149,163,1124,-1387,55393,1168,-3888,2928,54021,274,67,-176,1389634536.310055
2,170,0,59455,-222,-203,442,59933,3072,-7456,-1568,59194,72,-463,-7,1389634536.322332
3,170,0,57148,276,837,-1622,57270,1056,-3520,2896,56600,274,65,-180,1389634536.322348
2,171,0,61444,-244,-172,427,61811,2816,-7328,-1776,61756,78,-466,1,1389634536.322661
3,171,0,59148,408,585,-1774,59147,400,-3360,2784,59179,296,60,-179,1389634536.322672
2,172,0,63434,-276,-163,418,63689,3136,-7504,-1024,61756,78,-466,1,1389634536.340412
3,172,0,60147,471,462,-1829,61023,832,-3824,2704,59179,296,60,-179,1389634536.340422
2,173,0,65423,-244,-175,402,32,3408,-7488,-784,64317,75,-466,-2,1389634536.352187
3,173,0,62147,555,211,-1877,62900,2112,-4080,2256,61757,296,54,-180,1389634536.352195
2,174,0,1877,-191,-181,342,1911,3952,-7488,-960,1341,80,-459,4,1389634536.352488
3,174,0,64146,613,-156,-2030,64778,2608,-3984,1888,64337,321,44,-170,1389634536.352494
2,175,0,3867,-135,-186,295,3788,4064,-7248,-1680,3903,78,-457,3,1389634536.370492
3,175,0,610,636,-553,-2273,1119,2960,-3984,1568,64337,321,44,-170,1389634536.370508
2,176,0,5856,-137,-142,220,5666,3920,-7072,-1280,3903,78,-457,3,1389634536.382735
3,176,0,2609,627,-899,-2468,2996,3776,-4416,1472,1380,321,29,-160,1389634536.382750
2,177,0,7846,-130,-121,168,7545,3776,-7024,-1184,6464,81,-457,4,1389634536.383095
3,177,0,4608,575,-1252,-2646,4873,4048,-4656,1344,3960,356,8,-144,1389634536.383105
2,178,0,8840,-127,-123,163,9422,3632,-6976,-1120,9024,81,-457,5,1389634536.401428
3,178,0,6608,483,-1563,-2912,6750,4160,-4688,1376,6538,356,238,-124,1389634536.401443
2,179,0,10830,-102,-128,146,11299,3904,-6960,-1200,11586,83,-456,10,1389634536.401752
3,179,0,8607,441,-1802,-3170,8626,4144,-4768,1472,6538,356,238,-124,1389634536.407665
2,180,0,12819,-93,-107,133,13178,3792,-6976,-1088,11586,83,-456,10,1389634536.419651
3,180,0,9607,414,-1893,-3284,10504,3968,-4976,1424,9117,384,-47,-99,1389634536.419659
2,181,0,14809,-78,-113,115,15056,3712,-7008,-1184,14148,81,-455,8,1389634536.431307
3,181,0,11606,378,-2027,-3448,12381,4160,-5408,1568,11695,384,-82,-69,1389634536.431323
2,182,0,16799,-71,-101,104,16934,3680,-6912,-1280,16709,81,-455,7,1389634536.437593
3,182,0,13605,339,-2091,-3554,14258,4784,-5584,1456,14274,392,-123,-34,1389634536.437910
2,183,0,18788,-74,-90,100,18812,3488,-7040,-1216,16709,81,-455,7,1389634536.450290
3,183,0,15605,317,-2115,-3679,16136,5008,-5824,1312,14274,392,-123,-34,1389634536.450306
2,184,0,20778,-76,-83,99,20690,3584,-6992,-1136,19269,86,-457,10,1389634536.462440
3,184,0,17604,272,-2068,-3857,18013,5248,-6080,1024,16853,392,-160,0,1389634536.462449
2,185,0,22767,-76,-84,114,22568,3680,-6976,-1056,21830,86,-455,12,1389634536.462718
3,185,0,19604,146,-1927,-3955,19891,5504,-6496,544,19431,368,-199,33,1389634536.462725
2,186,0,24757,-70,-90,119,24447,3584,-7008,-864,24390,82,-455,11,1389634536.481182
3,186,0,21603,-89,-1750,-4050,21768,5264,-6656,400,19431,368,-199,33,1389634536.481197
2,187,0,25751,-70,-79,121,26325,3600,-7008,-928,24390,82,-455,11,1389634536.487372
3,187,0,23602,-431,-1499,-4054,23646,5296,-7136,384,22010,368,-233,63,1389634536.487622
2,188,0,27741,-63,-93,121,28203,3888,-7024,-1216,26951,86,-453,12,1389634536.499776
3,188,0,24602,-619,-1365,-3975,25523,5872,-7888,848,24588,314,-260,90,1389634536.499791
2,189,0,29730,-57,-75,122,30081,3696,-7040,-1088,29512,86,-450,11,1389634536.511942
3,189,0,26601,-992,-1109,-3838,27401,6736,-8416,1408,27168,314,-275,113,1389634536.511952
2,190,0,31720,-55,-79,108,31959,3808,-7008,-880,32074,87,-451,13,1389634536.512220
3,190,0,28601,-1297,-969,-3773,29277,7616,-9024,2192,27168,314,-275,113,1389634536.512227
2,191,0,33710,-43,-73,124,33838,3680,-6928,-944,32074,87,-451,13,1389634536.530281
3,191,0,30600,-1404,-917,-3734,31155,8320,-9776,3104,29748,250,-283,133,1389634536.530296
2,192,0,35699,-34,-65,110,35715,3808,-6976,-928,34634,85,-449,14,1389634536.542349
3,192,0,32600,-1306,-918,-3663,33032,9344,-10784,3904,32327,250,-282,148,1389634536.542365
2,193,0,37689,-18,-54,105,37593,3840,-7040,-960,37197,87,-451,12,1389634536.542685
3,193,0,34599,-1119,-984,-3636,34440,10272,-11456,4112,34906,219,-278,158,1389634536.542697
2,194,0,39678,-5,-48,116,39471,3776,-7072,-1024,39758,88,-450,14,1389634536.560738
3,194,0,36598,-992,-1118,-3673,36786,11856,-11760,4080,34906,219,-278,158,1389634536.560747
2,195,0,40673,-6,-44,125,41348,3920,-6864,-1104,39758,88,-450,14,1389634536.573127
3,195,0,38598,-954,-1273,-3765,38663,12256,-11392,3872,37485,194,-275,158,1389634536.573143
2,196,0,42662,5,-49,122,43226,3760,-6928,-1024,42320,90,-449,13,1389634536.573469
3,196,0,40597,-955,-1407,-3848,40539,12256,-11008,3744,40064,168,-261,156,1389634536.573480
2,197,0,44652,15,-43,124,45105,3728,-6960,-896,44881,90,-451,12,1389634536.591171
3,197,0,41597,-960,-1474,-3843,42416,12176,-10608,4032,40064,168,-261,156,1389634536.591181
2,198,0,46641,25,-41,127,46984,3632,-7024,-928,44881,90,-451,12,1389634536.596693
3,198,0,43596,-984,-1605,-3801,44293,12064,-10192,4640,42644,154,-257,156,1389634536.596949
2,199,0,48631,36,-30,131,48862,3696,-7024,-800,47443,92,-448,12,1389634536.609075
3,199,0,45595,-967,-1675,-3686,46170,12288,-9584,4688,45224,144,-259,157,1389634536.609086
2,200,0,50621,72,-7,143,50740,3936,-7024,-912,50004,94,-446,15,1389634536.621071
3,200,0,47595,-909,-1767,-3496,48047,12464,-8720,3952,47803,138,-271,155,1389634536.621080
2,201,0,52610,98,-2,126,52617,3888,-7056,-1056,52565,89,-447,11,1389634536.626560
3,201,0,49594,-879,-1849,-3309,49924,12000,-7776,2432,47803,138,-271,155,1389634536.626734
2,202,0,54600,132,2,120,54495,3888,-7072,-1168,52565,89,-447,11,1389634536.638972
3,202,0,51594,-1008,-1927,-3073,51802,11168,-7200,-1376,50383,138,-288,157,1389634536.638987
2,203,0,56589,141,-27,151,56373,3728,-7168,-1168,55125,92,-452,12,1389634536.651364
3,203,0,53593,-1498,-2104,-2746,53679,11456,-5792,-2624,52962,136,-304,168,1389634536.651379
2,204,0,57584,151,-54,139,58251,3840,-7248,-1200,57687,95,-444,9,1389634536.657550
3,204,0,55592,-2095,-2240,-2345,55087,11984,-4064,-1760,55540,131,-316,180,1389634536.657818
2,205,0,59573,153,-96,165,60129,3680,-7216,-1392,60247,96,-445,10,1389634536.669997
3,205,0,56592,-2220,-2266,-2125,57433,15424,176,-1392,55540,131,-316,180,1389634536.670007
2,206,0,61563,156,-157,192,62007,3920,-7184,-1312,60247,96,-445,10,1389634536.681406
3,206,0,58591,-2199,-2184,-1748,59310,17008,3168,-3344,58119,120,-324,194,1389634536.681415
2,207,0,63553,94,-188,216,63885,3872,-7504,-1584,62808,93,-447,10,1389634536.681661
3,207,0,60591,-2177,-1805,-1478,61187,15088,4432,-2832,60698,110,-325,209,1389634536.687323
2,208,0,6,141,-182,242,227,3952,-7248,-720,65369,98,-446,8,1389634536.699100
3,208,0,62590,-1981,-1142,-1079,63064,11600,4304,1056,60698,110,-325,209,1389634536.699115
2,209,0,1996,181,-229,266,2106,4080,-7296,-1152,65369,98,-446,8,1389634536.711210
3,209,0,64589,-1263,-282,-528,64942,9568,2608,4208,63276,99,-324,221,1389634536.711220
2,210,0,3985,184,-221,322,3984,3344,-7376,-1344,2394,96,-441,10,1389634536.717344
3,210,0,1053,-214,512,-62,1283,9136,32,4192,320,97,-324,222,1389634536.717599
2,211,0,5975,134,-290,365,5863,3568,-7504,-1232,4956,98,-437,9,1389634536.729827
3,211,0,3052,606,965,195,3160,9504,-2288,2576,2899,96,-329,219,1389634536.729837
2,212,0,7964,108,-371,409,7740,4208,-7280,-1632,7517,98,-437,11,1389634536.741955
3,212,0,5052,987,1136,243,5037,9936,-3920,1040,2899,96,-329,219,1389634536.741970
2,213,0,8959,82,-366,430,9619,3680,-7952,-2144,7517,98,-437,11,1389634536.742298
3,213,0,6051,1023,1130,243,6912,9520,-4608,640,5478,105,-333,206,1389634536.742309
2,214,0,10948,-91,-274,490,11497,2544,-8544,-1664,10077,104,-435,10,1389634536.759723
3,214,0,8051,953,1000,218,8789,2176,-4400,11040,8057,111,-335,194,1389634536.759730
2,215,0,12938,-219,-227,592,13376,3296,-8272,-1632,12639,108,-429,11,1389634536.771985
3,215,0,10050,1975,1067,161,10196,7728,-6688,-832,10636,121,-344,182,1389634536.772000
2,216,0,14928,-63,-255,877,15254,3952,-8176,-1712,15200,108,-427,13,1389634536.772323
3,216,0,12049,1666,923,646,12542,-5680,-5040,10704,10636,121,-344,182,1389634536.772334
2,217,0,16917,-178,-249,1018,17133,3616,-8464,-576,15200,108,-427,13,1389634536.790416
3,217,0,14049,2662,1120,688,14420,-7568,-8544,10480,13215,130,-352,168,1389634536.790425
2,218,0,18907,-118,-184,1247,19012,3424,-8944,-880,17762,115,-421,17,1389634536.802129
3,218,0,16048,2954,1573,1584,16297,1696,-8656,2560,15794,138,-350,145,1389634536.802144
2,219,0,20896,-100,-132,1488,20890,3376,-8976,-896,20325,120,-409,17,1389634536.802475
3,219,0,18047,2679,1314,2305,18173,4368,-5456,-1088,15794,138,-350,145,1389634536.802486
2,220,0,22886,-41,-136,1778,22770,3216,-8848,-1040,22885,128,-398,20,1389634536.820864
3,220,0,20047,2172,1112,2613,20049,5792,-7296,-832,18372,153,-350,126,1389634536.820879
2,221,0,23880,-25,-141,1930,24648,3440,-8720,-128,22885,128,-398,20,1389634536.833066
3,221,0,21047,1978,888,2651,21927,7552,-10992,-64,20951,173,-345,106,1389634536.833076
2,222,0,25870,88,-142,2207,26527,3232,-9088,160,25447,135,-388,22,1389634536.833347
3,222,0,23046,1636,514,2391,23803,7808,-11328,-1808,23530,189,-341,92,1389634536.833354
2,223,0,27859,252,-160,2501,28406,3488,-9120,-144,28008,149,-376,20,1389634536.851393
3,223,0,25045,1230,475,2062,25681,8016,-10800,-4240,23530,189,-341,92,1389634536.851408
2,224,0,29849,412,-189,2798,30285,3552,-9120,-1136,28008,149,-376,20,1389634536.851718
3,224,0,27045,684,423,1641,27088,6928,-9856,-4000,26108,205,-337,85,1389634536.858111
2,225,0,31839,497,-336,3079,32163,3328,-9392,-1440,30570,158,-359,18,1389634536.870269
3,225,0,29044,183,435,1233,28964,5888,-9344,-2432,28688,209,-327,79,1389634536.870278
2,226,0,33828,544,-523,3372,34042,4032,-9296,-2176,33131,181,-335,21,1389634536.882607
3,226,0,31043,-171,425,984,30841,5424,-8544,-320,31268,220,-326,78,1389634536.882623
2,227,0,35818,591,-716,3671,35920,5200,-8848,-2912,35694,181,-315,22,1389634536.882953
3,227,0,33043,-351,363,801,32718,4464,-7776,1504,31268,220,-326,78,1389634536.882964
2,228,0,37807,643,-875,3987,37799,7792,-9120,-1952,35694,181,-315,22,1389634536.901168
3,228,0,35042,-414,266,772,34595,4080,-6848,3488,33847,224,-325,78,1389634536.901198
2,229,0,39797,822,-879,4190,39678,8736,-8544,-1360,38255,191,-290,25,1389634536.907379
3,229,0,36042,-386,210,781,36471,3424,-6064,4576,36426,229,-315,78,1389634536.907632
2,230,0,40791,955,-849,4299,41555,8752,-8864,-1280,40817,207,-258,27,1389634536.919034
3,230,0,38041,-284,128,749,38349,3008,-5872,4496,36426,229,-315,78,1389634536.919043
2,231,0,42781,1343,-830,4393,43433,7504,-8896,-3376,43379,216,-486,31,1389634536.931239
3,231,0,40041,-176,94,788,40226,2896,-5808,4192,39005,233,-310,78,1389634536.931248
2,232,0,44770,1486,-919,4443,45311,6224,-8544,-4448,43379,216,-486,31,1389634536.937526
3,232,0,42040,-51,118,853,42103,3136,-6064,3472,41585,240,-304,75,1389634536.937838
2,233,0,46760,1363,-1084,4444,47189,7664,-8688,-5584,45940,226,-200,36,1389634536.950160
3,233,0,44039,54,169,882,43981,3616,-6320,2384,44164,244,-300,74,1389634536.950176
2,234,0,48750,1019,-1440,4399,49068,8400,-6560,-5664,48501,230,-171,45,1389634536.962357
3,234,0,46039,218,405,885,45858,5840,-7712,4000,44164,244,-300,74,1389634536.962366
2,235,0,50739,390,-1727,4418,50947,10880,-6800,-5424,51062,232,-141,59,1389634536.962635
3,235,0,48038,410,420,815,47736,4928,-7120,944,46743,248,-297,68,1389634536.962642
2,236,0,52729,44,-1804,4239,52826,12048,-6848,-4336,51062,232,-141,59,1389634536.980304
3,236,0,50037,307,343,673,49614,3760,-6544,1776,49322,254,-295,62,1389634536.980319
2,237,0,54718,-113,-1791,3711,54704,11072,-7792,-3408,53624,231,-112,73,1389634536.992675
3,237,0,51037,322,336,650,51492,4288,-7760,528,51902,259,-294,59,1389634536.992691
2,238,0,56708,-121,-1665,3264,56582,9216,-9056,-2416,56185,227,-91,89,1389634536.993064
3,238,0,53036,252,270,671,53369,4816,-7600,320,51902,259,-294,59,1389634536.993076
2,239,0,57702,-61,-1611,2976,58460,6496,-7568,-2080,56185,227,-91,89,1389634537.11364
3,239,0,55036,186,219,518,55245,4640,-7056,688,54480,262,-287,57,1389634537.11379
2,240,0,59692,-7,-1335,2389,60339,4704,-5824,-1872,58747,220,-72,98,1389634537.17618
3,240,0,57035,144,207,479,57123,4144,-6784,2080,57059,262,-286,51,1389634537.17873
2,241,0,61682,34,-1134,1769,62217,816,-5744,-3440,61309,208,-58,109,1389634537.30051
3,241,0,59035,152,182,425,59000,4144,-6800,1952,57059,262,-286,51,1389634537.30061
2,242,0,63671,107,-998,503,64095,7680,-5808,-3536,63870,208,-49,117,1389634537.42150
3,242,0,61034,173,176,380,60878,4208,-6912,1776,59637,265,-283,51,1389634537.42159
2,243,0,125,-104,-1036,198,438,9200,-6816,-2496,63870,208,-49,117,1389634537.42426
3,243,0,63033,181,157,321,62755,3920,-6880,1792,62217,268,-282,51,1389634537.42433
2,244,0,2114,-468,-751,-582,2316,3744,-5680,-2672,895,202,-45,122,1389634537.60140
3,244,0,65033,195,171,293,64633,4064,-6928,1584,64796,272,-280,49,1389634537.60195
2,245,0,4104,-553,-439,-1379,4195,1104,-4528,-2720,3456,196,-46,122,1389634537.71574
3,245,0,496,213,162,276,975,3936,-6896,1632,64796,272,-280,49,1389634537.71583
2,246,0,6093,-675,-217,-1752,6074,544,-3872,-3040,6018,197,-48,126,1389634537.71833
3,246,0,2496,219,176,239,2852,4032,-7040,1696,1837,273,-282,42,1389634537.77404
2,247,0,7088,-744,-157,-1865,7952,240,-3776,-3408,6018,197,-48,126,1389634537.89605
3,247,0,4495,219,162,187,4729,4128,-6976,1488,4415,276,-278,43,1389634537.89620
2,248,0,9077,-922,-85,-2011,9830,832,-3952,-3648,8580,200,-50,127,1389634537.101801
3,248,0,6494,185,131,87,6607,4176,-6768,1184,6995,275,-279,40,1389634537.101815
2,249,0,11067,-1166,-20,-2140,11709,1168,-3600,-2960,11141,199,-58,127,1389634537.102124
3,249,0,8494,139,104,45,8483,4160,-6800,1216,6995,275,-279,40,1389634537.102437
2,250,0,13057,-1372,73,-2360,13587,1440,-3296,-2304,11141,199,-58,127,1389634537.120491
3,250,0,10493,107,88,43,10361,3984,-6576,1040,9573,273,-280,41,1389634537.120501
2,251,0,15046,-1470,179,-2534,15465,1840,-3280,-1520,13702,201,-64,125,1389634537.132824
3,251,0,12493,61,63,50,12239,4256,-6896,1104,12151,277,-279,40,1389634537.132840
2,252,0,17036,-1400,342,-2715,17343,1904,-3424,-768,16263,207,-74,122,1389634537.133161
3,252,0,14492,24,53,55,14118,3840,-6608,1216,12151,277,-279,40,1389634537.133172
2,253,0,19025,-1157,539,-2890,19222,1824,-3568,-528,18825,210,-82,120,1389634537.151418
3,253,0,15492,26,45,60,15995,3648,-6480,1680,14731,277,-278,39,1389634537.151432
2,254,0,21015,-859,733,-3027,21101,1920,-3680,-768,18825,210,-82,120,1389634537.151729
3,254,0,17491,5,47,52,17873,3760,-6352,1840,17309,278,-278,40,1389634537.157909
2,255,0,23004,-607,926,-3131,22980,2048,-3904,-1424,21385,215,-96,115,1389634537.170205
3,255,0,19490,14,54,56,19750,3984,-6448,1920,19888,277,-277,36,1389634537.170214
2,0,0,23999,-524,1041,-3168,24857,2384,-4320,-2048,23947,230,-110,111,1389634537.181648
3,0,0,21490,32,55,70,21628,3984,-6416,1888,19888,277,-277,36,1389634537.181658
2,1,0,25988,-467,1230,-3247,26735,2912,-4816,-2672,26509,230,-127,102,1389634537.181905
3,1,0,23489,47,63,103,23505,4016,-6496,1664,22467,280,-281,39,1389634537.182153
2,2,0,27978,-519,1391,-3325,28614,3568,-5328,-3136,26509,230,-127,102,1389634537.200331
3,2,0,25488,41,79,115,25383,4080,-6512,1520,25046,281,-276,37,1389634537.200347
2,3,0,29968,-626,1506,-3407,30492,4608,-5936,-2992,29069,233,-145,98,1389634537.212477
3,3,0,27488,33,69,132,27260,4000,-6624,1296,27625,278,-276,38,1389634537.212486
2,4,0,31957,-725,1602,-3540,32369,4848,-5664,-2528,31632,237,-164,93,1389634537.212739
3,4,0,29487,13,76,115,29137,4096,-6416,1360,27625,278,-276,38,1389634537.212746
2,5,0,33947,-743,1633,-3733,34248,4384,-5280,-1680,34193,241,-187,84,1389634537.231103
3,5,0,30487,11,73,120,31014,3920,-6544,1552,30204,279,-274,40,1389634537.231118
2,6,0,35936,-627,1579,-3759,36126,4128,-5472,-768,34193,241,-187,84,1389634537.236991
3,6,0,32486,-2,69,89,32892,4032,-6592,1552,32783,282,-275,34,1389634537.237233
2,7,0,37926,-360,1446,-3601,38004,4528,-6144,-704,36754,249,-214,81,1389634537.248755
3,7,0,34486,0,74,111,34769,4016,-6560,1600,32783,282,-275,34,1389634537.248765
2,8,0,39915,-101,1279,-3376,39881,4608,-6800,-1520,39316,248,-239,77,1389634537.260843
3,8,0,36485,-5,78,79,36647,3984,-6608,1568,35363,282,-275,36,1389634537.260853
2,9,0,40910,-21,1194,-3285,41759,4656,-7632,-2336,39316,248,-239,77,1389634537.272460
3,9,0,38484,0,60,100,38525,4048,-6576,1536,37942,283,-274,36,1389634537.272469
2,10,0,42900,18,1027,-3118,43637,6256,-9152,-2944,41876,251,-10,71,1389634537.272736
3,10,0,40484,-10,62,107,40402,4064,-6512,1536,40521,281,-273,33,1389634537.272742
2,11,0,44889,13,858,-3006,45516,8576,-10512,-3280,44438,252,-293,65,1389634537.290911
3,11,0,42483,-6,71,125,42279,4080,-6528,1552,40521,281,-273,33,1389634537.290927
2,12,0,46879,-4,688,-3111,47394,9232,-10672,-3392,46998,243,-320,56,1389634537.303306
3,12,0,44483,-9,60,133,44156,4096,-6560,1600,43100,284,-279,32,1389634537.303322
2,13,0,48868,15,528,-3329,49272,9952,-11072,-2816,46998,243,-320,56,1389634537.303738
3,13,0,45482,-10,65,136,46032,4080,-6544,1456,45679,283,-270,33,1389634537.303750
2,14,0,50858,171,411,-3502,51150,10272,-11696,-2416,49559,233,-339,51,1389634537.321661
3,14,0,47482,-27,84,139,47909,4224,-6400,1408,48259,283,-272,36,1389634537.321668
2,15,0,52847,476,350,-3708,53029,10192,-11680,-2544,52120,191,-361,47,1389634537.321924
3,15,0,49481,-42,74,154,49786,4080,-6432,1504,48259,283,-272,36,1389634537.322187
2,16,0,54837,785,316,-3899,54907,10112,-11472,-2864,54681,191,-379,37,1389634537.340334
3,16,0,51480,-35,67,154,51663,4176,-6496,1520,50839,285,-269,37,1389634537.340349
2,17,0,55831,930,313,-3965,56785,10304,-11568,-3200,54681,191,-379,37,1389634537.352554
3,17,0,53480,-27,69,176,53540,4160,-6464,1552,53418,283,-266,34,1389634537.352569
2,18,0,57821,1152,338,-4065,58663,10512,-11440,-3184,57242,173,-391,34,1389634537.352898
3,18,0,55479,-33,69,186,55417,4416,-6384,1680,53418,283,-266,34,1389634537.352908
2,19,0,59811,1300,402,-4099,60542,10768,-11072,-2640,59803,156,-409,22,1389634537.371283
3,19,0,57478,-32,68,196,57293,4160,-6240,1568,55997,286,-268,33,1389634537.371299
2,20,0,61800,1463,482,-4076,62421,10976,-10496,-1776,62364,140,-432,14,1389634537.377540
3,20,0,59478,-6,61,185,59170,4192,-6400,1664,58576,290,-266,34,1389634537.377754
2,21,0,63790,1663,555,-4001,64299,11216,-10064,-976,62364,140,-432,14,1389634537.390102
3,21,0,60477,-2,71,184,61048,4368,-6320,1728,61155,286,-264,32,1389634537.390118
2,22,0,243,1862,609,-3859,641,11328,-9760,-384,64926,128,-453,1,1389634537.402458
3,22,0,62477,18,71,168,62926,4672,-6064,1408,61155,286,-264,32,1389634537.402473
2,23,0,2233,1944,683,-3663,2520,11408,-9248,-16,1950,111,-477,-19,1389634537.402793
3,23,0,64476,34,79,152,64803,4464,-5968,1552,63732,289,-266,31,1389634537.402804
2,24,0,4222,1872,765,-3418,4398,11344,-8464,-128,1950,111,-477,-19,1389634537.421139
3,24,0,940,39,84,134,1144,3568,-6784,2320,774,288,-263,27,1389634537.421154
2,25,0,6212,1606,840,-3113,6276,11120,-7728,496,4511,92,-488,-38,1389634537.427368
3,25,0,2939,43,82,143,3020,4240,-6320,1840,774,288,-263,27,1389634537.427572
2,26,0,7206,1399,887,-2940,8155,12752,-5888,32,7073,67,-501,-54,1389634537.439662
3,26,0,4938,74,94,179,4898,4880,-5120,1200,3354,291,-265,28,1389634537.439678
2,27,0,9196,940,985,-2593,9564,13712,-3952,-288,9633,50,-256,-63,1389634537.452121
3,27,0,6938,81,69,166,6774,4304,-7024,1648,5933,292,-259,29,1389634537.452130
2,28,0,11186,313,980,-2275,11443,15184,-496,976,9633,50,-256,-63,1389634537.452361
3,28,0,8937,133,32,125,8651,4272,-6992,1728,8511,293,-264,26,1389634537.452369
2,29,0,13175,-162,878,-1860,13321,17008,3136,3920,12194,28,-518,-66,1389634537.470568
3,29,0,9937,128,34,93,10528,4272,-6800,1504,8511,293,-264,26,1389634537.470584
2,30,0,15165,-85,650,-1322,15199,16528,5472,6768,14756,2,-523,-68,1389634537.482714
3,30,0,11936,119,33,114,12404,4352,-6864,1264,11089,292,-261,28,1389634537.482723
2,31,0,17154,482,225,-610,17077,13648,5104,6048,17318,2,-517,-75,1389634537.483107
3,31,0,13935,76,59,179,14281,4048,-7776,-160,13668,294,-262,27,1389634537.483117
2,32,0,19144,814,-216,300,18955,12128,1856,1824,17318,2,-517,-75,1389634537.501429
3,32,0,15935,-276,156,197,16158,3488,-7296,1424,16246,295,-260,27,1389634537.501444
2,33,0,21133,526,-527,1028,20833,11504,-1280,-944,19880,0,-519,-79,1389634537.501744
3,33,0,17934,-211,53,331,18036,3280,-6784,2208,16246,295,-260,27,1389634537.507926
2,34,0,23123,-51,-681,1359,22712,10960,-3008,-1440,22440,4,-518,-81,1389634537.520102
3,34,0,19934,-43,2,512,19913,4256,-7232,352,18825,295,-261,27,1389634537.520118
2,35,0,24118,-294,-691,1415,24591,3088,-7488,-7744,25001,16,-514,-75,1389634537.532370
3,35,0,21933,-207,27,618,21790,3920,-6976,1648,21403,293,-509,30,1389634537.532380
2,36,0,26107,-1670,-300,1448,26469,7312,-9072,-2816,25001,16,-514,-75,1389634537.532650
3,36,0,23932,-157,5,723,23667,3840,-7280,1200,21403,293,-509,30,1389634537.532657
2,37,0,28097,-2204,16,1753,28348,-6704,-11424,-4016,27562,26,-767,-57,1389634537.550907
3,37,0,24932,-197,21,786,25544,3968,-7408,1264,23981,298,-248,28,1389634537.550923
2,38,0,30086,-2119,113,1567,30227,-15264,-22112,-4288,30124,36,-509,-44,1389634537.562760
3,38,0,26931,-269,26,927,27421,3824,-7808,1024,26560,300,-245,31,1389634537.562769
2,39,0,32076,-1836,56,1678,32106,-7248,-12624,-4144,30124,36,-509,-44,1389634537.563025
3,39,0,28931,-309,19,1073,29298,3568,-8288,688,29139,304,-238,34,1389634537.563030
2,40,0,34065,-1881,194,1119,33984,2800,-3680,7440,32686,49,-507,-32,1389634537.581065
3,40,0,30930,-419,4,1251,31175,3392,-8448,832,29139,304,-238,34,1389634537.581075
2,41,0,36055,-1110,370,2080,35863,5600,-4272,3824,35245,57,-499,-24,1389634537.593263
3,41,0,32930,-499,-28,1478,33051,3456,-8528,672,31718,309,-226,35,1389634537.593273
2,42,0,38044,-741,439,2694,37740,7872,-10960,2240,37807,71,-488,-17,1389634537.593539
3,42,0,34929,-630,-11,1708,34928,3504,-8384,128,34298,311,-218,39,1389634537.593546
2,43,0,39039,-594,290,2717,39619,8224,-12864,4848,37807,71,-488,-17,1389634537.611479
3,43,0,36928,-835,-14,1970,36804,3792,-8592,-688,36877,313,-205,42,1389634537.611488
2,44,0,41029,-328,-152,2371,41498,7648,-10992,7264,40369,88,-484,-16,1389634537.611717
3,44,0,38928,-1097,-21,2276,38682,3408,-8592,448,36877,313,-205,42,1389634537.617951
2,45,0,43018,269,-331,1898,43377,6368,-9264,4016,42929,117,-474,-16,1389634537.629181
3,45,0,39927,-1183,-17,2447,40559,2704,-8448,2224,39455,319,-192,45,1389634537.629189
2,46,0,45008,683,-370,1544,45256,5040,-8848,320,45490,117,-468,-17,1389634537.641309
3,46,0,41927,-1244,-4,2851,42436,3168,-8064,2560,42034,325,-170,50,1389634537.641325
2,47,0,46997,830,-348,1401,47135,4608,-8688,-2336,45490,117,-468,-17,1389634537.641635
3,47,0,43926,-1256,65,3314,44313,4944,-8384,3056,42034,325,-170,50,1389634537.647975
2,48,0,48987,792,-233,1263,49014,4352,-7712,-4416,48051,123,-467,-22,1389634537.659523
3,48,0,45925,-1295,180,3736,46190,6720,-8672,2752,44612,331,-147,53,1389634537.659538
2,49,0,50976,601,-117,1128,50892,3824,-6768,-5424,50613,128,-460,-27,1389634537.671416
3,49,0,47925,-1519,129,3970,48067,9536,-10080,2160,47191,336,-120,56,1389634537.671426
2,50,0,52966,314,-84,1014,52771,3760,-6912,-4880,50613,128,-460,-27,1389634537.671634
3,50,0,49924,-2163,193,4040,49943,7872,-8384,4496,49771,341,-91,55,1389634537.677758
2,51,0,54955,47,-82,952,54649,3920,-7120,-3600,53174,139,-457,-28,1389634537.690122
3,51,0,51924,-2183,441,3950,51820,6384,-7184,7024,49771,341,-91,55,1389634537.690137
2,52,0,55950,-51,-90,868,56528,3744,-7024,-2064,55736,141,-451,-30,1389634537.702538
3,52,0,53923,-1651,796,4059,53697,6736,-6352,8000,52349,342,-65,58,1389634537.702554
2,53,0,57940,-167,-86,779,58407,3344,-7440,-1280,58297,148,-449,-27,1389634537.702816
3,53,0,54923,-1363,924,4060,55574,6704,-6208,6720,54927,344,-41,51,1389634537.702839
2,54,0,59929,-214,-110,725,60285,4976,-8512,-1712,58297,148,-449,-27,1389634537.721064
3,54,0,56922,-941,1196,4108,57451,6624,-5680,5632,57504,344,-12,48,1389634537.721080
2,55,0,61919,-336,-301,734,62163,5776,-8736,288,60859,155,-445,-25,1389634537.727375
3,55,0,58921,-871,1390,4099,59328,10576,-5536,5056,57504,344,-12,48,1389634537.727681
2,56,0,63908,-233,-130,497,64041,4528,-7664,-672,63421,158,-440,-25,1389634537.739727
3,56,0,60921,-1110,1381,4062,61205,11280,-4832,4096,60083,343,-244,32,1389634537.739736
2,57,0,362,-259,-93,369,384,3104,-7328,-944,445,161,-442,-19,1389634537.751698
3,57,0,62920,-1455,1463,3764,63082,9760,-6096,3680,62662,330,37,22,1389634537.751708
2,58,0,2351,-211,-95,436,2263,3008,-7728,-912,445,161,-442,-19,1389634537.752013
3,58,0,64919,-1800,1499,3522,64959,8608,-7040,3792,62662,330,37,22,1389634537.752264
2,59,0,4341,-154,-109,446,4141,3264,-7440,-1168,3007,162,-439,-15,1389634537.770478
3,59,0,1383,-2067,1504,3272,1300,8240,-7088,4048,65240,330,59,8,1389634537.770493
2,60,0,6330,-131,-117,399,6020,3760,-7328,-1616,5567,168,-437,-15,1389634537.782246
3,60,0,3382,-2186,1580,2945,3176,7920,-5760,4000,2283,316,78,-6,1389634537.782254
2,61,0,7325,-140,-110,385,7899,4144,-7440,-2032,8128,168,-434,-17,1389634537.782538
3,61,0,4382,-2174,1617,2761,5053,6064,-1712,5408,4863,316,95,-22,1389634537.782545
2,62,0,9315,-176,-81,317,9778,4000,-7440,-1680,8128,168,-434,-17,1389634537.800738
3,62,0,6381,-1675,1585,2224,6930,1840,-624,5120,4863,316,95,-22,1389634537.800754
2,63,0,11304,-184,-50,209,11657,3712,-7488,-1232,10689,169,-434,-12,1389634537.812514
3,63,0,8381,-872,1523,1470,8807,-608,-2880,5008,7441,308,100,-40,1389634537.812524
2,64,0,13294,-164,-35,151,13537,3488,-7328,-720,13250,170,-431,-13,1389634537.812797
3,64,0,10380,-311,1399,860,10684,3040,-3760,4080,10019,308,110,-51,1389634537.812804
2,65,0,15283,-99,-27,115,15416,3488,-7264,-896,13250,170,-431,-13,1389634537.830882
3,65,0,12379,100,1527,510,12561,12176,-4624,4688,12598,301,108,-63,1389634537.830892
2,66,0,17273,-83,-35,114,17295,3472,-7168,-1328,15811,171,-432,-13,1389634537.843001
3,66,0,14379,601,1473,-186,14439,7680,-5024,3312,12598,301,108,-63,1389634537.843011
2,67,0,19262,-94,-32,106,19173,3376,-7088,-1408,18372,173,-432,-12,1389634537.843280
3,67,0,16378,789,1165,-1295,16315,3600,-4016,2848,15175,301,101,-71,1389634537.843286
2,68,0,21252,-103,-39,108,21053,3296,-7184,-1248,20933,172,-430,-14,1389634537.861474
