nodeID,seqNumber,status,gyroTick,gyroX,gyroY,gyroZ,accelTick,accelX,accelY,accelZ,magTick,magX,magY,magZ,currentTime
2,14,0,38468,9,1,-27,39040,320,-7936,0,36971,327,-536,219,1389808193.437595
3,14,0,49565,4,-3,-9,49668,432,-7312,-160,47980,101,-556,-330,1389808193.437607
2,15,0,40457,11,-1,-28,40918,384,-7872,16,39533,329,-533,220,1389808193.440933
3,15,0,51564,-3,-3,-15,51545,416,-7296,-160,50557,99,-557,-331,1389808193.440942
2,16,0,42447,5,-6,-26,42796,304,-7888,48,42095,329,-529,225,1389808193.440944
3,16,0,53563,0,3,0,53424,480,-7344,-128,53135,96,-549,-329,1389808193.440946
2,17,0,44436,6,-9,-32,44674,272,-7760,0,44656,329,-534,216,1389808193.440947
3,17,0,55563,0,-6,-2,55301,480,-7248,-144,53135,96,-549,-329,1389808193.440949
2,18,0,46425,11,-4,-40,46552,304,-7728,0,44656,329,-534,216,1389808193.440951
3,18,0,56563,3,-11,-11,57179,432,-7216,-160,55714,102,-554,-329,1389808193.440952
2,19,0,48414,12,-2,-27,48429,304,-7792,48,47216,329,-532,219,1389808193.440954
3,19,0,58562,-2,-9,-22,59057,448,-7184,-176,58291,99,-556,-327,1389808193.440956
2,20,0,50404,8,1,-27,50306,320,-7888,16,49776,329,-530,220,1389808193.440958
3,20,0,60562,-3,-1,-21,60935,416,-7280,-160,60869,98,-553,-326,1389808193.440959
2,21,0,51398,6,-2,-25,52184,304,-7968,64,49776,329,-530,220,1389808193.440961
3,21,0,62561,3,-12,-17,62812,416,-7296,-144,60869,98,-553,-326,1389808193.440963
2,22,0,53388,10,-7,-26,54062,368,-7808,-16,52336,326,-536,220,1389808193.440964
3,22,0,64560,-1,-11,-24,64690,368,-7264,-224,63447,102,-554,-330,1389808193.440966
2,23,0,55377,12,-6,-26,55940,336,-7808,-16,54897,327,-535,220,1389808193.440968
3,23,0,1024,0,-9,-10,1032,352,-7280,-144,488,98,-556,-327,1389808193.440969
2,24,0,57366,8,0,-33,57818,304,-7824,-64,57458,331,-528,221,1389808193.440971
3,24,0,3023,-4,-7,-12,2910,400,-7200,-176,3067,99,-551,-326,1389808193.440973
2,25,0,59355,11,-6,-38,59696,336,-7776,16,57458,331,-528,221,1389808193.440975
3,25,0,5023,4,-7,-13,4788,368,-7232,-160,3067,99,-551,-326,1389808193.440976
2,26,0,61344,15,-6,-23,61574,400,-7888,0,60020,329,-532,220,1389808193.440978
3,26,0,6022,1,-10,-28,6665,352,-7264,-160,5645,98,-550,-326,1389808193.440980
2,27,0,63334,10,-9,-23,63451,384,-7888,32,62580,329,-536,221,1389808193.440981
3,27,0,8022,-9,-5,-23,8543,432,-7312,-176,8222,99,-556,-328,1389808193.440983
2,28,0,65323,12,-10,-33,65329,336,-7904,-16,65141,329,-531,220,1389808193.440985
3,28,0,10021,-5,-10,-17,10422,384,-7312,-160,8222,99,-556,-328,1389808193.440987
2,29,0,1776,6,-2,-34,1671,352,-7808,-32,65141,329,-531,220,1389808193.440988
3,29,0,12021,-3,-4,-17,12299,416,-7232,-208,10800,98,-551,-329,1389808193.440990
2,30,0,2771,7,-2,-35,3549,352,-7808,-16,2167,328,-530,220,1389808193.440992
3,30,0,14020,-5,-10,-3,14177,416,-7296,-176,13378,102,-554,-326,1389808193.440993
2,31,0,4760,9,-8,-28,5426,352,-7824,32,4729,328,-535,216,1389808193.440995
3,31,0,16020,0,-10,-12,16055,384,-7312,-144,15955,101,-557,-329,1389808193.440997
2,32,0,6749,9,-3,-28,7303,320,-7808,0,7290,330,-529,220,1389808193.440998
3,32,0,18019,0,-10,-23,17934,400,-7248,-144,15955,101,-557,-329,1389808193.441000
2,33,0,8739,8,-8,-27,9181,288,-7888,48,7290,330,-529,220,1389808193.441002
3,33,0,20018,-6,-12,-22,19812,432,-7328,-144,18534,95,-553,-327,1389808193.441003
2,34,0,10728,6,-3,-28,11059,336,-7872,-16,9852,330,-532,222,1389808193.441005
3,34,0,21018,-9,-8,-18,21691,416,-7344,-128,21112,99,-551,-329,1389808193.441007
2,35,0,12717,7,-1,-30,12936,304,-7872,0,12414,328,-533,219,1389808193.441008
3,35,0,23018,-3,-8,-7,23569,448,-7232,-112,23690,101,-556,-330,1389808193.441010
2,36,0,14706,5,-11,-27,14814,304,-7856,0,12414,328,-533,219,1389808193.441023
3,36,0,25017,-1,-4,-5,25448,416,-7200,-96,23690,101,-556,-330,1389808193.441025
2,37,0,16696,7,-6,-35,16693,288,-7792,-32,14975,329,-530,223,1389808193.441027
3,37,0,27016,0,-6,-15,27325,448,-7184,-128,26268,98,-554,-329,1389808193.441028
2,38,0,17690,9,-12,-27,18570,288,-7808,48,17537,325,-531,221,1389808193.441030
3,38,0,29016,-11,-12,-18,29204,448,-7312,-96,28846,98,-550,-328,1389808193.441032
2,39,0,19679,12,-1,-22,20448,336,-7856,-16,20098,329,-536,216,1389808193.441033
3,39,0,31015,2,-16,-22,31081,448,-7280,-128,28846,98,-550,-328,1389808193.441075
2,40,0,21669,6,-3,-24,22326,288,-7792,0,20098,329,-536,216,1389808193.441077
3,40,0,33015,1,-4,-18,32960,432,-7344,-160,31423,101,-555,-329,1389808193.441078
2,41,0,23658,11,-8,-30,24204,368,-7824,-16,22659,331,-532,219,1389808193.441080
3,41,0,35014,5,-7,-22,34838,416,-7248,-176,34001,97,-555,-328,1389808193.441082
2,42,0,25647,16,-7,-27,26082,352,-7840,16,25220,328,-531,221,1389808193.441083
3,42,0,36014,7,-4,-13,36717,448,-7248,-144,36578,98,-551,-326,1389808193.441085
2,43,0,27636,15,-5,-27,27960,336,-7872,-16,27781,329,-534,216,1389808193.441086
3,43,0,38013,0,-4,-17,38595,416,-7168,-144,36578,98,-551,-326,1389808193.441088
2,44,0,29626,0,-9,-25,29839,400,-7808,-48,27781,329,-534,216,1389808193.441090
3,44,0,40013,7,-15,-20,40473,416,-7296,-160,39155,101,-553,-332,1389808193.441091
2,45,0,31615,8,-7,-20,31717,384,-7872,-32,30343,326,-530,218,1389808193.441093
3,45,0,42012,-3,-5,-17,42351,368,-7280,-224,41733,97,-557,-329,1389808193.441095
2,46,0,33604,8,-3,-33,33595,352,-7888,16,32904,326,-532,222,1389808193.441096
3,46,0,44012,-10,-12,-15,44230,384,-7328,-144,44309,97,-553,-329,1389808193.441098
2,47,0,34599,12,-14,-26,35473,320,-7824,-32,35465,328,-535,214,1389808193.441100
3,47,0,46011,-7,-9,-8,46109,416,-7248,-192,44309,97,-553,-329,1389808193.441101
2,48,0,36588,10,-8,-23,37351,336,-7824,16,35465,328,-535,214,1389808193.441103
3,48,0,48011,0,-5,-7,47988,432,-7280,-144,46887,103,-552,-327,1389808193.441105
2,49,0,38577,12,-11,-32,39230,320,-7792,48,38028,328,-535,222,1389808193.441106
3,49,0,50010,2,-9,-9,49866,416,-7248,-176,49465,98,-556,-327,1389808193.441108
2,50,0,40567,10,-8,-34,41109,336,-7808,32,40589,327,-531,222,1389808193.441110
3,50,0,51010,2,-11,-8,51744,448,-7264,-192,49465,98,-556,-327,1389808193.441111
2,51,0,42556,16,-4,-28,42987,304,-7856,-32,40589,327,-531,222,1389808193.441113
3,51,0,53009,-6,-6,-18,53622,464,-7328,-144,52043,98,-552,-329,1389808193.441115
2,52,0,44545,3,-12,-29,44866,336,-7856,16,43150,329,-533,215,1389808193.441116
3,52,0,55009,6,-5,-7,55501,416,-7296,-144,54621,100,-550,-326,1389808193.441118
2,53,0,46534,10,-7,-34,46744,304,-7872,16,45711,330,-533,219,1389808193.441120
3,53,0,57008,-4,-15,-13,57379,432,-7312,-112,57198,101,-556,-328,1389808193.441121
2,54,0,48524,9,-4,-36,48622,336,-7840,0,48274,328,-526,222,1389808193.441123
3,54,0,59007,-5,-12,-17,59258,432,-7248,-144,57198,101,-556,-328,1389808193.441124
2,55,0,50513,8,-5,-29,50500,336,-7840,16,48274,328,-526,222,1389808193.441126
3,55,0,61007,3,-21,-20,61137,448,-7264,-128,59777,98,-554,-327,1389808193.441128
2,56,0,51507,7,-5,-23,52379,336,-7840,16,50835,327,-533,218,1389808193.441130
3,56,0,63006,3,-13,-15,63016,384,-7200,-160,62355,98,-553,-328,1389808193.441131
2,57,0,53497,5,-4,-23,54256,288,-7840,-16,53397,330,-535,220,1389808193.441133
3,57,0,65006,3,-9,-24,64894,400,-7296,-144,64932,98,-556,-331,1389808193.441134
2,58,0,55486,8,-9,-33,56135,352,-7856,-16,55958,329,-529,220,1389808193.441136
3,58,0,469,1,-5,-16,1236,448,-7264,-96,64932,98,-556,-331,1389808193.441138
2,59,0,57475,13,-9,-28,58014,352,-7856,-48,55958,329,-529,220,1389808193.441139
3,59,0,2469,-3,-1,-8,3114,352,-7248,-160,1974,98,-553,-328,1389808193.441141
2,60,0,59464,14,-4,-28,59893,368,-7792,-16,58521,331,-528,219,1389808193.441143
3,60,0,4468,3,-10,-12,4991,320,-7216,-208,4553,102,-550,-326,1389808193.441144
2,61,0,61454,9,-9,-24,61771,352,-7808,-16,61083,331,-534,218,1389808193.441146
3,61,0,6468,-6,-13,-19,6869,352,-7296,-160,4553,102,-550,-326,1389808193.441148
2,62,0,63443,8,-12,-30,63179,352,-7840,0,63645,332,-531,221,1389808193.441150
3,62,0,8467,-5,-8,-14,8748,384,-7280,-224,7131,102,-555,-331,1389808193.441151
2,63,0,65432,8,-8,-27,65527,288,-7872,-48,63645,332,-531,221,1389808193.441153
3,63,0,10467,-8,-5,-13,10627,368,-7360,-176,9710,96,-557,-330,1389808193.441155
2,64,0,891,7,-6,-30,1400,320,-7856,-16,673,327,-530,219,1389808193.441180
3,64,0,12466,0,-15,-16,12504,352,-7344,-224,12288,96,-550,-327,1389808193.441182
2,65,0,2880,8,-4,-25,3277,272,-7888,16,3235,329,-537,218,1389808193.441197
3,65,0,14466,1,1,-10,14383,384,-7296,-144,12288,96,-550,-327,1389808193.441199
2,66,0,4869,10,-7,-31,5155,304,-7840,-64,3235,329,-537,218,1389808193.441201
3,66,0,15465,4,-9,-10,16260,432,-7216,-144,14865,97,-551,-329,1389808193.441202
2,67,0,6859,7,-7,-32,7033,336,-7792,0,5797,329,-532,221,1389808193.441204
3,67,0,17465,-6,-5,-22,18137,416,-7296,-128,17443,97,-556,-327,1389808193.441206
2,68,0,8848,11,-8,-30,8911,320,-7840,32,8358,328,-530,220,1389808193.441207
3,68,0,19464,-9,1,-11,20015,448,-7328,-144,20021,98,-551,-327,1389808193.441209
2,69,0,10837,6,-4,-31,10789,304,-7888,48,10920,328,-535,218,1389808193.441211
3,69,0,21464,2,-4,-10,21893,368,-7328,-128,20021,98,-551,-327,1389808193.441212
3,70,0,23463,2,-11,-13,23771,368,-7328,-128,22600,98,-555,-326,1389808193.441214
2,71,0,14816,9,-4,-21,14545,288,-7760,-48,13483,329,-537,221,1389808193.441216
3,71,0,25462,-7,-8,-13,25649,368,-7232,-144,25179,99,-557,-329,1389808193.441218
2,72,0,16805,7,0,-33,16423,288,-7824,32,16046,329,-529,224,1389808193.441219
3,72,0,27462,-1,-9,-9,27528,416,-7248,-160,25179,99,-557,-329,1389808193.441221
2,73,0,17799,7,3,-28,18301,288,-7808,-16,18608,327,-532,217,1389808193.441223
3,73,0,29461,-1,-6,-10,29405,400,-7264,-176,27757,98,-552,-325,1389808193.441224
2,74,0,19789,7,-3,-30,20179,368,-7872,0,18608,327,-532,217,1389808193.441226
3,74,0,30461,-1,-11,-15,31283,448,-7248,-176,30335,100,-553,-327,1389808193.441228
2,75,0,21778,10,-7,-25,22058,352,-7808,16,21171,329,-538,218,1389808193.441229
3,75,0,32460,5,-2,-11,33160,448,-7280,-144,32914,102,-556,-330,1389808193.441231
2,76,0,23767,8,-4,-34,23935,336,-7792,0,23732,329,-528,223,1389808193.441233
3,76,0,34460,2,3,-13,35038,432,-7296,-160,32914,102,-556,-330,1389808193.441234
2,77,0,25756,6,-2,-26,25813,336,-7824,-16,23732,329,-528,223,1389808193.441237
3,77,0,36459,-6,-5,-10,36917,416,-7184,-176,35491,95,-554,-327,1389808193.441238
2,78,0,27746,14,-10,-29,27690,384,-7856,32,26294,329,-536,216,1389808193.441240
3,78,0,38459,-1,-16,-22,38794,432,-7296,-192,38068,101,-551,-327,1389808193.441242
2,79,0,29735,8,-11,-22,29567,368,-7824,-64,28856,329,-535,217,1389808193.441243
3,123,0,63139,-402,-44,-69,64016,8400,608,528,62641,410,101,-52,1389808193.453506
2,124,0,51139,-314,-1,-57,50853,8096,-336,2400,50729,285,-317,162,1389808193.465776
3,124,0,65138,-311,-45,-67,357,8512,512,528,65218,410,102,-52,1389808193.465786
2,125,0,52133,-295,-13,-56,52732,8128,-304,2416,50729,285,-317,162,1389808193.465991
3,125,0,1602,-201,-56,-58,2234,8496,576,320,65218,410,102,-52,1389808193.465998
2,126,0,54123,-259,-37,-62,54611,8128,-336,2448,53290,286,-321,157,1389808193.483108
3,126,0,3601,-107,-75,-45,4111,8464,512,128,2260,409,102,-46,1389808193.483116
2,127,0,56112,-216,-62,-50,56489,8160,-272,2320,55851,282,-318,161,1389808193.494453
3,127,0,5600,-33,-90,-55,5987,8384,528,-48,4839,409,104,-48,1389808193.494461
2,128,0,58102,-154,-85,-38,58368,8128,-240,2192,58412,285,-314,163,1389808193.506598
3,128,0,7600,-4,-99,-47,7864,8320,512,-240,7417,414,101,-54,1389808193.506613
2,129,0,60091,-92,-95,-24,60246,7888,-240,2080,58412,285,-314,163,1389808193.506944
3,129,0,9599,12,-111,-50,9740,8256,480,-240,7417,414,101,-54,1389808193.506955
2,130,0,62081,-61,-93,-4,62126,7680,-288,2000,60974,285,-321,162,1389808193.524819
3,130,0,11598,25,-85,-29,11616,8256,464,-160,9996,414,101,-43,1389808193.524834
2,131,0,64070,-29,-85,17,64005,7760,-144,2032,63536,281,-315,162,1389808193.531059
3,131,0,12598,33,-71,-22,13024,8240,432,-112,12574,407,104,-47,1389808193.531316
2,132,0,524,18,-57,28,348,7792,-144,2160,560,281,-315,166,1389808193.543050
3,132,0,14597,49,-39,-8,14902,8256,432,-160,15151,407,100,-49,1389808193.543059
2,133,0,2513,62,-28,36,2227,7936,-96,2160,560,281,-315,166,1389808193.555042
3,133,0,16597,106,4,-11,16779,8272,512,-336,15151,407,100,-49,1389808193.555057
2,134,0,3508,89,-21,33,4107,8048,-80,2064,3123,284,-316,162,1389808193.561254
3,134,0,18596,167,25,-13,18657,8288,512,-560,17729,409,102,-43,1389808193.561479
2,135,0,5498,142,-17,41,5987,8096,-96,1776,5685,279,-314,163,1389808193.573614
3,135,0,20596,188,19,-23,20534,8288,384,-800,20308,409,100,-44,1389808193.573665
2,136,0,7487,165,-30,56,7865,8064,-144,1632,5685,279,-314,163,1389808193.585714
3,136,0,22595,191,18,-27,22410,8240,400,-944,20308,409,100,-44,1389808193.585729
2,137,0,9477,162,-41,75,9744,7968,-96,1536,8247,280,-313,166,1389808193.586059
3,137,0,24594,162,6,-32,24287,8320,384,-976,22886,412,100,-51,1389808193.586070
2,138,0,11466,150,-48,76,11623,8000,-80,1568,10809,284,-314,163,1389808193.603483
3,138,0,26594,128,16,-49,26164,8352,464,-832,25465,412,100,-42,1389808193.603492
2,139,0,13456,143,-41,84,13502,7984,-112,1552,13370,283,-316,157,1389808193.615533
3,139,0,27593,117,21,-53,28040,8256,480,-816,28042,404,101,-45,1389808193.615542
2,140,0,15445,142,-32,79,15382,8064,-160,1568,13370,283,-316,157,1389808193.615814
3,140,0,29593,103,34,-57,29917,8240,368,-880,28042,404,101,-45,1389808193.616114
2,141,0,17435,147,-26,67,17261,8080,-80,1456,15931,280,-313,167,1389808193.633359
3,141,0,31592,81,40,-40,31795,8272,336,-928,30620,404,101,-46,1389808193.633367
2,142,0,19424,147,-26,66,19140,7984,-112,1360,18491,284,-312,162,1389808193.645015
3,142,0,33591,63,56,-31,33672,8224,320,-1040,33197,410,95,-48,1389808193.645024
2,143,0,20419,141,-32,58,21018,7904,-96,1360,21053,281,-317,160,1389808193.645277
3,143,0,35591,22,46,-16,35549,8192,320,-1104,35775,410,99,-42,1389808193.657390
2,144,0,22409,115,-31,68,22896,7984,-112,1344,21053,281,-317,160,1389808193.657846
3,144,0,37590,-38,24,-7,37425,8192,320,-1328,35775,410,99,-42,1389808193.657860
2,145,0,24398,78,-14,50,24775,8064,-144,1488,23615,281,-312,167,1389808193.675499
3,145,0,39590,-57,13,-9,39302,8224,400,-1312,38354,405,99,-47,1389808193.675509
2,146,0,26388,44,10,43,26653,8144,-128,1680,26175,286,-311,160,1389808193.675775
3,146,0,41589,-94,4,-30,41178,8304,416,-1040,40933,410,99,-52,1389808193.676018
2,147,0,28377,28,25,34,28532,8144,-160,1760,28736,285,-316,157,1389808193.693576
3,147,0,42589,-110,-4,-60,43055,8448,400,-784,40933,410,99,-52,1389808193.693591
2,148,0,30367,17,33,22,30411,8128,-96,2016,28736,285,-316,157,1389808193.705773
3,148,0,44588,-93,-16,-120,44932,8496,480,-672,43511,413,98,-44,1389808193.705787
2,149,0,32356,10,42,5,32289,8176,-96,2224,31297,283,-315,166,1389808193.706116
3,149,0,46587,-72,-29,-142,46810,8336,464,-560,46090,408,99,-46,1389808193.706127
2,150,0,34346,35,50,6,34168,8080,-32,2256,33858,287,-312,161,1389808193.723874
3,150,0,48587,-50,-20,-128,48687,8272,432,-544,48667,412,95,-52,1389808193.723883
2,151,0,35341,49,50,5,36047,8000,64,2224,33858,287,-312,161,1389808193.735863
3,151,0,50586,-25,-4,-146,50563,8288,496,-608,48667,412,95,-52,1389808193.735878
2,152,0,37330,81,46,10,37927,8032,-16,2096,36419,288,-314,155,1389808193.736214
3,152,0,52585,-5,8,-117,52441,8288,448,-576,51246,415,98,-46,1389808193.736225
2,153,0,39320,110,46,17,39806,8032,-48,2048,38980,286,-312,158,1389808193.754046
3,153,0,54585,29,13,-105,54317,8352,400,-640,53823,408,97,-45,1389808193.754060
2,154,0,41309,112,32,21,41685,8080,-48,2048,41540,285,-310,158,1389808193.766259
3,154,0,56584,53,24,-117,56194,8336,480,-624,56402,413,93,-53,1389808193.766266
2,155,0,43299,118,18,25,43564,8064,-48,2112,41540,285,-310,158,1389808193.766489
3,155,0,57584,45,17,-118,58071,8272,496,-768,56402,413,93,-53,1389808193.766496
2,156,0,45288,127,3,19,45443,8048,-80,2176,44101,288,-315,155,1389808193.783507
3,156,0,59583,44,6,-103,59948,8240,384,-848,58980,415,93,-43,1389808193.783512
2,157,0,47278,147,7,17,47321,8048,-96,2144,46662,285,-314,156,1389808193.794797
3,157,0,61583,72,15,-106,61826,8208,464,-720,61558,410,93,-47,1389808193.794802
2,158,0,49267,166,-8,22,49200,8016,-144,2144,49224,289,-311,160,1389808193.800639
3,158,0,63582,69,18,-115,63703,8256,496,-640,61558,410,93,-47,1389808193.800791
2,159,0,51257,174,-9,31,51078,7968,-176,2048,49224,289,-311,160,1389808193.812542
3,159,0,45,90,23,-123,44,8288,528,-608,64136,410,91,-49,1389808193.812548
2,160,0,52251,181,-13,24,52957,8000,-192,1984,51785,289,-311,153,1389808193.824249
3,160,0,2045,114,30,-121,1922,8368,448,-688,1178,417,87,-45,1389808193.824293
2,161,0,54241,190,-9,32,54835,7968,-304,1968,54345,286,-313,153,1389808193.835565
3,161,0,4044,132,37,-117,3799,8320,528,-704,3757,411,91,-43,1389808193.835569
2,162,0,56230,200,-10,40,56715,8048,-224,1968,56906,286,-313,157,1389808193.835720
3,162,0,6043,152,50,-107,5677,8304,480,-736,3757,411,91,-43,1389808193.835724
2,163,0,58220,207,-24,38,58594,8064,-224,2016,56906,286,-313,157,1389808193.852688
3,163,0,7043,159,60,-111,7554,8272,496,-688,6333,410,88,-50,1389808193.852693
2,164,0,60210,200,-34,45,60473,8176,-192,1952,59466,293,-313,152,1389808193.864437
3,164,0,9042,159,77,-97,9432,8240,496,-672,8911,415,88,-50,1389808193.864441
2,165,0,62199,197,-41,43,62351,8112,-224,1936,62028,285,-316,150,1389808193.875557
3,165,0,11042,184,81,-88,11309,8272,496,-768,11488,414,88,-46,1389808193.875562
2,166,0,64189,197,-48,40,64229,8064,-272,1952,62028,285,-316,150,1389808193.875794
3,166,0,13041,190,76,-83,13187,8224,480,-816,11488,414,88,-46,1389808193.875799
2,167,0,642,195,-55,35,571,7984,-240,1984,64588,283,-313,156,1389808193.893021
3,167,0,15041,195,65,-76,15065,8256,416,-864,14066,410,88,-47,1389808193.893028
2,168,0,2632,205,-44,32,2450,7936,-160,2032,1613,291,-316,150,1389808193.905304
3,168,0,17040,172,68,-81,16942,8272,368,-832,16643,416,86,-53,1389808193.905313
2,169,0,3626,199,-42,27,4329,7936,-256,2016,4174,286,-315,145,1389808193.905560
3,169,0,19039,159,75,-78,18819,8240,448,-688,16643,416,86,-53,1389808193.911726
2,170,0,5616,211,-38,25,6207,7952,-288,2080,4174,286,-315,145,1389808193.923874
3,170,0,21039,168,81,-79,20695,8272,560,-624,19221,418,85,-44,1389808193.923884
2,171,0,7605,219,-32,24,8086,8000,-304,2016,6735,286,-313,150,1389808193.936082
3,171,0,22038,184,75,-83,22572,8352,576,-544,21799,415,86,-48,1389808193.936096
2,172,0,9595,248,-16,21,9965,7968,-272,1952,9297,287,-313,149,1389808193.936414
3,172,0,24038,214,67,-81,24450,8448,640,-736,24378,414,83,-52,1389808193.936425
2,173,0,11584,262,-28,34,11844,8000,-448,1856,11859,284,-317,145,1389808193.953888
3,173,0,26037,259,56,-82,26328,8448,560,-880,24378,414,83,-52,1389808193.953897
2,174,0,13574,257,-38,50,13723,8016,-432,1664,11859,284,-317,145,1389808193.965713
3,174,0,28036,261,53,-77,28204,8400,496,-928,26956,419,84,-46,1389808193.965722
2,175,0,15563,250,-43,70,15602,8000,-304,1680,14420,284,-315,147,1389808193.966004
3,175,0,30036,251,38,-79,30082,8416,512,-1008,29534,412,83,-48,1389808193.966023
2,176,0,17553,244,-49,98,17481,8032,-336,1664,16981,290,-316,150,1389808193.983222
3,176,0,32035,229,29,-86,31958,8384,448,-1024,32113,415,83,-50,1389808193.983232
2,177,0,18548,241,-53,115,19359,7968,-336,1600,16981,290,-316,150,1389808193.994906
3,177,0,34035,207,10,-82,33836,8384,480,-1088,32113,415,83,-50,1389808193.994915
2,178,0,20537,230,-43,112,21238,8048,-304,1632,19542,291,-316,145,1389808194.1121
3,178,0,36034,191,-7,-73,35714,8320,384,-1088,34691,420,82,-42,1389808194.1435
2,179,0,22527,206,-37,120,23116,8016,-304,1680,22102,288,-315,143,1389808194.13113
3,179,0,37034,186,-8,-67,37591,8304,384,-1024,37269,416,83,-42,1389808194.13122
2,180,0,24516,196,-36,116,24994,8032,-272,1712,24663,293,-313,141,1389808194.24769
3,180,0,39033,168,-9,-69,39468,8304,384,-992,37269,416,83,-42,1389808194.24783
2,181,0,26506,185,-40,121,26874,8112,-144,1792,24663,293,-313,141,1389808194.31029
3,181,0,41032,143,-8,-53,41344,8288,352,-928,39848,414,77,-50,1389808194.31283
2,182,0,28495,143,-35,117,28752,8144,-128,1776,27223,294,-316,141,1389808194.42889
3,182,0,43032,134,12,-84,43221,8288,240,-928,42426,416,80,-42,1389808194.42899
2,183,0,30485,126,-46,112,30631,8224,-80,1840,29784,289,-313,143,1389808194.55129
3,183,0,45031,134,27,-74,45098,8208,368,-944,45003,415,83,-41,1389808194.55144
2,184,0,32474,121,-44,98,32510,8144,-96,1872,32344,289,-311,145,1389808194.55382
3,184,0,47030,122,35,-64,46975,8192,304,-944,45003,415,83,-41,1389808194.61574
3,185,0,49030,105,28,-52,48852,8176,304,-1088,47581,414,81,-48,1389808194.73625
2,186,0,35459,135,-39,76,36268,8048,-80,1888,34906,292,-318,139,1389808194.85166
3,186,0,51029,106,46,-41,50728,8192,240,-1104,50160,418,80,-46,1389808194.85214
2,187,0,37448,147,-33,74,38147,8112,-112,1776,37467,292,-312,140,1389808194.85455
3,187,0,52029,96,56,-45,52605,8224,224,-992,52739,417,82,-42,1389808194.91247
2,188,0,39438,144,-32,61,40026,8000,-112,1616,40027,296,-311,143,1389808194.103229
3,188,0,54028,79,45,-51,54482,8224,320,-944,52739,417,82,-42,1389808194.103238
2,189,0,41427,112,-29,47,41905,8064,-64,1632,40027,296,-311,143,1389808194.115400
3,189,0,56028,80,37,-58,56359,8192,224,-912,55317,413,77,-45,1389808194.115409
2,190,0,43417,88,-24,25,43783,8096,-48,1664,42588,296,-317,139,1389808194.115676
3,190,0,58027,78,40,-52,58236,8160,176,-976,57896,417,81,-48,1389808194.115822
2,191,0,45406,77,-9,2,45662,8128,-128,1760,45149,292,-312,136,1389808194.133108
3,191,0,60026,76,39,-60,60113,8144,208,-944,57896,417,81,-48,1389808194.133116
2,192,0,47396,77,-5,-12,47541,8128,-80,1840,45149,292,-312,136,1389808194.145128
3,192,0,62026,62,19,-59,61989,8160,224,-896,60474,420,79,-41,1389808194.145137
2,193,0,49385,104,-8,-33,49420,8032,-80,1824,47710,292,-312,142,1389808194.145336
3,193,0,64025,33,3,-50,63866,8192,192,-896,63051,415,78,-47,1389808194.151074
2,194,0,51375,130,-5,-15,51299,8048,-176,1712,50271,293,-313,141,1389808194.162885
3,194,0,488,44,7,-61,208,8304,224,-880,93,414,78,-49,1389808194.162893
2,195,0,52370,134,3,-19,53178,8112,-160,1600,52832,295,-316,137,1389808194.174980
3,195,0,1488,46,15,-58,2085,8432,192,-832,93,414,78,-49,1389808194.174989
2,196,0,54359,121,-2,-41,55057,8096,-112,1616,52832,295,-316,137,1389808194.181001
3,196,0,3488,58,31,-59,3962,8464,160,-864,2671,420,78,-44,1389808194.181226
2,197,0,56349,109,-3,-46,56936,8128,-96,1664,55393,291,-312,142,1389808194.193211
3,197,0,5487,72,45,-65,5839,8464,80,-880,5248,416,77,-44,1389808194.193221
2,198,0,58338,97,-21,-41,58815,8144,-128,1664,57953,296,-315,140,1389808194.205049
3,198,0,7486,75,41,-71,7716,8256,176,-960,7826,418,78,-50,1389808194.205058
2,199,0,60328,101,-30,-20,60693,8080,-192,1760,60513,293,-317,133,1389808194.205306
3,199,0,9486,101,44,-67,9594,8176,96,-864,7826,418,78,-50,1389808194.216788
2,200,0,62317,98,-34,-18,62572,8096,-176,1760,60513,293,-317,133,1389808194.217060
3,200,0,11485,80,48,-63,11471,8112,160,-800,10404,421,74,-45,1389808194.217067
2,201,0,64307,95,-26,-21,64450,8080,-112,1840,63074,291,-314,141,1389808194.234854
3,201,0,13484,74,51,-57,13347,8144,208,-672,12982,417,74,-44,1389808194.234863
2,202,0,760,109,-24,-32,792,8016,-192,1872,100,291,-313,141,1389808194.241084
3,202,0,15484,102,74,-33,15225,8160,192,-592,12982,417,74,-44,1389808194.241400
2,203,0,1755,112,-19,-37,2671,8032,-240,1888,2662,295,-318,135,1389808194.253053
3,203,0,16483,108,79,-23,17102,8224,256,-544,15561,415,74,-52,1389808194.253062
2,204,0,3745,133,-1,-49,4550,8080,-208,1952,2662,295,-318,135,1389808194.265083
3,204,0,18483,151,94,-15,18978,8288,272,-512,18139,418,76,-47,1389808194.265091
2,205,0,5734,171,19,-56,6428,8032,-320,1888,5222,289,-318,143,1389808194.265267
3,205,0,20482,198,92,-20,20854,8256,352,-624,20716,420,74,-48,1389808194.276959
2,206,0,7724,198,31,-43,8308,8016,-320,1856,7782,293,-315,137,1389808194.277230
3,206,0,22482,237,99,-28,22731,8240,352,-768,20716,420,74,-48,1389808194.277236
2,207,0,9713,210,35,-28,10186,7984,-288,1808,7782,293,-315,137,1389808194.294768
3,207,0,24481,247,87,-24,24608,8304,272,-848,23294,415,72,-50,1389808194.294777
2,208,0,11703,208,39,-26,12064,8032,-336,1824,10343,294,-319,129,1389808194.300851
3,208,0,26480,232,57,-16,26486,8336,352,-928,25871,419,74,-50,1389808194.301114
2,209,0,13692,204,46,-22,13944,7968,-256,1744,12905,291,-318,132,1389808194.313277
3,209,0,28480,227,38,-25,28363,8368,320,-992,28449,421,75,-44,1389808194.313286
2,210,0,15682,197,47,-27,15822,8000,-272,1856,15466,294,-316,133,1389808194.325138
3,210,0,30479,219,22,-34,30240,8336,336,-944,28449,421,75,-44,1389808194.325153
2,211,0,17671,199,50,-18,17700,8064,-240,1936,15466,294,-316,133,1389808194.325462
3,211,0,31479,220,26,-45,32116,8336,304,-944,31027,415,73,-47,1389808194.331537
2,212,0,18666,198,48,-15,19579,8064,-288,1936,18027,295,-320,127,1389808194.343308
3,212,0,33478,226,31,-50,33994,8288,400,-928,33605,421,74,-53,1389808194.343317
2,213,0,20655,195,31,-7,21458,8000,-272,1936,20587,294,-322,125,1389808194.354818
3,213,0,35477,249,35,-57,35870,8320,400,-832,33605,421,74,-53,1389808194.354826
2,214,0,22645,193,19,5,23337,7968,-272,1920,23148,292,-317,131,1389808194.361062
3,214,0,37477,268,41,-66,37747,8368,384,-944,36183,421,75,-45,1389808194.361332
2,215,0,24635,239,9,21,25216,7888,-240,1920,23148,292,-317,131,1389808194.373386
3,215,0,39476,290,45,-71,39624,8320,400,-1104,38760,418,73,-49,1389808194.373395
2,216,0,26624,267,6,48,27096,7888,-256,1824,25709,289,-323,125,1389808194.384334
3,216,0,41476,303,44,-69,41500,8256,304,-1184,41338,418,71,-50,1389808194.384342
2,217,0,28614,281,13,70,28975,7936,-288,1792,28267,289,-323,125,1389808194.396499
3,217,0,43475,296,46,-71,43377,8240,384,-1200,41338,418,71,-50,1389808194.396507
2,218,0,30603,285,1,47,30384,8000,-208,1696,30827,296,-319,127,1389808194.396711
3,218,0,45474,290,32,-76,45255,8192,368,-1184,43916,423,74,-45,1389808194.396715
2,219,0,32593,280,5,46,32732,8064,-256,1632,30827,296,-319,127,1389808194.414530
3,219,0,46474,284,27,-82,47131,8240,256,-1232,46494,419,71,-43,1389808194.414539
2,220,0,34582,264,1,44,34611,8080,-240,1600,33386,296,-322,124,1389808194.426427
3,220,0,48473,272,12,-92,49008,8304,336,-1152,49072,417,72,-50,1389808194.426436
2,221,0,35577,246,-2,42,36490,8048,-208,1712,35946,293,-325,120,1389808194.426764
3,221,0,50473,255,26,-80,50885,8304,304,-1168,49072,417,72,-50,1389808194.426772
2,222,0,37566,224,-8,44,38369,8032,-304,1728,35946,293,-325,120,1389808194.444398
3,222,0,52472,248,39,-87,52762,8352,352,-1248,51651,427,69,-40,1389808194.444408
2,223,0,39556,196,-2,41,39778,8016,-208,1808,38507,295,-319,123,1389808194.456784
3,223,0,54472,244,53,-104,54638,8304,288,-1360,54228,419,69,-42,1389808194.456799
2,224,0,41545,188,-3,28,41657,8000,-240,1792,41069,299,-322,119,1389808194.457123
3,224,0,56471,233,55,-113,56515,8352,352,-1328,54228,419,69,-42,1389808194.457134
2,225,0,43535,190,9,28,43536,8032,-272,1792,43629,296,-323,114,1389808194.475178
3,225,0,58470,219,59,-114,58392,8240,256,-1296,56806,418,67,-52,1389808194.475187
2,226,0,45524,196,24,16,45415,8128,-208,1728,43629,296,-323,114,1389808194.475433
3,226,0,60470,204,55,-104,60269,8192,256,-1248,59384,424,66,-43,1389808194.481703
2,227,0,47514,194,34,24,47294,8080,-336,1728,46191,296,-320,122,1389808194.493863
3,227,0,61469,191,57,-95,62146,8096,224,-1200,61963,421,66,-43,1389808194.493872
2,228,0,49504,195,24,8,49173,8160,-448,1744,48752,297,-322,118,1389808194.505951
3,228,0,63469,186,72,-85,64023,8048,256,-1056,61963,421,66,-43,1389808194.505959
2,229,0,51493,205,14,-47,51053,8192,-304,1760,51314,297,-324,109,1389808194.506225
3,229,0,65468,198,79,-89,365,8160,272,-864,64542,426,66,-47,1389808194.506231
2,230,0,52488,215,1,-80,52933,8096,-336,1856,51314,297,-324,109,1389808194.523697
3,230,0,1931,203,97,-77,2242,8288,240,-800,1584,426,66,-46,1389808194.523703
2,231,0,54477,208,-18,-119,54811,8000,-320,1824,53875,298,-324,117,1389808194.534691
3,231,0,3931,235,116,-69,4118,8368,256,-768,4160,416,63,-45,1389808194.534697
2,232,0,56467,219,-29,-149,56690,7952,-400,1824,56436,298,-324,116,1389808194.545907
3,232,0,5930,273,126,-85,5996,8432,272,-736,4160,416,63,-45,1389808194.545912
2,233,0,58456,248,-13,-168,58569,7904,-320,1808,56436,298,-324,116,1389808194.546108
3,233,0,7930,297,128,-81,7873,8448,224,-800,6736,416,64,-46,1389808194.546111
2,234,0,60446,266,0,-157,60448,7904,-384,1856,58997,296,-328,111,1389808194.563056
3,234,0,9929,315,112,-84,9749,8304,208,-768,9314,424,63,-49,1389808194.563064
2,235,0,62435,284,9,-134,62327,8016,-432,1888,61557,292,-324,112,1389808194.574012
3,235,0,10929,323,102,-82,11627,8224,224,-736,9314,424,63,-49,1389808194.574030
2,236,0,64425,299,10,-137,64206,7984,-432,1968,64117,293,-328,112,1389808194.585417
3,236,0,12928,331,84,-87,13504,8336,256,-704,11891,424,62,-45,1389808194.585427
2,237,0,878,301,11,-149,550,7936,-320,1904,64117,293,-328,112,1389808194.585660
3,237,0,14927,373,65,-95,15382,8560,224,-672,14469,421,62,-46,1389808194.585886
2,238,0,1873,315,14,-151,2429,7824,-368,1792,1142,293,-331,104,1389808194.603896
3,238,0,16927,435,33,-125,17259,8640,192,-864,17046,421,59,-52,1389808194.603906
2,239,0,3863,336,23,-142,4307,7808,-400,1584,3703,291,-334,109,1389808194.616078
3,239,0,18926,492,17,-174,19136,8608,160,-1040,17046,421,59,-52,1389808194.616087
2,240,0,5852,328,30,-121,6187,7840,-320,1536,6264,292,-334,109,1389808194.616354
3,240,0,20926,510,8,-204,21013,8544,96,-1344,19624,422,59,-42,1389808194.616360
2,241,0,7842,342,28,-97,8066,8016,-304,1424,6264,292,-334,109,1389808194.634313
3,241,0,22925,513,17,-225,22890,8368,160,-1408,22203,422,58,-44,1389808194.634322
2,242,0,9831,341,19,-73,9944,8160,-304,1184,8825,294,-341,102,1389808194.646391
3,242,0,24924,520,4,-232,24767,8272,144,-1584,24780,425,55,-45,1389808194.646400
2,243,0,11821,333,7,-30,11824,8224,-352,1088,11387,290,-333,101,1389808194.646698
3,243,0,25924,525,4,-245,26644,8144,160,-1776,24780,425,55,-45,1389808194.646703
2,244,0,13810,274,-45,-16,13704,8240,-320,1184,13948,290,-336,106,1389808194.664566
3,244,0,27923,545,-6,-293,28521,7984,32,-2000,27358,425,53,-38,1389808194.664575
2,245,0,15800,217,-87,16,15583,8240,-208,1328,13948,290,-336,106,1389808194.676191
3,245,0,29923,511,-3,-238,30397,8000,-176,-2096,29936,425,50,-38,1389808194.676200
2,246,0,17789,187,-108,21,17463,8208,-176,1424,16508,294,-341,99,1389808194.676470
3,246,0,31922,420,-7,-160,32274,7984,-288,-1904,29936,425,50,-38,1389808194.676477
2,247,0,18784,184,-124,27,19342,8160,-240,1360,19069,291,-337,97,1389808194.694416
3,247,0,33921,321,-18,-128,34152,8128,-352,-1472,32514,425,51,-41,1389808194.694425
2,248,0,20774,191,-149,51,21221,8240,-352,1312,19069,291,-337,97,1389808194.706499
3,248,0,35921,247,-41,-113,36029,8192,-384,-1024,35092,424,50,-41,1389808194.706508
2,249,0,22763,181,-174,61,23101,8256,-368,1280,21630,288,-337,104,1389808194.706780
3,249,0,37920,231,-47,-126,37906,8240,-368,-640,37670,424,46,-38,1389808194.706786
2,250,0,24753,161,-178,84,24980,8256,-432,1296,24191,296,-336,100,1389808194.723973
3,250,0,39920,230,-73,-109,39783,8304,-384,-416,37670,424,46,-38,1389808194.723982
2,251,0,26742,156,-197,102,26859,8144,-432,1344,26751,291,-336,101,1389808194.735801
3,251,0,40919,239,-85,-91,41660,8400,-432,-192,40247,426,48,-41,1389808194.735816
2,252,0,28732,161,-206,115,28738,8000,-432,1472,26751,291,-336,101,1389808194.736095
3,252,0,42919,287,-91,-78,43537,8576,-304,-144,42826,425,45,-40,1389808194.736106
2,253,0,30721,199,-208,147,30617,8032,-368,1664,29313,290,-332,104,1389808194.754097
3,253,0,44918,356,-72,-63,45414,8880,-432,-208,45403,427,47,-33,1389808194.754107
2,254,0,32711,241,-200,169,32496,8128,-320,1680,31874,292,-335,101,1389808194.766190
3,254,0,46917,388,-8,-67,47291,9040,-176,-592,45403,427,47,-33,1389808194.766198
2,255,0,34700,283,-176,177,34376,8240,-304,1616,34435,294,-333,99,1389808194.766465
3,255,0,48917,443,65,-37,49167,8992,-240,-736,47981,422,45,-35,1389808194.766472
2,0,0,35695,304,-170,181,36255,8240,-240,1408,34435,294,-333,99,1389808194.784617
3,0,0,50916,483,127,-30,51044,8720,-240,-848,50558,429,45,-37,1389808194.784631
2,1,0,37685,323,-164,194,38135,8224,-240,1168,36995,290,-331,109,1389808194.796746
3,1,0,52916,488,142,-34,52922,8544,-304,-1104,50558,429,45,-37,1389808194.796755
2,2,0,39674,314,-174,193,40013,8208,-160,1152,39555,296,-331,104,1389808194.796976
3,2,0,54915,485,153,-63,54798,8272,-336,-1504,53136,429,42,-30,1389808194.796980
2,3,0,41664,280,-181,199,41892,8112,-128,1120,42115,296,-333,99,1389808194.814444
3,3,0,55915,473,152,-73,56674,8112,-336,-1600,55714,420,40,-37,1389808194.814453
2,4,0,43653,238,-183,187,43772,7984,-64,1248,42115,296,-333,99,1389808194.826763
3,4,0,57914,421,126,-99,58552,7968,-416,-1664,58292,427,41,-43,1389808194.826778
2,5,0,45643,227,-174,180,45651,7904,-64,1280,44675,291,-329,106,1389808194.827099
3,5,0,59913,349,88,-104,60429,8032,-464,-1472,58292,427,41,-43,1389808194.827110
2,6,0,47632,234,-155,183,47530,7872,-16,1376,47236,296,-326,105,1389808194.844936
3,6,0,61913,279,57,-121,62306,8000,-496,-1152,60870,430,38,-34,1389808194.844988
2,7,0,49622,259,-134,173,49410,7968,-96,1424,47236,296,-326,105,1389808194.850512
3,7,0,63912,241,39,-126,64183,8000,-448,-832,63447,423,40,-38,1389808194.850703
2,8,0,50616,274,-115,173,51289,8064,-144,1408,49796,298,-330,101,1389808194.862082
3,8,0,375,239,21,-149,523,8064,-512,-624,489,425,38,-37,1389808194.862090
2,9,0,52606,292,-96,167,53168,8128,-176,1296,52356,293,-331,104,1389808194.874118
3,9,0,2375,276,-9,-168,2400,8032,-544,-448,489,425,38,-37,1389808194.874127
2,10,0,54596,323,-80,164,55046,8192,-240,1184,54918,299,-325,106,1389808194.885823
3,10,0,4374,325,-24,-190,4277,8096,-480,-480,3067,430,33,-32,1389808194.885832
2,11,0,56585,329,-72,159,56925,8128,-288,1120,54918,299,-325,106,1389808194.886101
3,11,0,5374,343,-33,-194,6153,8032,-512,-544,5645,424,32,-32,1389808194.886108
2,12,0,58575,338,-74,153,58804,8112,-224,1104,57479,301,-329,96,1389808194.904074
3,12,0,7373,366,-47,-196,8030,8000,-560,-560,5645,424,32,-32,1389808194.904083
2,13,0,60564,359,-71,153,60682,8144,-336,1040,60041,299,-329,98,1389808194.915685
3,13,0,9373,369,-60,-187,9907,7888,-528,-448,8224,427,34,-38,1389808194.915694
2,14,0,62554,374,-68,144,62561,8176,-336,912,62601,303,-324,104,1389808194.915964
3,14,0,11372,360,-59,-162,11784,7808,-496,-224,10801,431,30,-30,1389808194.915970
2,15,0,64543,377,-82,136,64440,8208,-288,800,62601,303,-324,104,1389808194.933749
3,15,0,13371,372,-54,-155,13661,7840,-512,-112,13378,428,32,-28,1389808194.933758
2,16,0,997,368,-88,130,782,8208,-320,704,65163,303,-325,92,1389808194.945246
3,16,0,15371,412,-44,-145,15539,7872,-544,-192,13378,428,32,-28,1389808194.945255
2,17,0,1991,363,-95,129,2661,8224,-384,720,2188,295,-325,94,1389808194.945498
3,17,0,17370,465,-21,-128,17416,7904,-624,-352,15956,429,29,-34,1389808194.951691
2,18,0,3981,355,-105,131,4540,8240,-320,736,4750,300,-323,101,1389808194.963787
3,18,0,19370,461,-9,-95,19293,7888,-624,-416,18534,432,30,-29,1389808194.963796
2,19,0,5970,346,-109,114,6418,8192,-288,816,4750,300,-323,101,1389808194.976099
3,19,0,20369,446,-2,-73,21170,7792,-640,-400,21110,431,25,-26,1389808194.976109
2,20,0,7960,359,-114,114,8296,8192,-192,880,7311,300,-321,93,1389808194.976322
3,20,0,22369,434,15,-45,23047,7696,-640,-432,21110,431,25,-26,1389808194.976328
2,21,0,9950,365,-126,102,10176,8160,-144,960,9871,302,-325,90,1389808194.993773
3,21,0,24368,434,31,-32,24924,7744,-592,-448,23687,428,27,-30,1389808194.993788
2,22,0,11939,374,-130,101,12054,8112,-240,1120,9871,302,-325,90,1389808195.5961
3,22,0,26367,421,16,-23,26800,7792,-672,-368,26264,433,26,-33,1389808195.5970
2,23,0,13929,390,-120,73,13933,8064,-112,1232,12433,297,-326,100,1389808195.6236
3,23,0,28367,421,-12,-21,28678,7824,-736,-256,26264,433,26,-33,1389808195.6243
2,24,0,15918,424,-106,70,15812,8016,-112,1280,14995,302,-326,94,1389808195.24256
3,24,0,30366,425,-43,-10,30555,7808,-768,-208,28843,429,24,-24,1389808195.24264
2,25,0,17908,473,-92,75,17690,7872,-192,1216,17557,303,-327,89,1389808195.36355
3,25,0,32365,451,-55,-19,32432,7872,-688,-224,31420,426,25,-29,1389808195.36370
2,26,0,18902,502,-90,74,19569,7856,-208,1184,17557,303,-327,89,1389808195.36842
3,26,0,34365,486,-58,-60,34309,7904,-624,-288,33999,429,27,-28,1389808195.36857
2,27,0,20892,550,-82,82,21447,7808,-256,1088,20118,299,-326,92,1389808195.54911
3,27,0,35365,512,-70,-90,36185,7936,-624,-384,33999,429,27,-28,1389808195.54925
2,28,0,22881,595,-80,91,23326,7904,-304,992,22679,304,-323,87,1389808195.61239
3,28,0,37364,536,-84,-124,38062,7872,-544,-384,36577,433,23,-20,1389808195.61461
2,29,0,24871,616,-75,106,25204,7952,-320,880,25239,300,-325,79,1389808195.73542
3,29,0,39363,547,-64,-115,39939,7888,-432,-400,39154,427,22,-23,1389808195.73551
2,30,0,26860,629,-73,105,27083,8048,-352,640,25239,300,-325,79,1389808195.85333
3,30,0,41363,554,-39,-106,41817,7952,-448,-464,41731,432,20,-25,1389808195.85342
2,31,0,28850,614,-86,84,28960,8144,-336,560,27800,300,-327,86,1389808195.85583
3,31,0,43362,567,-3,-83,43694,8064,-464,-512,41731,432,20,-25,1389808195.85847
2,32,0,30839,584,-104,69,30839,8192,-304,608,30361,305,-325,84,1389808195.103651
3,32,0,45361,583,15,-49,45571,8080,-480,-640,44309,433,18,-18,1389808195.103661
2,33,0,32829,551,-129,66,32717,8160,-320,576,30361,305,-325,84,1389808195.115793
3,33,0,47361,562,11,-22,47449,8080,-528,-832,46887,424,17,-17,1389808195.115802
2,34,0,33824,532,-131,60,34594,8032,-336,400,32921,304,-329,74,1389808195.116035
3,34,0,49360,535,-6,4,49326,8128,-592,-960,46887,424,17,-17,1389808195.116040
2,35,0,35813,516,-124,67,36473,7888,-400,304,35481,299,-329,74,1389808195.133238
3,35,0,50360,519,-12,18,51204,8128,-672,-928,49466,431,20,-23,1389808195.133247
2,36,0,37803,474,-113,68,38352,7872,-432,288,38041,308,-328,81,1389808195.145177
3,36,0,52359,471,-22,29,53081,8112,-656,-800,52044,433,18,-13,1389808195.145186
2,37,0,39792,432,-101,57,40231,8016,-320,352,38041,308,-328,81,1389808195.145430
3,37,0,54359,425,-51,39,54958,8064,-752,-624,54622,428,20,-14,1389808195.151514
2,38,0,41782,389,-93,52,42109,8208,-304,496,40602,304,-331,72,1389808195.163662
3,38,0,56358,381,-58,46,56835,8032,-768,-432,54622,428,20,-14,1389808195.163671
2,39,0,43771,355,-119,40,43988,8336,-256,752,43162,303,-330,75,1389808195.175801
3,39,0,58357,359,-61,55,58712,8128,-800,-208,57200,427,22,-18,1389808195.175810
2,40,0,45761,352,-156,33,45867,8480,-224,912,45724,303,-329,78,1389808195.176063
3,40,0,60357,381,-49,51,60590,8208,-880,-160,59778,433,20,-15,1389808195.176071
2,41,0,47750,390,-185,23,47746,8592,-96,1072,45724,303,-329,78,1389808195.194133
3,41,0,62356,415,-16,36,62467,8304,-752,-128,62355,429,20,-11,1389808195.194142
2,42,0,49740,409,-235,30,49626,8608,-176,1184,48284,308,-333,70,1389808195.206279
3,42,0,64356,444,26,57,64345,8240,-736,-160,62355,429,20,-11,1389808195.206294
2,43,0,50735,413,-256,22,51506,8576,16,1120,50845,303,-333,75,1389808195.206620
3,43,0,65355,461,49,86,687,8336,-928,-448,64934,428,20,-13,1389808195.206631
2,44,0,52724,468,-270,11,53384,8640,0,880,53406,307,-332,78,1389808195.224790
3,44,0,1819,516,96,161,2564,8432,-1088,-640,1975,433,22,-16,1389808195.224799
2,45,0,54714,501,-286,31,55264,8656,-48,864,53406,307,-332,78,1389808195.230686
3,45,0,3818,539,145,187,4441,8528,-1104,-784,1975,433,22,-16,1389808195.230934
2,46,0,56703,510,-300,23,57142,8784,-64,880,55967,307,-335,73,1389808195.242627
3,46,0,5817,536,158,212,6319,8656,-1120,-848,4553,432,25,-10,1389808195.242637
2,47,0,58693,493,-306,-6,59021,8896,-128,864,58529,304,-334,75,1389808195.254472
3,47,0,7817,498,132,205,8196,8720,-1088,-720,7131,428,26,-16,1389808195.254482
2,48,0,60682,478,-297,-1,60900,9040,-48,848,58529,304,-334,75,1389808195.266737
3,48,0,9816,489,74,167,10074,8928,-1088,-640,9709,432,27,-20,1389808195.266746
2,49,0,62672,501,-268,-1,62779,9120,-208,704,61090,305,-334,79,1389808195.267016
3,49,0,11816,522,47,159,11951,9328,-1056,-784,9709,432,27,-20,1389808195.267023
2,50,0,64661,518,-227,15,64659,9120,-400,320,63652,303,-335,72,1389808195.284713
3,50,0,13815,513,33,94,13828,9968,-816,-1360,12287,431,22,-11,1389808195.284728
2,51,0,1115,461,-179,60,1002,9264,-640,128,677,299,-333,67,1389808195.290816
3,51,0,14815,533,34,59,15705,10880,-640,-2416,14865,427,27,-14,1389808195.291067
2,52,0,2110,403,-153,72,2881,9648,-816,96,677,299,-333,67,1389808195.303235
3,52,0,16814,591,104,0,17582,11520,-80,-3248,17443,430,27,-21,1389808195.303250
2,53,0,4099,240,-86,109,4760,10240,-848,176,3238,299,-334,76,1389808195.315565
3,53,0,18813,498,268,33,19458,11744,512,-4160,17443,430,27,-21,1389808195.315573
2,54,0,6089,18,-29,87,6640,10640,-560,336,5798,305,-331,72,1389808195.315812
3,54,0,20813,310,387,169,21336,11472,176,-4512,20021,432,27,-15,1389808195.315819
2,55,0,8078,-189,15,25,8519,10560,-336,592,8360,301,-333,70,1389808195.333980
3,55,0,22812,80,325,100,23212,10896,-416,-4400,22599,428,26,-20,1389808195.333989
2,56,0,10068,-376,30,-7,10399,10032,-64,960,8360,301,-333,70,1389808195.345940
3,56,0,24811,-147,156,-146,25089,10048,-448,-4176,22599,428,26,-20,1389808195.345949
2,57,0,12057,-528,36,-36,12279,9344,128,1488,10921,304,-330,83,1389808195.346158
3,57,0,26811,-348,-8,-272,26966,9168,-576,-3872,25176,428,24,-23,1389808195.346202
2,58,0,14047,-628,36,-49,14158,8896,80,2080,13482,304,-328,79,1389808195.364105
3,58,0,28810,-529,-155,-274,28843,8512,-640,-3152,27755,433,23,-24,1389808195.364129
2,59,0,16036,-649,59,-45,16037,8816,224,2640,16044,297,-326,76,1389808195.375962
3,59,0,29810,-608,-225,-274,30720,8224,-320,-2080,30332,430,20,-21,1389808195.375971
2,60,0,17031,-628,73,-45,17916,8976,336,3104,16044,297,-326,76,1389808195.376240
3,60,0,31809,-703,-298,-258,32597,8080,-128,-1136,30332,430,20,-21,1389808195.376246
2,61,0,19021,-482,93,-38,19796,9360,416,3360,18604,297,-327,89,1389808195.394229
3,61,0,33809,-700,-238,-209,34473,8128,-272,-352,32909,428,22,-23,1389808195.394243
2,62,0,21010,-357,127,-58,21675,9232,512,3424,21166,306,-328,85,1389808195.405725
3,62,0,35808,-579,-170,-100,36350,7872,-416,368,35487,433,19,-21,1389808195.405734
2,63,0,23000,-267,128,-98,23554,8752,624,3216,21166,306,-328,85,1389808195.406002
3,63,0,37807,-324,-142,2,38226,7328,-432,896,38066,430,20,-18,1389808195.406009
2,64,0,24989,-84,90,-128,25434,8176,640,2816,23727,302,-330,80,1389808195.424047
3,64,0,39807,-38,-173,72,40102,6560,-144,816,38066,430,20,-18,1389808195.424062
2,65,0,26979,156,97,-159,27313,7488,464,2496,26287,298,-327,85,1389808195.436208
3,65,0,41806,219,-180,113,41979,5776,128,80,40644,427,24,-18,1389808195.436216
2,66,0,28968,318,152,-202,29192,6896,368,2176,28848,301,-330,80,1389808195.436484
3,66,0,43806,475,-139,180,43856,5440,160,-896,43222,433,24,-17,1389808195.436490
2,67,0,30958,387,178,-173,31072,6704,144,2016,28848,301,-330,80,1389808195.454532
3,67,0,44805,567,-108,168,45733,5680,368,-1984,43222,433,24,-17,1389808195.454547
2,68,0,32947,319,154,-159,32951,6624,-32,2240,31408,305,-333,74,1389808195.466492
3,68,0,46805,568,-76,122,47610,6256,416,-3056,45800,432,24,-9,1389808195.466501
2,69,0,33942,247,128,-158,34831,6368,-160,2688,33970,298,-331,73,1389808195.466798
3,69,0,48804,497,-40,112,49486,7152,752,-3952,48378,426,24,-13,1389808195.466814
2,70,0,35932,95,102,-150,36711,5856,-176,3152,36531,303,-334,75,1389808195.484320
3,70,0,50803,286,12,93,51363,7664,1184,-4304,50955,429,25,-12,1389808195.484329
2,71,0,37921,-42,113,-120,38591,5552,-256,3632,36531,303,-334,75,1389808195.495971
3,71,0,52803,62,93,135,53240,7728,1728,-4112,50955,429,25,-12,1389808195.495980
2,72,0,39911,-106,157,-78,40470,5408,-384,4208,39090,301,-332,67,1389808195.496247
3,72,0,54802,-91,133,207,55117,7792,1984,-3264,53533,433,27,-10,1389808195.496254
2,73,0,41900,-85,232,-38,42349,5648,-384,4512,41651,301,-334,64,1389808195.513665
3,73,0,56802,-172,104,267,56994,8208,1984,-2384,56111,424,29,-17,1389808195.513673
2,74,0,43890,48,336,23,43758,5984,-416,4512,44211,303,-334,73,1389808195.525707
3,74,0,58801,-70,68,225,58871,8624,2192,-1936,58687,429,31,-19,1389808195.525717
2,75,0,45879,230,421,84,46107,6896,-512,4400,44211,303,-334,73,1389808195.525987
3,75,0,59801,0,55,211,60748,8896,1936,-1984,58687,429,31,-19,1389808195.525993
2,76,0,47869,417,484,98,47987,7728,-464,4064,46773,307,-330,59,1389808195.543965
3,76,0,61800,128,50,194,62625,8880,1584,-2336,61265,426,31,-16,1389808195.543974
2,77,0,49858,540,522,60,49866,8400,-480,3728,49333,304,-332,56,1389808195.556062
3,77,0,63799,206,27,123,64501,8608,1392,-2416,63842,426,32,-15,1389808195.556071
2,78,0,50853,572,524,51,51275,8784,-448,3376,49333,304,-332,56,1389808195.556338
3,78,0,263,221,-61,95,841,8288,1136,-2256,63842,426,32,-15,1389808195.556344
2,79,0,52842,602,471,14,53154,9040,-576,2848,51894,306,-334,51,1389808195.573937
3,79,0,2262,215,-184,43,2718,8144,1088,-2048,883,430,35,-16,1389808195.573951
2,80,0,54832,569,406,-18,55033,9248,-720,2272,54454,309,-332,41,1389808195.586094
3,80,0,4262,247,-266,-11,4594,7984,1088,-1904,3460,430,34,-7,1389808195.586109
2,81,0,56821,531,355,-85,56912,9248,-976,1680,57015,307,-335,34,1389808195.586389
3,81,0,6261,269,-296,-29,6471,7920,1072,-1968,6038,425,33,-9,1389808195.586400
2,82,0,58811,478,337,-147,58791,9440,-1040,1216,57015,307,-335,34,1389808195.604515
3,82,0,8260,280,-252,8,8348,8016,1152,-2256,6038,425,33,-9,1389808195.604567
2,83,0,60801,382,312,-219,60671,9456,-1248,944,59576,304,-337,33,1389808195.616329
3,83,0,9260,265,-219,16,10225,8176,1136,-2544,8617,425,34,-11,1389808195.616338
2,84,0,62790,200,268,-368,62550,9024,-1184,704,62137,314,-340,28,1389808195.616610
3,84,0,11259,203,-134,18,12103,8176,1152,-2608,11193,426,36,-5,1389808195.616617
2,85,0,64780,-7,211,-483,64429,8400,-976,544,64698,306,-344,21,1389808195.634078
3,85,0,13259,120,-51,61,13979,8016,1072,-2464,13772,426,34,-2,1389808195.634087
2,86,0,238,-97,189,-501,772,7904,-864,544,64698,306,-344,21,1389808195.645484
3,86,0,15258,25,8,90,15856,7696,1024,-2144,13772,426,34,-2,1389808195.645492
2,87,0,2228,-262,151,-452,2650,7424,-960,656,1722,308,-347,27,1389808195.645756
3,87,0,17257,-30,43,124,17733,7456,960,-1968,16350,429,38,-7,1389808195.645762
2,88,0,4217,-346,152,-422,4529,7120,-912,768,4282,308,-349,25,1389808195.663311
3,88,0,19257,-90,60,133,19611,7296,944,-1616,18929,429,38,-6,1389808195.663320
2,89,0,6207,-413,187,-463,6407,6912,-992,912,4282,308,-349,25,1389808195.675446
3,89,0,21256,-126,61,133,21487,7360,1024,-1440,18929,429,38,-6,1389808195.675456
2,90,0,8196,-482,229,-465,8286,6768,-976,1088,6843,302,-351,22,1389808195.675677
3,90,0,23256,-126,70,128,23365,7536,1088,-1328,21508,422,35,-1,1389808195.675927
2,91,0,10186,-483,257,-446,10166,6816,-976,1136,9404,296,-352,27,1389808195.693831
3,91,0,24255,-118,83,118,25242,7856,1072,-1264,24085,422,40,-8,1389808195.693840
2,92,0,12175,-443,279,-393,12045,6960,-960,1104,11965,298,-356,30,1389808195.705924
3,92,0,26255,-95,118,117,26650,7984,944,-1344,26664,427,45,-11,1389808195.705933
2,93,0,14165,-389,278,-322,13923,7056,-1184,1088,11965,298,-356,30,1389808195.706203
3,93,0,28254,-108,156,123,28527,8160,912,-1376,26664,427,45,-11,1389808195.706209
2,94,0,16155,-335,267,-264,15803,6992,-1248,992,14526,301,-359,27,1389808195.723689
3,94,0,30253,-131,166,115,30404,8176,912,-1216,29243,427,43,-11,1389808195.723699
2,95,0,17149,-309,255,-241,17682,6912,-1264,800,17088,293,-359,29,1389808195.735742
3,95,0,32253,-175,158,87,32280,8256,720,-1120,31821,425,45,-12,1389808195.735750
2,96,0,19139,-227,230,-209,19562,7024,-1280,848,19649,295,-360,27,1389808195.736014
3,96,0,34252,-206,107,97,34156,8192,704,-880,34399,425,43,-18,1389808195.736021
2,97,0,21128,-163,198,-193,21441,7056,-1264,736,19649,295,-360,27,1389808195.754093
3,97,0,36252,-199,72,110,36033,8144,800,-752,34399,425,43,-18,1389808195.754101
2,98,0,23118,-107,171,-172,23321,7104,-1168,656,22210,298,-364,23,1389808195.766311
3,98,0,38251,-171,60,102,37910,8080,784,-832,36976,425,45,-13,1389808195.766320
2,99,0,25107,-53,137,-127,25199,7104,-1296,528,24772,293,-361,26,1389808195.766549
3,99,0,39251,-155,63,81,39787,8016,800,-912,39554,425,51,-15,1389808195.766556
2,100,0,27097,-47,118,-81,27078,7088,-1360,336,27333,293,-360,27,1389808195.783914
3,100,0,41250,-155,71,73,41665,8064,816,-944,39554,425,51,-15,1389808195.783923
2,101,0,29086,-89,104,-50,28957,6896,-1424,144,27333,293,-360,27,1389808195.795984
3,101,0,43249,-169,86,64,43542,8112,784,-1008,42132,423,49,-20,1389808195.795993
2,102,0,31076,-149,107,8,30835,6816,-1344,80,29894,296,-364,23,1389808195.796212
3,102,0,45249,-215,113,59,45419,8160,752,-992,44709,429,47,-14,1389808195.796219
2,103,0,33065,-239,109,33,32715,6976,-1312,80,32456,292,-361,21,1389808195.814254
3,103,0,47248,-260,159,37,47296,8160,656,-976,47287,423,52,-18,1389808195.814263
2,104,0,34060,-278,104,39,34593,7168,-1296,96,32456,292,-361,21,1389808195.825889
3,104,0,49248,-293,179,20,49173,8144,640,-928,47287,423,52,-18,1389808195.825899
2,105,0,36050,-323,82,54,36471,7472,-1216,128,35016,294,-361,31,1389808195.826165
3,105,0,51247,-317,182,-1,51050,8128,672,-816,49865,422,53,-26,1389808195.826172
2,106,0,38039,-339,58,98,38349,7632,-1168,224,37577,300,-357,25,1389808195.843244
3,106,0,53246,-304,183,-19,52927,8048,704,-768,52443,426,50,-26,1389808195.843253
2,107,0,40029,-324,36,141,40229,7648,-1136,160,40138,295,-356,27,1389808195.855378
3,107,0,54246,-303,186,-30,54804,8096,640,-960,55020,426,50,-24,1389808195.855387
2,108,0,42018,-286,20,186,42109,7728,-1232,96,40138,295,-356,27,1389808195.855673
3,108,0,56245,-302,193,-44,56681,8032,608,-1152,55020,426,50,-24,1389808195.855920
2,109,0,44008,-258,31,158,43989,7520,-1104,-48,42698,295,-352,32,1389808195.874017
3,109,0,58245,-325,184,-66,58558,8080,464,-1184,57598,422,49,-32,1389808195.874026
2,110,0,45997,-242,69,137,45868,7360,-1136,-320,45259,303,-353,27,1389808195.886080
3,110,0,60244,-369,169,-94,60434,7984,416,-1296,60175,427,49,-33,1389808195.886095
2,111,0,47987,-275,112,181,47747,7280,-1328,-576,47820,303,-348,24,1389808195.886423
3,111,0,62244,-459,132,-116,62311,7840,464,-1232,60175,427,49,-33,1389808195.886434
2,112,0,48982,-315,122,196,49627,7232,-1296,-688,47820,303,-348,24,1389808195.904805
3,112,0,64243,-562,106,-112,64187,7712,528,-1104,62752,425,46,-33,1389808195.904820
2,113,0,50971,-402,119,229,51507,7280,-1200,-592,50380,297,-349,33,1389808195.911107
3,113,0,706,-626,83,-87,528,7744,736,-960,65330,423,49,-38,1389808195.911357
2,114,0,52961,-451,95,332,53386,7568,-1504,-448,52941,305,-344,29,1389808195.923445
3,114,0,2706,-711,67,-57,2404,7808,864,-768,2372,425,47,-44,1389808195.923453
2,115,0,54950,-545,80,432,55264,7920,-1472,-48,55501,305,-340,31,1389808195.935116
3,115,0,4705,-784,39,-35,4281,8000,880,-400,2372,425,47,-44,1389808195.935125
2,116,0,56940,-667,95,376,57144,8144,-1344,896,55501,305,-340,31,1389808195.935321
3,116,0,5705,-792,16,-18,6157,8224,784,16,4950,428,49,-38,1389808195.941452
2,117,0,58929,-669,107,231,59023,8352,-1056,1776,58061,301,-336,37,1389808195.953771
3,117,0,7704,-749,15,3,8033,8400,688,128,7528,419,48,-45,1389808195.953780
2,118,0,60919,-615,112,74,60901,8528,-624,2160,60622,309,-336,40,1389808195.965883
3,118,0,9704,-652,68,23,9910,8448,448,112,10105,427,52,-48,1389808195.965891
2,119,0,62908,-567,122,-80,62780,8544,-416,2416,60622,309,-336,40,1389808195.966080
3,119,0,11703,-534,114,9,11787,8464,336,224,10105,427,52,-48,1389808195.966085
2,120,0,64898,-478,111,-105,64660,8672,-800,2704,63183,308,-337,39,1389808195.983834
3,120,0,13702,-370,169,2,13664,8368,736,160,12683,427,49,-45,1389808195.983842
2,121,0,357,-401,85,-97,1003,8928,-1168,3008,208,305,-334,43,1389808195.995376
3,121,0,15702,-237,192,34,15541,8240,960,128,15261,424,53,-47,1389808195.995385
2,122,0,2346,-170,24,-88,2882,8928,-1472,2448,2769,305,-335,45,1389808195.995666
3,122,0,17701,-68,206,32,17417,8224,1024,-176,15261,424,53,-47,1389808195.995915
2,123,0,4336,164,-4,-71,4761,8768,-1872,816,2769,305,-335,45,1389808196.13703
3,123,0,19700,19,219,24,19295,8400,912,-816,17840,423,50,-54,1389808196.13712
2,124,0,6325,489,32,-107,6640,8864,-1872,-736,5330,307,-335,36,1389808196.25911
3,124,0,20700,10,212,26,21172,8768,640,-1232,20418,427,52,-51,1389808196.25926
2,125,0,8315,620,103,-168,8520,9216,-2144,-2000,7892,305,-338,37,1389808196.26259
3,125,0,22699,-71,200,10,23048,9216,496,-1472,22995,423,51,-54,1389808196.26271
2,126,0,10304,513,130,-187,10399,9792,-2416,-2768,10452,307,-338,37,1389808196.44335
3,126,0,24699,-230,121,-11,24925,9472,304,-1376,22995,423,51,-54,1389808196.44344
2,127,0,12294,198,137,-255,12279,10624,-2464,-2608,10452,307,-338,37,1389808196.56138
3,127,0,26698,-399,11,-37,26801,9440,0,-896,25573,422,51,-61,1389808196.56152
2,128,0,14283,-231,158,-412,14158,11904,-2080,-832,13013,308,-345,30,1389808196.56465
3,128,0,28698,-465,-102,-21,28678,9424,-32,-512,28151,424,51,-59,1389808196.56476
2,129,0,16273,-573,154,-596,16037,12880,-1136,1904,15574,299,-347,33,1389808196.74498
3,129,0,30697,-379,-186,30,30554,9824,64,-560,30728,428,54,-56,1389808196.74507
2,130,0,17268,-612,102,-661,17917,12640,-384,3840,18134,299,-351,38,1389808196.86329
3,130,0,32696,-192,-208,73,32431,10688,-16,-1024,30728,428,54,-56,1389808196.86344
2,131,0,19257,-379,22,-670,19796,11488,-480,4128,18134,299,-351,38,1389808196.86759
3,131,0,34696,-45,-164,45,34308,11472,32,-1712,33305,421,54,-56,1389808196.86772
2,132,0,21247,-155,61,-554,21675,10272,-608,3808,20695,302,-354,35,1389808196.104844
3,132,0,35695,-23,-109,58,36184,11824,480,-2016,35882,425,54,-54,1389808196.104858
2,133,0,23236,-16,91,-423,23553,9440,-1264,3920,23257,294,-356,35,1389808196.111187
3,133,0,37695,-23,52,94,38062,11856,1216,-2000,35882,425,54,-54,1389808196.111418
2,134,0,25226,69,-27,-343,25434,8768,-1408,4288,23257,294,-356,35,1389808196.122994
3,134,0,39694,42,216,68,39940,11616,1712,-2032,38460,425,52,-53,1389808196.123001
2,135,0,27215,154,-251,-292,27313,8256,-1440,4368,25818,290,-357,39,1389808196.134904
3,135,0,41694,249,285,-1,41817,10992,1920,-1968,41038,419,56,-62,1389808196.134913
2,136,0,29205,250,-434,-147,29192,8192,-1536,3456,28379,294,-359,32,1389808196.141147
3,136,0,43693,452,246,-163,43694,9088,1728,-2480,43616,424,52,-61,1389808196.141432
2,137,0,31194,250,-462,-119,31071,8336,-1296,2368,30940,291,-361,38,1389808196.153440
3,137,0,45692,488,10,-101,45572,7984,1936,-3072,43616,424,52,-61,1389808196.153448
2,138,0,32189,211,-424,-135,32951,7904,-1184,1504,30940,291,-361,38,1389808196.165659
3,138,0,47692,514,-189,-166,47449,7264,1920,-3600,46195,425,53,-52,1389808196.165669
2,139,0,34178,95,-291,-156,34830,6768,-1136,1440,33501,286,-366,46,1389808196.165942
3,139,0,49691,396,-330,-197,49325,7360,2016,-3920,48773,424,50,-54,1389808196.165948
2,140,0,36168,-123,-188,-173,36709,5392,-784,1760,36062,291,-363,41,1389808196.183935
3,140,0,50691,355,-373,-230,51203,8272,1248,-4800,51351,426,48,-54,1389808196.183944
2,141,0,38158,-284,-168,-151,38588,4224,-496,2080,38623,282,-364,46,1389808196.195664
3,141,0,52690,711,-170,-362,53081,6224,1120,-3088,51351,426,48,-54,1389808196.195673
2,142,0,40147,-268,-154,-160,40467,3472,-256,2240,38623,282,-364,46,1389808196.195918
3,142,0,54690,207,-306,-415,54958,5744,1600,-3376,53929,428,41,-48,1389808196.195925
2,143,0,42137,-260,-101,-148,42346,3552,-160,2576,41182,282,-363,50,1389808196.213900
3,143,0,56689,190,-265,-310,56835,5568,880,-3616,56508,425,44,-45,1389808196.213909
2,144,0,44126,-220,-63,-99,44225,4624,-48,3024,43744,289,-365,49,1389808196.226229
3,144,0,58688,12,-181,-235,58713,6240,528,-3968,56508,425,44,-45,1389808196.226243
2,145,0,46116,-102,-70,-134,46105,6576,16,3392,43744,289,-365,49,1389808196.226560
3,145,0,60688,-168,-190,-116,60589,6992,400,-3968,59085,424,41,-46,1389808196.226571
2,146,0,48105,83,-95,-190,47984,8768,-160,3424,46303,287,-364,49,1389808196.244677
3,146,0,62687,-309,-242,-1,62466,7296,416,-3600,61662,428,42,-40,1389808196.244686
2,147,0,49100,119,-122,-224,49862,10320,-384,3056,48865,283,-365,54,1389808196.256774
3,147,0,64687,-407,-281,88,64343,7616,416,-2928,64239,427,39,-36,1389808196.256783
2,148,0,51089,139,-185,-209,51741,10464,-400,2512,51426,282,-368,53,1389808196.257052
3,148,0,150,-438,-283,114,684,8144,416,-2224,64239,427,39,-36,1389808196.257058
2,149,0,53079,81,-208,-149,53620,9184,-560,2016,51426,282,-368,53,1389808196.274178
3,149,0,2150,-446,-248,131,2560,8848,352,-1696,1279,422,46,-42,1389808196.274196
2,150,0,55068,0,-163,-57,55499,7472,-656,1904,53986,284,-367,50,1389808196.285620
3,150,0,4149,-385,-203,89,4437,9312,368,-1440,3857,428,44,-36,1389808196.285635
2,151,0,57058,-93,-55,4,57378,6416,-608,1936,56546,279,-370,56,1389808196.285961
3,151,0,6148,-292,-181,18,6314,9376,400,-1584,6434,425,42,-32,1389808196.285973
2,152,0,59048,-119,29,11,59257,6128,-576,2208,59106,280,-367,57,1389808196.304043
3,152,0,8148,-158,-164,-47,8191,9264,320,-1776,6434,425,42,-32,1389808196.304052
2,153,0,61037,-125,61,45,61135,6448,-416,2592,59106,280,-367,57,1389808196.315715
3,153,0,10147,-46,-145,-106,10067,8992,240,-1792,9013,423,38,-37,1389808196.315723
2,154,0,63027,-60,45,81,63014,7040,-240,2832,61667,285,-370,54,1389808196.315992
3,154,0,12147,71,-120,-131,11944,8704,288,-1584,11590,426,43,-35,1389808196.315998
2,155,0,65016,47,6,159,64893,7600,-384,2928,64227,277,-363,54,1389808196.334071
3,155,0,14146,181,-121,-147,13821,8384,368,-1392,11590,426,43,-35,1389808196.334080
2,156,0,475,96,-10,191,1236,7952,-320,2896,1250,288,-364,60,1389808196.345499
3,156,0,15146,240,-143,-149,15697,8160,400,-1200,14168,424,40,-30,1389808196.345509
2,157,0,2464,177,-59,249,3115,7968,-288,2784,1250,288,-364,60,1389808196.345752
3,157,0,17145,363,-173,-150,17573,7824,288,-1184,16746,420,38,-28,1389808196.345799
2,158,0,4454,230,-128,295,4995,7904,-320,2560,3811,288,-365,54,1389808196.363387
3,158,0,19144,464,-200,-151,19450,7712,288,-1392,19323,426,40,-30,1389808196.363396
2,159,0,6443,292,-183,313,6874,7808,-192,2176,6372,284,-358,56,1389808196.375281
3,159,0,21144,547,-198,-187,21327,7808,304,-1584,19323,426,40,-30,1389808196.375290
2,160,0,8433,335,-235,320,8755,7696,-288,1920,6372,284,-358,56,1389808196.375513
3,160,0,23143,586,-169,-209,23203,7872,224,-1760,21900,427,36,-23,1389808196.375708
2,161,0,10422,363,-291,337,10635,7616,-272,1664,8934,284,-357,59,1389808196.393664
3,161,0,25142,587,-129,-210,25080,7856,96,-1840,24478,423,33,-18,1389808196.393673
2,162,0,12412,388,-309,337,12515,7472,-208,1552,11495,292,-354,52,1389808196.405765
3,162,0,27142,557,-110,-188,26956,7744,16,-1968,27056,425,35,-22,1389808196.405780
2,163,0,14401,408,-319,339,14394,7408,-144,1440,14056,289,-354,51,1389808196.406105
3,163,0,29141,498,-114,-157,28833,7632,-208,-2096,27056,425,35,-22,1389808196.406116
2,164,0,15396,420,-312,333,16272,7456,-160,1360,14056,289,-354,51,1389808196.424139
3,164,0,30141,457,-125,-134,30709,7568,-288,-2112,29634,428,27,-15,1389808196.424154
2,165,0,17386,418,-278,334,18151,7744,-112,1344,16616,289,-349,58,1389808196.436232
3,165,0,32140,374,-132,-102,32586,7520,-400,-2112,32213,425,29,-16,1389808196.436242
2,166,0,19375,395,-250,323,20031,8064,-144,1296,19177,295,-350,53,1389808196.436448
3,166,0,34140,300,-118,-79,34463,7616,-352,-2016,32213,425,29,-16,1389808196.436453
2,167,0,21365,372,-244,309,21911,8272,-64,1296,21739,294,-348,53,1389808196.454477
3,167,0,36139,247,-58,-61,36340,7664,-384,-1888,34792,425,30,-17,1389808196.454491
2,168,0,23354,363,-255,298,23790,8336,-144,1296,21739,294,-348,53,1389808196.466447
3,168,0,38138,217,-10,-59,38217,7584,-304,-1536,37369,431,29,-9,1389808196.466456
2,169,0,25344,369,-267,277,25669,8224,-272,1216,24300,300,-345,58,1389808196.466722
3,169,0,40138,191,12,-65,40094,7344,-288,-1232,39947,426,28,-12,1389808196.466728
2,170,0,27333,397,-256,256,27549,8080,-352,976,26862,300,-345,56,1389808196.484770
3,170,0,42137,187,8,-63,41972,7168,-208,-1072,39947,426,28,-12,1389808196.484785
2,171,0,29323,411,-219,239,29428,7856,-432,864,29423,295,-345,52,1389808196.491087
3,171,0,44137,207,-7,-66,43849,7104,-176,-912,42524,425,27,-14,1389808196.491411
2,172,0,31312,406,-168,211,31308,7712,-528,608,29423,295,-345,52,1389808196.502859
3,172,0,45136,212,-19,-63,45727,7168,-144,-848,45103,427,26,-15,1389808196.502868
2,173,0,32307,401,-150,198,33186,7680,-576,464,31983,294,-344,61,1389808196.514962
3,173,0,47136,210,-29,-33,47604,7360,-64,-832,47682,426,28,-10,1389808196.514971
2,174,0,34297,352,-142,185,35066,7760,-544,528,34544,295,-343,53,1389808196.515227
3,174,0,49135,226,-24,0,49481,7584,-16,-816,47682,426,28,-10,1389808196.527059
2,175,0,36286,283,-154,152,36946,7904,-464,736,34544,295,-343,53,1389808196.527262
3,175,0,51134,230,-8,51,51358,7680,-96,-736,50259,422,24,-15,1389808196.527267
2,176,0,38276,236,-205,135,38825,8064,-368,1056,37104,297,-341,52,1389808196.544671
3,176,0,53134,227,-14,138,53235,7744,-144,-560,52836,428,30,-11,1389808196.544680
2,177,0,40265,207,-264,123,40704,8080,-272,1280,39664,296,-341,60,1389808196.556745
3,177,0,55133,260,-15,305,55112,7552,-304,-464,52836,428,30,-11,1389808196.556753
2,178,0,42255,232,-303,117,42583,7984,-272,1536,42223,297,-339,60,1389808196.557021
3,178,0,57133,319,14,435,56989,7504,-432,-384,55415,425,31,-8,1389808196.557027
2,179,0,44244,283,-324,104,44461,7824,-176,1488,42223,297,-339,60,1389808196.574953
3,179,0,59132,340,40,394,58866,7552,-496,-160,57993,422,36,-9,1389808196.574962
2,180,0,46234,352,-328,103,46341,7664,-16,1504,44785,299,-339,53,1389808196.575190
3,180,0,60132,351,37,364,60743,7504,-496,-16,60570,426,41,-12,1389808196.587302
2,181,0,48223,452,-314,101,48221,7600,-64,1472,47346,296,-341,59,1389808196.587578
3,181,0,62131,389,30,267,62620,7616,-384,-64,60570,426,41,-12,1389808196.587584
2,182,0,49218,484,-309,111,50099,7664,0,1392,49907,299,-340,62,1389808196.605676
3,182,0,64130,467,27,155,64496,7664,-368,-176,63147,427,40,-6,1389808196.605685
2,183,0,51208,545,-303,107,51977,7744,-64,1408,49907,299,-340,62,1389808196.605954
3,183,0,594,516,10,136,837,7856,-432,-288,191,421,42,-8,1389808196.605960
2,184,0,53197,580,-280,93,53856,7824,64,1376,52467,294,-342,54,1389808196.623679
3,184,0,2593,548,-14,172,2714,8032,-560,-400,2769,426,45,-15,1389808196.623693
2,185,0,55187,644,-247,93,55734,7904,160,1344,55029,294,-339,57,1389808196.635904
3,185,0,4593,577,-31,196,4591,8080,-592,-400,2769,426,45,-15,1389808196.635912
2,186,0,57176,714,-229,100,57143,7936,112,1248,57590,296,-340,59,1389808196.636179
3,186,0,6592,583,-70,146,6468,8112,-368,-448,5347,424,37,-6,1389808196.636185
2,187,0,59166,780,-202,97,59492,7984,96,960,57590,296,-340,59,1389808196.652940
3,187,0,8591,665,-99,-6,8345,8048,0,-512,7927,419,43,-4,1389808196.652954
2,188,0,61155,783,-181,93,60900,8032,-80,832,60151,302,-340,52,1389808196.665153
3,188,0,9591,718,-110,-59,10222,7952,240,-960,7927,419,43,-4,1389808196.665162
2,189,0,63145,744,-164,90,62779,8080,-192,704,62712,298,-341,48,1389808196.665405
3,189,0,11590,800,-91,-116,12098,8016,352,-1712,10505,419,41,-7,1389808196.671635
2,190,0,64140,721,-156,90,64657,8048,-400,592,62712,298,-341,48,1389808196.683859
3,190,0,13590,779,-72,-154,13975,7984,736,-2352,13082,419,38,2,1389808196.683867
2,191,0,593,657,-154,90,1000,8112,-480,464,65273,299,-341,53,1389808196.695433
3,191,0,15589,766,-48,-196,15851,7984,1264,-2816,15661,419,33,6,1389808196.695442
2,192,0,2583,583,-159,91,2879,8192,-464,368,2298,300,-342,44,1389808196.695692
3,192,0,17589,743,-27,-180,17728,8064,992,-3232,15661,419,33,6,1389808196.695945
2,193,0,4572,462,-163,100,4758,8176,-608,416,4860,297,-341,42,1389808196.713334
3,193,0,19588,615,-16,-27,19605,8336,192,-3504,18238,428,31,1,1389808196.713343
2,194,0,6562,316,-166,98,6636,8112,-512,416,4860,297,-341,42,1389808196.725756
3,194,0,21587,244,-43,164,21482,9024,-816,-3056,20816,428,35,6,1389808196.725772
2,195,0,8551,227,-146,116,8515,8080,-384,480,7421,298,-343,47,1389808196.726115
3,195,0,23587,-171,-153,283,23360,9696,-1280,-1920,23395,422,38,7,1389808196.726126
2,196,0,10541,214,-89,141,10394,8208,-368,432,9982,302,-339,41,1389808196.743626
3,196,0,24586,-332,-220,274,25236,10192,-1344,-352,23395,422,38,7,1389808196.743635
2,197,0,12530,287,2,158,12273,8592,-352,288,12541,299,-340,41,1389808196.755661
3,197,0,26586,-485,-306,125,27113,10256,-1136,1200,25972,422,38,4,1389808196.755676
2,198,0,14520,359,66,175,14152,9072,-640,96,12541,299,-340,41,1389808196.756001
3,198,0,28585,-370,-311,-14,28990,10112,-576,2032,28550,421,38,10,1389808196.756011
2,199,0,15515,371,91,184,16032,9424,-1024,-176,15101,301,-339,41,1389808196.774188
3,199,0,30585,-70,-235,-121,30867,10096,-32,1696,28550,421,38,10,1389808196.774203
2,200,0,17504,351,115,195,17910,9552,-1504,-336,17662,301,-338,39,1389808196.786180
3,200,0,32584,171,-128,-314,32744,10544,320,256,31128,421,35,15,1389808196.786189
2,201,0,19494,226,122,245,19789,9536,-1664,-320,17662,301,-338,39,1389808196.786455
3,201,0,34583,211,-71,-582,34622,11232,528,-1776,33706,424,37,11,1389808196.786461
2,202,0,21483,20,106,326,21668,9600,-1568,-16,20223,303,-335,33,1389808196.804214
3,202,0,36583,196,6,-679,36498,11872,816,-3680,36284,424,28,12,1389808196.804223
2,203,0,23473,-259,84,357,23546,10272,-1104,512,22785,301,-330,40,1389808196.816232
3,203,0,38582,71,208,-464,38376,11808,96,-4864,36284,424,28,12,1389808196.816240
2,204,0,25462,-469,32,341,25425,11008,-304,976,25346,305,-329,41,1389808196.816504
3,204,0,39582,-133,339,-343,40252,12688,288,-5904,38862,420,22,14,1389808196.816511
2,205,0,27452,-572,-19,325,27303,11472,352,1168,25346,305,-329,41,1389808196.834553
3,205,0,41581,-441,507,-345,42130,11632,1296,-5632,41441,420,23,6,1389808196.834562
2,206,0,29441,-749,-55,258,29183,11184,704,1600,27905,306,-325,35,1389808196.846045
3,206,0,43581,-386,599,-394,44007,9552,1008,-4864,44018,430,20,-4,1389808196.846055
2,207,0,31431,-1041,-4,113,31062,9984,1008,2544,30466,308,-323,45,1389808196.846217
3,207,0,45580,-394,662,-186,45884,6992,720,-4384,44018,430,20,-4,1389808196.846257
2,208,0,32425,-1168,78,40,32943,8432,1104,4128,33027,309,-320,53,1389808196.864073
3,208,0,47579,-446,575,-256,47761,4528,688,-3584,46595,430,15,-5,1389808196.864082
2,209,0,34415,-1306,301,-78,34822,7232,1136,5488,33027,309,-320,53,1389808196.875987
3,209,0,49579,-604,319,-34,49639,4192,160,-2160,49174,426,18,-12,1389808196.875997
2,210,0,36405,-1163,441,-188,36702,6672,816,5904,35587,310,-321,48,1389808196.876239
3,210,0,51578,-566,46,-48,51516,5296,896,-1136,49174,426,18,-12,1389808196.876246
2,211,0,38394,-821,426,-218,38581,6512,272,5520,38149,308,-319,55,1389808196.894134
3,211,0,53578,-246,1,80,53393,6752,1184,-1056,51752,426,21,-13,1389808196.894143
2,212,0,40384,-510,425,-210,40459,6544,-128,5056,40710,308,-318,54,1389808196.906359
3,212,0,54577,-134,23,108,55270,7584,1600,-1776,54330,429,20,-12,1389808196.906373
2,213,0,42373,-290,476,-203,42338,6768,-304,4432,40710,308,-318,54,1389808196.906695
3,213,0,56577,15,125,187,57147,8048,1632,-2768,56909,425,21,-15,1389808196.906706
2,214,0,44363,-102,499,-186,44217,7568,-400,4272,43271,311,-320,46,1389808196.923636
3,214,0,58576,-17,240,220,59024,8112,1728,-3280,56909,425,21,-15,1389808196.923644
2,215,0,46352,98,463,-122,46097,8480,-400,3968,45831,307,-323,41,1389808196.935529
3,215,0,60575,-132,232,196,60902,8096,2064,-3232,59487,430,25,-18,1389808196.935537
2,216,0,47347,182,418,-66,47976,9376,-656,3488,45831,307,-323,41,1389808196.935805
3,216,0,62575,-174,117,139,62779,8368,1888,-3216,62064,426,26,-18,1389808196.935811
2,217,0,49336,299,369,8,49856,9632,-576,2832,48392,311,-322,47,1389808196.953158
3,217,0,64574,-169,16,58,64657,8832,1632,-3648,64642,426,26,-16,1389808196.953166
2,218,0,51326,351,358,-31,51735,9392,-544,2032,50953,311,-322,33,1389808196.965207
3,218,0,1038,-182,36,27,998,9104,1488,-4096,64642,426,26,-16,1389808196.965216
2,219,0,53315,270,400,-105,53614,9008,-608,1264,53513,307,-323,29,1389808196.965465
3,219,0,3037,-293,81,36,2874,8880,1376,-3968,1683,424,25,-23,1389808196.971654
2,220,0,55305,108,463,-225,55494,8640,-592,1008,53513,307,-323,29,1389808196.983290
3,220,0,4037,-358,86,30,4752,8272,1232,-3200,4262,428,27,-21,1389808196.983299
2,221,0,57295,-108,527,-375,57372,8368,-576,1056,56075,311,-328,28,1389808196.995407
3,221,0,6036,-455,38,33,6629,7600,1184,-2000,4262,428,27,-21,1389808196.995416
2,222,0,59284,-315,542,-521,59251,8128,-624,1552,58637,314,-331,22,1389808196.995641
3,222,0,8035,-445,-53,2,8506,6976,896,-1184,6840,427,28,-21,1389808196.995849
2,223,0,61274,-490,517,-627,61130,7728,-512,2176,61198,309,-334,19,1389808197.13523
3,223,0,10035,-366,-134,-34,10383,6384,880,-800,9417,423,31,-21,1389808197.13532
2,224,0,63263,-602,470,-659,63010,7184,-496,2480,61198,309,-334,19,1389808197.25656
3,224,0,12034,-242,-127,-68,12260,6112,1072,-704,11996,428,27,-23,1389808197.25671
2,225,0,64258,-635,440,-649,64889,6672,-448,2496,63758,303,-339,25,1389808197.25998
3,225,0,14034,-140,-76,-59,14137,6352,1072,-976,11996,428,27,-23,1389808197.26009
2,226,0,711,-628,396,-586,1232,6368,-448,2416,785,300,-341,21,1389808197.43787
3,226,0,16033,-80,8,-25,16013,6960,1088,-1456,14573,423,28,-16,1389808197.43795
2,227,0,2701,-551,365,-518,3111,6256,-448,2192,3347,300,-347,16,1389808197.55579
3,227,0,18032,-32,123,33,17890,7552,928,-1904,17151,422,31,-22,1389808197.55593
2,228,0,4690,-429,352,-460,4990,6320,-544,1840,3347,300,-347,16,1389808197.55915
3,228,0,19032,-37,179,52,19767,7936,736,-2256,19729,426,29,-27,1389808197.55926
2,229,0,6680,-313,343,-438,6869,6528,-512,1472,5908,299,-344,18,1389808197.74065
3,229,0,21031,-86,254,68,21644,8144,544,-2288,19729,426,29,-27,1389808197.74079
2,230,0,8669,-225,320,-414,8747,6960,-624,1232,8469,302,-351,18,1389808197.85517
3,230,0,23031,-158,275,56,23521,8160,544,-2112,22306,428,26,-24,1389808197.85532
2,231,0,10659,-177,265,-394,10627,7408,-688,1072,8469,302,-351,18,1389808197.85858
3,231,0,25030,-210,244,45,25397,8192,432,-1920,24884,426,33,-26,1389808197.85869
2,232,0,12649,-165,207,-375,12506,7760,-816,1056,11030,300,-351,11,1389808197.104282
3,232,0,27030,-195,198,47,27275,8032,544,-1456,24884,426,33,-26,1389808197.104296
2,233,0,14638,-157,157,-339,14384,7792,-896,1072,13592,293,-351,14,1389808197.115669
3,233,0,29029,-215,133,50,29151,7776,496,-1264,27462,425,33,-34,1389808197.115679
2,234,0,15633,-142,145,-329,16263,7584,-1008,1120,16152,298,-353,17,1389808197.115914
3,234,0,31028,-200,104,64,31028,7680,576,-1104,30040,428,33,-30,1389808197.115920
2,235,0,17622,-100,137,-279,18142,7280,-1088,1168,16152,298,-353,17,1389808197.133154
3,235,0,33028,-179,76,35,32905,7712,528,-1024,32617,423,30,-31,1389808197.133162
2,236,0,19612,-35,154,-224,20022,7056,-1120,1056,18713,296,-353,7,1389808197.144915
3,236,0,34027,-182,64,37,34781,7728,560,-944,32617,423,30,-31,1389808197.144924
2,237,0,21601,40,177,-174,21901,6976,-1200,896,21275,291,-358,13,1389808197.145173
3,237,0,36027,-174,59,25,36658,8096,400,-864,35195,427,34,-37,1389808197.157107
2,238,0,23591,90,177,-167,23780,7072,-1200,656,23835,293,-359,13,1389808197.157378
3,238,0,38026,-173,50,57,38536,8304,336,-704,37773,426,36,-35,1389808197.157384
2,239,0,25580,83,163,-163,25659,7328,-1184,544,23835,293,-359,13,1389808197.175332
3,239,0,40026,-150,53,51,40412,8368,352,-384,40350,424,33,-34,1389808197.175341
2,240,0,27570,17,124,-182,27538,7520,-1072,416,26396,294,-360,6,1389808197.175611
3,240,0,42025,-113,47,23,42289,8288,208,-256,40350,424,33,-34,1389808197.175815
2,241,0,29559,-58,46,-165,29416,7536,-992,304,28957,291,-359,9,1389808197.193271
3,241,0,44024,-37,59,-23,44166,8176,192,-336,42927,420,33,-40,1389808197.193286
2,242,0,30554,-59,7,-131,31295,7264,-928,32,31518,291,-358,13,1389808197.205156
3,242,0,46024,29,64,-87,46043,7920,240,-496,45506,426,33,-35,1389808197.205165
2,243,0,32544,-48,-60,-21,33175,7072,-1040,-288,31518,291,-358,13,1389808197.205407
3,243,0,48023,64,95,-123,47920,7744,256,-864,45506,426,33,-35,1389808197.211623
2,244,0,34533,-23,-80,117,35054,6992,-1328,-784,34079,292,-358,6,1389808197.223689
3,244,0,49023,64,95,-144,49797,7616,144,-1104,48083,423,34,-33,1389808197.223698
2,245,0,36523,4,-61,166,36933,7056,-1792,-1248,36641,290,-357,10,1389808197.235618
3,245,0,51022,7,85,-162,51674,7632,48,-1168,50659,423,33,-40,1389808197.235633
2,246,0,38512,-49,-14,-3,38812,7200,-1568,-1424,36641,290,-357,10,1389808197.235960
3,246,0,53022,-101,72,-160,53551,7632,64,-1152,53237,424,31,-40,1389808197.235971
2,247,0,40502,-85,38,-197,40690,7152,-1056,-1424,39202,290,-357,13,1389808197.254105
3,247,0,55021,-207,40,-142,55428,7680,256,-1120,53237,424,31,-40,1389808197.254120
2,248,0,42491,-53,105,-69,42569,7120,-1200,-1328,41763,293,-359,10,1389808197.266319
3,248,0,57020,-283,29,-141,57305,7728,480,-1296,55814,428,28,-37,1389808197.266328
2,249,0,44481,-170,114,203,44448,6912,-1520,-1280,44324,287,-357,11,1389808197.266628
3,249,0,59020,-315,18,-150,59183,7776,528,-1520,58391,425,30,-46,1389808197.266634
2,250,0,46470,-292,132,445,46328,6928,-1552,-1440,44324,287,-357,11,1389808197.284000
3,250,0,61019,-421,38,-167,61060,7808,464,-1344,60969,425,27,-44,1389808197.284008
2,251,0,47465,-332,151,491,48206,7200,-1664,-1232,46884,290,-356,13,1389808197.295763
3,251,0,63018,-579,19,-164,62938,7728,432,-960,60969,425,27,-44,1389808197.295772
2,252,0,49455,-402,216,608,50085,7744,-2032,-240,49445,296,-347,10,1389808197.296036
3,252,0,64018,-657,4,-141,64815,7696,400,-480,63547,426,24,-42,1389808197.296042
2,253,0,51444,-501,213,539,51965,8064,-1680,848,52004,298,-346,12,1389808197.313960
3,253,0,482,-765,-17,-68,1156,7776,368,-32,588,425,32,-45,1389808197.313969
2,254,0,53434,-573,175,278,53844,8064,-928,1728,52004,298,-346,12,1389808197.326221
3,254,0,2481,-737,-73,46,3033,7808,160,288,588,425,32,-45,1389808197.326235
2,255,0,55423,-633,149,101,55722,8208,80,2528,54565,298,-346,14,1389808197.326557
3,255,0,4480,-579,-89,76,4910,8080,-208,16,3166,426,28,-49,1389808197.326567
2,0,0,57413,-610,87,-4,57601,8496,32,3456,57127,305,-340,12,1389808197.343920
3,0,0,6480,-392,-73,82,6787,8272,96,-64,5743,428,30,-39,1389808197.343929
2,1,0,59402,-446,12,14,59479,8896,-672,4064,57127,305,-340,12,1389808197.356039
3,1,0,8479,-228,-37,74,8665,8432,832,32,8320,423,30,-45,1389808197.356054
2,2,0,61392,101,-37,57,61358,9264,-1840,3616,59687,301,-341,14,1389808197.356412
3,2,0,10478,-51,-6,98,10541,8400,1136,112,8320,423,30,-45,1389808197.356423
2,3,0,63381,735,34,15,63237,9392,-2432,1744,62248,297,-340,20,1389808197.373941
3,3,0,12478,69,12,71,12417,8384,864,64,10898,425,31,-48,1389808197.373955
2,4,0,64376,997,111,-30,65115,9264,-2736,-1024,64810,301,-341,11,1389808197.386120
3,4,0,13478,83,11,55,14293,8672,240,0,13476,428,31,-44,1389808197.386134
2,5,0,830,1142,296,-100,1458,9920,-2896,-3440,64810,301,-341,11,1389808197.386460
3,5,0,15477,24,-35,62,16170,9264,-288,-128,16053,426,37,-43,1389808197.386470
2,6,0,2819,813,405,-171,3337,11584,-2864,-3936,1836,302,-344,-2,1389808197.404686
3,6,0,17476,-34,-131,81,18047,9840,-480,-352,16053,426,37,-43,1389808197.404701
2,7,0,4809,250,356,-350,5218,13568,-2384,-2336,4397,297,-348,-4,1389808197.410269
3,7,0,19476,-39,-238,158,19924,10624,-368,-704,18631,420,30,-47,1389808197.410521
2,8,0,6798,-316,146,-583,7097,13936,-1376,-240,6958,301,-349,-3,1389808197.422187
3,8,0,21475,11,-315,174,21800,11664,-80,-1072,21208,428,34,-40,1389808197.422196
2,9,0,8788,-417,-63,-710,8976,12416,-1248,1440,6958,301,-349,-3,1389808197.434356
3,9,0,23474,88,-259,132,23676,12384,96,-1120,21208,428,34,-40,1389808197.434365
2,10,0,10777,-355,-77,-694,10854,10512,-1456,2768,9520,301,-353,3,1389808197.445638
3,10,0,25474,115,-104,122,25552,12528,592,-864,23786,423,37,-36,1389808197.445647
2,11,0,12767,-220,46,-703,12734,9312,-1840,3936,12081,291,-361,1,1389808197.445924
3,11,0,27473,231,70,92,27428,11984,1456,-832,26365,422,40,-34,1389808197.445930
2,12,0,13762,-139,65,-706,14613,8784,-2096,4560,14643,288,-367,3,1389808197.463669
3,12,0,28473,342,133,55,29305,10992,1936,-1552,28943,425,40,-39,1389808197.463678
2,13,0,15751,45,-12,-707,16492,8544,-1632,4496,14643,288,-367,3,1389808197.475815
3,13,0,30472,588,127,-44,31181,9552,1760,-2608,28943,425,40,-39,1389808197.475824
2,14,0,17741,189,-243,-648,18371,7872,-1328,3600,17205,288,-370,3,1389808197.476094
3,14,0,32472,683,-28,-88,33058,8288,1792,-3744,31521,425,35,-32,1389808197.476116
2,15,0,19730,277,-468,-395,20250,7664,-1344,2064,19766,281,-371,7,1389808197.494019
3,15,0,34471,658,-187,-135,34935,7536,1904,-4480,34098,422,38,-36,1389808197.494034
2,16,0,21720,377,-443,-326,22129,7968,-1312,944,19766,281,-371,7,1389808197.506207
3,16,0,36470,512,-297,-157,36812,7264,2096,-4528,36675,425,35,-32,1389808197.506222
3,17,0,38470,367,-371,-162,38688,7136,1984,-4256,36675,425,35,-32,1389808197.506533
2,18,0,25699,65,-137,-485,25887,7136,-560,896,24887,283,-380,6,1389808197.524197
3,18,0,40469,287,-405,-215,40566,6944,1792,-4224,39254,426,26,-24,1389808197.524206
2,19,0,27688,-123,-171,-524,27765,5632,-320,1104,27448,274,-383,5,1389808197.536398
3,19,0,42469,166,-431,-311,42443,6560,1280,-4448,41831,421,30,-23,1389808197.536412
2,20,0,29678,-288,-193,-445,29645,4336,-384,1328,27448,274,-383,5,1389808197.536735
3,20,0,43468,77,-439,-331,44321,6272,656,-4480,44409,425,30,-21,1389808197.536745
2,21,0,30673,-356,-182,-374,31524,3792,-400,1696,30009,270,-381,11,1389808197.554318
3,21,0,45468,-183,-399,-222,46198,6464,272,-4096,44409,425,30,-21,1389808197.554327
2,22,0,32662,-440,-115,-228,33403,4496,-240,2336,32571,274,-383,11,1389808197.566327
3,22,0,47467,-471,-317,-7,48074,7216,-48,-3200,46987,425,27,-12,1389808197.566336
2,23,0,34652,-366,-51,-175,35282,6624,-400,3216,35131,270,-386,13,1389808197.566638
3,23,0,49466,-645,-264,146,49951,8096,-64,-2368,49564,419,31,-14,1389808197.566643
2,24,0,36641,-207,-70,-203,37161,8720,-544,3792,35131,270,-386,13,1389808197.584773
3,24,0,51466,-689,-252,250,51828,8928,144,-1792,49564,419,31,-14,1389808197.584789
2,25,0,38631,-41,-177,-188,39040,9776,-592,3408,37691,267,-387,21,1389808197.591089
3,25,0,53465,-638,-234,280,53705,9568,144,-1328,52142,423,32,-15,1389808197.591409
2,26,0,40620,95,-220,-65,40920,9536,-608,2480,40251,270,-387,19,1389808197.603571
3,26,0,55465,-510,-181,218,55582,9920,176,-1168,54719,425,37,-14,1389808197.603650
2,27,0,42610,120,-139,59,42799,8432,-624,1584,42811,267,-386,17,1389808197.615819
3,27,0,57464,-325,-104,91,57460,10032,208,-1344,57297,421,38,-10,1389808197.615828
2,28,0,44599,35,-34,129,44678,7648,-640,1232,42811,267,-386,17,1389808197.616096
3,28,0,58464,-216,-79,20,59337,9728,192,-1584,57297,421,38,-10,1389808197.616103
2,29,0,46589,-56,29,145,46557,7120,-496,1168,45373,267,-384,22,1389808197.634264
3,29,0,60463,-24,-42,-66,61214,9200,48,-1808,59874,422,34,-15,1389808197.634278
2,30,0,47584,-92,47,151,48436,6976,-432,1456,47934,272,-382,19,1389808197.646426
3,30,0,62462,112,-38,-130,63091,8640,-128,-1936,62452,422,40,-9,1389808197.646435
2,31,0,49573,-124,15,179,50315,7152,-400,1744,47934,272,-382,19,1389808197.646688
3,31,0,64462,213,-59,-146,64968,8208,-224,-2000,62452,422,40,-9,1389808197.646693
2,32,0,51563,-97,-77,206,52194,7424,-336,2032,50496,271,-380,15,1389808197.664224
3,32,0,925,267,-98,-145,1309,7936,-192,-1728,65029,421,33,-10,1389808197.664232
2,33,0,53552,-42,-169,251,54073,7552,-112,2048,53057,269,-380,22,1389808197.675907
3,33,0,2925,300,-162,-172,3186,7792,-240,-1424,2071,421,33,-5,1389808197.675916
2,34,0,55542,11,-195,281,55952,7504,-192,1920,55618,272,-376,26,1389808197.676171
3,34,0,4924,322,-210,-196,5064,7792,-288,-1136,4650,424,33,-8,1389808197.676178
2,35,0,57531,80,-193,303,57830,7600,-160,1760,55618,272,-376,26,1389808197.694121
3,35,0,6923,404,-238,-233,6941,7600,-384,-1008,4650,424,33,-8,1389808197.694137
2,36,0,59521,161,-192,302,59710,7760,-256,1616,58178,276,-376,22,1389808197.705669
3,36,0,7923,445,-232,-243,8818,7536,-320,-1008,7227,422,27,-1,1389808197.705684
2,37,0,61510,245,-214,285,61589,7936,-464,1328,60740,273,-372,22,1389808197.706011
3,37,0,9923,501,-174,-256,10695,7392,-208,-1024,9805,424,28,-2,1389808197.706022
2,38,0,62505,283,-240,274,63469,7872,-528,832,63299,278,-371,22,1389808197.723410
3,38,0,11922,523,-100,-268,12572,7216,-240,-1184,12383,424,25,0,1389808197.723419
2,39,0,64494,344,-274,262,65348,7616,-752,368,63299,278,-371,22,1389808197.735064
3,39,0,13921,520,-68,-273,14449,6992,-240,-1456,12383,424,25,0,1389808197.735073
2,40,0,948,355,-287,257,1691,7232,-704,80,324,274,-370,19,1389808197.735321
3,40,0,15921,442,-47,-223,16326,6832,-384,-1728,14960,420,17,4,1389808197.741619
2,41,0,2938,329,-268,264,3570,7040,-640,-112,2887,274,-368,26,1389808197.753637
3,41,0,17920,352,16,-97,18203,6688,-464,-1936,17539,420,21,3,1389808197.753645
2,42,0,4927,212,-247,260,4979,6960,-528,-96,5448,281,-367,29,1389808197.765842
3,42,0,19919,215,62,-2,20080,6800,-480,-1840,17539,420,21,3,1389808197.765850
2,43,0,6917,87,-247,238,7328,7440,-336,208,5448,281,-367,29,1389808197.766115
3,43,0,21919,99,116,91,21957,6896,-528,-1568,20118,426,23,2,1389808197.766122
2,44,0,8906,-4,-295,215,8738,7856,-192,544,8009,284,-367,24,1389808197.784068
3,44,0,22919,67,137,150,23834,6928,-672,-1264,22696,426,23,7,1389808197.784077
2,45,0,10896,-26,-367,182,10616,8160,-64,848,10568,277,-365,26,1389808197.795720
3,45,0,24918,49,184,230,25712,6944,-688,-1104,25275,423,28,-1,1389808197.795729
2,46,0,12885,21,-434,167,12494,8192,48,976,10568,277,-365,26,1389808197.795915
3,46,0,26917,38,209,192,27588,6864,-688,-1024,25275,423,28,-1,1389808197.795918
2,47,0,13880,43,-447,158,14372,8080,-32,896,13129,282,-364,36,1389808197.813432
3,47,0,28917,41,204,129,29465,6704,-848,-880,27853,423,26,-4,1389808197.813453
2,48,0,15869,95,-431,131,16252,7904,-256,608,15691,284,-363,32,1389808197.825436
3,48,0,30916,97,194,93,31342,6704,-704,-560,30431,421,22,-4,1389808197.825450
2,49,0,17859,126,-374,85,18130,7696,-240,432,18252,285,-361,38,1389808197.825769
3,49,0,32915,100,149,12,33218,6816,-544,-368,33009,421,25,0,1389808197.826041
2,50,0,19848,137,-311,62,20009,7568,-464,336,18252,285,-361,38,1389808197.844045
3,50,0,34915,161,86,-14,35095,7008,-560,-432,33009,421,25,0,1389808197.844055
2,51,0,21838,128,-261,20,21887,7520,-608,432,20813,283,-366,42,1389808197.855553
3,51,0,36914,215,53,2,36972,7152,-608,-512,35588,430,24,-6,1389808197.855567
2,52,0,23828,112,-239,7,23766,7568,-672,640,23373,286,-360,41,1389808197.855991
3,52,0,37914,210,34,8,38849,7392,-640,-416,38166,430,26,-1,1389808197.855999
2,53,0,25817,131,-250,-7,25644,7664,-736,896,25934,282,-362,40,1389808197.874050
3,53,0,39913,178,0,-19,40726,7472,-512,-48,38166,430,26,-1,1389808197.874059
2,54,0,27807,170,-272,2,27523,7696,-848,1136,25934,282,-362,40,1389808197.885915
3,54,0,41913,150,-24,-19,42604,7456,-272,336,40745,421,25,-2,1389808197.885924
2,55,0,29796,251,-286,19,29402,7520,-896,1280,28495,286,-365,44,1389808197.886194
3,55,0,43912,190,-30,67,44482,7504,-208,496,43322,421,25,-4,1389808197.886200
2,56,0,30791,297,-277,47,31280,7360,-800,1328,31055,286,-365,43,1389808197.904160
3,56,0,45911,253,-48,127,46358,7728,-320,336,45900,424,27,-6,1389808197.904168
2,57,0,32780,382,-251,70,33158,7232,-592,1296,31055,286,-365,43,1389808197.915896
3,57,0,47911,322,-38,184,48236,7984,-256,64,45900,424,27,-6,1389808197.915905
2,58,0,34770,476,-220,94,35037,7216,-336,1136,33617,284,-358,39,1389808197.916171
3,58,0,49910,414,-24,257,50113,8112,-144,-480,48479,424,32,3,1389808197.916177
2,59,0,36759,559,-174,129,36916,7312,-48,608,36177,279,-359,42,1389808197.934461
3,59,0,51910,459,-55,302,51991,8352,64,-1632,51058,424,31,-2,1389808197.934470
2,60,0,38749,590,-131,182,38795,7680,-320,-32,38739,286,-361,38,1389808197.946622
3,60,0,52909,521,-57,245,53400,8608,16,-2656,53636,424,32,1,1389808197.946631
2,61,0,40738,473,-98,182,40675,8016,-448,-288,38739,286,-361,38,1389808197.946868
3,61,0,54909,543,-10,-34,55277,8592,400,-3696,53636,424,32,1,1389808197.946875
2,62,0,42728,289,-92,181,42554,8336,-480,-304,41300,284,-360,36,1389808197.964187
3,62,0,56908,406,34,-257,57154,8352,640,-4336,56214,424,28,4,1389808197.964197
2,63,0,44718,26,-107,166,44433,8608,-320,-224,43861,283,-360,37,1389808197.975443
3,63,0,58907,240,29,-270,59032,8128,16,-4720,58791,421,27,2,1389808197.975452
2,64,0,45712,-116,-107,162,46311,8624,-224,96,46422,287,-357,41,1389808197.975693
3,64,0,60907,16,29,-60,60909,8320,-1152,-4496,58791,421,27,2,1389808197.975699
2,65,0,47702,-353,-93,136,48190,8576,-64,624,46422,287,-357,41,1389808197.993642
3,65,0,62906,-493,-62,27,62786,8752,-1968,-3408,61369,423,29,-2,1389808197.993651
2,66,0,49691,-461,-65,135,50068,8496,64,1120,48983,286,-354,43,1389808198.5712
3,66,0,64906,-941,-235,21,64664,9120,-1952,-1264,63948,422,28,6,1389808198.5719
2,67,0,51681,-407,-39,150,51947,8480,-16,1504,51544,283,-356,44,1389808198.5993
3,67,0,1369,-1102,-407,-24,1005,9360,-1792,1008,990,425,31,5,1389808198.5999
2,68,0,53670,-219,-5,176,53825,8480,-272,1520,54106,288,-349,46,1389808198.23882
3,68,0,2369,-1061,-447,-54,2882,9728,-1216,2656,990,425,31,5,1389808198.23897
2,69,0,55660,-27,46,230,55704,8336,-896,1200,54106,288,-349,46,1389808198.36045
3,69,0,4368,-771,-434,-124,4758,10672,-480,3024,3569,423,31,6,1389808198.36055
2,70,0,57649,49,121,326,57583,8256,-1392,1072,56667,286,-350,44,1389808198.36322
3,70,0,6367,-303,-305,-184,6636,12096,352,1504,6146,425,29,8,1389808198.36329
2,71,0,59639,-53,172,465,59462,8720,-1424,1040,59228,286,-345,42,1389808198.53192
3,71,0,8367,268,-66,-148,8513,13552,528,-1456,8724,419,30,6,1389808198.53201
2,72,0,61628,-317,219,454,61341,10272,-1488,1696,59228,286,-345,42,1389808198.65395
3,72,0,10366,481,366,-14,10390,13440,240,-3968,8724,419,30,6,1389808198.65404
2,73,0,62623,-443,231,431,63219,11824,-512,2448,61789,291,-344,48,1389808198.65639
3,73,0,12366,165,652,21,12268,14240,1392,-5856,11302,421,25,2,1389808198.65820
2,74,0,64613,-446,147,457,65099,12736,176,3200,64349,296,-335,42,1389808198.81609
3,74,0,14365,202,655,22,14144,11936,2032,-6128,13879,422,28,1,1389808198.81616
2,75,0,1066,-290,-16,484,1442,12544,320,3536,1374,297,-333,43,1389808198.93649
3,75,0,16364,29,541,16,16021,9376,992,-5760,13879,422,28,1,1389808198.93658
2,76,0,3056,-153,-90,492,3322,11024,496,3248,1374,297,-333,43,1389808198.104999
3,76,0,17364,-155,454,-18,17898,6688,848,-5472,16457,423,27,-3,1389808198.105007
2,77,0,5045,-87,41,430,5201,8896,400,3136,3935,297,-329,50,1389808198.105252
3,77,0,19364,-288,316,24,19775,4704,464,-4624,19034,423,28,-9,1389808198.111439
2,78,0,7035,-117,313,312,7080,6960,240,3312,6496,303,-328,40,1389808198.123926
3,78,0,21363,-509,213,27,21652,4448,384,-3296,21611,428,26,-12,1389808198.123935
2,79,0,9024,-206,579,175,8959,5616,416,3248,9058,300,-327,40,1389808198.135690
3,79,0,23362,-602,134,-94,23528,5936,192,-1856,21611,428,26,-12,1389808198.135698
2,80,0,11014,-204,693,112,10838,5456,112,2944,9058,300,-327,40,1389808198.135965
3,80,0,25362,-584,109,-102,25405,7792,608,-1168,24189,423,27,-10,1389808198.135971
2,81,0,13003,-124,629,103,12716,6288,-464,2592,11618,304,-325,39,1389808198.154002
3,81,0,27361,-396,157,-36,27282,8688,1152,-1072,26767,423,27,-18,1389808198.154010
2,82,0,13998,-98,582,119,14594,7552,-688,2272,14181,311,-322,32,1389808198.165982
3,82,0,29360,-223,204,86,29158,8704,1312,-1184,29345,428,32,-21,1389808198.165991
2,83,0,15988,-108,507,134,16473,9024,-832,2512,16741,309,-323,24,1389808198.166182
3,83,0,31360,-118,207,162,31035,8240,1568,-1424,29345,428,32,-21,1389808198.166187
2,84,0,17977,-163,442,108,18353,9856,-784,3056,16741,309,-323,24,1389808198.183618
3,84,0,32360,-89,216,177,32912,8096,1424,-2048,31923,426,26,-17,1389808198.183626
2,85,0,19967,-200,357,71,20232,10272,-576,3392,19301,310,-322,27,1389808198.195765
3,85,0,34359,-94,229,160,34789,8432,1376,-2688,34501,422,33,-23,1389808198.195774
2,86,0,21956,-235,214,32,22110,10352,-432,3248,21863,310,-320,25,1389808198.196008
3,86,0,36358,-117,227,39,36666,8656,1392,-2960,34501,422,33,-23,1389808198.196020
2,87,0,23946,-167,127,-70,23989,10064,-352,2976,21863,310,-320,25,1389808198.214030
3,87,0,38358,-76,193,-25,38543,8320,1456,-2960,37080,424,34,-27,1389808198.214040
2,88,0,25935,-104,150,-139,25867,9456,-448,2432,24425,310,-324,20,1389808198.226135
3,88,0,40357,-33,155,-44,40420,8064,1344,-2848,39658,427,32,-21,1389808198.226144
2,89,0,27925,-81,223,-133,27745,8784,-672,2032,26986,308,-323,25,1389808198.226410
3,89,0,42356,-17,120,-72,42298,7904,1264,-2464,42235,422,34,-30,1389808198.226417
2,90,0,28920,-75,274,-126,29625,8320,-896,1696,29547,312,-326,19,1389808198.243859
3,90,0,44356,-43,74,-117,44175,7792,1264,-1968,42235,422,34,-30,1389808198.243868
2,91,0,30909,-123,345,-197,31504,8016,-1024,1456,29547,312,-326,19,1389808198.255443
3,91,0,46355,-72,14,-96,46051,7472,1104,-1392,44812,424,33,-30,1389808198.255452
2,92,0,32899,-209,368,-318,33383,7664,-992,1376,32109,312,-327,16,1389808198.255722
3,92,0,47355,-61,-15,-71,47928,7248,1120,-1120,47390,425,31,-28,1389808198.255729
2,93,0,34888,-351,310,-421,35264,7168,-720,1328,34669,306,-326,18,1389808198.273691
3,93,0,49354,-25,-23,-22,49805,7184,1104,-1088,49968,422,34,-24,1389808198.273699
2,94,0,36878,-429,255,-409,37143,6768,-608,1184,37230,309,-332,19,1389808198.285162
3,94,0,51354,13,-3,34,51681,7104,1008,-1232,49968,422,34,-24,1389808198.285176
2,95,0,38867,-452,240,-330,39023,6416,-608,1104,37230,309,-332,19,1389808198.285486
3,95,0,53353,47,60,77,53558,7008,944,-1536,52546,427,29,-32,1389808198.285793
2,96,0,40857,-433,246,-264,40902,6416,-576,1040,39791,309,-332,15,1389808198.303105
3,96,0,55352,63,118,82,55435,6816,928,-1744,55125,425,35,-27,1389808198.303114
2,97,0,42846,-411,236,-282,42781,6672,-672,1056,42351,306,-333,18,1389808198.315194
3,97,0,57352,59,175,82,57313,6944,976,-1936,55125,425,35,-27,1389808198.315220
2,98,0,44836,-394,206,-304,44661,7136,-592,944,44912,306,-336,23,1389808198.315413
3,98,0,59351,57,215,96,59190,7264,944,-2144,57703,422,36,-29,1389808198.315633
2,99,0,45831,-379,182,-309,46541,7456,-720,880,44912,306,-336,23,1389808198.333301
3,99,0,61351,21,245,139,61067,7520,912,-2400,60281,424,38,-34,1389808198.333309
2,100,0,47820,-346,129,-290,48421,7712,-768,896,47472,305,-338,13,1389808198.345107
3,100,0,62350,-10,248,170,62944,7648,912,-2496,62858,425,37,-35,1389808198.345116
2,101,0,49810,-340,80,-289,50300,7664,-752,1088,50034,301,-336,21,1389808198.345359
3,101,0,64350,-101,252,196,64822,7728,864,-2240,62858,425,37,-35,1389808198.351567
2,102,0,51799,-324,68,-296,52179,7552,-736,1376,50034,301,-336,21,1389808198.363218
3,102,0,813,-182,237,212,1163,7776,896,-1888,65437,425,40,-36,1389808198.363266
2,103,0,53789,-278,71,-298,54058,7392,-720,1536,52593,304,-342,24,1389808198.375181
3,103,0,2812,-234,233,203,3041,7840,960,-1600,2478,423,43,-42,1389808198.375190
2,104,0,55778,-191,76,-273,55937,7184,-720,1552,55155,306,-341,21,1389808198.375414
3,104,0,4812,-215,237,192,4918,7984,1040,-1376,5056,425,43,-45,1389808198.381580
2,105,0,57768,-85,82,-229,57816,7008,-800,1456,57715,301,-343,18,1389808198.393744
3,105,0,6811,-155,255,164,6795,8016,864,-1344,5056,425,43,-45,1389808198.393752
3,106,0,8811,-110,268,132,8672,8096,880,-1472,7633,426,43,-46,1389808198.405587
2,107,0,61747,30,109,-214,61575,7200,-912,848,60275,298,-349,18,1389808198.405862
3,107,0,10810,-53,276,118,10550,8048,752,-1664,10213,422,47,-52,1389808198.405868
2,108,0,62742,34,114,-221,63455,7456,-992,480,62836,303,-349,15,1389808198.423716
3,108,0,11810,-48,265,93,12427,7936,736,-1952,10213,422,47,-52,1389808198.423731
2,109,0,64731,-21,113,-228,65335,7696,-816,80,65396,299,-347,18,1389808198.435698
3,109,0,13809,-57,239,81,14305,8144,432,-2192,12791,426,48,-54,1389808198.435707
2,110,0,1185,-93,76,-213,1678,7760,-896,32,65396,299,-347,18,1389808198.435976
3,110,0,15809,-58,211,35,16183,7936,560,-2032,15369,425,46,-49,1389808198.435983
2,111,0,3174,-212,35,-174,3558,7856,-864,0,2421,294,-353,20,1389808198.453376
3,111,0,17808,-184,126,20,18060,8096,336,-1760,17948,422,49,-56,1389808198.453385
2,112,0,5164,-327,-39,-82,5439,7760,-976,96,4983,298,-349,20,1389808198.465522
3,112,0,19807,-246,67,-3,19937,7888,640,-1472,17948,422,49,-56,1389808198.465531
2,113,0,7153,-374,-94,-14,7318,7584,-1168,256,4983,298,-349,20,1389808198.465800
3,113,0,21807,-268,43,7,21814,7856,608,-1264,20527,423,49,-56,1389808198.465806
2,114,0,9143,-388,-130,-5,9197,7408,-1312,176,7544,298,-347,20,1389808198.482864
3,114,0,23806,-251,39,-10,23692,7872,752,-1136,23104,426,47,-55,1389808198.482874
2,115,0,11132,-371,-129,-84,11076,7216,-1136,0,10106,296,-347,27,1389808198.494971
3,115,0,25805,-225,70,-24,25568,7920,752,-1328,25680,423,49,-58,1389808198.494980
2,116,0,13122,-327,-97,-134,12955,6848,-912,-240,12667,300,-347,25,1389808198.495208
3,116,0,26805,-224,96,-31,27445,7904,784,-1744,25680,423,49,-58,1389808198.506730
2,117,0,14117,-298,-75,-111,14835,6704,-928,-640,12667,300,-347,25,1389808198.507002
3,117,0,28805,-247,154,-36,29323,7840,688,-2128,28259,422,46,-62,1389808198.507008
2,118,0,16106,-207,-3,2,16714,6896,-992,-1040,15228,294,-348,29,1389808198.524897
3,118,0,30804,-318,210,-40,31199,7808,432,-2432,30837,427,49,-62,1389808198.524906
2,119,0,18096,-216,38,114,18593,7040,-992,-1360,17790,294,-348,30,1389808198.525150
3,119,0,32803,-448,235,-37,33075,7760,432,-2464,30837,427,49,-62,1389808198.537284
2,120,0,20085,-382,37,181,20472,7216,-896,-1200,20351,299,-346,35,1389808198.537635
3,120,0,34803,-617,219,-38,34953,7744,320,-2272,33414,423,47,-61,1389808198.537642
2,121,0,22075,-563,9,223,22352,7424,-592,-528,20351,299,-346,35,1389808198.555619
3,121,0,36802,-775,186,-36,36830,7776,304,-1776,35992,420,50,-67,1389808198.555627
2,122,0,24064,-606,-28,229,24231,7536,-624,240,22914,298,-343,36,1389808198.555895
3,122,0,38801,-850,171,-16,38707,7872,288,-1264,38569,424,47,-71,1389808198.555901
2,123,0,26054,-707,-63,271,26110,7680,-880,560,25475,298,-340,37,1389808198.573973
3,123,0,40801,-841,178,12,40584,8032,464,-944,38569,424,47,-71,1389808198.573982
2,124,0,28043,-834,-64,301,27989,8000,-752,1200,28036,306,-336,45,1389808198.585888
3,124,0,41801,-826,176,35,42461,8144,576,-480,41146,424,49,-69,1389808198.585896
2,125,0,29038,-873,-65,296,29868,8224,-400,2512,28036,306,-336,45,1389808198.586116
3,125,0,43800,-775,171,81,44338,8256,528,-96,43723,419,51,-79,1389808198.586123
3,126,0,45799,-619,175,91,46214,8464,736,-64,46301,425,51,-82,1389808198.604126
2,127,0,33017,-869,-68,177,33626,8304,-672,3920,33158,303,-330,51,1389808198.615580
3,127,0,47799,-416,199,64,48091,8544,912,-96,46301,425,51,-82,1389808198.615589
2,128,0,35007,-486,-20,195,35505,8560,-1232,3584,33158,303,-330,51,1389808198.615860
3,128,0,49798,-224,219,30,49967,8672,960,-352,48880,423,47,-80,1389808198.615906
2,129,0,36996,129,79,171,37384,8912,-1744,2144,35718,303,-328,53,1389808198.634031
3,129,0,51797,-94,210,-29,51845,8688,800,-720,51459,422,51,-86,1389808198.634040
2,130,0,38986,610,202,118,39263,9216,-2304,-144,38280,309,-325,48,1389808198.646237
3,130,0,53797,-83,175,-63,53722,8640,752,-1168,51459,422,51,-86,1389808198.646259
2,131,0,40975,767,289,105,41144,9888,-2688,-2080,40841,302,-328,43,1389808198.646683
3,131,0,55796,-190,69,-51,55599,8928,480,-1312,54037,422,50,-88,1389808198.646692
2,132,0,42965,638,285,24,43023,10496,-2720,-3200,40841,302,-328,43,1389808198.664804
3,132,0,56796,-253,2,-38,57475,9184,464,-1136,56615,423,52,-80,1389808198.664812
2,133,0,44954,334,218,-89,44902,11024,-2592,-3456,43402,306,-325,40,1389808198.671064
3,133,0,58795,-365,-153,-21,59352,9408,192,-800,59193,417,51,-90,1389808198.671385
2,134,0,45949,136,170,-134,46781,11424,-2544,-2544,45963,310,-330,34,1389808198.683671
3,134,0,60795,-423,-259,0,61229,9568,-64,-416,59193,417,51,-90,1389808198.683680
2,135,0,47938,-396,92,-195,48661,12496,-2144,192,48524,304,-332,38,1389808198.695669
3,135,0,62794,-387,-281,22,63105,9744,80,-48,61772,423,51,-87,1389808198.695678
2,136,0,49928,-882,0,-380,50540,13008,-848,3088,48524,304,-332,38,1389808198.695956
3,136,0,64794,-241,-260,89,64981,10352,608,-32,64351,426,51,-80,1389808198.695963
2,137,0,51918,-856,-225,-535,52418,11728,-480,3952,51084,303,-334,45,1389808198.713331
3,137,0,1257,-10,-190,107,1322,11408,288,-816,1393,421,52,-82,1389808198.713340
2,138,0,53907,-341,-262,-528,54298,10816,-1040,3648,53646,310,-338,47,1389808198.725576
3,138,0,3256,157,-41,57,3198,11744,240,-1120,1393,421,52,-82,1389808198.725585
3,139,0,5256,183,116,123,5074,11552,960,-1056,3971,421,49,-86,1389808198.725825
2,140,0,57886,-101,175,-659,58056,9728,-1488,3456,56206,299,-342,50,1389808198.742789
3,140,0,6255,217,187,126,6951,11216,1648,-1472,6550,423,58,-82,1389808198.742797
2,141,0,59876,3,15,-705,59936,8448,-1440,5152,58765,299,-345,52,1389808198.754919
3,141,0,8255,339,258,46,8827,10176,1856,-2352,6550,423,58,-82,1389808198.754928
2,142,0,61865,384,-231,-661,61815,7120,-1248,4992,61325,299,-351,45,1389808198.755120
3,142,0,10254,422,118,-88,10704,8496,1904,-3024,9128,420,51,-80,1389808198.767237
2,143,0,62860,548,-306,-606,63693,6512,-1184,2992,61325,299,-351,45,1389808198.767457
3,143,0,12254,396,-147,-129,12581,7424,1904,-3472,11707,419,55,-80,1389808198.767464
2,144,0,64849,747,-281,-445,37,6688,-1296,1120,63886,293,-355,48,1389808198.784768
3,144,0,14253,319,-331,-156,14458,6960,1936,-3552,14284,423,52,-79,1389808198.784777
2,145,0,1303,613,-115,-365,1917,6976,-1008,384,911,287,-360,50,1389808198.790526
3,145,0,16252,331,-443,-196,16334,6784,2080,-3680,14284,423,52,-79,1389808198.790770
2,146,0,3293,311,-9,-443,3795,6624,-784,512,3472,289,-360,44,1389808198.802635
3,146,0,18252,351,-527,-276,18211,6768,2016,-3968,16862,420,50,-69,1389808198.802642
2,147,0,5282,-72,3,-472,5674,6064,-416,896,3472,289,-360,44,1389808198.814789
3,147,0,20251,351,-529,-392,20088,6576,1904,-4128,19441,422,47,-70,1389808198.814796
2,148,0,7272,-341,-37,-471,7554,5536,-304,1472,6032,286,-364,44,1389808198.820967
3,148,0,21251,349,-509,-449,21965,6080,1552,-4560,22019,429,42,-60,1389808198.821214
2,149,0,9261,-469,-22,-479,9432,5216,-96,2224,8593,282,-369,47,1389808198.833227
3,149,0,23250,234,-454,-480,23842,5728,928,-5120,22019,429,42,-60,1389808198.833234
2,150,0,11251,-463,8,-469,11311,5168,48,2864,11153,283,-371,50,1389808198.845272
3,150,0,25250,-23,-434,-362,25719,6096,496,-5120,24597,426,35,-58,1389808198.845279
2,151,0,12245,-428,15,-421,13190,5808,112,3328,11153,283,-371,50,1389808198.845613
3,151,0,27249,-359,-414,-144,27596,7120,272,-4336,27175,429,40,-56,1389808198.845862
2,152,0,14235,-234,2,-310,15069,7152,-144,3536,13714,281,-371,51,1389808198.863246
3,152,0,29248,-591,-402,56,29473,8080,256,-3424,27175,429,40,-56,1389808198.863254
2,153,0,16224,23,-38,-258,16948,8800,-496,3328,16276,273,-373,52,1389808198.875296
3,153,0,31248,-692,-390,166,31351,8608,416,-2528,29753,429,39,-54,1389808198.875306
2,154,0,18214,180,-89,-218,18828,9904,-880,2640,16276,273,-373,52,1389808198.875590
3,154,0,33247,-664,-379,206,33228,9056,560,-1760,32331,427,46,-45,1389808198.875802
2,155,0,20203,147,-125,-195,20706,9760,-1104,1840,18837,277,-372,52,1389808198.892597
3,155,0,35247,-558,-377,193,35104,9328,480,-1120,34909,427,47,-49,1389808198.892606
2,156,0,22193,-4,-78,-124,22116,8848,-1184,1616,21398,277,-372,50,1389808198.904675
3,156,0,36246,-486,-376,175,36980,9504,352,-640,34909,427,47,-49,1389808198.904684
2,157,0,24183,-174,6,-88,23996,7312,-1056,2048,23958,274,-374,52,1389808198.910845
3,157,0,38246,-330,-359,115,38857,9664,288,-496,37487,427,45,-47,1389808198.911037
2,158,0,26172,-271,66,-67,25875,6160,-768,2800,23958,274,-374,52,1389808198.923126
3,158,0,40245,-136,-324,30,40735,9776,272,-640,40064,427,47,-40,1389808198.923135
2,159,0,28162,-228,82,-18,27754,5712,-464,3504,26519,276,-375,57,1389808198.934711
3,159,0,42244,77,-274,-78,42611,9648,256,-944,42641,424,44,-38,1389808198.934726
2,160,0,29156,-137,86,8,29633,5872,-384,3808,29080,278,-374,54,1389808198.940605
3,160,0,44244,290,-212,-186,44487,9184,304,-1216,42641,424,44,-38,1389808198.940851
2,161,0,31146,113,76,79,31512,6624,-208,3760,31640,274,-370,52,1389808198.952661
3,161,0,46243,463,-168,-278,46364,8592,176,-1360,45218,424,39,-39,1389808198.952676
2,162,0,33135,358,62,145,33391,7552,-112,3280,31640,274,-370,52,1389808198.964827
3,162,0,48243,592,-179,-322,48240,8240,16,-1488,47797,425,38,-32,1389808198.964836
2,163,0,35125,532,34,196,35272,7968,-240,2576,34202,275,-375,54,1389808198.971016
3,163,0,50242,680,-220,-331,50117,7840,-112,-1392,47797,425,38,-32,1389808198.971271
2,164,0,37114,597,-14,241,37152,7952,-208,2016,36762,279,-371,47,1389808198.983143
3,164,0,52241,742,-259,-319,51993,7520,-144,-1216,50376,425,34,-28,1389808198.983152
2,165,0,39104,614,-78,288,39031,7968,-304,1712,39325,277,-369,41,1389808198.994719
3,165,0,53241,771,-271,-304,53870,7408,-128,-1152,52954,426,32,-28,1389808198.994729
2,166,0,41094,614,-162,298,40910,7984,-320,1648,39325,277,-369,41,1389808199.198
3,166,0,55240,846,-265,-266,55746,7584,-128,-1200,55533,426,32,-26,1389808199.419
2,167,0,43083,646,-224,298,42790,8032,-400,1600,41885,286,-374,42,1389808199.12203
3,167,0,57240,908,-234,-261,57623,7824,-160,-1296,55533,426,32,-26,1389808199.12211
2,168,0,45073,700,-263,294,44670,7968,-464,1392,44447,286,-367,38,1389808199.23921
3,168,0,59239,916,-214,-292,59499,7920,-96,-1456,58111,425,27,-16,1389808199.23930
2,169,0,46067,727,-265,289,46549,7808,-496,1200,44447,286,-367,38,1389808199.35708
3,169,0,61239,922,-196,-311,61376,7904,-96,-1584,60691,425,27,-18,1389808199.35722
2,170,0,48057,757,-260,293,48427,7584,-576,992,47006,284,-367,34,1389808199.36050
3,170,0,63238,873,-205,-273,63253,7664,-80,-1632,63269,428,21,-14,1389808199.36061
2,171,0,50046,731,-231,295,50306,7440,-448,880,49568,284,-362,38,1389808199.53682
3,171,0,65237,778,-191,-222,65129,7536,-192,-1632,63269,428,21,-14,1389808199.53696
2,172,0,52036,692,-209,292,52185,7488,-496,1104,52128,289,-363,32,1389808199.65312
3,172,0,1701,674,-172,-180,1470,7488,-240,-1472,312,428,17,-10,1389808199.65321
2,173,0,54025,663,-228,292,54065,7696,-368,1328,52128,289,-363,32,1389808199.65547
3,173,0,2700,648,-169,-166,3347,7456,-384,-1168,2890,428,18,-9,1389808199.65750
2,174,0,56015,691,-276,283,55944,7840,-240,1504,54691,286,-363,32,1389808199.83695
3,174,0,4700,623,-147,-140,5224,7360,-448,-880,2890,428,18,-9,1389808199.83704
2,175,0,58004,757,-304,277,57823,7952,-240,1456,57251,288,-357,33,1389808199.95756
3,175,0,6699,649,-126,-145,7101,7440,-304,-768,5467,428,14,-5,1389808199.95764
2,176,0,59994,808,-310,285,59701,8160,-400,1248,59812,293,-359,27,1389808199.95974
3,176,0,8699,709,-89,-146,8978,7440,-160,-720,8045,425,12,-1,1389808199.95981
2,177,0,60989,827,-303,271,61580,8176,-432,1152,59812,293,-359,27,1389808199.113315
3,177,0,10698,784,-62,-141,10856,7360,-16,-560,10622,425,11,-4,1389808199.113324
2,178,0,62978,821,-294,248,63459,8144,-512,1136,62371,289,-360,28,1389808199.124730
3,178,0,12697,868,-40,-142,12733,7280,80,-512,10622,425,11,-4,1389808199.124780
2,179,0,64968,823,-294,209,65338,8032,-560,1040,64933,291,-358,26,1389808199.130599
3,179,0,14697,930,-36,-122,14611,7136,256,-432,13200,426,11,-1,1389808199.130805
2,180,0,1421,864,-288,192,1681,7952,-640,1200,1958,294,-358,22,1389808199.142677
3,180,0,16696,974,-40,-51,16487,6912,576,-608,15778,428,7,3,1389808199.142686
2,181,0,3411,912,-300,182,3559,7856,-704,1312,1958,294,-358,22,1389808199.154534
3,181,0,17696,1028,-31,39,18364,6896,480,-896,18356,430,10,2,1389808199.154548
2,182,0,5400,947,-336,174,5438,7808,-800,1360,4519,292,-359,20,1389808199.166414
3,182,0,19695,1187,35,192,20241,7088,304,-1120,18356,430,10,2,1389808199.166423
2,183,0,7390,982,-376,154,7318,7664,-736,1296,7080,292,-356,20,1389808199.166690
3,183,0,21695,1205,111,156,22118,7360,224,-1152,20933,428,7,2,1389808199.166696
2,184,0,9379,1007,-385,145,9196,7648,-800,1296,7080,292,-356,20,1389808199.184652
3,184,0,23694,1207,130,6,23994,7712,208,-1008,23511,429,8,5,1389808199.184667
2,185,0,11369,1021,-356,106,11075,7600,-720,1248,9641,295,-357,15,1389808199.190363
3,185,0,25693,1203,118,-36,25871,8016,-880,-448,23511,429,8,5,1389808199.190540
2,186,0,12364,1045,-330,108,12954,7488,-736,1296,12202,297,-356,11,1389808199.202186
3,186,0,27693,913,-54,-181,27747,8064,-144,560,26091,426,1,5,1389808199.202195
2,187,0,14353,1121,-274,96,14833,7504,-848,1440,14763,290,-360,7,1389808199.214277
3,187,0,29692,946,-265,-290,29625,7744,64,992,28669,426,256,9,1389808199.214287
2,188,0,16343,1224,-226,83,16713,7408,-720,1360,14763,290,-360,7,1389808199.226699
3,188,0,31692,1166,-289,-163,31501,7728,128,576,31247,433,0,10,1389808199.226715
2,189,0,18332,1337,-176,87,18591,7488,-528,1168,17324,296,-360,5,1389808199.227045
3,189,0,32691,1221,-280,-138,33377,7728,592,-224,31247,433,0,10,1389808199.227056
2,190,0,20322,1416,-146,102,20471,7680,-352,832,19884,295,-358,-3,1389808199.245115
3,190,0,34691,1341,-207,-55,35254,8016,320,-1136,33825,427,-5,17,1389808199.245124
2,191,0,22311,1413,-141,133,22350,7824,-240,288,22445,291,-360,-9,1389808199.245347
3,191,0,36690,1458,-127,-19,37131,8416,592,-1968,36403,428,-4,16,1389808199.251532
2,192,0,24301,1347,-167,169,24230,8000,-608,96,22445,291,-360,-9,1389808199.263142
3,192,0,38689,1445,-100,-212,39008,8576,1392,-2736,38981,430,-13,19,1389808199.263151
2,193,0,26290,1201,-220,185,26110,8128,-512,32,25006,296,-357,-12,1389808199.275250
3,193,0,40689,1433,-75,-377,40886,7920,2176,-3760,38981,430,-13,19,1389808199.275259
2,194,0,28280,940,-295,183,27989,8272,-464,32,27567,294,-356,-19,1389808199.275555
3,194,0,42688,1539,7,-312,42763,7248,1520,-4704,41558,430,-20,21,1389808199.275766
2,195,0,29275,775,-319,162,29869,8160,-784,480,30128,294,-357,-18,1389808199.293817
3,195,0,44688,1310,105,-262,44640,7616,-320,-5312,44136,427,-20,22,1389808199.293831
2,196,0,31264,480,-367,109,31749,7824,-864,1280,30128,294,-357,-18,1389808199.306030
3,196,0,46687,593,15,-336,46517,8480,-1600,-4224,44136,427,-20,22,1389808199.306039
2,197,0,33254,353,-370,121,33628,7536,-672,2064,32689,301,-356,-15,1389808199.306305
3,197,0,47687,193,-123,-359,48394,9488,-1600,-1552,46715,431,-22,24,1389808199.306311
2,198,0,35243,439,-320,159,35508,7584,-560,2272,35250,301,-354,-16,1389808199.323803
3,198,0,49686,-308,-426,-423,50271,9920,-512,784,49291,431,-27,28,1389808199.323812
2,199,0,37233,694,-230,201,37388,7632,-528,2128,35250,301,-354,-16,1389808199.335665
3,199,0,51685,-249,-577,-402,52148,10176,-304,2816,51870,426,-29,30,1389808199.335674
2,200,0,39222,993,-122,258,39267,7808,-592,1552,37810,298,-353,-20,1389808199.335942
3,200,0,53685,204,-575,-349,54026,10608,-592,3728,51870,426,-29,30,1389808199.335949
2,201,0,41212,1270,-16,331,41147,8112,-592,960,40370,299,-352,-23,1389808199.354008
3,201,0,55684,876,-445,-281,55903,10576,-624,3120,54447,428,-32,35,1389808199.354017
2,202,0,43201,1466,39,393,43026,8480,-560,320,42931,302,-352,-31,1389808199.365927
3,202,0,57684,1455,-257,-209,57780,9760,-560,1488,57025,429,-37,40,1389808199.365936
2,203,0,44196,1531,38,418,44905,9168,-704,-208,42931,302,-352,-31,1389808199.366206
3,203,0,59683,1704,-156,-198,59657,8752,-672,-224,59603,426,-43,43,1389808199.366253
2,204,0,46186,1565,-29,449,46784,9568,-912,-496,45490,304,-345,-41,1389808199.383970
3,204,0,61682,1630,-175,-206,61534,8400,-400,-1376,59603,426,-43,43,1389808199.383978
2,205,0,48175,1516,-194,484,48664,9776,-1056,-464,48051,304,-343,-45,1389808199.395565
3,205,0,62682,1527,-205,-165,63411,8608,-208,-2336,62181,432,-48,44,1389808199.395574
2,206,0,50165,1405,-388,545,50544,9808,-1376,-144,50612,310,-337,-44,1389808199.395831
3,206,0,64681,1274,-191,-4,65288,9648,336,-3072,64759,427,-49,49,1389808199.395837
2,207,0,52154,1237,-528,592,52423,9824,-1536,640,50612,310,-337,-44,1389808199.413699
3,207,0,1145,901,-114,65,1630,10624,1328,-3856,64759,427,-49,49,1389808199.413708
2,208,0,54144,999,-588,603,54302,9808,-1552,1648,53172,313,-333,-52,1389808199.425857
3,208,0,3144,748,150,139,3507,11456,2096,-4272,1802,427,-49,52,1389808199.425871
2,209,0,56133,789,-535,596,56181,9744,-1504,2384,55733,316,-330,-50,1389808199.426211
3,209,0,5144,591,395,198,5385,11456,2512,-4304,4380,429,-47,45,1389808199.426222
2,210,0,58123,586,-413,567,58061,9760,-1504,3008,55733,316,-330,-50,1389808199.443385
3,210,0,7143,524,586,298,7262,10400,2768,-4080,6958,430,-46,40,1389808199.443394
2,211,0,60112,377,-279,508,59939,9792,-1584,3680,58293,316,-323,-48,1389808199.455514
3,211,0,9142,479,668,313,9140,8752,3104,-3520,6958,430,-46,40,1389808199.455529
2,212,0,61107,294,-227,467,61819,9840,-1488,4368,60855,321,-321,-53,1389808199.455857
3,212,0,11142,541,574,379,11017,7776,2912,-3088,9536,431,-42,36,1389808199.455868
2,213,0,63097,226,-163,376,63699,9760,-1136,4960,63416,320,-321,-48,1389808199.473533
3,213,0,12142,606,514,460,12894,7904,2368,-2752,12114,431,-39,28,1389808199.473547
2,214,0,65086,210,-147,301,42,9376,-624,5504,63416,320,-321,-48,1389808199.485686
3,214,0,14141,642,380,425,14771,8416,2160,-2304,14691,434,-38,25,1389808199.485695
2,215,0,1540,243,-172,244,1921,8448,-256,5568,440,324,-319,-44,1389808199.485964
3,215,0,16140,700,249,381,16647,8528,2224,-1936,14691,434,-38,25,1389808199.485970
2,216,0,3529,371,-139,231,3800,7296,-80,5056,3001,324,-314,-45,1389808199.504038
3,216,0,18140,853,172,433,18524,8144,1616,-1936,17269,430,-36,24,1389808199.504048
2,217,0,5519,643,-29,241,5678,6352,-144,4144,5563,320,-315,-49,1389808199.515374
3,217,0,20139,1081,260,288,20401,7072,1600,-1888,19846,430,-34,22,1389808199.515383
2,218,0,7508,885,41,218,7557,6176,-160,3040,5563,320,-315,-49,1389808199.515629
3,218,0,22138,1238,397,125,22277,5904,2016,-2032,19846,430,-34,22,1389808199.515835
2,219,0,9498,1073,-32,272,9436,6640,-320,2496,8124,326,-314,-51,1389808199.533876
3,219,0,24138,1281,438,80,24155,5792,1808,-2304,22423,431,-33,20,1389808199.533885
2,220,0,11487,1128,-144,263,11314,7088,-512,2336,10684,328,-309,-60,1389808199.545742
3,220,0,26137,1227,442,95,26032,6336,1904,-2816,25000,433,-37,20,1389808199.545752
2,221,0,12482,1093,-169,229,13193,7344,-480,2864,13245,330,-307,-60,1389808199.546007
3,221,0,27137,1191,458,102,27909,7216,2112,-3344,27580,431,-35,11,1389808199.546014
2,222,0,14472,1013,-198,141,15071,7520,-512,3744,13245,330,-307,-60,1389808199.563418
3,222,0,29136,1087,492,100,29786,8000,2448,-3280,27580,431,-35,11,1389808199.563426
2,223,0,16461,1042,-229,121,16950,7808,-576,4192,15807,330,-310,-62,1389808199.575679
3,223,0,31136,991,514,146,31663,8768,2496,-2864,30158,437,-37,8,1389808199.575705
2,224,0,18451,1203,-276,70,18829,8448,-592,4368,18368,331,-305,-66,1389808199.575985
3,224,0,33135,960,455,172,33540,9264,2448,-2272,32736,435,-35,7,1389808199.575998
2,225,0,20440,1408,-291,62,20708,9216,-656,3968,18368,331,-305,-66,1389808199.594011
3,225,0,35135,993,393,144,35417,9168,2480,-1824,35314,432,-34,5,1389808199.594020
2,226,0,22430,1568,-268,67,22587,9712,-864,3280,20929,331,-306,-68,1389808199.605434
3,226,0,37134,1070,281,104,37295,8688,2304,-1248,35314,432,-34,5,1389808199.605443
2,227,0,24419,1555,-251,-5,24466,9488,-912,2560,23489,326,-307,-72,1389808199.605710
3,227,0,39133,1199,173,86,39172,8272,2272,-992,37892,436,-38,0,1389808199.605716
2,228,0,26409,1443,-261,-42,26345,8928,-928,1968,26051,332,-304,-79,1389808199.623103
3,228,0,41133,1361,87,46,41049,8096,2240,-912,40470,438,-37,0,1389808199.623113
2,229,0,27404,1369,-285,-56,28225,8352,-960,1680,26051,332,-304,-79,1389808199.634864
3,229,0,42132,1446,55,25,42927,7888,2288,-1040,40470,438,-37,0,1389808199.634873
2,230,0,29393,1241,-331,-40,30105,7968,-800,1552,28612,330,-305,-84,1389808199.635123
3,230,0,44132,1588,20,11,44805,7744,2240,-1424,43048,431,-39,1,1389808199.646575
2,231,0,31383,1143,-374,-25,31983,7520,-640,1472,31173,329,-305,-82,1389808199.646851
3,231,0,46131,1676,25,31,46681,7664,2144,-2080,45626,434,-40,2,1389808199.646857
2,232,0,33372,1123,-410,15,33862,7152,-448,1504,33733,332,-300,-86,1389808199.664915
3,232,0,48131,1678,59,61,48559,7600,1936,-2544,48203,435,-39,3,1389808199.664924
2,233,0,35362,1142,-418,24,35741,6832,-320,1408,33733,332,-300,-86,1389808199.665173
3,233,0,50130,1589,126,69,50437,7600,1856,-2704,48203,435,-39,3,1389808199.671051
2,234,0,37351,1191,-409,28,37620,6656,-208,1328,36294,332,-304,-84,1389808199.683129
3,234,0,52129,1476,190,74,52313,7584,1728,-2640,50781,432,-39,2,1389808199.683138
2,235,0,39341,1248,-371,60,39499,6624,-80,1392,38856,329,-301,-85,1389808199.694838
2,236,0,41330,1326,-307,112,41377,6816,-208,1360,41418,332,-300,-87,1389808199.701053
3,236,0,56128,1400,264,-18,56068,7488,1744,-2240,55937,438,-46,-3,1389808199.701310
2,237,0,43320,1349,-260,132,43256,6896,-336,1344,41418,332,-300,-87,1389808199.713115
3,237,0,57128,1399,280,-15,57946,7520,1680,-2224,55937,438,-46,-3,1389808199.713124
2,238,0,44315,1355,-251,141,45134,7056,-496,1376,43981,332,-294,-96,1389808199.725205
3,238,0,59127,1376,293,-52,59824,7632,1760,-2016,58515,437,-47,-5,1389808199.725214
2,239,0,46304,1365,-246,166,47013,7184,-560,1440,46543,336,-296,-96,1389808199.725465
3,239,0,61127,1329,295,-45,61701,7728,1888,-1856,61093,435,-47,-8,1389808199.725720
2,240,0,48294,1385,-271,217,48891,7280,-688,1504,46543,336,-296,-96,1389808199.742929
3,240,0,63126,1295,297,-5,63578,7936,1936,-1664,61093,435,-47,-8,1389808199.742939
2,241,0,50283,1454,-285,284,50769,7440,-832,1472,49104,336,-291,-100,1389808199.755015
2,242,0,52273,1519,-302,362,52647,7568,-800,1424,51665,336,-286,-105,1389808199.755272
3,242,0,1589,1286,321,-2,1797,8176,2208,-1600,713,437,-52,-14,1389808199.761674
2,243,0,54262,1574,-324,445,54526,7600,-720,1296,54227,333,-282,-106,1389808199.773152
3,243,0,3588,1265,299,-28,3674,8496,2224,-1632,3291,434,-49,-17,1389808199.773161
2,244,0,56252,1635,-331,520,56404,7664,-720,1280,54227,333,-282,-106,1389808199.784908
3,244,0,5588,1272,269,-74,5551,8736,2112,-1712,3291,434,-49,-17,1389808199.784922
2,245,0,58241,1674,-359,576,58283,7696,-608,1072,56788,338,-277,-110,1389808199.785227
3,245,0,6587,1279,242,-101,7428,8832,2224,-1744,5869,439,-53,-15,1389808199.791614
2,246,0,60231,1692,-356,608,60161,7776,-704,912,59348,343,-268,-113,1389808199.803152
3,246,0,8587,1320,188,-154,9305,8560,2160,-1680,8448,440,-58,-15,1389808199.803161
2,247,0,61226,1692,-355,623,62040,7760,-688,752,61909,340,-263,-115,1389808199.814831
3,247,0,10586,1356,133,-195,11183,8256,2064,-1552,11026,435,-60,-16,1389808199.814840
2,248,0,63215,1638,-351,634,63918,7632,-704,640,61909,340,-263,-115,1389808199.821015
3,248,0,12585,1363,96,-240,13061,8032,2128,-1408,11026,435,-60,-16,1389808199.821270
2,249,0,65205,1577,-336,630,261,7408,-784,608,64470,348,-257,-121,1389808199.833221
3,249,0,14585,1379,104,-267,14939,7888,2144,-1408,13604,437,-61,-21,1389808199.833229
2,250,0,1658,1510,-309,643,2139,7264,-736,528,1495,350,-505,-123,1389808199.845464
3,250,0,16584,1375,133,-269,16816,7920,2160,-1440,16183,440,-65,-20,1389808199.845473
2,251,0,3648,1458,-285,686,4018,7104,-896,432,1495,350,-505,-123,1389808199.845705
3,251,0,18584,1394,186,-276,18694,7920,2304,-1568,16183,440,-65,-20,1389808199.845712
2,252,0,5637,1425,-241,740,5897,7104,-1008,448,4057,354,-241,-125,1389808199.863402
3,252,0,20583,1366,230,-270,20571,8016,2464,-1776,18761,433,-70,-18,1389808199.863411
2,253,0,7627,1371,-209,785,7777,7184,-1088,496,6619,354,-233,-124,1389808199.874867
3,253,0,21583,1357,242,-289,22448,7824,2592,-1952,21340,434,-68,-24,1389808199.874876
2,254,0,9616,1334,-196,823,9655,7168,-1184,448,9181,357,-224,-127,1389808199.875097
3,254,0,23582,1340,268,-304,24325,7792,2688,-2128,23917,440,-75,-31,1389808199.887085
2,255,0,10611,1321,-192,851,11535,7296,-1216,528,9181,357,-224,-127,1389808199.887358
3,255,0,25581,1322,285,-355,26203,7712,2864,-2400,23917,440,-75,-31,1389808199.887364
2,0,0,12601,1299,-200,879,13414,7440,-1312,448,11743,357,-215,-131,1389808199.905365
3,0,0,27581,1317,289,-412,28081,7568,3136,-2384,26495,438,-82,-31,1389808199.905374
2,1,0,14590,1256,-203,862,15293,7520,-1248,368,14305,360,-208,-129,1389808199.905630
3,1,0,29580,1328,288,-388,29957,7648,3152,-2608,29072,435,-83,-30,1389808199.905866
2,2,0,16580,1216,-198,820,17173,7632,-1136,208,16866,362,-199,-133,1389808199.923200
3,2,0,31580,1374,324,-399,31833,7600,3152,-2928,31650,440,-87,-34,1389808199.923208
2,3,0,18569,1183,-184,799,19052,7808,-1104,16,16866,362,-199,-133,1389808199.935020
3,3,0,33579,1381,358,-413,33710,7440,3232,-3088,31650,440,-87,-34,1389808199.935027
2,4,0,20559,1141,-152,763,20931,8000,-1072,0,19428,366,-192,-136,1389808199.935265
3,4,0,35578,1384,339,-400,35587,7248,2720,-2944,34228,435,-96,-38,1389808199.941419
2,5,0,22548,1056,-99,725,22810,8176,-1168,-32,21988,363,-187,-134,1389808199.953630
3,5,0,36578,1335,300,-411,37464,7504,2256,-3040,36805,435,-96,-45,1389808199.953644
2,6,0,24538,943,-57,665,24689,8272,-1248,176,24550,368,-178,-137,1389808199.965565
3,6,0,38577,963,189,-528,39341,7952,2448,-3232,36805,435,-96,-45,1389808199.965574
2,7,0,26527,836,-4,622,26568,8256,-880,416,24550,368,-178,-137,1389808199.965766
3,7,0,40577,766,96,-521,41218,8352,2112,-2480,39382,439,-100,-43,1389808199.965771
2,8,0,27522,750,21,593,28447,8368,-400,576,27111,371,-173,-135,1389808199.983788
3,8,0,42576,629,-23,-549,43095,8512,1712,-1600,41958,439,-108,-41,1389808199.983797
2,9,0,29511,716,110,485,30326,8480,-912,416,29671,368,-165,-137,1389808199.995526
3,9,0,44576,625,-129,-625,44971,8512,1872,-1856,44535,437,-113,-45,1389808199.995535
2,10,0,31501,629,174,511,32204,8496,-992,880,29671,368,-165,-137,1389808199.995788
3,10,0,46575,576,-149,-642,46848,8208,1776,-1104,44535,437,-113,-45,1389808199.995795
2,11,0,33491,451,144,409,33614,8384,-1104,1488,32233,372,-163,-140,1389808200.13436
3,11,0,48574,548,-215,-617,48724,8160,2464,-240,47112,437,-118,-44,1389808200.13444
2,12,0,35480,395,122,439,35493,8256,-1088,2144,34793,372,-158,-143,1389808200.24795
3,12,0,50574,733,-220,-603,50601,8128,2848,-160,49690,434,-125,-40,1389808200.24803
2,13,0,37470,504,156,450,37371,8192,-1040,2592,37356,371,-155,-144,1389808200.30563
3,13,0,51574,808,-201,-565,52478,8256,2816,-880,52267,434,-128,-42,1389808200.30822
2,14,0,39459,745,218,428,39250,8032,-1024,2320,37356,371,-155,-144,1389808200.42883
3,14,0,53573,885,-108,-516,54355,8512,2816,-1728,52267,434,-128,-42,1389808200.42892
2,15,0,41449,1020,292,438,41128,8096,-1280,1728,39917,373,-149,-147,1389808200.55083
3,15,0,55572,871,-11,-493,56232,8640,2912,-2112,54845,439,-136,-43,1389808200.55097
2,16,0,43438,1184,311,442,43007,8416,-1376,784,42477,371,-145,-152,1389808200.55402
3,16,0,57572,793,28,-496,58109,8624,2688,-2160,57422,439,-137,-41,1389808200.61583
2,17,0,44433,1210,315,425,44887,8640,-1504,-160,45038,368,-141,-157,1389808200.73704
3,17,0,59571,688,-3,-536,59985,8656,2176,-2032,57422,439,-137,-41,1389808200.73718
2,18,0,46422,1142,286,337,46766,8896,-1632,-848,45038,368,-141,-157,1389808200.85851
3,18,0,61570,562,-107,-593,61862,8704,2080,-1472,60000,434,-143,-43,1389808200.85860
2,19,0,48412,1000,266,207,48646,9200,-1792,-1216,47598,374,-137,-154,1389808200.86131
3,19,0,63570,472,-234,-617,63739,8480,2112,-1168,62577,434,-146,-39,1389808200.86137
2,20,0,50402,841,248,108,50525,9376,-2032,-1120,50160,375,-134,-163,1389808200.103589
3,20,0,33,435,-337,-607,81,8320,2208,-816,65155,432,-153,-40,1389808200.103603
2,21,0,52391,714,219,43,52404,9104,-2144,-576,52721,367,-133,-166,1389808200.115876
3,21,0,1033,411,-373,-574,1489,8336,2304,-736,65155,432,-153,-40,1389808200.115922
2,22,0,54381,610,179,6,54284,8560,-2240,32,52721,367,-133,-166,1389808200.116136
3,22,0,3032,364,-412,-505,3366,8576,2400,-496,2197,432,-159,-37,1389808200.116141
2,23,0,56370,491,129,-12,56163,8416,-2240,544,55283,371,-133,-163,1389808200.134096
3,23,0,5032,349,-382,-441,5243,8800,2624,-144,4776,430,-161,-35,1389808200.134105
2,24,0,58360,445,71,-36,58042,8928,-2080,1248,57845,373,-130,-170,1389808200.145820
3,24,0,7031,387,-344,-402,7119,9008,2720,64,7353,430,-166,-31,1389808200.145830
2,25,0,59354,454,47,-64,59920,9552,-1760,1920,57845,373,-130,-170,1389808200.146074
3,25,0,9031,433,-299,-356,8997,9312,2480,208,7353,430,-166,-31,1389808200.146081
2,26,0,61344,483,11,-82,61799,9808,-1328,2448,60405,371,-132,-170,1389808200.163583
3,26,0,11030,535,-279,-338,10874,9632,2464,208,9930,429,-174,-28,1389808200.163592
2,27,0,63333,578,18,6,63678,9664,-1344,2528,62966,371,-130,-168,1389808200.175702
3,27,0,13029,671,-260,-363,12751,9664,2416,-16,12509,427,-171,-26,1389808200.175711
2,28,0,65323,750,53,98,20,9584,-1408,2400,65527,373,-129,-172,1389808200.175949
