nodeID,seqNumber,status,gyroTick,gyroX,gyroY,gyroZ,accelTick,accelX,accelY,accelZ,magTick,magX,magY,magZ,currentTime
2,193,0,56628,-59,-70,-40,57297,7088,32,4048,55283,329,68,154,1389808259.167195
3,193,0,6098,-70,22,-15,6384,7616,1456,-3824,5299,321,-249,-362,1389808259.167227
2,194,0,58617,-63,-61,-41,59177,7152,112,3984,57844,330,71,155,1389808259.167231
3,194,0,8098,-59,18,-9,8262,7584,1536,-3792,7877,331,-249,-366,1389808259.167235
2,195,0,60607,-65,-57,-40,61056,7168,48,4016,60404,323,68,153,1389808259.167238
3,195,0,10097,-57,25,-7,10140,7472,1472,-3904,7877,331,-249,-366,1389808259.167259
2,196,0,62596,-56,-47,-38,62936,7280,80,4032,60404,323,68,153,1389808259.167262
3,196,0,12097,-70,17,3,12018,7568,1424,-3936,10456,326,-245,-365,1389808259.167265
2,197,0,64586,-63,-35,-67,64815,7264,96,4112,62965,330,69,153,1389808259.167268
3,197,0,13096,-71,18,-4,13895,7568,1440,-3936,13034,317,-246,-365,1389808259.167271
2,198,0,1040,-55,-31,-58,1158,7280,64,4112,65526,330,74,156,1389808259.167274
3,198,0,15096,-75,7,-6,15772,7552,1488,-3904,15612,328,-248,-362,1389808259.167277
2,199,0,3029,-53,-25,-65,3037,7280,112,4144,2551,324,71,155,1389808259.167281
3,199,0,17095,-67,12,-5,17650,7616,1456,-3904,15612,328,-248,-362,1389808259.167284
2,200,0,4024,-50,-22,-66,4917,7200,16,4128,2551,324,71,155,1389808259.167287
3,200,0,19095,-65,6,-7,19528,7648,1440,-3936,18190,330,-250,-362,1389808259.167290
2,201,0,6014,-50,-25,-69,6796,7264,-16,4176,5112,329,65,155,1389808259.167293
3,201,0,21094,-68,1,-27,21406,7632,1488,-3920,20768,321,-248,-360,1389808259.167296
2,202,0,8003,-53,0,-69,8675,7248,80,4080,7673,337,72,154,1389808259.167299
3,202,0,23093,-63,-10,-24,23284,7600,1504,-4000,23345,327,-249,-360,1389808259.167302
2,203,0,9993,-48,2,-63,10555,7248,80,4032,10234,328,71,153,1389808259.167306
3,203,0,25093,-60,-13,-15,25163,7552,1408,-3984,23345,327,-249,-360,1389808259.167309
3,204,0,27092,-75,-13,-1,27041,7536,1472,-3920,25922,329,-250,-365,1389808259.167312
2,205,0,13972,-45,12,-85,13844,7232,48,4080,12794,327,63,155,1389808259.167315
3,205,0,28092,-73,-10,-3,28919,7536,1472,-3856,28500,327,-248,-363,1389808259.167318
2,206,0,15961,-51,19,-78,15724,7168,64,4048,15354,330,71,154,1389808259.167321
3,206,0,30092,-81,-14,-2,30797,7616,1472,-3840,28500,327,-248,-363,1389808259.167324
2,207,0,17951,-51,15,-71,17603,7136,48,4144,17915,328,73,151,1389808259.167327
3,207,0,32091,-76,-18,17,32675,7600,1488,-3712,31079,327,-248,-358,1389808259.167330
2,208,0,18946,-50,28,-75,19483,7120,-32,4144,17915,328,73,151,1389808259.167333
3,208,0,34090,-71,-18,19,34553,7584,1536,-3728,33656,323,-247,-364,1389808259.167336
2,209,0,20935,-55,15,-71,21363,7104,16,4272,20476,324,62,153,1389808259.167339
3,209,0,36090,-50,-12,33,36431,7616,1504,-3776,36234,323,-249,-360,1389808259.167342
2,210,0,22925,-51,20,-77,23242,7088,48,4320,23036,334,68,149,1389808259.167373
3,210,0,38089,-39,-17,37,38308,7600,1536,-3776,36234,323,-249,-360,1389808259.167376
2,211,0,24915,-36,24,-65,25121,7024,80,4272,23036,334,68,149,1389808259.167379
3,211,0,40089,-13,-20,19,40185,7600,1488,-3824,38812,329,-248,-361,1389808259.167382
2,212,0,26904,-8,32,-44,27000,7040,64,4288,25597,326,75,150,1389808259.167385
3,212,0,42088,5,-31,1,42063,7520,1600,-3920,41389,329,-251,-361,1389808259.167388
2,213,0,28894,13,25,-43,28880,7024,80,4208,28158,326,67,153,1389808259.167402
3,213,0,43088,9,-34,10,43940,7392,1536,-3984,41389,329,-251,-361,1389808259.167404
2,214,0,30883,34,26,-35,30759,7072,16,4176,30718,331,69,149,1389808259.167405
3,214,0,45087,15,-20,3,45817,7440,1504,-4064,43967,321,-249,-362,1389808259.167407
2,215,0,32873,30,25,-53,32638,7120,16,4080,30718,331,69,149,1389808259.167409
3,215,0,47087,6,-19,0,47694,7520,1552,-4080,46545,321,-252,-358,1389808259.167410
2,216,0,34862,7,19,-63,34518,7136,112,4112,33279,331,72,153,1389808259.167412
3,216,0,49086,-14,-13,-17,49571,7472,1616,-4080,49123,326,-248,-360,1389808259.167414
2,217,0,35857,-2,17,-61,36398,7072,112,4160,35841,326,65,149,1389808259.167415
3,217,0,51086,-20,-15,-21,51448,7504,1536,-4032,49123,326,-248,-360,1389808259.167417
2,218,0,37847,-15,6,-72,38277,7040,128,4192,38401,333,65,151,1389808259.167459
3,218,0,53085,-14,-17,-14,53325,7520,1600,-4096,51702,326,-250,-363,1389808259.167461
2,219,0,39836,-17,8,-75,40156,6944,96,4224,38401,333,65,151,1389808259.167463
3,219,0,55085,-17,-18,-20,55202,7408,1600,-4064,54279,328,-253,-356,1389808259.167465
2,220,0,41826,-3,10,-52,42035,6992,112,4240,40961,333,70,156,1389808259.167466
3,220,0,57084,-6,-10,-12,57080,7312,1616,-4112,56857,328,-246,-359,1389808259.167468
2,221,0,43815,23,32,-34,43914,7040,64,4160,43521,327,65,146,1389808259.167470
3,221,0,58084,-8,6,3,58956,7328,1584,-4144,56857,328,-246,-359,1389808259.167471
2,222,0,45805,36,34,-39,45793,7216,32,3968,46082,332,66,150,1389808259.167473
3,222,0,60083,-30,21,-2,60833,7504,1584,-4128,59435,323,-247,-360,1389808259.167475
2,223,0,47795,12,41,-60,47674,7200,32,3904,46082,332,66,150,1389808259.167476
3,223,0,62083,-44,19,-14,62710,7456,1584,-4128,62012,323,-245,-360,1389808259.167478
2,224,0,49784,-42,27,-69,49553,7184,48,3968,48642,327,70,157,1389808259.167480
3,224,0,64082,-59,25,-4,64587,7504,1584,-4048,62012,323,-245,-360,1389808259.167481
2,225,0,51774,-88,5,-71,51432,7104,64,4160,51202,327,66,149,1389808259.167483
3,225,0,545,-66,19,-3,928,7424,1552,-3936,64590,329,-248,-361,1389808259.167484
2,226,0,52769,-87,-7,-68,53310,6928,80,4304,51202,327,66,149,1389808259.167486
3,226,0,2545,-69,9,-23,2805,7424,1504,-3872,1632,329,-253,-362,1389808259.167488
2,227,0,54758,-80,-1,-43,55190,6912,64,4384,53764,330,65,149,1389808259.167490
3,227,0,4544,-71,5,-6,4682,7360,1504,-3952,4210,325,-248,-360,1389808259.167491
2,228,0,56748,-48,15,-37,57068,6944,48,4320,56324,335,70,145,1389808259.167493
3,228,0,6544,-69,15,-3,6559,7408,1584,-3904,4210,325,-248,-360,1389808259.167495
2,229,0,58737,-24,9,-50,58947,7008,96,4256,58886,328,69,152,1389808259.167496
3,229,0,7543,-74,26,0,8436,7488,1568,-3808,6788,327,-249,-358,1389808259.167498
2,230,0,60727,-20,7,-48,60826,7008,32,4224,58886,328,69,152,1389808259.167500
3,230,0,9543,-65,38,7,10313,7600,1536,-3792,9366,332,-250,-359,1389808259.167501
2,231,0,62716,-23,2,-52,62704,7072,48,4272,61446,329,65,144,1389808259.167503
3,231,0,11542,-46,42,3,12189,7680,1488,-3776,11943,323,-248,-358,1389808259.167505
2,232,0,64706,-10,-16,-47,64583,7040,80,4256,64007,335,66,147,1389808259.167506
3,232,0,13542,-31,45,-4,14066,7648,1488,-3760,11943,323,-248,-358,1389808259.167508
2,233,0,1160,-10,-19,-41,926,7040,64,4288,1031,328,68,148,1389808259.167510
3,233,0,15541,-22,41,-15,15944,7568,1504,-3776,14520,324,-246,-358,1389808259.167511
2,234,0,2154,-12,-16,-36,2807,7024,48,4368,1031,328,68,148,1389808259.167513
3,234,0,17541,5,27,-14,17821,7552,1536,-3792,17097,333,-247,-359,1389808259.167515
2,235,0,4144,-5,-21,-27,4686,7008,32,4400,3592,329,65,147,1389808259.167516
3,235,0,19540,21,20,-10,19229,7616,1488,-3712,19675,325,-250,-362,1389808259.167518
2,236,0,6134,24,-16,-23,6565,6976,96,4304,6152,335,67,149,1389808259.167520
3,236,0,21540,46,20,-15,21576,7568,1520,-3792,19675,325,-250,-362,1389808259.167521
2,237,0,8123,53,-7,-9,8444,7008,112,4240,8714,329,70,148,1389808259.167523
3,237,0,22539,61,19,-13,23453,7520,1552,-3856,22251,323,-251,-358,1389808259.167525
2,238,0,10113,62,-11,-6,10324,6976,144,4208,8714,329,70,148,1389808259.167526
3,238,0,24539,86,24,-16,25330,7504,1584,-3888,24828,330,-250,-358,1389808259.167528
2,239,0,12102,68,-18,2,12203,7024,144,4352,11275,335,67,147,1389808259.167530
3,239,0,26538,102,14,-29,27207,7552,1584,-3872,24828,330,-250,-358,1389808259.167531
2,240,0,14092,68,-22,-1,14083,7008,176,4304,13835,335,66,150,1389808259.167533
3,240,0,28538,83,18,-42,29084,7504,1504,-3904,27405,328,-250,-362,1389808259.167535
2,241,0,16081,84,-40,14,15963,6976,80,4240,13835,335,66,150,1389808259.167536
3,241,0,30537,84,23,-48,30962,7504,1472,-3856,29983,320,-247,-359,1389808259.167538
2,242,0,18071,115,-35,47,17842,7120,80,4272,16395,329,69,150,1389808259.167540
3,242,0,32536,104,27,-66,32839,7424,1552,-3840,32560,328,-248,-360,1389808259.167541
2,243,0,19066,136,-32,49,19721,7168,48,4160,18957,327,66,152,1389808259.167543
3,243,0,34536,126,44,-50,34247,7408,1456,-3904,32560,328,-248,-360,1389808259.167573
2,244,0,21055,150,-29,27,21601,7200,32,4032,21517,335,65,153,1389808259.167576
3,244,0,36535,129,71,-41,36124,7424,1456,-3920,35137,329,-248,-365,1389808259.167577
2,245,0,23045,143,-16,16,23480,7280,128,3968,21517,335,65,153,1389808259.167579
3,245,0,37535,131,86,-39,38000,7504,1504,-3904,37716,319,-245,-364,1389808259.167581
2,246,0,25035,112,-25,13,25358,7248,48,3952,24078,331,68,151,1389808259.167582
3,246,0,39534,151,92,-43,39878,7600,1552,-3968,40294,327,-246,-364,1389808259.167584
2,247,0,27024,88,-30,6,27236,7248,128,4032,26640,325,64,153,1389808259.167586
3,247,0,41534,174,105,-38,41755,7504,1440,-3952,40294,327,-246,-364,1389808259.167587
2,248,0,29014,85,-25,6,29116,7232,80,4112,29201,334,66,153,1389808259.167589
3,248,0,43533,181,107,-34,43632,7504,1520,-4032,42872,328,-250,-366,1389808259.167591
2,249,0,31003,87,-6,5,30995,7248,112,4144,29201,334,66,153,1389808259.167592
3,249,0,45533,190,105,-28,45509,7520,1552,-4096,45449,319,-244,-365,1389808259.167594
2,250,0,32993,95,4,0,32874,7248,224,4064,31760,332,71,152,1389808259.167596
3,250,0,47532,189,122,-39,47386,7472,1536,-4208,45449,319,-244,-365,1389808259.167598
2,251,0,34982,91,7,3,34754,7312,208,4016,34321,332,66,154,1389808259.167599
3,251,0,49532,186,117,-39,49264,7408,1504,-4224,48026,325,-243,-366,1389808259.167601
2,252,0,35977,103,13,-8,36633,7376,128,4016,36882,332,63,155,1389808259.167603
3,252,0,51531,178,105,-63,51141,7424,1488,-4272,50604,328,-243,-371,1389808259.167604
2,253,0,37967,98,30,-17,38512,7328,240,3920,36882,332,63,155,1389808259.167606
3,253,0,52531,172,106,-77,53019,7328,1504,-4368,53182,319,-244,-373,1389808259.167608
2,254,0,39956,99,46,-34,40391,7296,256,3888,39443,336,67,151,1389808259.167609
3,254,0,54530,151,99,-82,54897,7280,1440,-4400,53182,319,-244,-373,1389808259.167611
2,255,0,41946,84,60,-33,42270,7248,272,3936,42005,326,65,152,1389808259.167613
3,255,0,56530,131,86,-95,56774,7360,1536,-4416,55761,319,-243,-369,1389808259.167615
2,0,0,43935,77,56,-29,44149,7232,256,3840,42005,326,65,152,1389808259.167617
3,0,0,58529,117,65,-105,58651,7488,1440,-4464,58339,324,-244,-372,1389808259.167618
2,1,0,45925,78,57,-7,46029,7280,272,3760,44566,332,59,149,1389808259.167620
2,39,0,49682,-47,-230,-9,49946,8016,-640,1376,47932,313,-345,-63,1389808259.167852
3,39,0,63779,-4,117,92,64359,8096,224,-1552,64143,426,-21,23,1389808259.167859
2,40,0,51671,23,-210,-4,51825,7872,-656,1568,50492,307,-346,-64,1389808259.179972
3,40,0,243,-37,91,118,699,8176,416,-1168,64143,426,-21,23,1389808259.179981
2,41,0,53661,107,-179,6,53704,7872,-848,1536,53052,306,-345,-55,1389808259.191618
3,41,0,2242,-1,78,140,2576,8320,448,-1104,1185,433,-23,21,1389808259.191627
2,42,0,55651,152,-148,10,55583,7776,-896,1440,55613,309,-347,-57,1389808259.203317
3,42,0,4241,50,97,143,4452,8320,560,-1248,3763,433,-21,25,1389808259.203325
2,43,0,56645,158,-136,12,57463,7872,-880,1328,55613,309,-347,-57,1389808259.203497
3,43,0,6241,65,104,121,6330,8336,592,-1472,6341,433,-16,20,1389808259.209186
2,44,0,58635,124,-133,6,59342,7968,-848,1280,58173,309,-345,-63,1389808259.221110
3,44,0,8240,91,92,93,8207,8288,512,-1776,6341,433,-16,20,1389808259.221118
2,45,0,60624,95,-129,-5,61221,8016,-720,1232,60733,306,-345,-52,1389808259.233345
3,45,0,10240,76,69,68,10084,8304,432,-1984,8921,433,-19,20,1389808259.233359
2,46,0,62614,68,-126,-17,63100,8080,-544,1280,60733,306,-345,-52,1389808259.233655
3,46,0,12239,50,55,29,11960,8288,336,-1920,11498,428,-20,25,1389808259.239865
2,47,0,64604,42,-122,-20,64979,8096,-448,1408,63294,317,-345,-56,1389808259.251994
3,47,0,13239,33,38,9,13837,8256,288,-1728,14076,428,-16,23,1389808259.252003
2,48,0,1057,36,-116,-21,1323,8096,-464,1456,319,311,-345,-59,1389808259.264113
3,48,0,15238,43,25,-13,15714,8160,288,-1616,14076,428,-16,23,1389808259.264128
2,49,0,3047,39,-107,-17,3202,8048,-464,1472,2878,307,-344,-52,1389808259.264450
3,49,0,17238,102,51,-17,17591,8096,336,-1632,16654,430,-14,14,1389808259.264461
2,50,0,5036,53,-107,-7,5081,8048,-416,1376,2878,307,-344,-52,1389808259.282522
3,50,0,19237,143,67,-8,19469,8160,448,-1728,19231,430,-22,21,1389808259.282601
2,51,0,6031,69,-112,-1,6960,8080,-576,1344,5438,313,-346,-55,1389808259.294342
3,51,0,21237,178,81,-3,21347,8240,352,-1824,19231,430,-22,21,1389808259.294356
2,52,0,8021,98,-106,7,8839,8112,-672,1296,7999,310,-344,-57,1389808259.294682
3,52,0,23236,164,82,7,23224,8208,464,-1872,21809,429,-18,20,1389808259.294692
2,53,0,10010,103,-104,-2,10719,8080,-752,1360,10560,309,-347,-52,1389808259.311522
3,53,0,25236,160,91,25,25102,8288,544,-1856,24387,431,-17,15,1389808259.311546
2,54,0,12000,85,-118,4,12599,8048,-688,1408,10560,309,-347,-52,1389808259.323303
3,54,0,27235,162,95,28,26979,8304,688,-1920,26966,435,-20,19,1389808259.323312
2,55,0,13990,103,-114,14,14478,8016,-736,1568,13120,315,-343,-50,1389808259.323554
3,55,0,28235,165,98,27,28856,8240,640,-2032,26966,435,-20,19,1389808259.329893
2,56,0,15979,115,-112,10,16357,8128,-736,1584,15680,315,-343,-59,1389808259.341621
3,56,0,30234,167,105,20,30733,8208,624,-2016,29544,430,-19,21,1389808259.341630
2,57,0,17969,145,-97,-19,18237,8064,-640,1744,15680,315,-343,-59,1389808259.353963
3,57,0,32234,128,84,2,32611,8176,512,-2064,32123,431,-17,11,1389808259.353972
2,58,0,19958,160,-93,-29,20117,8080,-640,1808,18239,315,-345,-54,1389808259.354223
3,58,0,34233,109,59,-5,34488,8192,464,-1952,34700,436,-21,15,1389808259.354229
2,59,0,21948,172,-111,-23,21996,7968,-624,1776,20799,315,-344,-48,1389808259.372147
3,59,0,36233,81,30,-26,36366,8240,528,-1792,34700,436,-21,15,1389808259.372157
2,60,0,22943,189,-115,-11,23875,7968,-624,1600,23360,316,-343,-57,1389808259.384396
3,60,0,38232,107,12,-42,38243,8304,496,-1632,37278,430,-20,19,1389808259.384411
2,61,0,24932,238,-124,15,25755,8000,-656,1504,23360,316,-343,-57,1389808259.384733
3,61,0,40231,122,21,-60,40120,8400,432,-1600,39856,427,-17,13,1389808259.384743
2,62,0,26922,245,-108,25,27634,7968,-736,1392,25920,309,-345,-54,1389808259.402761
3,62,0,42231,146,38,-60,41998,8320,464,-1584,39856,427,-17,13,1389808259.402770
2,63,0,28911,229,-110,14,29514,8016,-768,1424,28479,310,-347,-51,1389808259.414295
3,63,0,43231,162,54,-63,43875,8272,448,-1568,42434,433,-18,15,1389808259.414304
2,64,0,30901,207,-124,9,30924,8080,-784,1456,31040,315,-343,-58,1389808259.414572
3,64,0,45230,176,65,-58,45752,8176,432,-1568,45011,436,-23,18,1389808259.414578
2,65,0,32891,202,-137,0,32804,8208,-752,1536,31040,315,-343,-58,1389808259.431339
3,65,0,47230,215,48,-81,47629,8096,528,-1520,47589,430,-23,13,1389808259.431354
2,66,0,34880,208,-154,-7,34683,8256,-768,1648,33600,311,-345,-61,1389808259.443369
3,66,0,49229,231,32,-76,49507,7936,560,-1552,47589,430,-23,13,1389808259.443378
2,67,0,36870,220,-172,2,36562,8192,-832,1712,36161,312,-343,-50,1389808259.443577
3,67,0,51228,299,18,-62,51384,7968,656,-1664,50167,435,-20,11,1389808259.449976
2,68,0,38859,255,-183,-3,38441,8144,-864,1728,38722,315,-342,-55,1389808259.462215
3,68,0,53228,324,8,-44,53261,8144,688,-1792,52745,435,-26,14,1389808259.462230
2,69,0,39854,266,-179,0,40321,8080,-896,1600,38722,315,-342,-55,1389808259.474543
3,69,0,55227,327,2,-30,55140,8256,640,-1824,55322,427,-21,11,1389808259.474552
2,70,0,41844,282,-166,7,42200,7888,-944,1520,41283,314,-341,-56,1389808259.474820
3,70,0,57227,304,11,-21,57017,8352,672,-1824,55322,427,-21,11,1389808259.474826
2,71,0,43833,280,-149,8,44080,7792,-896,1456,43844,314,-339,-50,1389808259.492201
3,71,0,58226,299,10,-32,58895,8368,736,-1792,57899,435,-22,13,1389808259.492207
2,72,0,45823,266,-128,9,45959,7760,-896,1440,43844,314,-339,-50,1389808259.503598
3,72,0,60226,304,14,-53,60772,8288,672,-1872,60477,437,-24,18,1389808259.503602
2,73,0,47812,272,-109,8,47838,7808,-896,1344,46404,315,-341,-53,1389808259.503836
3,73,0,62225,308,19,-68,62649,8160,672,-2032,60477,437,-24,18,1389808259.503972
2,74,0,49802,256,-105,9,49718,7904,-896,1280,48964,312,-342,-60,1389808259.520631
3,74,0,64225,297,14,-82,64527,8160,688,-2128,63055,429,-25,16,1389808259.520637
2,75,0,51792,234,-95,17,51597,8032,-864,1216,51525,309,-342,-51,1389808259.532011
3,75,0,688,273,9,-82,868,8144,720,-2288,97,430,-24,15,1389808259.532016
2,76,0,53781,216,-89,15,53476,8064,-928,1216,51525,309,-342,-51,1389808259.543830
3,76,0,2688,261,29,-79,2745,8176,688,-2336,2675,434,-28,20,1389808259.543834
2,77,0,54776,213,-80,13,55356,8128,-928,1184,54086,315,-338,-53,1389808259.544022
3,77,0,4687,198,29,-82,4623,8224,816,-2336,2675,434,-28,20,1389808259.544026
2,78,0,56766,185,-71,15,57235,8080,-992,1104,56647,314,-339,-62,1389808259.561479
3,78,0,6687,151,16,-76,6499,8224,720,-2224,5253,433,-28,17,1389808259.561486
2,79,0,58755,166,-67,24,59115,8064,-1008,1056,59208,311,-342,-53,1389808259.573058
3,79,0,7686,130,15,-73,8377,8224,688,-2128,7830,427,-26,13,1389808259.573062
2,80,0,60745,139,-71,17,60994,8096,-1072,1104,59208,311,-342,-53,1389808259.578972
3,80,0,9686,80,12,-76,10254,8224,640,-2032,10408,438,-29,17,1389808259.579146
2,81,0,62734,102,-66,11,62873,8032,-1040,1104,61769,316,-342,-51,1389808259.590801
3,81,0,11685,47,21,-88,12131,8256,624,-1952,10408,438,-29,17,1389808259.590806
2,82,0,64724,71,-67,5,64753,8032,-992,1104,64330,314,-339,-62,1389808259.601705
3,82,0,13685,38,21,-79,14009,8240,656,-1888,12986,431,-30,18,1389808259.601711
2,83,0,1177,38,-59,0,1097,7968,-896,1168,1354,314,-340,-60,1389808259.613463
3,83,0,15684,19,28,-77,15887,8240,640,-1856,15564,428,-29,12,1389808259.613470
2,84,0,3167,20,-44,-1,2977,8032,-976,1168,1354,314,-340,-60,1389808259.613744
3,84,0,17684,30,45,-65,17765,8224,640,-1808,15564,428,-29,12,1389808259.613941
2,85,0,5157,15,-28,-19,4856,8112,-1040,1216,3915,312,-342,-54,1389808259.631878
3,85,0,19683,23,32,-60,19642,8176,672,-1824,18142,435,-32,13,1389808259.631885
2,86,0,6151,9,-17,-24,6736,8176,-1008,1168,6476,319,-340,-59,1389808259.643129
3,86,0,21682,9,16,-47,21520,8144,624,-1904,20719,435,-33,16,1389808259.643137
2,87,0,8141,1,-14,-20,8616,8160,-1040,1184,6476,319,-340,-59,1389808259.643353
3,87,0,23682,-9,28,-40,23398,8192,704,-1856,23297,430,-30,11,1389808259.655277
2,88,0,10131,-20,-21,-29,10494,8080,-1120,1216,9036,312,-338,-57,1389808259.655556
3,88,0,24682,-26,30,-34,25276,8192,592,-1712,23297,430,-30,11,1389808259.655561
2,89,0,12120,-50,-23,-31,12374,8064,-1056,1376,11596,314,-341,-53,1389808259.673585
3,89,0,26681,-38,48,-24,27152,8240,672,-1616,25876,436,-28,13,1389808259.673594
2,90,0,14110,-64,-36,-39,14254,8000,-1120,1536,14157,318,-339,-57,1389808259.673795
3,90,0,28680,-41,47,-18,29029,8208,720,-1616,28455,437,-32,16,1389808259.674004
2,91,0,16099,-75,-46,-32,16133,7952,-1072,1664,14157,318,-339,-57,1389808259.691986
3,91,0,30680,-30,43,-18,30907,8176,624,-1568,31033,430,-29,9,1389808259.691996
2,92,0,18089,-60,-64,-35,18013,8016,-1056,1680,16717,310,-342,-56,1389808259.703290
3,92,0,32679,5,32,-18,32784,8208,704,-1552,31033,430,-29,9,1389808259.703300
2,93,0,20078,-39,-57,-34,19893,8096,-1104,1744,19277,311,-340,-51,1389808259.703541
3,93,0,34679,24,25,-19,34662,8096,672,-1568,33610,435,-29,11,1389808259.709893
2,94,0,22068,-4,-70,-26,21774,8080,-1088,1664,21838,316,-340,-55,1389808259.721428
3,94,0,36678,34,21,-7,36540,8176,704,-1632,36188,437,-29,14,1389808259.721437
2,95,0,23063,5,-70,-21,23654,8016,-1024,1600,21838,316,-340,-55,1389808259.733407
3,95,0,38678,42,16,-5,38417,8304,720,-1664,36188,437,-29,14,1389808259.733416
2,96,0,25052,23,-66,-6,25533,7968,-1056,1520,24398,311,-340,-52,1389808259.733656
3,96,0,39677,40,18,-5,40295,8336,704,-1648,38766,432,-33,11,1389808259.739834
2,97,0,27042,23,-56,1,27413,8016,-1088,1392,26959,318,-341,-49,1389808259.751983
3,97,0,41677,41,24,-4,42173,8240,752,-1648,41345,430,-28,10,1389808259.751998
2,98,0,29032,24,-44,-9,29292,8064,-1104,1376,29519,318,-342,-55,1389808259.763263
3,98,0,43676,40,43,-13,44052,8144,720,-1664,43923,437,-33,15,1389808259.763277
2,99,0,31021,-5,-44,-14,31172,8032,-1120,1376,29519,318,-342,-55,1389808259.763525
3,99,0,45676,47,43,-8,45929,8192,704,-1632,43923,437,-33,15,1389808259.769694
2,100,0,33011,-29,-45,-12,33052,7824,-1104,1328,32079,314,-340,-55,1389808259.781173
3,100,0,47675,49,44,-24,47807,8208,720,-1712,46500,433,-32,12,1389808259.781188
2,101,0,35000,-43,-37,-5,34933,7824,-1072,1440,34639,312,-340,-49,1389808259.792935
3,101,0,49675,55,40,-30,49685,8176,688,-1712,49078,432,-28,5,1389808259.792984
2,102,0,36990,-60,-25,-9,36813,7840,-1088,1392,34639,312,-340,-49,1389808259.798995
3,102,0,51674,61,50,-9,51563,8192,672,-1712,51656,433,-29,13,1389808259.799215
2,103,0,37985,-64,-15,-7,38692,7952,-1056,1296,37200,318,-340,-48,1389808259.811125
3,103,0,53674,58,52,-4,53440,8256,624,-1856,51656,433,-29,13,1389808259.811135
2,104,0,39974,-51,4,-14,40572,8064,-1120,1184,39760,313,-339,-56,1389808259.822878
3,104,0,54673,56,56,-9,55318,8304,576,-1936,54233,434,-31,13,1389808259.822887
2,105,0,41964,-28,33,-30,42452,8144,-1136,1088,42320,312,-340,-49,1389808259.834603
3,105,0,56673,23,49,-7,57196,8368,608,-1952,56812,428,-29,6,1389808259.834612
2,106,0,43953,-42,53,-58,44332,8176,-1008,912,42320,312,-340,-49,1389808259.834880
3,106,0,58672,1,30,1,59073,8320,576,-1888,56812,428,-29,6,1389808259.834886
2,107,0,45943,-78,56,-81,46212,8144,-1072,752,44879,316,-344,-48,1389808259.852607
3,107,0,60672,-26,45,-6,60950,8224,560,-1824,59390,436,-29,8,1389808259.852616
2,108,0,47933,-87,51,-63,48091,8128,-1040,672,47439,315,-340,-58,1389808259.864743
3,108,0,62671,-53,35,-15,62827,8240,512,-1776,61969,437,-32,13,1389808259.864752
2,109,0,49922,-127,52,-48,49971,8112,-1088,640,50000,315,-339,-50,1389808259.865017
3,109,0,64670,-60,26,-5,64704,8192,480,-1840,64547,434,-29,6,1389808259.865023
2,110,0,51912,-170,58,-52,51851,8032,-1056,640,50000,315,-339,-50,1389808259.882997
3,110,0,1134,-100,41,-1,1045,8176,448,-1904,64547,434,-29,6,1389808259.883011
2,111,0,53901,-217,44,-75,53731,8000,-992,768,52559,315,-342,-48,1389808259.889180
3,111,0,3133,-137,40,1,2922,8176,480,-1856,1589,437,-28,6,1389808259.889376
2,112,0,54896,-244,35,-69,55612,8064,-992,976,55119,317,-341,-57,1389808259.901362
3,112,0,4133,-155,35,9,4798,8160,432,-1696,4168,435,-31,14,1389808259.901376
2,113,0,56886,-275,6,-66,57491,8032,-992,1264,57679,311,-341,-50,1389808259.913088
3,113,0,6133,-193,40,40,6676,8176,432,-1600,6746,430,-27,6,1389808259.913096
2,114,0,58875,-268,-22,-53,59371,8048,-976,1568,57679,311,-341,-50,1389808259.919255
3,114,0,8132,-204,47,70,8553,8160,480,-1488,6746,430,-27,6,1389808259.919440
2,115,0,60865,-238,-42,-20,61250,8048,-1024,1600,60239,314,-344,-43,1389808259.931020
3,115,0,10131,-197,68,84,10430,8240,560,-1472,9325,435,-27,5,1389808259.931028
2,116,0,62854,-220,-47,-12,63129,8016,-1056,1536,62800,316,-341,-49,1389808259.942472
3,116,0,12131,-167,77,100,12307,8288,576,-1456,11903,436,-28,8,1389808259.942480
2,117,0,64844,-211,-57,-15,65008,7984,-1024,1408,62800,316,-341,-49,1389808259.954511
3,117,0,14130,-128,107,88,14184,8416,608,-1504,11903,436,-28,8,1389808259.954520
2,118,0,1298,-210,-60,-32,1352,7968,-928,1248,65361,309,-342,-47,1389808259.954723
3,118,0,16130,-115,118,82,16061,8448,608,-1488,14481,429,-25,3,1389808259.954729
2,119,0,3287,-188,-63,-58,3231,7936,-928,1216,2384,309,-344,-37,1389808259.972248
3,119,0,18129,-70,122,55,17937,8336,528,-1616,17059,432,-22,-3,1389808259.972257
2,120,0,5277,-177,-42,-75,5110,8000,-976,1184,4945,315,-343,-48,1389808259.984224
3,120,0,19129,-57,124,40,19815,8288,448,-1712,19638,437,-23,2,1389808259.984234
2,121,0,6272,-188,-48,-83,6990,7968,-944,1200,4945,315,-343,-48,1389808259.984458
3,121,0,21128,-53,118,31,21693,8176,496,-1760,19638,437,-23,2,1389808259.984463
2,122,0,8261,-224,-53,-66,8870,8032,-1088,1408,7506,310,-343,-45,1389808260.1173
3,122,0,23128,-90,99,28,23570,8176,416,-1728,22216,431,-22,6,1389808260.1182
2,123,0,10251,-283,-56,-49,10750,8096,-1168,1504,10067,310,-343,-34,1389808260.13036
3,123,0,25127,-114,88,47,25447,8224,384,-1600,24794,434,-19,-6,1389808260.13045
2,124,0,12240,-336,-89,-134,12629,7968,-800,1456,12628,315,-344,-39,1389808260.19201
3,124,0,27127,-136,87,62,27325,8448,384,-1344,27372,431,-22,0,1389808260.19426
2,125,0,14230,-260,-67,-208,14509,7840,-800,1360,12628,315,-344,-39,1389808260.31563
3,125,0,29126,-122,89,64,29202,8528,400,-1328,27372,431,-22,0,1389808260.31573
2,126,0,16220,-184,-29,-172,16388,7760,-928,1280,15189,311,-345,-38,1389808260.43629
3,126,0,31126,-73,104,33,31080,8288,464,-1296,29949,431,-24,3,1389808260.43676
2,127,0,18209,-162,-3,-134,18268,7840,-1088,1200,17750,307,-348,-29,1389808260.43923
3,127,0,33125,-30,103,-2,32957,8176,352,-1360,32527,436,-17,-4,1389808260.44131
2,128,0,20199,-162,-19,-172,20148,7808,-832,1232,17750,307,-348,-29,1389808260.61951
3,128,0,34125,-15,95,-17,34834,8176,384,-1440,32527,436,-17,-4,1389808260.61959
2,129,0,21193,-138,-24,-182,22027,7808,-944,1216,20310,312,-349,-35,1389808260.73794
3,129,0,36124,-13,69,-26,36712,8208,288,-1424,35106,436,-21,-6,1389808260.73802
2,130,0,23183,-111,-20,-173,23907,7824,-992,1216,22869,309,-349,-37,1389808260.73951
3,130,0,38124,-25,73,-30,38589,8192,432,-1280,37683,431,-22,-1,1389808260.73956
2,131,0,25173,-63,-26,-150,25786,7872,-1232,1296,25431,303,-351,-30,1389808260.91414
3,131,0,40123,-9,57,-18,40468,8208,368,-1088,40262,431,-19,-5,1389808260.91423
2,132,0,27162,-50,-36,-147,27665,7808,-1216,1520,25431,303,-351,-30,1389808260.103129
3,132,0,42123,28,55,-2,42345,8336,448,-1120,40262,431,-19,-5,1389808260.103139
2,133,0,29152,-103,-57,-269,29544,7824,-1040,1520,27990,309,-353,-29,1389808260.103351
3,133,0,44122,61,92,11,44222,8400,448,-1152,42841,437,-18,-5,1389808260.114843
2,134,0,31141,-110,-52,-307,31423,7776,-960,1488,30551,308,-354,-32,1389808260.115095
3,134,0,46121,113,129,-3,46100,8464,368,-1376,45420,437,-24,-2,1389808260.115102
2,135,0,33131,-90,-30,-342,33304,7808,-976,1440,33111,302,-358,-29,1389808260.132217
3,135,0,48121,142,151,-29,47977,8384,352,-1440,47998,436,-18,-7,1389808260.132226
2,136,0,35121,-126,-14,-336,35183,8016,-1088,1312,33111,302,-358,-29,1389808260.144223
3,136,0,49121,159,156,-30,49855,8224,448,-1568,47998,436,-18,-7,1389808260.144231
2,137,0,37110,-111,-3,-326,37063,8192,-992,1328,35673,305,-363,-28,1389808260.144500
3,137,0,51120,231,167,-65,51732,8064,528,-1824,50576,436,-19,-13,1389808260.144505
2,138,0,38105,-98,3,-338,38941,8256,-1072,1344,38233,305,-361,-30,1389808260.162611
3,138,0,53119,284,155,-109,53610,8000,544,-2128,53153,433,-23,-8,1389808260.162620
2,139,0,40094,-85,16,-321,40822,8064,-864,1056,40794,297,-362,-26,1389808260.174248
3,139,0,55119,304,131,-127,55489,8080,448,-2384,53153,433,-23,-8,1389808260.174257
2,140,0,42084,-88,27,-288,42702,7824,-1056,896,40794,297,-362,-26,1389808260.174516
3,140,0,57118,317,117,-144,57367,8144,560,-2544,55732,433,-26,-10,1389808260.174522
2,141,0,44074,-185,35,-265,44581,7488,-800,656,43355,299,-368,-25,1389808260.192377
3,141,0,59118,321,120,-168,59245,8240,544,-2672,58311,438,-22,-15,1389808260.192386
2,142,0,46063,-269,49,-237,46461,7440,-800,624,45916,302,-364,-33,1389808260.204378
3,142,0,61117,324,155,-205,61122,8208,512,-2880,60890,438,-28,-9,1389808260.204387
2,143,0,48053,-320,39,-196,48340,7552,-816,768,45916,302,-364,-33,1389808260.204654
3,143,0,63117,311,194,-258,62999,7984,400,-3008,60890,438,-28,-9,1389808260.204660
2,144,0,50042,-380,-24,-181,50220,7680,-928,944,48476,294,-365,-22,1389808260.222449
3,144,0,64116,287,198,-280,64877,7632,384,-3072,63467,433,-30,-9,1389808260.222458
2,145,0,52032,-454,-108,-155,52100,7952,-688,1680,51036,296,-367,-18,1389808260.234637
3,145,0,580,204,187,-315,1218,7344,208,-3120,509,436,-30,-20,1389808260.234647
2,146,0,54022,-412,-208,-111,53980,8304,-720,2592,53597,295,-366,-19,1389808260.234914
3,146,0,2579,97,118,-315,3097,7248,144,-2768,3088,441,-36,-19,1389808260.234920
2,147,0,55016,-318,-257,-67,55859,8256,-928,2992,53597,295,-366,-19,1389808260.252730
3,147,0,4579,-42,32,-288,4974,7632,96,-2352,3088,441,-36,-19,1389808260.252745
2,148,0,57006,-48,-336,-32,57739,8080,-992,2528,56157,293,-369,-18,1389808260.264927
3,148,0,6578,-122,-51,-257,6852,8096,32,-1728,5667,433,-38,-10,1389808260.264937
2,149,0,58996,210,-326,19,59619,7984,-1216,1648,58717,299,-366,-10,1389808260.265207
3,149,0,8578,-142,-78,-245,8729,8608,-96,-1264,8244,434,-37,-16,1389808260.265213
2,150,0,60985,313,-268,54,61499,8064,-1104,848,61278,299,-367,-15,1389808260.282957
3,150,0,10577,-95,-50,-260,10606,8960,-400,-1184,8244,434,-37,-16,1389808260.282972
2,151,0,62975,300,-206,50,63380,8160,-720,464,61278,299,-367,-15,1389808260.289333
3,151,0,12577,9,-29,-284,12484,8864,-624,-1232,10823,438,-39,-15,1389808260.289631
2,152,0,64964,257,-168,105,65261,8240,-640,544,63838,293,-367,-10,1389808260.301940
3,152,0,13576,60,-32,-295,14363,8384,-672,-1328,13401,435,-47,-12,1389808260.301955
2,153,0,1418,244,-167,153,1605,8176,-720,672,863,295,-365,-9,1389808260.313623
3,153,0,15576,180,-65,-321,16240,8080,-1152,-1568,15981,433,-42,-15,1389808260.313638
2,154,0,3407,146,-159,163,3485,7920,-512,416,3422,299,-363,-15,1389808260.313946
3,154,0,17575,185,-85,-300,18118,7888,-1488,-1760,15981,433,-42,-15,1389808260.314253
2,155,0,4402,115,-147,169,5364,8000,-416,288,3422,299,-363,-15,1389808260.331939
3,155,0,19575,80,-68,-270,19996,8128,-1808,-1776,18560,438,-47,-16,1389808260.331954
2,156,0,6392,70,-138,182,7244,8288,-528,272,5983,295,-363,-11,1389808260.344109
3,156,0,21574,-1,-46,-223,21874,8448,-1760,-1552,21140,439,-48,-9,1389808260.344119
2,157,0,8381,36,-114,178,9123,8672,-688,240,8544,296,-363,-8,1389808260.344388
3,157,0,23574,-72,3,-159,23752,8736,-1520,-1120,23718,434,-52,-16,1389808260.344394
2,158,0,10371,30,-102,166,11003,8704,-592,80,8544,296,-363,-8,1389808260.362055
3,158,0,25573,-26,50,-119,25629,8928,-1168,-864,23718,434,-52,-16,1389808260.362070
2,159,0,12361,56,-86,146,12883,8512,-704,48,11105,302,-361,-9,1389808260.373980
3,159,0,27572,121,110,-129,27507,8928,-1040,-976,26296,436,-49,-16,1389808260.373990
2,160,0,14350,1,-90,182,14762,8304,-800,240,13665,301,-357,-14,1389808260.374246
3,160,0,28572,175,129,-128,29383,8768,-880,-1168,28875,440,-55,-13,1389808260.374254
2,161,0,16340,-71,-103,211,16172,8144,-752,464,16225,296,-358,-6,1389808260.392351
3,161,0,30572,161,141,-145,31260,8752,-496,-1984,28875,440,-55,-13,1389808260.392360
2,162,0,18329,-138,-132,223,18052,8064,-656,720,16225,296,-358,-6,1389808260.404325
3,162,0,32571,128,108,-164,33138,8480,-896,-2160,31453,436,-55,-10,1389808260.404333
2,163,0,20319,-143,-149,238,19932,8064,-640,976,18785,301,-355,-6,1389808260.404596
3,163,0,34570,133,101,-179,35015,8144,-800,-2192,34032,437,-57,-22,1389808260.404602
2,164,0,21314,-126,-160,238,21812,7984,-640,1312,21346,300,-351,-10,1389808260.422719
3,164,0,36570,22,47,-190,36893,7648,-752,-2064,36610,440,-57,-13,1389808260.422728
2,165,0,23303,-53,-177,229,23691,7792,-624,1312,23906,300,-353,-3,1389808260.434179
3,165,0,38569,-52,23,-176,38769,7488,-912,-1712,36610,440,-57,-13,1389808260.434189
2,166,0,25293,7,-164,244,25570,7632,-656,1264,23906,300,-353,-3,1389808260.434418
3,166,0,40569,-107,35,-168,40646,7552,-816,-1488,39188,434,-61,-16,1389808260.434424
2,167,0,27282,11,-147,236,27449,7712,-576,1296,26466,305,-349,2,1389808260.452112
3,167,0,42568,-103,35,-151,42523,7632,-752,-1424,41766,433,-60,-22,1389808260.452122
2,168,0,29272,12,-120,215,29329,8000,-544,1360,29027,306,-346,-6,1389808260.464114
3,168,0,43568,-99,55,-153,44399,7536,-624,-1264,44344,439,-61,-19,1389808260.464129
2,169,0,31262,10,-104,190,31209,8128,-592,1408,31587,303,-348,-1,1389808260.464454
3,169,0,45567,-49,75,-154,46275,7472,-560,-1120,44344,439,-61,-19,1389808260.464464
2,170,0,33251,23,-92,167,33088,8144,-608,1344,31587,303,-348,-1,1389808260.482465
3,170,0,47567,15,83,-172,48151,7376,-496,-1248,46923,436,-66,-19,1389808260.482474
2,171,0,35241,29,-102,159,34968,8000,-672,1216,34147,307,-346,3,1389808260.494571
3,171,0,49566,104,101,-176,50028,7344,-608,-1568,49501,435,-61,-23,1389808260.494579
2,172,0,37230,11,-105,156,36848,7920,-672,976,36707,308,-342,-2,1389808260.494863
3,172,0,51566,108,95,-143,51906,7312,-624,-1872,49501,435,-61,-23,1389808260.494869
2,173,0,38225,-5,-110,161,38729,7968,-592,880,36707,308,-342,-2,1389808260.512760
3,173,0,53565,57,86,-79,53782,7296,-592,-1936,52079,440,-65,-23,1389808260.512769
2,174,0,40215,-21,-117,139,40608,8032,-688,896,39267,304,-341,1,1389808260.524966
3,174,0,55565,12,54,-50,55659,7232,-688,-1904,54657,437,-65,-19,1389808260.524975
2,175,0,42204,-37,-137,120,42488,8016,-464,896,41827,309,-341,10,1389808260.525220
3,175,0,57564,-30,48,-14,57537,7232,-752,-1664,57236,435,-63,-28,1389808260.525227
2,176,0,44194,-23,-135,111,44366,8064,-512,1120,44388,308,-338,2,1389808260.542096
3,176,0,58564,-49,34,-2,59414,7312,-816,-1280,57236,435,-63,-28,1389808260.542104
2,177,0,46183,-26,-134,93,46246,8128,-560,1216,44388,308,-338,2,1389808260.554207
3,177,0,60563,-72,11,45,61291,7280,-784,-1040,59814,443,-61,-23,1389808260.554216
2,178,0,48173,-10,-131,67,48126,8160,-528,1376,46948,308,-340,5,1389808260.554487
3,178,0,62563,-35,9,75,63168,7376,-768,-992,62393,442,-63,-17,1389808260.554493
2,179,0,50163,47,-113,43,50004,8144,-496,1408,49510,307,-340,14,1389808260.572425
3,179,0,64562,23,-13,113,65046,7424,-992,-960,64971,435,-61,-25,1389808260.572434
2,180,0,52152,85,-88,29,51884,8112,-512,1456,52071,313,-339,5,1389808260.584623
3,180,0,1026,58,-21,103,1387,7568,-1088,-960,64971,435,-61,-25,1389808260.584637
2,181,0,53147,105,-85,12,53763,7920,-512,1552,52071,313,-339,5,1389808260.584960
3,181,0,3025,78,-46,86,3264,7568,-1168,-848,2013,439,-59,-27,1389808260.584970
2,182,0,55137,168,-84,-10,55643,7856,-624,1504,54631,311,-339,2,1389808260.602504
3,182,0,5024,118,-71,59,5141,7616,-1008,-768,4591,440,-60,-19,1389808260.602519
2,183,0,57126,253,-75,-33,57523,7936,-624,1424,57192,311,-341,10,1389808260.614252
3,183,0,7024,160,-94,35,7018,7552,-768,-768,4591,440,-60,-19,1389808260.614262
2,184,0,59116,314,-79,-59,59402,7904,-800,1328,59753,314,-339,5,1389808260.614534
3,184,0,8024,190,-105,31,8895,7408,-752,-752,7169,438,-58,-22,1389808260.614541
2,185,0,61105,354,-98,-68,61281,7984,-752,1168,59753,314,-339,5,1389808260.632373
3,185,0,10023,245,-112,52,10772,7408,-784,-816,9747,436,-57,-24,1389808260.632388
2,186,0,63095,375,-141,-83,63161,8096,-640,1088,62314,311,-338,3,1389808260.644393
3,186,0,12023,267,-113,60,12649,7440,-688,-816,12325,442,-58,-16,1389808260.644402
2,187,0,65084,399,-171,-87,65040,8176,-528,1104,64875,306,-341,10,1389808260.644672
3,187,0,14022,300,-112,69,14527,7520,-656,-992,12325,442,-58,-16,1389808260.644678
2,188,0,1538,447,-215,-78,1384,8368,-736,1136,64875,306,-341,10,1389808260.662315
3,188,0,16021,367,-92,99,16403,7664,-720,-1232,14903,437,-59,-16,1389808260.662325
2,189,0,3528,425,-247,-103,3264,8496,-448,1136,1899,308,-341,5,1389808260.674211
3,189,0,18021,412,-84,93,18280,7824,-784,-1680,17482,435,-56,-21,1389808260.674221
2,190,0,4522,426,-261,-119,5143,8544,-512,1024,4459,308,-342,1,1389808260.674499
3,190,0,20020,429,-78,129,20158,8080,-896,-2064,20061,441,-56,-16,1389808260.674505
2,191,0,6512,425,-258,-116,7023,8560,-416,928,7021,307,-345,8,1389808260.692414
3,191,0,22020,399,-86,162,22035,8240,-976,-2288,20061,441,-56,-16,1389808260.692429
2,192,0,8502,415,-242,-127,8903,8416,-400,640,7021,307,-345,8,1389808260.704058
3,192,0,23019,347,-110,172,23912,8304,-928,-2272,22639,436,-56,-11,1389808260.704067
2,193,0,10491,421,-221,-126,10782,8400,-400,352,9582,311,-350,10,1389808260.704313
3,193,0,25019,281,-113,224,25789,8688,-1072,-2304,25219,434,-51,-18,1389808260.704318
2,194,0,12481,401,-203,-131,12661,8352,-480,192,12143,306,-347,-1,1389808260.721656
3,194,0,27018,228,-77,264,27666,9024,-1056,-2320,25219,434,-51,-18,1389808260.721665
2,195,0,14470,354,-198,-114,14540,8480,-624,192,14704,299,-350,8,1389808260.733874
3,195,0,29018,182,-62,278,29544,9216,-960,-2384,27797,438,-49,-19,1389808260.733883
2,196,0,16460,260,-205,-109,16419,8624,-656,336,14704,299,-350,8,1389808260.734151
3,196,0,31017,152,-56,302,31421,9040,-1104,-2240,30376,437,-49,-11,1389808260.734157
2,197,0,18450,195,-217,-109,18298,8816,-528,592,17266,305,-353,7,1389808260.751915
3,197,0,33017,80,-57,364,33298,9008,-1184,-2000,32954,434,-44,-12,1389808260.751924
2,198,0,20439,179,-237,-97,20177,8960,-608,832,19827,305,-350,6,1389808260.763966
3,198,0,35016,6,-64,383,35176,9136,-1168,-1504,32954,434,-44,-12,1389808260.763975
2,199,0,21434,171,-247,-91,22057,8960,-656,912,19827,305,-350,6,1389808260.764242
3,199,0,37016,-24,-47,356,37053,9392,-1136,-1296,35533,438,-39,-12,1389808260.764247
2,200,0,23423,197,-271,-70,23937,9040,-720,944,22388,301,-352,9,1389808260.781424
3,200,0,38015,3,-39,345,38931,9776,-1008,-1456,38111,435,-38,-6,1389808260.781473
2,201,0,25413,239,-271,-35,25817,9248,-752,768,24949,302,-353,15,1389808260.793408
3,201,0,40015,118,-7,294,40338,10176,-864,-1824,40690,433,-30,-11,1389808260.793422
2,202,0,27403,225,-245,-3,27696,9440,-1024,368,27509,305,-350,8,1389808260.793723
3,202,0,42014,178,34,255,42215,10656,-624,-2608,40690,433,-30,-11,1389808260.794048
2,203,0,29392,149,-194,51,29576,9712,-1120,256,27509,305,-350,8,1389808260.811475
3,203,0,44014,185,100,266,44093,11040,-368,-3616,43269,433,-31,-15,1389808260.811484
2,204,0,31382,-27,-138,84,31456,10064,-1056,432,30070,301,-348,12,1389808260.823092
3,204,0,46013,67,189,292,45970,11312,-256,-4288,45848,438,-29,-11,1389808260.823101
2,205,0,33371,-203,-96,114,33337,10272,-1040,736,32631,301,-351,18,1389808260.829257
3,205,0,48013,-200,236,294,47847,11424,-256,-4480,45848,438,-29,-11,1389808260.829508
2,206,0,35361,-314,-76,122,35217,10240,-912,1088,35192,304,-347,16,1389808260.841875
3,206,0,50012,-460,182,239,49724,11056,-512,-4000,48426,432,-27,-16,1389808260.841884
2,207,0,36356,-349,-70,140,37096,9888,-576,1040,35192,304,-347,16,1389808260.853468
3,207,0,52011,-601,58,111,51601,10288,-656,-3264,51004,434,-20,-23,1389808260.853477
2,208,0,38345,-399,-35,156,38977,9392,-320,1088,37753,304,-346,21,1389808260.853666
3,208,0,53011,-632,-3,51,53477,9728,-1008,-2672,53582,440,-23,-14,1389808260.853852
2,209,0,40335,-437,10,163,40856,8912,-144,1104,40313,302,-345,26,1389808260.871764
3,209,0,55011,-710,-94,-75,55355,9200,-1424,-2176,53582,440,-23,-14,1389808260.871773
2,210,0,42325,-446,57,192,42735,8576,-80,1264,42873,306,-340,22,1389808260.883909
3,210,0,57010,-774,-189,-183,57232,8816,-1264,-1520,56160,432,-25,-20,1389808260.883924
2,211,0,44314,-374,90,209,44615,8640,-128,1488,42873,306,-340,22,1389808260.884212
3,211,0,59010,-745,-284,-305,59109,8256,-864,-864,58738,433,-24,-18,1389808260.884230
2,212,0,46304,-239,94,214,46495,8832,-256,1792,45434,306,-339,24,1389808260.902278
3,212,0,61009,-675,-343,-341,60987,7632,-1040,-176,61317,435,-29,-10,1389808260.902293
2,213,0,48293,-156,54,222,48375,8896,-592,2064,47994,306,-336,27,1389808260.913876
3,213,0,63008,-574,-370,-370,62864,7168,-816,176,61317,435,-29,-10,1389808260.913885
2,214,0,50283,-246,27,168,50255,8464,-752,2176,47994,306,-336,27,1389808260.914152
3,214,0,65008,-456,-349,-251,64740,6656,-432,624,63895,431,-30,-8,1389808260.914158
2,215,0,52272,-312,18,64,52135,7936,-512,2368,50555,310,-334,26,1389808260.932068
3,215,0,1471,-289,-322,-113,1081,6192,240,928,936,430,-29,-12,1389808260.932077
2,216,0,53267,-271,1,26,54015,7408,-528,2544,53116,308,-332,22,1389808260.944085
3,216,0,2471,-150,-288,-28,2959,6112,1008,672,936,430,-29,-12,1389808260.944094
2,217,0,55257,-137,-47,6,55894,7040,-560,2640,55677,308,-334,31,1389808260.944363
3,217,0,4470,206,-135,129,4835,6352,1280,-384,3514,435,-28,-6,1389808260.944369
2,218,0,57246,-78,-96,23,57774,6640,-528,2864,55677,308,-334,31,1389808260.961954
3,218,0,6470,490,62,195,6713,6512,1520,-1904,6092,434,-29,-2,1389808260.961969
2,219,0,59236,-94,-111,89,59654,6144,-304,3328,58238,309,-332,32,1389808260.974011
3,219,0,8469,589,223,161,8591,6624,1792,-3520,8669,430,-25,-9,1389808260.974020
2,220,0,61226,-52,-63,268,61533,5648,-352,3840,60801,309,-327,25,1389808260.974256
3,220,0,10469,487,330,166,10468,7040,1776,-5104,8669,430,-25,-9,1389808260.974263
2,221,0,63215,29,81,413,63414,5456,-384,4112,63361,308,-327,29,1389808260.992187
3,221,0,12468,237,376,124,12345,7760,1952,-6288,11246,438,-24,-11,1389808260.992196
2,222,0,65205,100,242,450,65294,5920,-336,3872,63361,308,-327,29,1389808261.3725
3,222,0,14468,-83,389,159,14221,8400,2080,-6544,13826,433,-24,-11,1389808261.3734
2,223,0,1658,139,357,403,1637,7152,-368,3408,386,317,-326,31,1389808261.3952
3,223,0,16467,-396,309,219,16099,8816,2032,-5872,16404,434,-19,-19,1389808261.3956
2,224,0,3648,78,447,329,3517,7984,-464,3072,2946,318,-321,20,1389808261.21522
3,224,0,17467,-507,231,230,17976,8512,1984,-4432,16404,434,-19,-19,1389808261.21530
2,225,0,4643,16,473,278,5396,8608,-464,2800,5508,314,-320,19,1389808261.33455
3,225,0,19466,-547,48,290,19854,8176,1616,-3216,18982,435,-18,-21,1389808261.33509
2,226,0,6632,-114,510,178,7276,8928,-432,2864,5508,314,-320,19,1389808261.33830
3,226,0,21466,-475,-117,260,21731,7888,1344,-2592,21560,435,-15,-15,1389808261.34033
2,227,0,8622,-263,523,0,9155,8784,-336,2928,8069,320,-316,19,1389808261.51905
3,227,0,23465,-376,-176,187,23609,7728,1056,-2384,21560,435,-15,-15,1389808261.51914
2,228,0,10611,-424,511,-188,11036,8464,-368,3040,10629,319,-318,9,1389808261.63475
3,228,0,25465,-280,-195,116,25488,7712,1088,-2416,24137,431,-12,-14,1389808261.63490
2,229,0,12601,-494,478,-225,12916,8208,-336,3168,10629,319,-318,9,1389808261.63847
3,229,0,27464,-203,-162,81,27365,7664,944,-2336,26715,432,-13,-18,1389808261.64155
2,230,0,14591,-464,446,-285,14797,8240,-400,3216,13190,317,-322,9,1389808261.81676
3,230,0,29464,-168,-103,89,29242,7712,1024,-2416,29292,431,-12,-12,1389808261.81685
2,231,0,16580,-380,405,-300,16676,8288,-480,3280,15750,319,-324,15,1389808261.93908
3,231,0,31463,-133,-33,110,31119,7760,1200,-2464,29292,431,-12,-12,1389808261.93917
2,232,0,18570,-269,350,-299,18555,8240,-592,3152,18311,319,-324,7,1389808261.94196
3,232,0,32463,-130,-9,125,32996,7840,1296,-2592,31870,431,-10,-15,1389808261.94202
2,233,0,19565,-225,324,-294,20435,8112,-592,2800,18311,319,-324,7,1389808261.112093
3,233,0,34462,-134,11,153,34873,7968,1344,-2672,34448,434,-7,-19,1389808261.112102
2,234,0,21554,-145,282,-279,22314,7904,-656,2432,20872,314,-327,7,1389808261.122891
3,234,0,36462,-164,4,196,36751,7968,1312,-2528,37025,434,-4,-16,1389808261.122899
2,235,0,23544,-116,259,-264,24194,7504,-688,2048,23433,316,-326,9,1389808261.129044
3,235,0,38461,-177,-1,252,38628,8032,1104,-2192,37025,434,-4,-16,1389808261.129296
2,236,0,25533,-130,237,-311,26073,7184,-576,1840,25993,317,-331,2,1389808261.140884
3,236,0,40460,-166,26,222,40505,7936,976,-2064,39603,426,-5,-14,1389808261.140892
2,237,0,27523,-201,232,-362,27954,6944,-432,1680,25993,317,-331,2,1389808261.153016
3,237,0,42460,-125,82,162,42382,7632,976,-1936,42181,426,-254,-18,1389808261.153030
2,238,0,29512,-286,224,-383,29833,6784,-304,1584,28554,315,-333,-2,1389808261.159243
3,238,0,44459,-80,133,135,44259,7312,864,-1936,42181,426,-254,-18,1389808261.159498
2,239,0,31502,-317,210,-382,31713,6912,-288,1520,31115,310,-337,8,1389808261.171534
3,239,0,46459,-50,176,108,46136,7120,848,-1920,44760,431,-1,-18,1389808261.171543
2,240,0,33492,-299,218,-361,33593,6992,-464,1456,33675,312,-336,4,1389808261.183720
3,240,0,47459,-21,187,98,48014,6992,944,-2080,47337,431,0,-17,1389808261.183729
2,241,0,35481,-281,212,-339,35473,7088,-528,1360,33675,312,-336,4,1389808261.183994
3,241,0,49458,-4,202,89,49892,6880,864,-2320,49916,433,5,-24,1389808261.184000
2,242,0,36476,-279,208,-336,37352,7200,-608,1232,36236,308,-342,-1,1389808261.202060
3,242,0,51457,10,201,94,51769,6928,960,-2576,49916,433,5,-24,1389808261.202069
2,243,0,38466,-289,198,-339,39232,7168,-640,1168,38797,309,-337,5,1389808261.213855
3,243,0,53457,-16,217,121,53646,7072,976,-2800,52493,433,6,-28,1389808261.213864
2,244,0,40455,-304,179,-318,41112,7088,-768,1200,38797,309,-337,5,1389808261.214134
3,244,0,55456,-88,228,141,55523,7344,960,-2864,55070,427,3,-21,1389808261.214140
2,245,0,42445,-313,161,-304,42991,7072,-816,1152,41358,309,-344,4,1389808261.231462
3,245,0,57456,-197,201,138,57401,7488,1024,-2768,57647,427,7,-28,1389808261.231471
2,246,0,44434,-329,142,-281,44870,7104,-832,1200,43918,305,-345,-1,1389808261.243439
3,246,0,59455,-290,186,142,59278,7680,1072,-2544,57647,427,7,-28,1389808261.243448
2,247,0,46424,-362,132,-267,46749,7200,-864,1312,46479,302,-345,5,1389808261.243693
3,247,0,61455,-356,162,169,61155,7984,976,-2288,60224,432,10,-33,1389808261.243935
2,248,0,48414,-378,132,-261,48629,7200,-800,1392,46479,302,-345,5,1389808261.261372
3,248,0,62454,-390,151,159,63032,8128,1040,-2112,62802,432,11,-30,1389808261.261381
2,249,0,50403,-361,148,-232,50508,7104,-784,1488,49040,306,-351,8,1389808261.273457
3,249,0,64454,-425,132,152,64909,8160,912,-1904,62802,432,11,-30,1389808261.273466
2,250,0,52393,-331,160,-177,52386,7008,-784,1312,51601,303,-349,5,1389808261.273804
3,250,0,917,-430,102,138,1250,8128,944,-1824,65379,428,12,-33,1389808261.273997
2,251,0,53387,-300,171,-150,54266,7056,-832,1136,54160,301,-348,7,1389808261.291939
3,251,0,2917,-399,107,89,3128,7952,880,-1760,2421,428,15,-36,1389808261.291947
2,252,0,55377,-254,187,-115,56145,7120,-896,976,54160,301,-348,7,1389808261.303045
3,252,0,4916,-382,95,68,5005,8000,816,-1904,4999,431,13,-35,1389808261.303054
2,253,0,57367,-243,197,-83,58025,7392,-960,752,56721,303,-351,9,1389808261.309202
3,253,0,6916,-379,88,44,6882,8064,672,-2032,4999,431,13,-35,1389808261.309440
2,254,0,59356,-264,171,-76,59904,7776,-992,656,59281,308,-348,3,1389808261.321250
3,254,0,8915,-410,68,11,8759,8096,608,-2064,7576,428,15,-35,1389808261.321260
2,255,0,61346,-317,146,-96,61784,8000,-976,720,59281,308,-348,3,1389808261.333072
3,255,0,10915,-440,30,-7,10636,8176,688,-1952,10154,428,15,-42,1389808261.333086
2,0,0,63335,-346,141,-90,63664,8064,-960,720,61843,299,-348,7,1389808261.339335
3,0,0,11914,-442,4,-27,12514,8208,688,-1888,12732,430,16,-38,1389808261.339586
2,1,0,65325,-333,158,-57,7,7968,-992,704,64404,301,-350,12,1389808261.351252
3,1,0,13914,-441,-37,-62,14391,8144,752,-1920,12732,430,16,-38,1389808261.351261
2,2,0,1779,-331,177,-25,1887,7728,-1040,656,1429,300,-348,9,1389808261.363316
3,2,0,15913,-456,-89,-90,16269,8160,608,-1872,15310,427,13,-36,1389808261.363325
2,3,0,2773,-319,180,5,3297,7536,-1120,464,1429,300,-348,9,1389808261.363568
3,3,0,17913,-495,-130,-122,18146,8240,432,-1856,17888,426,14,-44,1389808261.369118
2,4,0,4763,-252,210,33,5177,7440,-1280,208,3989,300,-349,8,1389808261.380958
3,4,0,19912,-563,-143,-184,20023,8256,480,-1744,17888,426,14,-44,1389808261.380963
2,5,0,6753,-227,232,3,7056,7376,-1328,-48,6551,300,-347,9,1389808261.392824
3,5,0,21911,-637,-147,-184,21901,7904,592,-1568,20465,434,10,-42,1389808261.392831
2,6,0,8742,-267,246,-75,8935,7216,-1248,-256,9112,303,-349,5,1389808261.404934
3,6,0,23911,-710,-145,-150,23778,7984,464,-1472,23043,428,13,-38,1389808261.404941
2,7,0,10732,-327,270,-108,10814,7136,-1088,-416,9112,303,-349,5,1389808261.405259
3,7,0,25910,-748,-127,-163,25655,7904,480,-1248,25620,427,10,-43,1389808261.405273
2,8,0,12721,-469,283,13,12694,7136,-1152,-512,11673,299,-347,8,1389808261.423284
3,8,0,26910,-764,-122,-167,27533,7936,512,-1040,25620,427,10,-43,1389808261.423291
2,9,0,14711,-588,285,166,14574,7424,-1232,-320,14233,299,-345,8,1389808261.423557
3,9,0,28910,-808,-110,-144,29409,7856,496,-816,28198,434,10,-41,1389808261.429434
2,10,0,16700,-678,269,263,16454,7968,-1520,256,16795,308,-342,6,1389808261.441148
3,10,0,30909,-817,-76,-103,31286,8016,512,-592,30775,432,10,-37,1389808261.441155
2,11,0,18690,-727,235,193,18333,8304,-1376,1200,16795,308,-342,6,1389808261.452815
3,11,0,32908,-803,-44,-57,33163,8128,464,-368,33352,427,10,-44,1389808261.452825
2,12,0,19685,-712,223,90,20212,8512,-1136,1904,19357,305,-338,8,1389808261.464994
3,12,0,34908,-724,10,-16,35040,8320,464,-240,33352,427,10,-44,1389808261.465003
2,13,0,21674,-747,179,-54,22092,8560,-672,2320,21919,304,-341,14,1389808261.465256
3,13,0,36907,-588,90,24,36917,8624,288,-144,35930,430,17,-46,1389808261.465262
2,14,0,23664,-749,137,-134,23972,8512,-640,2960,21919,304,-341,14,1389808261.482921
3,14,0,38907,-435,172,23,38794,8848,432,-64,38508,429,10,-39,1389808261.482935
2,15,0,25654,-783,64,-59,25851,8608,-656,3728,24481,309,-341,15,1389808261.489198
3,15,0,40906,-269,233,47,40672,8800,800,-16,38508,429,10,-39,1389808261.489432
2,16,0,27643,-536,-36,117,27731,8912,-1008,4080,27042,309,-341,13,1389808261.501563
3,16,0,41906,-181,248,52,42549,8848,848,-224,41087,425,12,-45,1389808261.501572
2,17,0,29633,-57,-90,242,29610,9152,-1632,3216,29602,304,-336,22,1389808261.513377
3,17,0,43905,6,264,53,44426,8848,704,-624,43663,429,16,-52,1389808261.513392
2,18,0,31622,343,-53,255,31490,9232,-2160,1344,29602,304,-336,22,1389808261.513684
3,18,0,45905,84,263,47,46304,8816,368,-832,46241,433,13,-50,1389808261.513900
2,19,0,33612,512,8,116,33369,9344,-2000,-560,32164,311,-336,18,1389808261.531236
3,19,0,47904,32,205,45,48181,9200,80,-864,46241,433,13,-50,1389808261.531287
2,20,0,35601,465,27,30,35250,9648,-2128,-1728,34724,308,-336,9,1389808261.543377
3,20,0,49904,-64,114,54,50059,9520,-192,-688,48819,430,13,-53,1389808261.543386
2,21,0,36596,396,13,-19,37130,9952,-2320,-1952,37284,304,-338,17,1389808261.543623
3,21,0,51903,-167,15,58,51936,9552,-144,-224,51397,429,15,-58,1389808261.549296
2,22,0,38586,237,-38,-145,39009,9888,-2464,-1712,37284,304,-338,17,1389808261.560881
3,22,0,53903,-195,-48,45,53814,9568,-144,256,53975,427,16,-53,1389808261.560890
2,23,0,40575,49,-41,-266,40890,9632,-1824,-1328,39845,309,-340,15,1389808261.572919
3,23,0,55902,-181,-49,23,55692,9664,-512,544,53975,427,16,-53,1389808261.572928
2,24,0,42565,-51,73,-333,42769,9376,-1648,-256,42405,309,-342,7,1389808261.579126
3,24,0,56902,-143,-38,8,57569,9808,-688,560,56553,428,16,-52,1389808261.579440
2,25,0,44555,-81,237,-399,44648,9920,-1664,1360,44967,302,-348,10,1389808261.591171
3,25,0,58901,12,2,-20,59447,9872,-528,256,59131,432,19,-56,1389808261.591181
2,26,0,46544,-32,279,-614,46528,10816,-1168,2864,44967,302,-348,10,1389808261.603317
3,26,0,60901,241,40,15,61325,9824,-192,-336,59131,432,19,-56,1389808261.603327
2,27,0,48534,324,129,-738,48407,11360,-784,3376,47527,304,-351,10,1389808261.603564
3,27,0,62900,459,92,24,63202,10080,336,-1104,61709,432,17,-55,1389808261.609801
2,28,0,50523,791,35,-697,50286,11024,-816,2128,50088,302,-356,3,1389808261.621313
3,28,0,64900,604,158,0,65079,10304,576,-2000,64286,429,14,-50,1389808261.621322
2,29,0,52513,799,145,-692,52166,10368,-1376,464,50088,302,-356,3,1389808261.633364
3,29,0,1363,652,255,-6,1420,10224,800,-2848,1328,426,17,-59,1389808261.633373
2,30,0,53508,550,207,-728,54046,9360,-1184,1504,52652,291,-361,1,1389808261.633620
3,30,0,3362,654,275,-34,3297,9792,1344,-3408,1328,426,17,-59,1389808261.639777
2,31,0,55497,-30,46,-782,55926,7296,-496,4352,55214,291,-366,2,1389808261.651901
3,31,0,5362,629,206,-108,5175,8960,1904,-3952,3907,429,18,-62,1389808261.651915
2,32,0,57487,-163,-335,-539,57806,5984,-624,5360,57775,293,-367,3,1389808261.663530
3,32,0,6362,608,128,-132,7052,7984,2112,-4352,6486,432,16,-56,1389808261.663539
2,33,0,59476,160,-500,-170,59685,6432,-672,3456,57775,293,-367,3,1389808261.663683
3,33,0,8361,614,-51,-162,8929,6896,1696,-5040,9063,427,12,-57,1389808261.663910
2,34,0,61466,145,-325,-281,61565,7552,-480,1120,60335,289,-370,7,1389808261.681210
3,34,0,10361,551,-210,-195,10806,6192,1472,-5680,9063,427,12,-57,1389808261.681224
2,35,0,63456,-105,-105,-304,63444,7728,-80,1488,62897,286,-371,10,1389808261.693385
3,35,0,12360,362,-342,-226,12683,6144,1536,-5888,11640,428,13,-55,1389808261.693394
2,36,0,65445,-150,-17,-320,65323,6880,224,2560,65458,289,-372,5,1389808261.693593
3,36,0,14359,215,-402,-147,14560,6752,1456,-5776,14218,430,8,-47,1389808261.693840
2,37,0,1899,-84,69,-271,1667,6176,160,2624,65458,289,-372,5,1389808261.712007
3,37,0,16359,77,-415,-121,16437,7728,1120,-5792,14218,430,8,-47,1389808261.712022
2,38,0,2894,-53,98,-223,3547,5904,0,2576,2483,282,-376,4,1389808261.724212
3,38,0,18358,-104,-375,-154,18313,8304,720,-5856,16796,429,7,-44,1389808261.724221
2,39,0,4883,41,148,-151,5426,6288,-112,2528,5044,282,-376,8,1389808261.724437
3,39,0,20358,-323,-350,-66,20190,8576,544,-5312,19373,429,8,-47,1389808261.724443
2,40,0,6873,41,154,-87,7305,7408,-336,2320,5044,282,-376,8,1389808261.742561
3,40,0,21357,-460,-355,-44,22068,8784,448,-4160,21951,432,8,-34,1389808261.742570
2,41,0,8862,-25,80,-58,9184,8464,-384,2336,7606,286,-377,3,1389808261.754223
3,41,0,23357,-647,-359,-62,23944,8960,448,-3232,21951,432,8,-34,1389808261.754232
2,42,0,10852,-148,-23,-28,11063,9392,-576,2480,10166,282,-375,0,1389808261.754517
3,42,0,25356,-620,-381,-143,25822,8928,336,-2656,24528,426,8,-36,1389808261.754524
2,43,0,12842,-268,-98,-3,12943,9232,-528,2832,12726,282,-375,10,1389808261.771252
3,43,0,27356,-529,-416,-190,27699,8800,240,-2288,27106,425,9,-38,1389808261.771261
2,44,0,14831,-356,-122,-13,14823,8256,-336,3408,12726,282,-375,10,1389808261.782841
3,44,0,29355,-396,-417,-207,29576,8864,272,-2112,29684,434,6,-30,1389808261.782920
2,45,0,16821,-298,-123,32,16702,7296,-256,3872,15287,284,-377,12,1389808261.789259
3,45,0,31355,-215,-384,-268,31453,8912,416,-2032,29684,434,6,-30,1389808261.789546
2,46,0,18810,-81,-83,93,18582,6720,-208,3728,17846,283,-373,10,1389808261.801402
3,46,0,33354,-29,-315,-339,33331,8768,512,-2000,32261,429,2,-25,1389808261.801416
2,47,0,19805,29,-41,139,20462,6544,-368,2976,20406,279,-372,17,1389808261.813583
3,47,0,35354,221,-206,-393,35208,8400,544,-2048,34839,428,1,-30,1389808261.813592
2,48,0,21795,222,68,213,22342,6560,-432,2032,20406,279,-372,17,1389808261.813835
3,48,0,36353,321,-154,-394,37085,8064,272,-2128,34839,428,1,-30,1389808261.814079
2,49,0,23784,301,139,289,24222,6848,-528,1344,22967,283,-374,14,1389808261.832121
3,49,0,38353,381,-106,-418,38962,7504,80,-2160,37416,432,249,-25,1389808261.832135
2,50,0,25774,267,85,283,26102,7200,-448,976,25527,286,-369,5,1389808261.843793
3,50,0,40352,411,-148,-350,40840,7072,-240,-2176,39995,429,-8,-18,1389808261.843802
2,51,0,27763,168,-48,268,27982,7392,-448,880,28088,285,-368,6,1389808261.844072
3,51,0,42352,392,-212,-319,42716,6912,-352,-2176,42574,430,-11,-21,1389808261.844078
2,52,0,29753,50,-190,271,29861,7648,-416,1184,28088,285,-368,6,1389808261.861645
3,52,0,44351,328,-252,-358,44593,7040,-272,-2000,42574,430,-11,-21,1389808261.861654
2,53,0,31743,-47,-294,261,31741,7664,-464,1776,30650,292,-369,11,1389808261.873489
3,53,0,46351,282,-252,-353,46471,7248,-208,-1696,45151,433,-12,-20,1389808261.873498
2,54,0,33732,-77,-367,258,33620,7664,-352,2416,33209,293,-361,9,1389808261.873733
3,54,0,48350,271,-197,-322,48348,7408,-80,-1472,47728,433,-16,-15,1389808261.873956
2,55,0,35722,1,-407,260,35499,7664,-336,2912,33209,293,-361,9,1389808261.891134
3,55,0,50349,257,-141,-260,50226,7392,-64,-1280,50304,427,-15,-15,1389808261.891143
2,56,0,36717,77,-417,282,37379,7520,-240,3152,35769,287,-359,14,1389808261.903260
3,56,0,51349,250,-110,-222,52103,7376,64,-1136,50304,427,-15,-15,1389808261.903270
2,57,0,38706,257,-407,302,39258,7152,-128,2736,38330,292,-359,20,1389808261.903528
3,57,0,53349,286,-56,-141,53981,7280,16,-1152,52882,432,-20,-17,1389808261.909217
2,58,0,40696,440,-357,318,41138,6832,-256,2192,40890,292,-358,15,1389808261.921381
3,58,0,55348,345,-21,-102,55859,7200,32,-1312,55460,434,-23,-11,1389808261.921390
2,59,0,42685,569,-330,361,43017,6624,-288,1616,40890,292,-358,15,1389808261.933465
3,59,0,57348,390,-4,-92,57736,7040,-48,-1584,55460,434,-23,-11,1389808261.933474
2,60,0,44675,654,-307,368,44897,6848,-336,1008,43449,292,-355,15,1389808261.933848
3,60,0,59347,438,-2,-80,59612,6800,-192,-1744,58038,431,-25,-12,1389808261.934172
2,61,0,46664,688,-310,350,46776,7312,-400,624,46009,295,-354,20,1389808261.952241
3,61,0,61346,437,16,-57,61489,6608,-304,-1808,60616,433,-21,-14,1389808261.952256
2,62,0,48654,643,-335,308,48656,7744,-432,352,48570,300,-350,14,1389808261.964411
3,62,0,63346,399,13,-80,63366,6688,-352,-2000,63193,437,-25,-10,1389808261.964420
2,63,0,50644,563,-358,276,50537,8064,-400,160,48570,300,-350,14,1389808261.964690
3,63,0,65345,344,20,-57,65243,6816,-416,-2080,63193,437,-25,-10,1389808261.964696
2,64,0,51638,517,-360,238,52416,8176,-464,112,51131,296,-350,18,1389808261.982031
3,64,0,809,305,31,-21,1583,6896,-528,-1936,234,431,-23,-8,1389808261.982040
2,65,0,53628,417,-337,181,54296,8208,-512,208,53691,296,-348,20,1389808261.993905
3,65,0,2808,229,66,49,3461,7056,-400,-1744,2812,432,-21,-16,1389808261.993920
2,66,0,55618,313,-311,121,56176,8064,-608,416,56250,304,-346,17,1389808261.994250
3,66,0,4808,165,84,78,5339,7120,-384,-1328,5389,434,-22,-14,1389808261.994259
2,67,0,57607,215,-300,60,58057,7872,-448,736,56250,304,-346,17,1389808262.11700
3,67,0,6807,141,80,93,7216,7072,-576,-1088,5389,434,-22,-14,1389808262.11709
2,68,0,59597,179,-304,14,59937,7760,-480,912,58810,298,-346,20,1389808262.23212
3,68,0,8807,119,48,81,9093,7120,-432,-880,7967,434,-19,-12,1389808262.23221
2,69,0,61586,164,-318,17,61816,7728,-512,1072,61370,299,-348,21,1389808262.23432
3,69,0,10806,101,11,140,10969,7104,-416,-816,10544,431,-20,-17,1389808262.29669
2,70,0,63576,187,-325,6,63697,7728,-304,1248,61370,299,-348,21,1389808262.41586
3,70,0,12806,251,37,241,12847,7408,-800,-880,10544,431,-20,-17,1389808262.41594
2,71,0,29,226,-328,0,40,7792,-336,1328,63929,299,-347,22,1389808262.53267
3,71,0,14805,323,87,170,14723,7920,-736,-848,13122,431,-18,-13,1389808262.53276
2,72,0,2019,285,-317,2,1920,7856,-336,1376,954,299,-349,17,1389808262.53524
3,72,0,15805,293,83,73,16601,7968,-672,-672,15701,427,-17,-11,1389808262.59327
2,73,0,3014,318,-309,-4,3800,7872,-432,1392,3516,293,-348,25,1389808262.70591
3,73,0,17804,308,54,11,18478,7648,-864,-480,18279,427,-18,-20,1389808262.70599
2,74,0,5003,385,-271,0,5679,7840,-576,1296,3516,293,-348,25,1389808262.82952
3,74,0,19804,339,15,-58,20355,7168,-544,-160,18279,427,-18,-20,1389808262.82967
2,75,0,6993,452,-250,-11,7559,7808,-608,1152,6075,301,-349,25,1389808262.89292
3,75,0,21803,379,-62,-198,22233,6800,-96,-160,20858,435,-20,-13,1389808262.89578
2,76,0,8983,535,-219,-17,9439,7600,-608,896,8636,300,-347,20,1389808262.101817
3,76,0,23803,480,-147,-212,24110,6736,288,-720,23435,435,-24,-11,1389808262.101827
2,77,0,10972,586,-170,-9,11318,7680,-208,528,11196,297,-352,22,1389808262.113498
3,77,0,25802,619,-129,-6,25987,6896,-192,-1776,26012,432,-18,-13,1389808262.113513
2,78,0,12962,598,-113,-12,13198,7904,-48,-64,11196,297,-352,22,1389808262.113883
3,78,0,27802,662,-85,121,27865,7296,-256,-2864,26012,432,-18,-13,1389808262.114114
2,79,0,14951,525,-112,0,15078,8208,-176,-320,13755,301,-353,22,1389808262.131809
3,79,0,29801,596,-49,-17,29743,7632,224,-3856,28590,432,-22,-10,1389808262.131818
2,80,0,16941,410,-143,39,16957,8480,-432,-192,16315,302,-350,15,1389808262.143880
3,80,0,30801,566,-42,-110,31620,7792,1104,-4576,31169,429,-27,-9,1389808262.143890
2,81,0,18931,190,-201,83,18837,8512,-464,272,18876,299,-350,19,1389808262.144161
3,81,0,32800,537,-13,-275,33498,7520,1376,-5440,31169,429,-27,-9,1389808262.144167
2,82,0,19925,33,-230,92,20717,8448,-480,928,18876,299,-350,19,1389808262.162162
3,82,0,34800,487,25,-84,35375,7712,-48,-5744,33747,429,-26,-8,1389808262.162171
2,83,0,21915,-295,-275,75,22597,8000,-368,1760,21437,299,-351,26,1389808262.173973
3,83,0,36799,3,-3,255,37252,8576,-1824,-5152,36325,434,-22,-10,1389808262.173982
2,84,0,23904,-430,-250,63,24478,7552,-288,2416,23998,298,-347,22,1389808262.174226
3,84,0,38799,-730,-118,521,39129,9680,-2560,-3248,38903,434,-18,-4,1389808262.174232
2,85,0,25894,-314,-177,82,26357,7504,-224,2480,23998,298,-347,22,1389808262.191933
3,85,0,40798,-1311,-307,530,41006,10256,-2480,-48,38903,434,-18,-4,1389808262.191942
2,86,0,27884,16,-84,130,28238,7840,-400,1920,26557,296,-345,27,1389808262.203262
3,86,0,42797,-1641,-556,419,42884,10448,-1776,2880,41480,427,-8,0,1389808262.203271
2,87,0,29873,352,34,188,30117,8240,-496,944,29117,296,-344,32,1389808262.203526
3,87,0,44797,-1285,-609,426,44761,10720,-1312,4448,44056,427,-5,-3,1389808262.209493
2,88,0,31863,562,143,257,31998,8544,-496,96,31679,301,-343,21,1389808262.220973
3,88,0,45797,-919,-520,440,46639,10880,-1408,4560,46634,436,-1,4,1389808262.220983
2,89,0,33852,619,208,301,33878,8944,-528,-464,31679,301,-343,21,1389808262.232403
3,89,0,47796,-132,-275,367,48516,10368,-1408,3888,46634,436,-1,4,1389808262.232412
2,90,0,34847,614,211,310,35760,9312,-368,-752,34239,300,-340,14,1389808262.244151
3,90,0,49795,486,-124,117,50393,9440,-1568,2464,49212,429,-2,7,1389808262.244159
2,91,0,36837,579,147,309,37641,9632,-448,-992,36800,304,-340,15,1389808262.244359
3,91,0,51795,811,-170,-144,52271,9040,-1328,368,51789,426,-1,3,1389808262.244366
2,92,0,38826,487,0,327,39521,9744,-736,-976,39360,306,-339,12,1389808262.262365
3,92,0,53794,920,-274,-348,54148,9216,-912,-1616,51789,426,-1,3,1389808262.262380
2,93,0,40816,308,-155,371,41401,10016,-1248,-512,39360,306,-339,12,1389808262.273404
3,93,0,55794,938,-305,-461,56025,9920,-224,-3728,54366,429,-10,6,1389808262.273413
2,94,0,42806,47,-245,423,43281,10480,-1344,640,41921,305,-335,11,1389808262.273592
3,94,0,57793,835,-121,-518,57902,11200,816,-5824,56943,428,-15,16,1389808262.273769
2,95,0,44795,-215,-267,420,45163,10880,-1008,1952,44481,305,-333,21,1389808262.290910
3,95,0,59793,518,245,-414,59779,11520,1584,-7664,59521,424,-15,9,1389808262.290919
2,96,0,46785,-390,-253,376,46573,10960,-640,2544,47042,312,-330,20,1389808262.302821
3,96,0,60792,291,391,-333,61656,11408,1872,-8032,59521,424,-15,9,1389808262.302831
2,97,0,48774,-573,-185,262,48923,10464,160,3120,47042,312,-330,20,1389808262.314845
3,97,0,62792,-165,578,18,63532,10560,1648,-7520,62099,431,-17,5,1389808262.314853
2,98,0,50764,-754,-45,126,50803,9392,784,3696,49603,309,-325,19,1389808262.315080
3,98,0,64791,-458,681,322,65409,8944,1040,-6080,64676,432,-14,4,1389808262.315086
2,99,0,51759,-790,59,65,52213,8464,720,4320,52163,310,-325,32,1389808262.332801
3,99,0,1255,-611,627,352,1751,7120,1376,-4928,1717,426,-10,-5,1389808262.332811
2,100,0,53748,-733,273,89,54093,7680,176,5328,52163,310,-325,32,1389808262.344332
3,100,0,3254,-589,512,205,3628,5824,1200,-3360,1717,426,-10,-5,1389808262.344341
2,101,0,55738,-655,398,33,55973,7408,144,5952,54725,315,-327,29,1389808262.344614
3,101,0,5254,-678,264,82,5506,5648,1232,-1520,4294,431,-7,-13,1389808262.344620
2,102,0,57727,-468,426,-64,57852,7280,16,5808,57284,312,-323,22,1389808262.362911
3,102,0,7253,-594,-39,99,7382,6496,1200,-448,6871,431,-7,-8,1389808262.362926
2,103,0,59717,-245,469,-92,59733,7296,-64,5216,59845,310,-323,24,1389808262.368855
3,103,0,9253,-277,-227,158,9260,7152,1248,-272,6871,431,-7,-8,1389808262.369174
3,104,0,10252,-113,-290,165,11137,7568,1568,-1280,9447,425,-5,-9,1389808262.380387
2,105,0,63696,251,584,29,63494,8000,-560,4064,62406,316,-327,20,1389808262.392672
3,105,0,12252,185,-270,166,13013,7808,1920,-2672,12025,428,-253,-13,1389808262.392687
2,106,0,150,388,520,106,65374,8544,-800,3328,64967,316,-322,9,1389808262.404408
3,106,0,14251,341,-140,110,14890,8016,2176,-3488,14602,430,251,-5,1389808262.404417
2,107,0,2139,436,421,217,1718,9056,-1040,2448,1991,311,-320,9,1389808262.404722
3,107,0,16251,293,-6,63,16768,8224,2224,-3744,14602,430,251,-5,1389808262.404729
2,108,0,3134,407,369,218,3599,9296,-1408,1616,1991,311,-320,9,1389808262.422487
3,108,0,18250,139,27,97,18646,8224,2160,-3456,17179,426,-5,-4,1389808262.422496
2,109,0,5124,231,304,105,5479,8992,-1392,1008,4551,319,-325,6,1389808262.434822
3,109,0,20250,52,-14,189,20523,8352,1728,-3312,19758,430,0,-9,1389808262.434837
2,110,0,7113,-28,325,-170,7359,8368,-1184,688,7112,319,-322,-1,1389808262.435164
3,110,0,22249,-6,-29,205,22400,8704,1648,-3760,22335,432,-1,-4,1389808262.435174
2,111,0,9103,-296,412,-331,9238,7872,-1024,928,7112,319,-322,-1,1389808262.453260
3,111,0,24248,-103,60,225,24277,8928,1440,-4128,22335,432,-1,-4,1389808262.453269
2,112,0,11092,-490,514,-375,11118,7536,-768,1408,9671,312,-324,0,1389808262.453480
3,112,0,25248,-204,98,249,26153,8464,1328,-3888,24912,427,-252,-7,1389808262.459639
2,113,0,13082,-571,587,-421,12998,7536,-416,1840,12230,314,-328,-2,1389808262.471201
3,113,0,27248,-439,117,234,28031,8048,1184,-3104,27488,423,8,-9,1389808262.471210
2,114,0,15072,-596,609,-410,14878,7648,-400,1936,14791,317,-329,-8,1389808262.483278
3,114,0,29247,-581,58,177,29908,7600,1136,-2272,27488,423,8,-9,1389808262.483293
2,115,0,17061,-594,566,-347,16759,7728,-480,1760,14791,317,-329,-8,1389808262.483608
3,115,0,31246,-584,5,130,31785,7312,1024,-1648,30065,431,10,-10,1389808262.489313
2,116,0,18056,-600,533,-333,18639,7776,-688,1472,17352,311,-332,-10,1389808262.501330
3,116,0,33246,-559,-33,73,33662,7120,1152,-1232,32642,427,8,-8,1389808262.501338
2,117,0,20046,-632,472,-312,20520,7792,-768,1392,19913,313,-333,-8,1389808262.513439
3,117,0,35245,-482,-37,57,35539,7184,1296,-1168,35220,424,10,-12,1389808262.513448
2,118,0,22035,-656,416,-321,22400,7696,-688,1520,22474,315,-335,-9,1389808262.513696
3,118,0,37245,-359,23,114,37416,7472,1408,-1648,35220,424,10,-12,1389808262.513952
2,119,0,24025,-667,368,-356,24281,7440,-608,1584,22474,315,-335,-9,1389808262.531032
3,119,0,39244,-239,170,139,39293,7680,1280,-2160,37797,429,13,-13,1389808262.531073
2,120,0,26014,-657,317,-367,26161,7152,-528,1472,25033,303,-335,-6,1389808262.542823
3,120,0,40244,-223,242,150,41171,7792,1040,-2512,40374,428,14,-14,1389808262.542832
2,121,0,28004,-629,271,-344,28041,6976,-528,1328,27593,310,-341,-7,1389808262.554460
3,121,0,42243,-254,324,138,43048,7776,944,-2576,42951,425,18,-18,1389808262.554469
2,122,0,29993,-602,246,-322,29921,7056,-464,1216,30153,310,-342,-8,1389808262.554737
3,122,0,44243,-320,322,71,44925,7552,1040,-2528,42951,425,18,-18,1389808262.554743
2,123,0,31983,-581,241,-308,31801,7136,-576,1088,30153,310,-342,-8,1389808262.571892
3,123,0,46242,-376,276,98,46803,7312,1056,-2528,45529,426,16,-24,1389808262.571901
2,124,0,33973,-584,219,-292,33681,7168,-656,1120,32714,305,-343,-8,1389808262.583964
3,124,0,48242,-416,264,133,48680,7184,1168,-2528,48106,429,21,-21,1389808262.583973
2,125,0,34967,-586,211,-291,35561,7120,-736,1232,35273,300,-346,-6,1389808262.584244
3,125,0,50241,-503,281,151,50557,7184,1072,-2272,48106,429,21,-21,1389808262.584250
2,126,0,36957,-605,204,-305,37440,7120,-704,1440,35273,300,-346,-6,1389808262.602320
3,126,0,52241,-566,301,180,52435,7312,1200,-1936,50684,426,22,-24,1389808262.602334
2,127,0,38947,-597,179,-306,39320,7056,-640,1600,37833,307,-347,-5,1389808262.614381
3,127,0,54240,-581,322,201,54312,7552,1104,-1632,53261,429,26,-35,1389808262.614391
2,128,0,40936,-559,152,-282,41200,6976,-704,1600,40392,304,-349,-5,1389808262.614604
3,128,0,55240,-572,321,218,56190,7696,1152,-1536,55839,428,27,-33,1389808262.614611
2,129,0,42926,-506,129,-221,43081,6976,-848,1488,42954,298,-350,0,1389808262.632830
3,129,0,57239,-536,340,224,58067,7760,1120,-1504,55839,428,27,-33,1389808262.632844
2,130,0,44915,-456,118,-193,44960,6944,-800,1184,42954,298,-350,0,1389808262.639070
3,130,0,59239,-491,343,206,59944,7808,1104,-1616,58417,426,30,-34,1389808262.639327
2,131,0,46905,-432,123,-183,46840,6976,-736,960,45514,301,-349,2,1389808262.651424
3,131,0,61238,-448,335,177,61821,7792,976,-1728,60995,424,30,-42,1389808262.651433
2,132,0,48895,-453,113,-175,48720,7104,-800,736,48074,299,-350,-1,1389808262.663030
3,132,0,63238,-441,324,140,63698,7696,880,-1920,63573,431,33,-44,1389808262.663045
2,133,0,50884,-497,73,-174,50600,7312,-784,576,50635,300,-348,6,1389808262.669382
3,133,0,65237,-450,302,112,39,7552,800,-2032,63573,431,33,-44,1389808262.669698
2,134,0,51879,-504,51,-174,52480,7472,-704,480,50635,300,-348,6,1389808262.681847
3,134,0,1701,-471,295,69,1917,7520,656,-1936,614,424,33,-49,1389808262.681856
2,135,0,53869,-542,10,-170,54359,7520,-704,416,53196,300,-350,10,1389808262.693226
3,135,0,3700,-498,301,46,3793,7552,672,-1984,3192,424,34,-56,1389808262.693235
2,136,0,55858,-554,-32,-130,56239,7440,-672,464,55757,300,-351,6,1389808262.693485
3,136,0,4700,-464,321,34,5670,7536,688,-1696,3192,424,34,-56,1389808262.699778
2,137,0,57848,-568,-81,-51,58120,7216,-592,432,58317,297,-352,15,1389808262.711395
3,137,0,6699,-509,320,-35,7548,7296,784,-1648,5770,428,31,-60,1389808262.711410
2,138,0,59837,-541,-140,51,59999,7072,-784,368,58317,297,-352,15,1389808262.723665
3,138,0,8699,-511,309,30,9425,7600,752,-1824,8347,422,34,-57,1389808262.723674
2,139,0,61827,-548,-197,168,61879,6928,-896,368,60878,300,-348,19,1389808262.723942
3,139,0,10698,-512,323,63,11302,7936,848,-2096,10924,423,35,-67,1389808262.723948
2,140,0,63816,-562,-225,248,63759,7008,-1008,256,63438,303,-346,19,1389808262.741458
3,140,0,12697,-544,336,90,13179,8256,832,-2224,10924,423,35,-67,1389808262.741468
2,141,0,270,-574,-217,275,103,7216,-1184,128,63438,303,-346,19,1389808262.753241
3,141,0,14697,-614,338,92,15055,8416,784,-2176,13502,427,37,-70,1389808262.753251
2,142,0,1265,-579,-201,287,1982,7344,-1120,128,462,297,-344,26,1389808262.753467
3,142,0,16696,-700,312,91,16933,8448,752,-1984,16080,426,36,-69,1389808262.759660
2,143,0,3254,-580,-131,282,3862,7520,-1232,112,3022,301,-341,34,1389808262.771620
3,143,0,18696,-787,289,79,18811,8384,768,-1712,18657,420,39,-76,1389808262.771629
2,144,0,5244,-640,-65,291,5740,7680,-1024,224,5582,303,-339,30,1389808262.783806
3,144,0,19696,-820,264,58,20219,8320,592,-1408,18657,420,39,-76,1389808262.783815
2,145,0,7234,-718,-35,374,7620,7696,-1104,544,5582,303,-339,30,1389808262.784083
3,145,0,21695,-869,211,27,22096,8256,560,-848,21235,425,38,-83,1389808262.784090
2,146,0,9223,-745,-40,521,9499,7952,-1376,992,8143,300,-333,37,1389808262.802106
3,146,0,23694,-874,159,33,23973,8240,672,-464,23813,425,39,-82,1389808262.802121
2,147,0,11213,-746,-63,548,11379,8208,-1056,1568,10704,304,-325,45,1389808262.813425
3,147,0,25694,-842,112,60,25851,8288,624,-16,23813,425,39,-82,1389808262.813434
2,148,0,13202,-701,-40,417,13258,8320,-864,2016,13264,308,-324,43,1389808262.813609
3,148,0,27693,-711,106,75,27728,8448,608,-64,26390,421,39,-87,1389808262.813754
2,149,0,15192,-696,-7,271,15137,8608,-512,2448,13264,308,-324,43,1389808262.831234
3,149,0,29693,-549,157,64,29605,8704,272,-224,28968,425,43,-91,1389808262.831248
2,150,0,17181,-658,12,13,17018,8624,-192,3088,15825,308,-320,45,1389808262.843026
3,150,0,31692,-402,189,23,31482,8928,224,-304,31545,425,40,-94,1389808262.843035
2,151,0,18176,-641,18,-60,18897,8528,-192,3760,18386,309,-320,53,1389808262.849268
3,151,0,33692,-257,210,-9,33359,8848,528,-304,31545,425,40,-94,1389808262.849585
2,152,0,20166,-508,-16,-12,20776,8544,-416,4096,20947,308,-320,52,1389808262.861333
3,152,0,34691,-182,206,-21,35236,8576,816,-128,34123,421,41,-93,1389808262.861348
2,153,0,22155,-79,-34,113,22656,8656,-704,3296,20947,308,-320,52,1389808262.873278
3,153,0,36691,4,183,-56,37113,8288,640,-224,36701,419,41,-95,1389808262.873288
2,154,0,24145,408,-16,320,24535,8912,-1488,1504,23507,309,-316,51,1389808262.873543
3,154,0,38690,142,163,-71,38989,8256,464,-640,39279,426,39,-97,1389808262.879854
2,155,0,26135,790,17,354,26415,9312,-1888,-384,26067,310,-317,51,1389808262.892095
3,155,0,40690,158,138,-72,40866,8496,208,-976,39279,426,39,-97,1389808262.892104
2,156,0,28124,923,25,136,28294,9648,-2048,-1808,26067,310,-317,51,1389808262.904159
3,156,0,42689,72,73,-94,42743,8832,-48,-896,41857,423,40,-93,1389808262.904169
2,157,0,30114,728,21,-150,30173,10000,-2080,-2432,28626,315,-316,45,1389808262.904444
3,157,0,44689,-13,-20,-119,44620,8992,-304,-592,44434,423,39,-98,1389808262.904450
2,158,0,32103,357,22,-385,32053,10368,-1728,-1616,31186,310,-322,42,1389808262.922610
3,158,0,46688,-2,-126,-143,46498,8864,-480,-176,44434,423,39,-98,1389808262.922619
2,159,0,34093,-1,12,-620,33932,11312,-1408,688,33748,304,-324,44,1389808262.934855
3,159,0,48688,137,-227,-124,48374,8864,-464,32,47012,424,39,-98,1389808262.934864
2,160,0,35088,-94,-9,-742,35812,12416,-848,3760,33748,304,-324,44,1389808262.935146
3,160,0,49687,244,-263,-98,50251,9296,-64,0,49589,424,38,-89,1389808262.935152
2,161,0,37077,-101,-108,-941,37692,12832,-304,5584,36309,306,-336,41,1389808262.953016
3,161,0,51687,537,-274,-50,52127,10144,272,-816,52166,423,37,-89,1389808262.953025
2,162,0,39067,286,-237,-1016,39572,11824,-592,5056,38870,306,-339,44,1389808262.959152
3,162,0,53686,794,-223,-61,54004,11136,640,-1744,52166,423,37,-89,1389808262.959401
2,163,0,41056,881,-40,-977,41451,10592,-1568,2944,41431,297,-348,42,1389808262.971274
3,163,0,55686,902,-78,-16,55881,11552,1616,-2192,54742,423,39,-88,1389808262.971283
2,164,0,43046,845,335,-985,43331,9104,-1648,1920,41431,297,-348,42,1389808262.983180
3,164,0,57685,986,110,4,57757,11456,2512,-2576,57319,421,39,-81,1389808262.983189
2,165,0,45036,636,392,-965,45210,6816,-1104,3648,43992,297,-357,33,1389808262.983441
3,165,0,59684,1006,197,-76,59634,11024,2832,-3712,59897,421,39,-84,1389808262.989148
2,166,0,47025,574,25,-719,47089,4560,-1168,4368,46553,294,-361,24,1389808263.1186
3,166,0,61684,1017,60,-271,61511,9472,2880,-4928,59897,421,39,-84,1389808263.1195
2,167,0,49015,796,-280,-286,48969,4288,-976,2144,46553,294,-361,24,1389808263.13278
3,167,0,63683,996,-170,-400,63388,7600,2368,-6032,62474,426,35,-85,1389808263.13286
2,168,0,50010,870,-285,-213,50849,5920,-624,-832,49114,289,-364,28,1389808263.13531
3,168,0,147,732,-369,-432,65265,6160,1600,-6784,65051,426,32,-77,1389808263.19742
2,169,0,51999,561,-68,-132,52729,7824,-416,-1440,51676,285,-363,25,1389808263.31521
3,169,0,1147,569,-431,-430,1607,5984,912,-7120,65051,426,32,-77,1389808263.31587
2,170,0,53989,-113,83,-100,54608,8416,-304,0,54237,286,-365,22,1389808263.43572
3,170,0,3146,222,-513,-371,3483,6272,688,-6336,2093,426,28,-75,1389808263.43581
2,171,0,55978,-513,77,-131,56487,8192,-112,1792,54237,286,-365,22,1389808263.43789
3,171,0,5145,-79,-573,-277,5360,7040,800,-5040,4671,426,29,-68,1389808263.43988
2,172,0,57968,-605,57,-214,58366,7504,224,3248,56797,283,-367,26,1389808263.61961
3,172,0,7145,-246,-582,-216,7237,7808,800,-3904,7248,427,24,-63,1389808263.61970
2,173,0,59958,-442,-17,-193,60245,6672,208,4352,59358,287,-366,31,1389808263.73596
3,173,0,9144,-285,-513,-100,9114,8320,928,-3344,7248,427,24,-63,1389808263.73606
2,174,0,61947,-100,-89,-139,62124,6352,-352,4672,61919,287,-366,27,1389808263.73871
3,174,0,11144,-282,-389,-69,10991,8560,1104,-2992,9825,427,25,-61,1389808263.73875
2,175,0,63937,188,-106,-45,64004,7424,-736,4704,61919,287,-366,27,1389808263.91878
3,175,0,13143,-248,-311,-76,12867,8752,1216,-2560,12404,427,23,-59,1389808263.91888
2,176,0,390,392,-138,34,347,8592,-848,4192,64481,284,-368,28,1389808263.103477
3,176,0,15143,-180,-313,-91,14745,8752,1200,-2192,14981,427,23,-54,1389808263.103485
2,177,0,1385,463,-158,64,2227,9264,-944,2944,1504,284,-366,35,1389808263.103741
3,177,0,16142,-117,-339,-101,16622,8784,1040,-2240,14981,427,23,-54,1389808263.103909
2,178,0,3375,468,-116,116,4106,9056,-752,1808,4065,287,-368,25,1389808263.120965
3,178,0,18142,61,-386,-159,18499,8864,784,-2400,17558,428,25,-51,1389808263.120973
2,179,0,5364,343,-9,145,5985,8240,-592,1360,4065,287,-368,25,1389808263.133089
3,179,0,20141,211,-400,-176,20376,8976,624,-2672,20136,426,24,-48,1389808263.133103
2,180,0,7354,237,76,209,7865,7344,-464,1408,6627,285,-367,23,1389808263.139359
3,180,0,22141,319,-392,-228,22253,9120,432,-2912,20136,426,24,-48,1389808263.139566
2,181,0,9343,251,165,232,9744,6784,-464,1456,9187,282,-364,25,1389808263.151779
3,181,0,24140,361,-382,-320,24129,9104,336,-3088,22714,433,21,-46,1389808263.151788
2,182,0,11333,260,238,244,11623,6784,-400,1376,9187,282,-364,25,1389808263.163289
3,182,0,26140,350,-387,-406,26006,8528,224,-3056,25292,429,16,-36,1389808263.163304
2,183,0,13323,238,246,253,13503,6960,-336,1312,11747,287,-362,18,1389808263.163609
3,183,0,28139,301,-400,-437,27883,7904,32,-2816,27870,425,15,-40,1389808263.169887
2,184,0,15312,217,217,283,15382,7040,-288,1200,14308,291,-361,13,1389808263.181955
3,184,0,30139,244,-415,-444,29760,7344,-96,-2512,27870,425,15,-40,1389808263.181964
2,185,0,17302,181,191,296,17262,7328,-304,1152,16869,290,-359,13,1389808263.193389
3,185,0,31138,225,-411,-448,31636,7216,-288,-2208,30448,431,9,-32,1389808263.193398
2,186,0,18297,162,176,297,19141,7664,-288,1232,16869,290,-359,13,1389808263.193640
3,186,0,33138,197,-410,-444,33513,7088,-352,-2016,33026,432,4,-23,1389808263.193839
2,187,0,20286,107,139,283,21021,7920,-192,1568,19432,294,-359,12,1389808263.211831
3,187,0,35137,167,-395,-424,35389,7136,-352,-1600,35603,428,2,-27,1389808263.211839
2,188,0,22276,130,50,278,22901,8032,-208,1968,21994,295,-353,13,1389808263.224023
3,188,0,37137,153,-376,-396,37266,7200,-352,-1248,35603,428,2,-27,1389808263.224032
2,189,0,24265,201,-47,246,24780,8016,-192,2240,24555,295,-355,12,1389808263.224299
3,189,0,39136,179,-353,-341,39143,7408,-336,-1024,38181,432,253,-19,1389808263.224304
2,190,0,26255,322,-130,231,26659,7712,-128,2272,24555,295,-355,12,1389808263.242264
3,190,0,41135,247,-342,-307,41020,7584,-256,-896,40759,431,-3,-16,1389808263.242273
2,191,0,28244,450,-179,226,28539,7376,-256,2176,27116,299,-351,10,1389808263.254199
3,191,0,43135,316,-313,-272,42899,7760,-144,-864,40759,431,-3,-16,1389808263.254208
2,192,0,30234,561,-201,268,30419,7120,-224,1968,29676,298,-350,5,1389808263.254429
3,192,0,45134,404,-274,-249,44775,7712,-32,-800,43337,429,-7,-15,1389808263.254435
2,193,0,32224,667,-222,292,32298,6992,-336,1728,32237,296,-350,7,1389808263.272614
3,193,0,46134,450,-259,-244,46652,7632,48,-864,45916,430,-8,-15,1389808263.272623
2,194,0,33218,700,-237,304,34177,6944,-272,1392,32237,296,-350,7,1389808263.284787
3,194,0,48134,544,-224,-261,48528,7520,160,-928,48495,435,-10,-7,1389808263.284866
2,195,0,35208,760,-256,302,35587,7120,-272,1184,34799,304,-350,7,1389808263.285219
3,195,0,50133,633,-193,-291,50405,7296,112,-1008,48495,435,-10,-7,1389808263.285225
2,196,0,37198,782,-245,304,37467,7344,-240,848,37360,303,-348,0,1389808263.302897
3,196,0,52132,717,-166,-343,52281,7168,96,-1328,51072,430,-12,-6,1389808263.302906
2,197,0,39187,756,-203,275,39346,7520,-368,656,37360,303,-348,0,1389808263.309000
3,197,0,54132,763,-156,-355,54157,6880,-128,-1552,53651,431,-17,-3,1389808263.309259
2,198,0,41177,685,-173,210,41227,7808,-352,768,39922,300,-344,-2,1389808263.321305
3,198,0,56131,733,-174,-341,56034,6720,-288,-1520,56230,436,-22,-1,1389808263.321314
2,199,0,43166,635,-170,153,43106,7984,-320,928,42483,302,-344,-2,1389808263.333459
3,199,0,58131,665,-211,-304,57910,6640,-448,-1344,56230,436,-22,-1,1389808263.333473
2,200,0,45156,630,-190,111,44986,8064,-400,1248,45044,309,-345,-3,1389808263.333789
3,200,0,60130,614,-254,-270,59786,6656,-448,-976,58808,430,-24,4,1389808263.334103
2,201,0,47146,658,-230,73,46866,8160,-448,1568,45044,309,-345,-3,1389808263.352081
3,201,0,61130,596,-269,-248,61663,6768,-400,-576,61385,429,-27,2,1389808263.352090
2,202,0,49135,708,-265,20,48745,7984,-432,1600,47606,304,-344,-7,1389808263.364232
3,202,0,63129,566,-284,-202,63540,7024,-192,-320,61385,429,-27,2,1389808263.364247
2,203,0,50130,752,-274,13,50625,7696,-432,1520,50167,310,-343,-6,1389808263.364575
3,203,0,65129,590,-271,-161,65417,7248,-96,-128,63963,434,-28,8,1389808263.364585
2,204,0,52119,805,-277,29,52504,7456,-496,1440,52727,310,-344,-10,1389808263.382406
3,204,0,1592,614,-240,-64,1758,7440,-272,-48,1004,434,-30,13,1389808263.382421
2,205,0,54109,849,-271,27,54384,7392,-608,1456,52727,310,-344,-10,1389808263.393986
3,205,0,3592,728,-176,-3,3634,7552,64,-16,3583,430,-30,13,1389808263.393995
2,206,0,56099,887,-268,15,56263,7504,-672,1376,55288,301,-344,-11,1389808263.394291
3,206,0,5591,934,-91,2,5511,7504,288,-32,3583,430,-30,13,1389808263.394298
2,207,0,58088,940,-251,-16,58143,7648,-688,1312,57850,304,-347,-10,1389808263.411791
3,207,0,7591,1103,-47,58,7387,7296,-112,0,6160,435,-32,13,1389808263.411810
2,208,0,60078,1008,-268,-32,60022,7760,-736,1216,60411,304,-347,-14,1389808263.423879
3,208,0,9590,1121,-84,-29,9263,7136,16,-16,8739,432,-33,20,1389808263.423889
2,209,0,62067,1051,-300,-44,61901,7632,-640,992,60411,304,-347,-14,1389808263.424163
3,209,0,10590,1152,-110,-121,11140,6784,208,-336,11316,431,-37,18,1389808263.424169
2,210,0,64057,1079,-339,-33,63779,7456,-736,736,62971,302,-346,-22,1389808263.441902
3,210,0,12589,1198,-150,-179,13016,6448,320,-624,11316,431,-37,18,1389808263.441911
2,211,0,511,1038,-400,-35,122,7472,-736,816,65531,301,-346,-21,1389808263.453583
3,211,0,14589,1122,-196,-73,14893,6464,576,-976,13893,435,-38,20,1389808263.453592
2,212,0,1505,1006,-430,-60,2001,7392,-416,880,65531,301,-346,-21,1389808263.453861
3,212,0,16588,1157,-165,97,16770,7056,560,-1648,16471,434,-39,25,1389808263.453868
2,213,0,3495,971,-465,-77,3880,7456,-624,864,2556,304,-348,-21,1389808263.471791
3,213,0,18588,1150,-81,173,18646,8048,224,-2000,16471,434,-39,25,1389808263.471800
2,214,0,5485,911,-462,-43,5760,7632,-896,976,5116,306,-348,-24,1389808263.483531
3,214,0,20587,972,-96,20,20523,8736,880,-1760,19049,429,-38,26,1389808263.483545
2,215,0,7474,867,-460,-37,7639,7904,-944,1056,7678,301,-349,-23,1389808263.483854
3,215,0,22586,1027,-102,17,22400,9072,1120,-1664,21628,434,-37,26,1389808263.484155
2,216,0,9464,835,-463,-30,9518,8224,-816,784,7678,301,-349,-23,1389808263.501604
3,216,0,24586,1050,-85,-22,24278,9184,912,-2176,24207,435,-41,31,1389808263.501619
2,217,0,11453,794,-463,-5,11397,8384,-720,400,10238,301,-353,-23,1389808263.513497
3,217,0,25586,1073,-95,-22,26154,9264,-144,-2800,24207,435,-41,31,1389808263.513506
2,218,0,13443,762,-458,27,13277,8400,-768,208,12798,302,-349,-27,1389808263.513779
3,218,0,27585,970,-103,69,28031,9376,-832,-2896,26784,429,-42,30,1389808263.514024
2,219,0,15432,746,-447,70,15157,8416,-832,224,15358,300,-350,-24,1389808263.531496
3,219,0,29585,658,-177,77,29908,9424,-944,-2416,29362,432,-41,32,1389808263.531536
2,220,0,16427,759,-429,97,17036,8496,-992,320,15358,300,-350,-24,1389808263.543801
3,220,0,31584,377,-274,46,31784,9408,-864,-1504,31940,433,-43,38,1389808263.543810
2,221,0,18417,794,-413,155,18916,8496,-1088,256,17920,301,-354,-22,1389808263.544080
3,221,0,33583,244,-343,-2,33662,9360,-704,-592,31940,433,-43,38,1389808263.544086
2,222,0,20406,827,-371,199,20796,8464,-1040,96,20481,305,-347,-29,1389808263.562065
3,222,0,35583,307,-339,-19,35538,9392,-1072,336,34518,431,-43,43,1389808263.562079
2,223,0,22396,828,-336,235,22675,8448,-944,-160,20481,305,-347,-29,1389808263.574196
3,223,0,37582,309,-266,-43,37414,9680,-1008,704,37095,428,-41,41,1389808263.574206
2,224,0,24386,805,-312,280,24555,8432,-944,-416,23043,304,-345,-30,1389808263.574477
3,224,0,39582,410,-210,-89,39291,9968,-928,416,37095,428,-41,41,1389808263.574484
2,225,0,26375,783,-303,333,26435,8352,-1152,-624,25603,307,-344,-29,1389808263.592595
3,225,0,40582,455,-192,-113,41167,10272,-528,-496,39672,433,-45,44,1389808263.592610
2,226,0,28365,734,-278,432,28314,8336,-1568,-944,28164,311,-339,-34,1389808263.604444
3,226,0,42581,554,-191,-126,43044,10736,208,-1968,42250,434,-50,50,1389808263.604452
2,227,0,30354,591,-197,552,30193,8608,-1792,-1088,28164,311,-339,-34,1389808263.604615
3,227,0,44580,550,-136,-53,44921,11280,592,-3408,44828,430,-50,48,1389808263.604620
2,228,0,32344,314,-79,601,32073,9440,-1712,-992,30724,312,-337,-34,1389808263.622055
3,228,0,46580,302,56,43,46798,11808,512,-5104,44828,430,-50,48,1389808263.622064
2,229,0,33339,148,-29,586,33952,10352,-1456,-352,33284,312,-331,-31,1389808263.634207
3,229,0,48579,-113,356,140,48675,12336,-272,-5536,47406,433,-47,44,1389808263.634222
2,230,0,35328,-215,21,518,35831,10880,-1200,560,35845,315,-328,-32,1389808263.634549
3,230,0,50579,-742,424,119,50552,12272,-272,-4096,49983,431,-48,46,1389808263.634559
2,231,0,37318,-480,5,484,37711,10736,-864,1776,35845,315,-328,-32,1389808263.652729
3,231,0,52578,-877,228,-98,52428,11168,944,-2000,52561,430,-45,40,1389808263.652738
2,232,0,39307,-630,-14,445,39591,9664,-160,2864,38407,315,-326,-26,1389808263.664799
3,232,0,54578,-569,94,-117,54305,9152,1504,-1136,52561,430,-45,40,1389808263.664814
2,233,0,41297,-686,-7,454,41470,8272,464,3552,40969,317,-322,-25,1389808263.665142
3,233,0,55577,-363,79,-110,56181,7456,544,-1600,55139,434,-45,40,1389808263.665153
2,234,0,43287,-637,0,490,43349,7152,528,3936,43530,322,-316,-23,1389808263.683183
3,234,0,57577,-249,98,-203,58058,6896,240,-2064,57716,435,-50,41,1389808263.683192
2,235,0,45276,-474,73,531,45229,6544,-128,4128,43530,322,-316,-23,1389808263.683442
3,235,0,59576,-106,154,-447,59936,6816,1376,-1712,57716,435,-50,41,1389808263.689141
2,236,0,47266,-326,205,509,47108,6192,-688,3984,46091,324,-313,-24,1389808263.701125
3,236,0,61576,97,175,-333,61813,6576,2016,-1312,60294,429,-51,40,1389808263.701134
2,237,0,49255,-168,410,468,48987,6032,-880,4000,48652,324,-308,-23,1389808263.713145
3,237,0,63575,359,207,-145,63690,6816,2128,-1664,62872,436,-51,36,1389808263.713153
2,238,0,50250,-113,539,442,50867,6512,-720,4144,48652,324,-308,-23,1389808263.713417
3,238,0,39,538,282,22,31,6656,1936,-2656,65450,438,-54,36,1389808263.719740
2,239,0,52240,31,741,385,52747,7760,-432,3872,51213,329,-305,-32,1389808263.731956
3,239,0,2038,517,396,236,1908,6336,1760,-3968,65450,438,-54,36,1389808263.731971
2,240,0,54229,170,679,350,54626,9552,-176,3392,53774,330,-300,-41,1389808263.743474
3,240,0,4038,286,515,361,3785,6240,1680,-4720,2492,432,-51,33,1389808263.743483
2,241,0,56219,333,433,349,56506,11040,-208,3152,56334,329,-297,-41,1389808263.743737
3,241,0,5037,141,533,333,5662,6832,1744,-4480,5070,434,-46,28,1389808263.743984
2,242,0,58209,445,233,321,58386,11712,-656,2640,56334,329,-297,-41,1389808263.762002
3,242,0,7037,-107,449,240,7538,8144,1808,-3824,7649,436,-46,21,1389808263.762016
2,243,0,60198,347,153,181,60266,11248,-928,2192,58894,335,-297,-42,1389808263.773821
3,243,0,9036,-170,332,156,9415,9200,1552,-3184,7649,436,-46,21,1389808263.773874
2,244,0,62188,145,136,-127,62145,9904,-784,1936,61454,335,-300,-53,1389808263.774111
3,244,0,11036,-98,257,53,11292,8976,1168,-2832,10227,436,-47,24,1389808263.774117
2,245,0,64177,-65,193,-251,64026,8688,-752,2016,64014,330,-304,-49,1389808263.792085
3,245,0,13035,-59,217,-4,13168,8208,1104,-2880,12804,433,-47,17,1389808263.792094
2,246,0,65172,-96,210,-248,369,8256,-1008,2224,64014,330,-304,-49,1389808263.803778
3,246,0,15034,-92,202,-17,15045,7712,992,-2848,12804,433,-47,17,1389808263.803787
2,247,0,1626,-175,218,-305,2248,8224,-1072,2240,1039,337,-304,-53,1389808263.804030
3,247,0,17034,-239,153,16,16922,7920,928,-2416,15382,441,-47,16,1389808263.804037
2,248,0,3615,-320,210,-422,4128,8336,-720,1952,3600,333,-307,-56,1389808263.820733
3,248,0,19033,-397,57,104,18798,8384,976,-1552,17959,435,-43,15,1389808263.820742
2,249,0,5605,-399,215,-419,6007,8368,-832,1552,6161,329,-309,-52,1389808263.832818
3,249,0,20033,-421,15,153,20676,8768,1056,-640,20538,439,-42,12,1389808263.832832
2,250,0,7594,-449,216,-388,7886,8240,-672,1344,6161,329,-309,-52,1389808263.838653
3,250,0,22033,-326,-52,189,22551,8640,1136,-16,20538,439,-42,12,1389808263.838859
2,251,0,9584,-489,217,-380,9766,7872,-624,1232,8724,330,-311,-54,1389808263.850837
3,251,0,24032,-84,-64,160,24429,8240,1184,32,23115,438,-40,14,1389808263.850846
2,252,0,11574,-453,207,-342,11646,7616,-576,1472,11283,327,-313,-57,1389808263.862990
3,252,0,26031,214,1,84,26306,7856,960,-640,25694,439,-43,16,1389808263.863005
2,253,0,13563,-338,182,-314,13526,7376,-720,1680,11283,327,-313,-57,1389808263.869246
3,253,0,28031,445,93,11,28184,7600,960,-1440,28271,432,-41,16,1389808263.869476
2,254,0,15553,-185,157,-306,15406,7168,-720,1712,13843,325,-318,-54,1389808263.881608
3,254,0,30030,487,153,15,30060,7376,848,-2224,28271,432,-41,16,1389808263.881617
2,255,0,16548,-105,145,-298,17286,6992,-784,1584,16404,327,-318,-53,1389808263.893799
3,255,0,32030,388,188,79,31937,7328,960,-2752,30849,440,-41,15,1389808263.893813
2,0,0,18537,23,129,-272,19165,6880,-832,1408,18964,328,-319,-57,1389808263.894134
3,0,0,34029,211,196,169,33814,7376,944,-2880,33427,441,-42,12,1389808263.894145
2,1,0,20527,123,107,-240,21045,6896,-800,1360,18964,328,-319,-57,1389808263.912043
3,1,0,35029,124,203,198,35692,7440,976,-2704,33427,441,-42,12,1389808263.912052
2,2,0,22516,154,77,-207,22925,6896,-784,1280,21527,321,-320,-56,1389808263.923529
3,2,0,37028,-25,219,227,37568,7488,944,-2224,36006,435,-39,10,1389808263.923538
2,3,0,24506,154,48,-220,24804,6864,-752,1392,24089,321,-323,-58,1389808263.923788
3,3,0,39028,-125,252,235,39445,7424,1120,-1808,38583,437,-36,6,1389808263.924033
2,4,0,26495,159,15,-209,26683,6656,-608,1424,26650,325,-324,-62,1389808263.941777
3,4,0,41027,-132,290,251,41322,7344,1200,-1616,41161,442,-34,7,1389808263.941785
2,5,0,28485,172,-5,-195,28563,6560,-640,1216,26650,325,-324,-62,1389808263.953159
3,5,0,43027,-74,339,236,43198,7360,1168,-1504,41161,442,-34,7,1389808263.953168
2,6,0,30475,164,18,-150,30442,6592,-720,864,29211,319,-323,-60,1389808263.953340
3,6,0,45026,5,354,196,45076,7392,1264,-1568,43738,437,-34,2,1389808263.965400
2,7,0,32464,95,38,-94,32321,6736,-912,560,31772,320,-327,-59,1389808263.965676
3,7,0,47026,62,373,154,46952,7440,1008,-1856,46315,438,-29,-2,1389808263.965681
2,8,0,33459,16,40,-98,34201,6896,-976,432,34333,323,-327,-63,1389808263.982814
3,8,0,49025,36,354,125,48830,7520,944,-2000,48892,439,-31,-2,1389808263.982829
2,9,0,35449,-93,43,-137,36081,7072,-1056,592,34333,323,-327,-63,1389808263.989095
3,9,0,50025,10,320,128,50707,7776,832,-2176,48892,439,-31,-2,1389808263.989321
2,10,0,37438,-197,26,-134,37961,7264,-1024,720,36894,319,-327,-63,1389808264.1349
3,10,0,52024,5,304,101,52584,7552,1040,-2000,51471,435,-30,-5,1389808264.1364
2,11,0,39428,-236,-20,-120,39840,7328,-1040,848,39455,317,-327,-59,1389808264.13530
3,11,0,54024,-100,224,71,54461,7664,976,-1856,54048,438,-28,-10,1389808264.13539
2,12,0,41417,-214,-66,-79,41721,7200,-1056,992,39455,317,-327,-59,1389808264.13776
3,12,0,56023,-149,163,125,56337,7856,1040,-1664,54048,438,-28,-10,1389808264.14007
2,13,0,43407,-172,-99,0,43600,7008,-1088,1184,42017,320,-329,-58,1389808264.31347
3,13,0,58023,-185,125,94,58213,8080,976,-1408,56627,441,-28,-13,1389808264.31387
2,14,0,45397,-84,-123,102,45480,6880,-1120,1280,44578,318,-324,-61,1389808264.43165
3,14,0,60022,-208,88,58,60090,8176,976,-1152,59203,437,-28,-10,1389808264.43174
2,15,0,47386,13,-138,183,47360,6736,-1168,1216,47138,318,-325,-54,1389808264.43424
3,15,0,62021,-211,69,21,61966,8240,944,-976,61780,437,-24,-16,1389808264.49795
2,16,0,48381,59,-133,227,49240,6736,-1200,1152,47138,318,-325,-54,1389808264.61986
3,16,0,64021,-195,53,-27,63843,8224,912,-848,61780,437,-24,-16,1389808264.62001
2,17,0,50371,163,-117,281,51120,6816,-1088,880,49699,323,-332,-55,1389808264.73325
3,17,0,65021,-193,48,-41,184,8240,832,-768,64357,439,-28,-14,1389808264.73336
2,18,0,52360,255,-97,332,52999,6848,-1216,512,52260,321,-317,-61,1389808264.73595
3,18,0,1484,-179,42,-73,2061,8240,800,-800,1398,439,-25,-12,1389808264.73783
2,19,0,54350,296,-64,431,54880,6912,-1312,224,54820,323,-315,-54,1389808264.91142
3,19,0,3484,-171,24,-113,3937,8192,928,-736,3976,437,-27,-15,1389808264.91152
2,20,0,56339,288,-27,525,56760,7056,-1408,-64,54820,323,-315,-54,1389808264.103193
3,20,0,5483,-166,7,-142,5814,8176,976,-720,3976,437,-27,-15,1389808264.103202
2,21,0,58329,240,20,580,58639,7216,-1520,-208,57381,324,-312,-57,1389808264.103447
3,21,0,7482,-157,-10,-163,7691,8160,1200,-816,6555,437,-29,-17,1389808264.109711
2,22,0,60318,151,62,651,60518,7456,-1552,-160,59942,328,-306,-59,1389808264.120832
3,22,0,9482,-147,-9,-168,9568,8144,1232,-928,9135,436,-34,-12,1389808264.120840
2,23,0,62308,63,76,652,62397,7712,-1408,272,59942,328,-306,-59,1389808264.132945
3,23,0,11481,-130,-3,-175,11445,8224,1248,-1040,9135,436,-34,-12,1389808264.132959
2,24,0,64298,-14,58,602,64277,8080,-1360,688,62503,331,-299,-60,1389808264.138733
3,24,0,13481,-96,50,-161,13323,8336,1184,-1296,11713,436,-31,-15,1389808264.138980
2,25,0,65292,-58,43,564,620,8448,-1184,960,65063,335,-295,-62,1389808264.151119
3,25,0,14481,-81,76,-159,15200,8464,1024,-1536,14291,440,-32,-18,1389808264.151134
2,26,0,1746,-146,-1,467,2499,8688,-688,1216,2089,338,-292,-61,1389808264.162877
3,26,0,16480,-89,131,-130,17077,8656,752,-1504,16870,440,-35,-19,1389808264.162892
2,27,0,3736,-275,-34,329,4378,8656,-368,1776,2089,338,-292,-61,1389808264.169160
3,27,0,18479,-87,142,-149,18955,8704,624,-1296,16870,440,-35,-19,1389808264.169475
2,28,0,5725,-335,-41,267,6258,8768,-400,2608,4649,335,-290,-59,1389808264.181616
3,28,0,20479,-46,155,-164,20832,8496,832,-1056,19448,438,-33,-17,1389808264.181625
2,29,0,7715,-293,-62,327,8138,8816,-688,3120,7211,339,-287,-54,1389808264.193708
3,29,0,22478,17,161,-171,22710,8384,1152,-768,22026,438,-37,-24,1389808264.193717
2,30,0,9704,-3,-72,417,10017,8912,-976,2608,9772,339,-282,-57,1389808264.193987
3,30,0,24478,130,175,-167,24587,8448,1056,-640,24605,436,-39,-21,1389808264.193993
2,31,0,11694,393,-31,505,11896,9136,-1392,1168,9772,339,-282,-57,1389808264.211965
3,31,0,26477,187,173,-190,26464,8784,768,-656,24605,436,-39,-21,1389808264.211974
2,32,0,13683,661,24,525,13775,9408,-1664,-496,12333,340,-277,-56,1389808264.223529
3,32,0,28477,142,106,-194,28341,9200,384,-576,27182,436,-39,-19,1389808264.223538
2,33,0,15673,714,67,434,15655,9760,-2032,-1648,14893,341,-274,-58,1389808264.223771
3,33,0,29476,86,56,-203,30217,9424,352,-240,29760,440,-43,-28,1389808264.223985
3,34,0,31476,-12,-46,-229,32093,9520,384,96,29760,440,-43,-28,1389808264.241819
2,35,0,18657,604,43,159,19413,10048,-1952,-1632,17454,345,-273,-66,1389808264.253752
3,35,0,33475,-16,-125,-251,33970,9376,160,480,32339,440,-44,-20,1389808264.253761
2,36,0,20647,512,11,-103,21292,10256,-1792,-624,20015,342,-276,-65,1389808264.254031
3,36,0,35475,57,-204,-290,35847,9248,224,656,34916,436,-49,-21,1389808264.254038
2,37,0,22637,305,39,-329,23170,11472,-1856,1344,22576,340,-278,-68,1389808264.271983
3,37,0,37474,230,-227,-279,37724,9040,320,544,37494,436,-50,-24,1389808264.271992
2,38,0,24626,55,53,-589,25050,12832,-1104,4688,22576,340,-278,-68,1389808264.284163
3,38,0,39474,477,-215,-223,39600,9168,1440,208,37494,436,-50,-24,1389808264.284212
2,39,0,26616,193,-130,-719,26930,12896,-240,6080,25138,345,-280,-69,1389808264.284484
3,39,0,41473,839,-219,-133,41477,10624,1248,-1152,40072,437,-51,-18,1389808264.284490
2,40,0,28605,711,-248,-707,28340,12640,-592,5680,27699,336,-288,-70,1389808264.302241
3,40,0,43473,1062,-183,-143,43353,11680,928,-2544,42650,437,-54,-16,1389808264.302250
2,41,0,30595,892,-90,-677,30219,12144,-1168,4832,30260,336,-293,-71,1389808264.314107
3,41,0,44472,1007,-163,-80,45229,11856,1936,-2656,45227,437,-54,-18,1389808264.314122
2,42,0,31590,839,-60,-629,32098,10480,-1200,5168,30260,336,-293,-71,1389808264.314437
3,42,0,46472,921,-56,-10,47106,11600,2928,-2560,45227,437,-54,-18,1389808264.314447
2,43,0,33579,948,-213,-554,33978,7696,-832,5392,32821,336,-297,-72,1389808264.332166
3,43,0,48471,1010,93,-81,48983,11072,3376,-2928,47805,439,-55,-15,1389808264.332175
2,44,0,35569,1219,-347,-404,35857,5392,-608,3776,35381,335,-297,-76,1389808264.343849
3,44,0,50471,1193,131,-280,50859,9728,3552,-4128,50382,437,-61,-13,1389808264.343859
2,45,0,37559,1335,-350,-175,37736,4304,-496,1664,37941,331,-299,-78,1389808264.344127
3,45,0,52470,1350,76,-492,52736,8048,2896,-5680,50382,437,-61,-13,1389808264.344133
2,46,0,39548,1188,-221,24,39615,4592,-480,144,37941,331,-299,-78,1389808264.362172
3,46,0,54469,1230,-10,-619,54614,6112,2288,-6592,52960,434,-65,-18,1389808264.362187
2,47,0,41538,718,-14,75,41495,5680,-496,320,40502,335,-296,-80,1389808264.373959
3,47,0,56469,910,-108,-621,56492,5088,1808,-6672,55538,439,-71,-20,1389808264.373968
2,48,0,43527,259,116,8,43374,6944,-48,1184,43063,335,-296,-84,1389808264.374216
3,48,0,58468,572,-329,-590,58369,4944,1424,-6560,58116,442,-78,-13,1389808264.374223
2,49,0,45517,18,144,-96,45253,7680,368,2464,45624,331,-298,-85,1389808264.392101
3,49,0,59468,426,-440,-543,60247,5296,1088,-6144,58116,442,-78,-13,1389808264.392110
2,50,0,47506,13,138,-105,47133,7552,784,3536,45624,331,-298,-85,1389808264.404293
3,50,0,61468,144,-592,-342,62124,6224,672,-5184,60694,434,-80,-7,1389808264.404302
2,51,0,48501,80,140,-114,49013,7200,912,3984,48186,334,-297,-86,1389808264.404477
3,51,0,63467,-121,-623,-147,64001,7568,368,-4128,63273,437,-78,-7,1389808264.404482
2,52,0,50491,244,158,-87,50893,7088,880,3936,50746,332,-298,-89,1389808264.421715
3,52,0,65466,-283,-579,-89,342,8544,352,-3104,315,438,-83,1,1389808264.421724
2,53,0,52480,402,144,-46,52772,7424,640,3808,50746,332,-298,-89,1389808264.433802
3,53,0,1930,-258,-540,-109,2218,9072,256,-2064,315,438,-83,1,1389808264.433811
2,54,0,54470,508,70,-10,54652,8016,416,3696,53307,329,-299,-92,1389808264.434078
3,54,0,3929,-89,-521,-192,4096,9008,224,-1168,2892,432,-82,8,1389808264.434084
2,55,0,56460,569,-10,8,56532,8384,272,3536,55868,329,-300,-91,1389808264.451794
3,55,0,5929,116,-581,-276,5972,8544,208,-528,5471,432,-87,10,1389808264.451808
2,56,0,58449,578,-65,16,58412,8400,240,3360,58429,329,-299,-97,1389808264.463943
3,56,0,7928,412,-621,-366,7849,8256,512,-448,5471,432,-87,10,1389808264.463952
2,57,0,60439,623,-102,58,60291,8000,304,3232,58429,329,-299,-97,1389808264.464221
3,57,0,8928,568,-639,-414,9727,8192,480,-976,8049,435,-87,16,1389808264.464227
2,58,0,62428,744,-99,95,62169,7200,320,2960,60990,329,-293,-96,1389808264.482277
3,58,0,10927,835,-635,-489,11604,8144,496,-1696,10627,432,-96,22,1389808264.482291
2,59,0,64418,851,-72,132,64049,6592,208,2688,63552,331,-295,-99,1389808264.494033
3,59,0,12927,976,-588,-522,13481,8080,400,-2112,13205,430,-95,27,1389808264.494041
2,60,0,65413,892,-61,134,393,6480,144,2400,577,335,-291,-101,1389808264.494309
3,60,0,14926,1007,-537,-508,15359,8016,464,-2160,13205,430,-95,27,1389808264.494315
2,61,0,1866,967,-46,136,2273,6720,160,2320,577,335,-291,-101,1389808264.511991
3,61,0,16926,1006,-522,-473,17235,7920,416,-2064,15783,433,-107,29,1389808264.512000
2,62,0,3856,1005,-69,157,4152,6976,48,2368,3138,333,-291,-108,1389808264.524216
3,62,0,18925,1005,-524,-461,19112,7808,384,-1968,18362,430,-111,39,1389808264.524225
2,63,0,5845,1071,-100,146,6032,7056,224,2288,5698,332,-287,-110,1389808264.524537
3,63,0,20925,997,-540,-427,20988,7792,224,-1776,20941,427,-114,39,1389808264.524543
2,64,0,7835,1111,-113,138,7911,7392,160,2112,8259,337,-285,-111,1389808264.542603
3,64,0,22924,972,-549,-389,22864,7760,32,-1632,20941,427,-114,39,1389808264.542612
2,65,0,9825,1110,-117,182,9791,7904,64,1904,8259,337,-285,-111,1389808264.554616
3,65,0,23924,957,-558,-366,24741,7904,144,-1536,23519,427,-120,40,1389808264.554625
2,66,0,11814,1107,-143,214,11669,8384,128,1856,10821,335,-282,-120,1389808264.554821
3,66,0,25923,960,-533,-365,26618,8128,64,-1440,26096,427,-126,48,1389808264.554826
2,67,0,13804,1081,-187,214,13549,8592,96,1760,13380,332,-282,-120,1389808264.572785
3,67,0,27923,994,-501,-369,28495,8256,64,-1328,26096,427,-126,48,1389808264.572794
2,68,0,14799,1081,-208,218,15428,8240,96,1760,13380,332,-282,-120,1389808264.579035
3,68,0,29922,1039,-471,-383,30372,8256,128,-1200,28674,423,-131,50,1389808264.579294
2,69,0,16788,1073,-228,196,17307,7744,-96,1824,15941,339,-276,-123,1389808264.590931
3,69,0,31922,1102,-434,-398,32249,8192,256,-1088,31252,424,-135,49,1389808264.590940
2,70,0,18778,1115,-255,203,19187,7392,-80,1856,18501,339,-274,-127,1389808264.603203
3,70,0,33921,1157,-427,-414,34125,8112,288,-912,33830,428,-143,58,1389808264.603212
2,71,0,20767,1161,-267,223,21066,7376,-208,1856,21062,338,-273,-124,1389808264.603388
3,71,0,35921,1220,-421,-439,36001,7984,448,-928,33830,428,-143,58,1389808264.609689
2,72,0,22757,1253,-290,231,22946,7520,-240,1616,21062,338,-273,-124,1389808264.621068
3,72,0,37920,1283,-406,-457,37878,7856,416,-880,36407,424,-148,60,1389808264.621077
2,73,0,24747,1335,-315,231,24825,7712,-256,1344,23623,343,-272,-124,1389808264.632749
3,73,0,38920,1313,-399,-453,39755,7808,336,-1024,38985,421,-154,60,1389808264.632764
2,74,0,26736,1347,-340,217,26706,7808,-272,1088,26183,345,-264,-133,1389808264.638724
3,74,0,40919,1346,-397,-432,41632,7856,272,-1216,41563,424,-160,61,1389808264.638974
2,75,0,28726,1314,-353,228,28585,7920,-336,880,28743,340,-261,-128,1389808264.651002
3,75,0,42919,1326,-390,-399,43508,7872,256,-1328,41563,424,-160,61,1389808264.651017
2,76,0,30715,1245,-346,235,30465,8080,-352,960,28743,340,-261,-128,1389808264.663198
3,76,0,44918,1279,-388,-366,45385,8000,208,-1152,44140,418,-164,66,1389808264.663213
2,77,0,31710,1200,-349,218,32344,8144,-528,1072,31305,345,-265,-130,1389808264.663522
3,77,0,46917,1247,-374,-321,47262,8032,112,-896,46718,413,-171,63,1389808264.669796
2,78,0,33700,1134,-348,202,34223,8096,-480,1296,33866,346,-510,-132,1389808264.681873
3,78,0,48917,1249,-367,-289,49139,8112,224,-608,46718,413,-171,63,1389808264.681888
2,79,0,35689,1099,-337,168,36104,7968,-448,1616,33866,346,-510,-132,1389808264.694175
3,79,0,50916,1294,-350,-266,51015,8176,464,-368,49297,418,-177,66,1389808264.694190
2,80,0,37679,1130,-314,147,37984,7808,-464,1760,36427,344,-252,-132,1389808264.694517
3,80,0,52916,1367,-335,-245,52891,8144,432,-208,51875,415,-180,66,1389808264.694528
2,81,0,39668,1201,-281,137,39863,7776,-560,1840,38988,345,-251,-130,1389808264.711634
3,81,0,53916,1372,-336,-228,54767,8064,720,-240,54454,409,-183,67,1389808264.711640
2,82,0,41658,1284,-250,131,41743,7808,-592,1808,41548,348,-249,-138,1389808264.723702
3,82,0,55915,1454,-331,-223,56644,7696,992,-544,54454,409,-183,67,1389808264.723711
2,83,0,43648,1356,-218,120,43623,7776,-720,1568,41548,348,-249,-138,1389808264.723975
3,83,0,57914,1484,-293,-128,58521,7328,1136,-1120,57031,417,-190,66,1389808264.723981
2,84,0,45637,1376,-204,139,45503,7840,-768,1552,44109,350,-246,-136,1389808264.741468
3,84,0,59914,1539,-220,-55,60398,7392,832,-1408,59609,411,-194,68,1389808264.741477
2,85,0,47627,1357,-203,136,47383,7968,-784,1616,46671,350,-241,-139,1389808264.753363
3,85,0,61913,1450,-170,-45,62276,7216,912,-1456,62188,405,-198,62,1389808264.753372
2,86,0,48622,1359,-210,132,49263,7968,-688,1664,49231,351,-239,-143,1389808264.753546
3,86,0,63913,1460,-151,6,64152,7232,352,-1040,62188,405,-198,62,1389808264.753801
2,87,0,50611,1375,-256,131,51142,7984,-608,1632,49231,351,-239,-143,1389808264.771089
3,87,0,376,1332,-159,26,493,7472,-64,-672,64766,412,-200,61,1389808264.771098
2,88,0,52601,1408,-315,146,53022,8032,-576,1552,51792,350,-235,-142,1389808264.783207
3,88,0,2376,1286,-178,-27,2370,7712,352,-416,1807,410,-204,61,1389808264.783221
2,89,0,54590,1421,-366,152,54901,8096,-432,1408,54352,350,-236,-142,1389808264.783528
3,89,0,3375,1326,-161,-44,4248,7856,384,-128,1807,410,-204,61,1389808264.789287
2,90,0,56580,1441,-415,157,56781,7952,-368,1376,56913,355,-228,-144,1389808264.801359
3,90,0,5375,1350,-123,25,6124,8272,16,112,4385,408,-203,59,1389808264.801368
2,91,0,58569,1463,-451,190,58661,7856,-400,1408,56913,355,-228,-144,1389808264.812778
3,91,0,7374,1311,-122,-6,8002,8896,80,224,6963,410,-205,51,1389808264.812787
2,92,0,60559,1512,-422,222,60541,7632,-336,1040,59473,352,-224,-144,1389808264.818961
3,92,0,9374,1365,-123,-87,9879,9040,448,32,9542,411,-209,53,1389808264.819214
2,93,0,62549,1579,-339,256,62421,7728,-720,800,62034,352,-222,-144,1389808264.831382
3,93,0,11373,1447,-97,-62,11756,8816,224,-432,9542,411,-209,53,1389808264.831391
2,94,0,63543,1591,-300,265,64301,7920,-880,544,62034,352,-222,-144,1389808264.843552
3,94,0,13373,1387,-132,-175,13633,8304,512,-608,12120,406,-211,50,1389808264.843561
2,95,0,65533,1627,-255,284,644,8016,-992,256,64595,356,-219,-150,1389808264.843826
3,95,0,15372,1368,-188,-195,15510,8000,672,-576,14697,410,-217,47,1389808264.843832
2,96,0,1987,1638,-242,323,2523,8112,-880,-112,1619,353,-209,-152,1389808264.860739
3,96,0,17372,1355,-247,-161,17387,7744,640,-528,17274,410,-223,49,1389808264.860747
2,97,0,3976,1643,-227,349,4403,8368,-800,-576,4181,353,-207,-151,1389808264.872978
3,97,0,18371,1367,-262,-135,19264,7936,352,-1184,17274,410,-223,49,1389808264.872987
2,98,0,5966,1587,-221,339,6282,8576,-800,-1040,4181,353,-207,-151,1389808264.873250
3,98,0,20371,1380,-236,-76,21140,8384,0,-1904,19851,406,-225,48,1389808264.885370
2,99,0,7955,1448,-254,319,8162,8832,-1024,-1088,6742,360,-201,-153,1389808264.885821
3,99,0,22370,1296,-180,-132,23017,8832,0,-2128,22430,405,-228,44,1389808264.885850
2,100,0,9945,1242,-302,291,10041,8944,-1072,-784,9303,359,-193,-154,1389808264.903859
3,100,0,24370,1136,-198,-217,24894,8912,256,-1760,22430,405,-228,44,1389808264.903868
2,101,0,11935,1005,-355,253,11920,8864,-1024,-224,11863,358,-193,-153,1389808264.904129
3,101,0,26369,993,-255,-238,26772,9008,320,-1216,25008,407,-234,40,1389808264.904134
2,102,0,13924,807,-360,235,13800,8704,-1056,192,11863,358,-193,-153,1389808264.921820
3,102,0,28369,940,-274,-191,28649,8960,128,-944,27586,406,-235,43,1389808264.921830
2,103,0,14919,742,-345,234,15679,8400,-1104,560,14424,363,-191,-149,1389808264.934015
3,103,0,30368,886,-272,-121,30525,8816,-32,-544,30163,399,-234,40,1389808264.934030
2,104,0,16909,672,-296,249,17559,8256,-1008,880,16985,363,-185,-151,1389808264.934358
3,104,0,32367,830,-287,-53,32402,8592,144,-160,30163,399,-234,40,1389808264.934368
2,105,0,18898,668,-257,274,19439,8112,-1024,1120,19546,360,-182,-150,1389808264.951934
3,105,0,33367,835,-299,-18,34278,8496,192,96,32741,406,-238,43,1389808264.951948
2,106,0,20888,734,-239,307,21318,7952,-1296,960,19546,360,-182,-150,1389808264.964192
3,106,0,35367,871,-311,45,36155,8944,496,48,35319,404,-240,43,1389808264.964207
2,107,0,22877,774,-222,398,23199,7712,-1584,528,22107,367,-179,-148,1389808264.964531
3,107,0,37366,965,-261,102,38033,9776,1008,-592,37896,400,-239,39,1389808264.964541
2,108,0,24867,744,-199,500,25079,7520,-1952,320,24668,364,-170,-151,1389808264.981833
3,108,0,39365,1055,-150,141,39910,11072,1344,-1936,37896,400,-239,39,1389808264.981848
2,109,0,26856,634,-154,625,26958,7472,-1696,416,24668,364,-170,-151,1389808264.994014
3,109,0,41365,1102,68,178,41787,12336,1600,-3376,40474,404,-239,40,1389808264.994023
2,110,0,28846,436,-70,665,28838,7776,-1392,736,27228,362,-166,-147,1389808264.994292
3,110,0,43364,945,371,186,43665,12384,1456,-4048,43052,403,-240,30,1389808264.994298
2,111,0,30836,241,31,627,30718,8608,-1072,1280,29789,369,-162,-145,1389808265.12306
3,111,0,45364,636,533,150,45541,10832,1648,-3520,43052,403,-240,30,1389808265.12384
2,112,0,31830,161,71,601,32597,9584,-736,2176,32350,369,-155,-150,1389808265.24619
3,112,0,47363,524,462,49,47418,9200,1440,-2992,45629,402,-238,23,1389808265.24628
2,113,0,33820,63,88,536,34477,10224,-480,3040,32350,369,-155,-150,1389808265.24895
3,113,0,48363,502,410,-41,49295,7504,1648,-2864,48205,403,-239,19,1389808265.24901
2,114,0,35810,71,46,434,36356,10192,-96,3792,34913,368,-149,-152,1389808265.42912
3,114,0,50362,534,327,-103,51173,5744,1376,-3088,50783,409,-238,18,1389808265.42920
2,115,0,37799,120,16,398,38236,9184,352,4176,37473,366,-147,-149,1389808265.49103
3,115,0,52362,423,265,50,53049,5200,1040,-3152,50783,409,-238,18,1389808265.49352
2,116,0,39789,201,56,405,40115,8096,880,4304,40035,373,-143,-153,1389808265.60500
3,116,0,54361,287,221,103,54926,5920,1008,-2960,53361,405,-243,15,1389808265.60509
2,117,0,41778,345,138,421,41994,7344,960,3824,40035,373,-143,-153,1389808265.72313
3,117,0,56361,303,209,248,56803,7280,592,-2608,55938,406,-239,10,1389808265.72324
2,118,0,43768,528,223,412,43874,6816,992,3328,42596,366,-140,-152,1389808265.84360
3,118,0,58360,445,233,270,58681,8032,400,-2320,58517,409,-237,6,1389808265.84375
2,119,0,45758,671,340,394,45754,6608,720,2960,45157,369,-137,-157,1389808265.84825
3,119,0,60360,582,320,258,60558,8160,448,-2592,58517,409,-237,6,1389808265.84840
2,120,0,46752,700,385,390,47633,7168,480,2608,47717,370,-133,-163,1389808265.103092
3,120,0,62359,598,442,269,61966,8208,464,-2928,61095,406,-237,3,1389808265.103106
2,121,0,48742,694,344,380,49512,8624,336,2720,47717,370,-133,-163,1389808265.103363
3,121,0,63359,569,477,225,63843,8064,560,-2944,63673,407,-233,-5,1389808265.109035
2,122,0,50731,656,102,368,51392,9808,-16,3328,50278,369,-122,-167,1389808265.120432
3,122,0,65358,527,492,231,185,7696,1024,-2304,63673,407,-233,-5,1389808265.120440
2,123,0,52721,560,-150,280,53272,10368,112,3680,52839,371,-126,-164,1389808265.131711
3,123,0,1822,515,388,349,2061,7664,1536,-1632,715,414,-231,-9,1389808265.131719
2,124,0,54711,551,-274,161,55152,10368,32,4176,52839,371,-126,-164,1389808265.143715
3,124,0,3821,639,319,296,3938,8224,1904,-1344,3291,410,-232,-16,1389808265.143723
2,125,0,56700,644,-285,33,57031,9696,192,4640,55400,371,-125,-158,1389808265.143992
3,125,0,5821,852,393,260,5815,9040,1888,-1968,5869,411,-227,-21,1389808265.143998
2,126,0,58690,780,-211,-117,58911,8736,544,4480,57959,371,-122,-160,1389808265.161510
3,126,0,7820,983,489,221,7692,9456,1680,-2720,5869,411,-227,-21,1389808265.161518
2,127,0,60679,966,-156,-151,60791,8176,640,4112,60520,369,-123,-158,1389808265.173714
3,127,0,9820,1050,499,158,9569,9216,1456,-2848,8447,418,-226,-29,1389808265.173723
2,128,0,62669,1115,-167,-73,62671,8256,368,3504,60520,369,-123,-158,1389808265.173915
3,128,0,11819,1071,393,119,11446,8512,1248,-2352,11024,411,-225,-34,1389808265.173921
2,129,0,63664,1175,-174,-61,64550,8704,224,2960,63081,372,-127,-157,1389808265.192049
3,129,0,12819,1078,306,96,13322,8064,1152,-1664,13602,411,-225,-40,1389808265.192058
2,130,0,117,1226,-207,-144,895,9056,0,2384,106,373,-119,-159,1389808265.203937
3,130,0,14818,1140,142,96,15200,7936,1056,-1184,13602,411,-225,-40,1389808265.203946
2,131,0,2107,1141,-208,-224,2775,8944,96,1952,2666,371,-121,-156,1389808265.204209
3,131,0,16818,1234,32,20,17076,7776,1152,-1184,16178,416,-224,-45,1389808265.204215
2,132,0,4097,1071,-199,-295,4654,8512,-96,1712,2666,371,-121,-156,1389808265.222134
3,132,0,18817,1342,-34,-37,18953,7504,1392,-1312,18755,416,-225,-46,1389808265.222143
2,133,0,6086,1017,-187,-278,6534,8128,-256,1792,5226,374,-127,-155,1389808265.234242
3,133,0,20817,1411,-46,-72,20830,7344,1568,-1648,18755,416,-225,-46,1389808265.234251
2,134,0,8076,958,-208,-285,8413,7712,-208,1936,7787,374,-121,-154,1389808265.234522
3,134,0,22816,1448,-18,-32,22707,7504,1680,-1904,21333,415,-229,-48,1389808265.234528
2,135,0,10065,977,-213,-286,10293,7184,-224,1936,7787,374,-121,-154,1389808265.252559
3,135,0,24815,1460,36,-6,24585,7632,1840,-2128,23910,415,-228,-56,1389808265.252568
2,136,0,12055,1024,-236,-277,12173,6720,-192,1824,10349,374,-122,-152,1389808265.263850
3,136,0,26815,1494,108,-21,26462,8112,1760,-2352,26488,413,-230,-59,1389808265.263859
2,137,0,14044,1098,-250,-235,14053,6368,-80,1648,12911,374,-124,-151,1389808265.264129
3,137,0,27815,1448,118,-26,28338,8112,1728,-2480,26488,413,-230,-59,1389808265.264135
2,138,0,15039,1131,-260,-197,15933,6192,-16,1600,15472,372,-124,-149,1389808265.281946
3,138,0,29814,1421,178,-7,30215,7936,1616,-2592,29065,413,-226,-68,1389808265.281955
2,139,0,17029,1211,-270,-127,17343,6192,-80,1600,15472,372,-124,-149,1389808265.293556
3,139,0,31814,1360,236,-2,32093,7744,1600,-2528,31642,419,-226,-71,1389808265.293570
2,140,0,19018,1282,-252,-33,19222,6400,-96,1552,18032,372,-121,-150,1389808265.293828
3,140,0,33813,1329,290,-30,33970,7600,1552,-2544,34219,419,-228,-79,1389808265.294077
2,141,0,21008,1334,-243,23,21101,6512,-176,1488,20593,372,-118,-148,1389808265.312204
3,141,0,35812,1292,282,-89,35847,7568,1616,-2656,34219,419,-228,-79,1389808265.312213
2,142,0,22998,1372,-224,82,22981,6800,-304,1360,23155,379,-115,-145,1389808265.324264
3,142,0,37812,1286,340,-122,37724,7552,1632,-2576,36798,413,-228,-82,1389808265.324274
2,143,0,24987,1354,-219,117,24860,7008,-400,1456,23155,379,-115,-145,1389808265.324505
3,143,0,39811,1255,335,-152,39601,7664,1728,-2320,39376,413,-228,-89,1389808265.324512
2,144,0,26977,1344,-220,140,26740,7200,-480,1552,25716,372,-110,-142,1389808265.342617
3,144,0,41811,1269,313,-175,41478,7760,1888,-2032,39376,413,-228,-89,1389808265.342626
2,145,0,28966,1373,-219,184,28620,7296,-480,1568,28277,372,-108,-144,1389808265.354153
3,145,0,42810,1284,296,-173,43355,8016,1920,-1952,41952,411,-231,-96,1389808265.354161
2,146,0,29961,1391,-211,207,30499,7312,-576,1360,30837,378,-105,-144,1389808265.354428
3,146,0,44810,1334,287,-248,45232,8112,1984,-2048,44528,411,-231,-100,1389808265.354433
2,147,0,31951,1397,-217,233,32378,7344,-672,1184,30837,378,-105,-144,1389808265.371776
3,147,0,46809,1365,272,-290,47109,8144,1952,-2160,47105,410,-236,-110,1389808265.371784
2,148,0,33940,1362,-205,240,34258,7376,-768,1120,33398,376,-101,-141,1389808265.383349
3,148,0,48809,1383,235,-331,48987,8160,1888,-2272,47105,410,-236,-110,1389808265.383363
2,149,0,35930,1320,-179,264,36139,7488,-832,1184,35958,375,-99,-140,1389808265.383724
3,149,0,50808,1364,201,-337,50864,8240,1856,-2272,49682,410,-236,-115,1389808265.383946
2,150,0,37920,1296,-166,294,38019,7632,-816,1312,35958,375,-99,-140,1389808265.401911
3,150,0,52808,1326,152,-335,52741,8192,1872,-2304,52261,408,-237,-122,1389808265.401921
2,151,0,39909,1310,-164,336,39898,7648,-880,1472,38518,378,-93,-140,1389808265.413741
3,151,0,54807,1280,115,-348,54618,8096,1904,-2176,54839,406,-242,-125,1389808265.413749
2,152,0,41899,1347,-175,382,41777,7648,-848,1456,41078,378,-84,-140,1389808265.414017
3,152,0,56807,1259,85,-357,56494,7984,2064,-1968,54839,406,-242,-125,1389808265.414023
2,153,0,43888,1387,-176,429,43656,7600,-1008,1264,43639,372,-82,-139,1389808265.432104
3,153,0,57806,1253,65,-363,58371,7952,2032,-2032,57416,406,-241,-129,1389808265.432119
2,154,0,45878,1381,-165,475,45536,7536,-1152,1072,43639,372,-82,-139,1389808265.444250
3,154,0,59806,1258,56,-387,60248,8000,1984,-2000,59994,407,-243,-132,1389808265.444259
2,155,0,46873,1372,-163,481,47416,7408,-1216,976,46199,378,-76,-137,1389808265.444528
3,155,0,61805,1219,34,-396,62125,8064,2112,-1984,59994,407,-243,-132,1389808265.444534
2,156,0,48862,1331,-147,486,49295,7360,-1264,800,48759,379,-68,-135,1389808265.461427
3,156,0,63805,1186,22,-374,64002,8160,2160,-2064,62572,400,-247,-138,1389808265.461441
2,157,0,50852,1306,-130,514,51174,7376,-1264,608,51319,375,-65,-131,1389808265.473754
3,157,0,268,1151,25,-378,343,8176,2144,-2160,65149,402,-245,-141,1389808265.473764
2,158,0,52841,1261,-102,560,53055,7392,-1312,432,51319,375,-65,-131,1389808265.474018
3,158,0,2268,1107,51,-376,2219,8000,2224,-2208,2191,406,-250,-144,1389808265.474025
2,159,0,54831,1213,-94,592,54935,7472,-1344,352,53879,378,-57,-132,1389808265.492090
3,159,0,4267,1058,90,-374,4096,7856,2256,-2304,2191,406,-250,-144,1389808265.492099
2,160,0,56821,1152,-100,600,56814,7488,-1344,224,56440,376,-48,-132,1389808265.503691
3,160,0,6266,1034,124,-401,5973,7728,2256,-2368,4769,397,-247,-148,1389808265.503700
2,161,0,58810,1087,-113,605,58695,7536,-1360,160,59001,373,-45,-129,1389808265.503962
3,161,0,7266,1012,144,-407,7850,7696,2128,-2688,7348,399,-251,-153,1389808265.503968
2,162,0,60800,1014,-132,619,60575,7392,-1264,64,59001,373,-45,-129,1389808265.521732
3,162,0,9266,942,158,-388,9727,7808,2080,-2960,9926,398,-253,-160,1389808265.521741
2,163,0,62789,914,-149,641,62455,7296,-1280,0,61561,376,-42,-125,1389808265.533836
3,163,0,11265,868,151,-379,11603,7840,1952,-3056,9926,398,-253,-160,1389808265.533851
2,164,0,63784,876,-164,652,64335,7360,-1200,-80,64122,376,-31,-126,1389808265.534191
3,164,0,13265,741,124,-424,13480,7776,2064,-3152,12504,395,-1,-158,1389808265.534198
2,165,0,238,780,-172,659,679,7504,-1184,-208,64122,376,-31,-126,1389808265.551743
3,165,0,15264,614,119,-416,15356,7584,2000,-3120,15082,391,-260,-164,1389808265.551752
2,166,0,2227,635,-163,660,2559,7696,-1280,-160,1147,376,-25,-123,1389808265.563872
3,166,0,17263,502,102,-407,17232,7488,1888,-2944,15082,391,-260,-164,1389808265.563887
2,167,0,4217,487,-116,597,4439,7872,-1248,32,3708,377,-18,-119,1389808265.564216
3,167,0,19263,361,89,-407,19109,7568,1872,-2784,17661,395,-260,-167,1389808265.564226
2,168,0,6206,378,-39,504,6320,8016,-1120,320,6269,375,-15,-121,1389808265.581448
3,168,0,21262,238,81,-371,20985,7872,1696,-2848,20238,393,-263,-165,1389808265.581462
2,169,0,8196,298,44,415,8200,8128,-928,608,6269,375,-15,-121,1389808265.593016
3,169,0,22262,191,102,-369,22862,8048,1568,-2912,22816,386,-266,-169,1389808265.593025
2,170,0,10186,245,111,375,10079,8272,-720,704,8830,372,-10,-121,1389808265.593278
3,170,0,24262,73,114,-363,24740,8032,1296,-2800,22816,386,-266,-169,1389808265.604914
2,171,0,12175,207,143,351,11958,8592,-784,784,11391,369,-11,-122,1389808265.605157
3,171,0,26261,21,84,-234,26616,8128,1264,-2640,25395,388,-267,-172,1389808265.605162
2,172,0,13170,179,131,355,13838,8896,-848,1056,13951,376,-5,-120,1389808265.622971
3,172,0,28260,-31,18,-219,28494,8240,1440,-2256,27972,390,-273,-172,1389808265.622980
2,173,0,15160,137,69,304,15718,9232,-928,1392,13951,376,-5,-120,1389808265.623227
3,173,0,30260,-40,-83,-197,30372,8320,1520,-1728,30550,383,-271,-168,1389808265.635098
2,174,0,17149,121,19,311,17597,9408,-960,1712,16512,371,0,-124,1389808265.635364
3,174,0,32259,8,-156,-234,32248,8448,1808,-1344,30550,383,-271,-168,1389808265.635371
2,175,0,19139,160,-15,325,19476,9440,-992,1968,19074,370,-1,-121,1389808265.653678
3,175,0,34259,108,-147,-246,34125,8624,1776,-1232,33128,387,-273,-165,1389808265.653687
2,176,0,21128,272,-24,349,21356,9264,-1184,1872,21636,372,-252,-121,1389808265.653977
3,176,0,36258,180,-64,-251,36002,8944,1824,-1312,35706,388,-277,-168,1389808265.653983
2,177,0,23118,422,-26,402,23235,9216,-1296,1472,21636,372,-252,-121,1389808265.670262
3,177,0,37258,216,-17,-252,37878,9248,1792,-1360,35706,388,-277,-168,1389808265.670272
2,178,0,25108,515,-29,382,25115,9280,-1648,976,24198,368,13,-121,1389808265.681967
3,178,0,39257,239,46,-260,39755,9424,1536,-1328,38284,379,-276,-171,1389808265.681971
2,179,0,27097,545,-65,302,26995,9424,-1728,592,26759,368,11,-123,1389808265.693854
3,179,0,41257,206,34,-275,41632,8992,1664,-1264,40861,385,-276,-168,1389808265.693871
2,180,0,29087,498,-105,149,28875,9696,-1584,352,26759,368,11,-123,1389808265.694149
3,180,0,43256,221,-10,-245,43509,8944,1488,-1024,43438,388,-280,-172,1389808265.694154
2,181,0,30081,439,-115,42,30754,10480,-1824,288,29319,370,11,-117,1389808265.711683
3,181,0,45256,249,-77,-186,45387,8896,1552,-1024,43438,388,-280,-172,1389808265.711691
2,182,0,32071,367,-117,-112,32634,10896,-1920,656,31880,372,16,-116,1389808265.723812
3,182,0,47255,288,-135,-149,47264,9152,1728,-1008,46016,380,-280,-175,1389808265.723819
2,183,0,34061,215,-129,-82,34513,10896,-1888,1408,34441,367,9,-115,1389808265.724114
3,183,0,49255,345,-162,-133,49140,9488,1984,-1120,48594,379,-277,-172,1389808265.724118
2,184,0,36050,91,-151,-116,36392,10480,-1328,2288,34441,367,9,-115,1389808265.741236
3,184,0,51254,441,-148,-144,51016,9904,1952,-1152,51171,380,-282,-172,1389808265.741245
2,185,0,38040,141,-195,-187,38271,9552,-1088,2480,37002,372,4,-111,1389808265.753184
3,185,0,52254,495,-135,-135,52893,10368,1936,-1552,51171,380,-282,-172,1389808265.753193
2,186,0,40029,271,-178,-158,40149,8864,-1024,2400,39563,371,11,-112,1389808265.753403
3,186,0,54253,599,-92,-201,54770,10448,1712,-2144,53747,380,-282,-167,1389808265.759007
2,187,0,42019,416,-125,-241,42028,8432,-928,2208,42123,369,6,-110,1389808265.770499
3,187,0,56253,622,-93,-263,56647,9808,1760,-2480,56325,380,-285,-172,1389808265.770509
2,188,0,44009,448,-61,-328,43907,8256,-928,2032,42123,369,6,-110,1389808265.782754
3,188,0,58252,566,-117,-317,58524,8928,1760,-2512,56325,380,-285,-172,1389808265.782763
2,189,0,45998,453,-58,-346,45786,8176,-880,2000,44684,373,255,-110,1389808265.788925
3,189,0,60252,534,-161,-350,60401,8224,1680,-2384,58903,379,-283,-175,1389808265.789179
2,190,0,46993,448,-65,-346,47666,8176,-752,2032,47244,374,4,-103,1389808265.801237
