nodeID,seqNumber,status,gyroTick,gyroX,gyroY,gyroZ,accelTick,accelX,accelY,accelZ,magTick,magX,magY,magZ,currentTime
2,126,0,29281,-88,-72,12,29764,8112,-864,-512,27965,332,-97,-301,1389807191.516975
3,126,0,43937,-29,-46,-38,44145,8304,336,448,42879,399,-105,-256,1389807191.516995
2,127,0,31271,-128,-79,5,31642,8112,-784,-192,30526,328,-99,-303,1389807191.516997
3,127,0,45936,-66,-22,-35,46022,8224,512,-160,45457,395,-107,-260,1389807191.516999
2,128,0,33260,-104,-76,5,33521,8176,-864,-112,33087,333,-99,-300,1389807191.517000
3,128,0,47936,-92,-28,-43,47899,8176,336,-272,45457,395,-107,-260,1389807191.517002
2,129,0,35249,-99,-70,8,35400,8192,-784,-320,35647,333,-99,-303,1389807191.517004
3,129,0,48935,-140,-33,-36,49777,8288,208,-160,48034,394,-108,-259,1389807191.517005
2,130,0,37239,-107,-64,-1,37279,8144,-448,-416,35647,333,-99,-303,1389807191.517007
3,130,0,50935,-225,-56,-14,51655,8272,208,192,50612,401,-108,-259,1389807191.517009
2,131,0,39228,-85,-63,-1,39158,8144,-368,-352,38207,328,-99,-300,1389807191.517011
3,131,0,52934,-182,-64,-18,53532,8304,64,864,53189,398,-110,-258,1389807191.517012
2,132,0,41218,-49,-65,-8,41037,8208,-464,-320,40768,334,-101,-304,1389807191.517014
3,132,0,54933,-24,-76,-47,55410,8240,224,1328,53189,398,-110,-258,1389807191.517016
2,133,0,43207,-6,-53,-9,42916,8176,-464,-400,40768,334,-101,-304,1389807191.517018
3,133,0,56933,164,-50,-43,57288,8272,368,1152,55766,395,-112,-256,1389807191.517019
2,134,0,45197,17,-53,-18,44795,8112,-240,-416,43329,332,-98,-302,1389807191.517021
3,134,0,58932,279,-6,-41,59165,8368,528,416,58345,399,-106,-256,1389807191.517023
2,135,0,46191,40,-57,-13,46674,8096,-336,-224,45891,328,-99,-300,1389807191.517024
3,135,0,60932,261,18,-35,61043,8432,400,-304,60922,400,-105,-259,1389807191.517026
2,136,0,48181,118,-58,-9,48553,8048,-528,-336,48452,331,-97,-298,1389807191.517028
3,136,0,62931,103,-9,-46,62921,8448,128,-656,60922,400,-105,-259,1389807191.517030
2,137,0,50170,169,-54,-13,50431,8080,-592,-640,48452,331,-97,-298,1389807191.517031
3,137,0,63931,28,-24,-51,64798,8288,0,-368,63499,394,-110,-251,1389807191.517033
2,138,0,52160,168,-46,-15,52309,8112,-784,-704,51013,333,-95,-301,1389807191.517035
3,138,0,394,-86,-52,-47,1139,8272,-96,160,541,400,-108,-254,1389807191.517036
2,139,0,54149,142,-51,-7,54188,8192,-976,-656,53573,330,-96,-298,1389807191.517038
3,139,0,2393,-72,-54,-30,3016,8240,-112,544,541,400,-108,-254,1389807191.517040
2,140,0,56138,106,-64,-3,56066,8160,-1008,-688,56133,337,-98,-299,1389807191.517042
3,140,0,4393,-6,-47,-19,4893,8208,-128,528,3117,400,-108,-253,1389807191.517043
2,141,0,58128,78,-60,4,57944,8144,-1040,-608,56133,337,-98,-299,1389807191.517058
3,141,0,6392,86,-26,-11,6770,8160,-48,272,5695,400,-109,-254,1389807191.517060
2,142,0,60117,16,-63,2,59822,8160,-864,-512,58693,336,-99,-298,1389807191.517062
3,142,0,8392,157,-19,13,8647,8288,-48,160,8272,399,-109,-255,1389807191.517064
2,143,0,61112,7,-55,-2,61701,8160,-736,-336,61253,333,-97,-295,1389807191.517065
3,143,0,10391,159,-29,38,10525,8352,80,224,8272,399,-109,-255,1389807191.517067
2,144,0,63101,-16,-53,6,63579,8080,-624,-240,63812,333,-96,-297,1389807191.517069
3,144,0,12390,149,-38,35,12402,8400,320,464,10849,401,-103,-254,1389807191.517070
2,145,0,65091,-32,-52,1,65457,8144,-624,-272,63812,333,-96,-297,1389807191.517072
3,145,0,13390,155,-44,32,14279,8352,464,544,13426,398,-104,-253,1389807191.517074
2,146,0,1544,-12,-59,4,1799,8240,-608,-208,836,336,-102,-298,1389807191.517075
3,146,0,15389,205,-38,14,16156,8224,576,448,16003,397,-104,-255,1389807191.517077
2,147,0,3534,8,-52,16,3678,8240,-672,-288,3396,332,-94,-298,1389807191.517079
3,147,0,17389,203,-15,-2,18035,8208,736,16,16003,397,-104,-255,1389807191.517080
2,148,0,5523,43,-63,30,5557,8224,-608,-304,3396,332,-94,-298,1389807191.517082
3,148,0,19388,113,-9,-16,19912,8256,592,-384,18582,400,-103,-251,1389807191.517084
2,149,0,7513,73,-56,31,7435,8208,-672,-448,5956,330,-97,-295,1389807191.517086
3,149,0,21388,1,-34,-6,21790,8320,352,-320,21159,397,-103,-251,1389807191.517087
2,150,0,9502,87,-49,29,9314,8128,-576,-448,8517,334,-94,-296,1389807191.517089
3,150,0,23387,-56,-51,-3,23667,8320,176,96,21159,397,-103,-251,1389807191.517132
2,151,0,11492,93,-53,36,11192,8160,-496,-336,11079,334,-92,-297,1389807191.517134
3,151,0,25386,-51,-53,-5,25544,8288,96,416,23736,399,-103,-251,1389807191.517135
2,152,0,12486,112,-53,40,13070,8176,-352,-224,11079,334,-92,-297,1389807191.517137
3,152,0,27386,-13,-37,1,27421,8304,112,384,26313,401,-100,-250,1389807191.517139
2,153,0,14476,145,-56,43,14948,8256,-368,-320,13638,334,-98,-292,1389807191.517140
3,153,0,28385,32,-38,3,29299,8208,0,288,28891,399,-102,-252,1389807191.517142
2,154,0,16465,169,-49,41,16827,8224,-400,-480,16199,336,-91,-295,1389807191.517144
3,154,0,30385,75,-31,8,31176,8256,96,288,28891,399,-102,-252,1389807191.517145
2,155,0,18455,133,-50,18,18705,8208,-304,-560,18758,333,-90,-294,1389807191.517147
3,155,0,32384,57,-40,25,33054,8320,112,192,31468,401,-101,-253,1389807191.517149
2,156,0,20444,89,-51,4,20583,8192,-240,-464,18758,333,-90,-294,1389807191.517150
3,156,0,34383,6,-61,29,34932,8368,256,224,34046,402,-100,-247,1389807191.517152
2,157,0,22433,64,-63,-6,22462,8208,-304,-208,21317,333,-93,-287,1389807191.517154
3,157,0,36383,5,-69,31,36810,8352,384,512,36625,400,-99,-251,1389807191.517155
2,158,0,24423,72,-73,-13,24340,8240,-464,-240,23877,335,-92,-295,1389807191.517157
3,158,0,38382,38,-67,12,38687,8240,544,592,36625,400,-99,-251,1389807191.517159
2,159,0,26412,108,-66,-13,26218,8288,-608,-336,26437,335,-88,-290,1389807191.517160
3,159,0,40382,61,-38,9,40565,8320,592,416,39201,402,-102,-245,1389807191.517162
2,160,0,28402,114,-54,-23,28097,8176,-704,-512,26437,335,-88,-290,1389807191.517164
3,160,0,42381,75,-26,3,41972,8416,528,272,41778,402,-102,-249,1389807191.517165
2,161,0,29396,105,-53,-27,29975,8128,-688,-448,28997,337,-91,-290,1389807191.517167
3,161,0,43381,63,-41,-5,43850,8416,400,112,41778,402,-102,-249,1389807191.517169
2,162,0,31386,72,-63,-25,31853,8176,-592,-480,31557,336,-90,-292,1389807191.517170
3,162,0,45380,28,-59,-20,45727,8432,256,112,44355,399,-99,-250,1389807191.517172
2,163,0,33375,79,-65,-24,33732,8208,-512,-496,31557,336,-90,-292,1389807191.517174
3,163,0,47379,5,-69,-25,47604,8336,176,192,46933,399,-102,-249,1389807191.517175
2,164,0,35365,93,-61,-34,35610,8176,-512,-496,34118,338,-87,-290,1389807191.517177
3,164,0,49379,3,-68,-36,49481,8288,112,352,49509,402,-103,-250,1389807191.517179
2,165,0,37354,91,-65,-27,37488,8176,-560,-464,36678,337,-90,-291,1389807191.517180
3,165,0,51378,5,-73,-40,51358,8272,272,352,49509,402,-103,-250,1389807191.517182
2,166,0,39344,100,-73,-33,39367,8208,-592,-336,39239,338,-92,-290,1389807191.517184
3,166,0,53378,43,-63,-25,53236,8224,288,384,52086,402,-98,-247,1389807191.517185
2,167,0,41333,105,-70,-33,41245,8112,-560,-272,39239,338,-92,-290,1389807191.517187
3,167,0,55377,27,-52,-22,55113,8352,240,512,54663,400,-100,-249,1389807191.517189
2,168,0,43322,110,-61,-40,43123,8016,-608,-208,41799,337,-87,-290,1389807191.517190
3,168,0,57376,-9,-52,-25,56989,8352,112,384,57240,400,-101,-249,1389807191.517192
2,169,0,44317,118,-62,-34,45002,8096,-848,-256,44360,333,-90,-289,1389807191.517194
3,169,0,58376,-31,-57,-34,58867,8336,32,240,57240,400,-101,-249,1389807191.517195
2,170,0,46307,115,-62,-31,46880,8176,-1008,-432,46921,339,-90,-288,1389807191.517197
3,170,0,60375,-7,-63,-41,60744,8304,-48,320,59817,398,-100,-245,1389807191.517199
2,171,0,48296,54,-59,-33,48759,8256,-976,-672,46921,339,-90,-288,1389807191.517200
3,171,0,62375,-1,-72,-30,62622,8336,-16,512,62395,398,-100,-245,1389807191.517202
2,172,0,50285,7,-70,-38,50637,8208,-864,-448,49481,339,-84,-288,1389807191.517204
3,172,0,64374,-26,-57,-23,64500,8336,64,528,62395,398,-100,-245,1389807191.517206
2,173,0,52275,-25,-80,-31,52516,8160,-832,-224,52041,338,-86,-287,1389807191.517207
3,173,0,838,18,-61,-15,841,8288,128,496,64971,405,-103,-248,1389807191.517209
2,174,0,54264,-21,-73,-22,54393,8128,-640,-288,54601,335,-92,-287,1389807191.517211
3,174,0,2837,76,-51,-12,2719,8240,80,464,2013,405,-101,-244,1389807191.517212
2,175,0,56254,13,-67,-24,56271,8192,-400,-224,54601,335,-92,-287,1389807191.517214
3,175,0,4836,103,-41,-7,4597,8224,176,288,4590,401,-99,-246,1389807191.517227
2,176,0,58243,48,-63,-12,58149,8224,-384,-208,57162,338,-89,-285,1389807191.517247
3,176,0,6836,80,-39,1,6473,8240,272,144,4590,401,-99,-246,1389807191.517249
2,177,0,60233,107,-71,-9,60027,8128,-592,-160,59722,337,-87,-287,1389807191.517250
3,177,0,7835,60,-49,11,8351,8224,208,64,7167,401,-102,-245,1389807191.517252
2,178,0,61227,128,-67,-6,61905,8096,-768,-304,59722,337,-87,-287,1389807191.517254
3,178,0,9835,-3,-73,19,10228,8256,32,208,9744,403,-101,-242,1389807191.517256
2,179,0,63217,142,-59,11,63783,8048,-928,-464,62282,337,-92,-287,1389807191.517257
3,179,0,11834,-30,-68,32,12105,8336,-32,496,12320,401,-95,-244,1389807191.517259
2,180,0,65206,139,-60,19,125,8112,-1056,-384,64843,339,-86,-285,1389807191.517261
3,180,0,13834,10,-82,33,13982,8320,96,704,12320,401,-95,-244,1389807191.517262
2,181,0,1660,99,-64,41,2002,8224,-1056,-496,1868,339,-84,-284,1389807191.517264
3,181,0,15833,88,-69,32,15860,8192,272,816,14897,399,-97,-240,1389807191.517266
2,182,0,3649,58,-63,41,3881,8288,-832,-416,1868,339,-84,-284,1389807191.517268
3,182,0,17832,110,-47,38,17738,8160,384,480,17474,404,-97,-240,1389807191.517269
2,183,0,5638,16,-61,44,5759,8240,-288,-288,4429,335,-87,-285,1389807191.517271
3,183,0,19832,103,-48,39,19615,8320,368,128,17474,404,-97,-240,1389807191.517273
2,184,0,7628,-11,-69,33,7637,8176,-48,-16,6988,340,-85,-284,1389807191.517275
3,184,0,21831,97,-69,30,21492,8224,416,176,20052,404,-94,-242,1389807191.517276
2,185,0,9617,39,-69,45,9516,8224,0,272,9549,339,-83,-282,1389807191.517278
3,185,0,22831,112,-72,28,23370,8208,496,416,22630,400,-97,-241,1389807191.517280
2,186,0,11607,122,-61,58,11395,8272,-128,480,9549,339,-83,-282,1389807191.517281
3,186,0,24830,126,-63,29,25247,8256,512,560,25207,404,-99,-240,1389807191.517283
2,187,0,12602,167,-56,60,13274,8240,-208,400,12110,339,-84,-280,1389807191.517285
3,187,0,26830,155,-61,23,27124,8352,480,512,25207,404,-99,-240,1389807191.517287
2,188,0,14591,266,-47,64,15152,8304,-448,256,14669,344,-83,-281,1389807191.517289
3,188,0,28829,207,-55,26,29001,8480,496,336,27783,405,-94,-238,1389807191.517291
2,189,0,16580,311,-41,71,17030,8432,-752,-112,17230,343,-79,-281,1389807191.517292
3,189,0,30828,210,-65,14,30878,8400,672,320,30360,400,-95,-244,1389807191.517294
2,168,0,39450,-192,-60,76,39156,8048,2960,160,38684,367,-158,10,1389807191.517526
3,168,0,52904,-57,28,-200,53182,8112,2608,304,52938,415,-180,60,1389807191.517535
2,169,0,41439,-114,-60,63,41034,8160,2992,240,41244,373,-157,13,1389807191.529103
3,169,0,54903,-68,47,-198,55060,8160,2624,-496,52938,415,-180,60,1389807191.529118
2,170,0,42434,-57,-65,62,42913,8192,2896,144,41244,373,-157,13,1389807191.541434
3,170,0,56902,-123,32,-182,56937,8224,2448,-752,55516,412,-179,65,1389807191.541449
2,171,0,44423,24,-73,56,44792,8176,2768,-80,43803,377,-156,13,1389807191.553000
3,171,0,58902,-149,-9,-195,58815,8208,2224,-272,58095,417,-182,59,1389807191.553009
2,172,0,46413,6,-64,43,46671,8096,2848,-336,46364,372,-157,11,1389807191.553191
3,172,0,60901,-182,-30,-187,60692,8224,2160,208,60674,411,-184,61,1389807191.553196
2,173,0,48402,-66,-71,26,48549,8032,2944,-128,48924,371,-156,16,1389807191.570431
3,173,0,62901,-166,-24,-170,62569,8208,2240,352,60674,411,-184,61,1389807191.570440
2,174,0,50392,-120,-65,20,50427,8048,2752,368,48924,371,-156,16,1389807191.582011
3,174,0,63900,-150,-22,-161,64446,8192,1984,272,63252,409,-179,66,1389807191.582020
2,175,0,52381,-79,-67,10,52306,8032,2656,704,51483,376,-154,13,1389807191.582198
3,175,0,364,-140,-10,-156,788,8192,1728,80,293,415,-184,64,1389807191.594311
2,176,0,54371,-32,-55,0,54185,7968,2896,560,54043,372,-157,11,1389807191.594648
3,176,0,2363,-149,-12,-155,2667,8160,1568,288,2872,411,-186,62,1389807191.594659
2,177,0,56360,29,-42,-3,56064,7920,2928,192,54043,372,-157,11,1389807191.612818
3,177,0,4362,-188,-15,-128,4545,8320,1536,512,2872,411,-186,62,1389807191.612832
2,178,0,57355,42,-44,0,57943,7968,2720,96,56604,371,-153,18,1389807191.613157
3,178,0,6362,-115,-30,-116,6422,8656,1504,1008,5450,412,-184,67,1389807191.613169
2,179,0,59344,78,-54,2,59822,8048,2368,80,59164,378,-151,16,1389807191.631523
3,179,0,8361,75,-31,-131,8301,8720,1856,1328,8028,414,-185,67,1389807191.631537
2,180,0,61334,122,-60,17,61701,8208,2480,-96,61725,369,-154,15,1389807191.643445
3,180,0,10361,242,-7,-141,10178,8448,2240,704,8028,414,-185,67,1389807191.643459
2,181,0,63323,131,-52,12,63580,8272,2304,-512,61725,369,-154,15,1389807191.643786
3,181,0,12360,198,39,-140,12056,8224,2544,-320,10606,416,-187,63,1389807191.643797
2,182,0,65313,59,-30,-22,65460,8320,2544,-640,64286,369,-152,17,1389807191.661799
3,182,0,13360,77,46,-125,13934,8176,2256,-1248,13185,410,-189,65,1389807191.661814
2,183,0,1766,-134,-31,-48,1803,8176,2832,-448,1309,376,-154,19,1389807191.668081
3,183,0,15359,-239,22,-109,15812,8176,1824,-1392,15764,412,-189,66,1389807191.668339
2,184,0,3756,-263,-58,-58,3682,8064,2976,192,3870,373,-155,15,1389807191.680320
3,184,0,17358,-435,-48,-96,17689,8192,1904,-224,15764,412,-189,66,1389807191.680335
2,185,0,5745,-240,-77,-67,5561,7920,3136,784,3870,373,-155,15,1389807191.692766
3,185,0,19358,-428,-84,-87,19566,8256,1984,1232,18342,414,-191,63,1389807191.692780
2,186,0,7734,-118,-49,-89,7440,7776,3136,688,6430,371,-154,19,1389807191.693110
3,186,0,21357,-290,-48,-87,21444,8352,2192,1728,20920,410,-191,66,1389807191.693120
2,187,0,8729,-35,-34,-96,9318,7952,2832,368,8991,375,-153,21,1389807191.710743
3,187,0,23357,-70,4,-101,23322,8320,2112,1088,23498,411,-187,67,1389807191.710752
2,188,0,10719,88,-28,-88,11196,8144,2608,-64,8991,375,-153,21,1389807191.722174
3,188,0,25356,26,13,-109,25201,8240,2016,192,23498,411,-187,67,1389807191.722189
2,189,0,12708,86,-35,-95,13075,8208,2480,-480,11551,374,-155,18,1389807191.722496
3,189,0,27355,-65,16,-84,27079,8272,1872,-528,26077,415,-188,69,1389807191.728835
2,190,0,14697,61,-36,-94,14954,8160,2240,-560,14111,372,-156,19,1389807191.740790
3,190,0,28355,-105,-2,-74,28957,8160,1760,-496,28655,408,-190,66,1389807191.740798
2,191,0,16687,-11,-30,-93,16833,8192,2016,-368,16672,375,-153,21,1389807191.752506
3,191,0,30354,-135,-35,-82,30835,7968,1808,0,28655,408,-190,66,1389807191.752511
2,192,0,18676,-58,-20,-76,18712,8080,1856,-240,16672,375,-153,21,1389807191.752699
3,192,0,32354,-110,-47,-74,32714,8112,1840,336,31232,408,-187,69,1389807191.752703
2,193,0,20666,66,2,-30,20591,8016,1184,192,19232,368,-158,19,1389807191.769674
3,193,0,34353,-80,-29,-44,34593,8336,1776,304,33810,414,-191,67,1389807191.769678
2,194,0,22655,337,51,-37,22469,7904,624,416,21791,368,-158,17,1389807191.780919
3,194,0,36353,-6,-15,-20,36471,8320,1632,192,36388,408,-188,68,1389807191.780925
2,195,0,24645,396,102,0,24348,7488,2528,-64,24350,377,-155,17,1389807191.792607
3,195,0,38352,105,-29,-30,38349,8032,1792,208,36388,408,-188,68,1389807191.792612
2,196,0,25639,252,85,-8,26227,7280,2672,-688,24350,377,-155,17,1389807191.792816
3,196,0,40351,178,-33,-41,40227,7904,1840,400,38966,407,-188,71,1389807191.792820
2,197,0,27629,-83,0,72,28106,7600,1760,-768,26911,377,-160,14,1389807191.810211
3,197,0,42351,182,-20,-6,42105,8192,1872,272,41544,413,-190,69,1389807191.810217
2,198,0,29618,-227,-41,167,29984,8048,1984,-896,29472,369,-157,16,1389807191.821987
3,198,0,43350,186,-19,10,43983,8352,1888,160,44122,410,-192,67,1389807191.821994
2,199,0,31608,-466,-13,170,31863,8208,2544,-1008,32031,371,-148,17,1389807191.822173
3,199,0,45350,179,-18,26,45861,8336,1808,400,44122,410,-192,67,1389807191.833408
2,200,0,33597,-667,32,141,33742,8000,3264,-800,32031,371,-148,17,1389807191.833565
3,200,0,47349,162,-37,20,47738,8256,1936,656,46699,409,-191,69,1389807191.833569
2,201,0,35587,-913,21,121,35621,7920,3552,-752,34593,374,-157,20,1389807191.849993
3,201,0,49349,176,-25,23,49617,8304,2096,656,49278,414,-190,68,1389807191.849999
2,202,0,37576,-976,-19,139,37500,8144,3232,-864,37154,372,-147,20,1389807191.861261
3,202,0,51348,174,-18,32,51494,8320,2144,480,49278,414,-190,68,1389807191.861267
2,203,0,39566,-1055,-56,168,39378,8544,3056,-1008,37154,372,-147,20,1389807191.872938
3,203,0,53347,103,-7,36,53372,8512,2032,96,51856,413,-192,68,1389807191.872944
2,204,0,40560,-1125,-59,164,41257,8576,3280,-816,39714,371,-146,24,1389807191.873157
3,204,0,55347,33,-13,40,55249,8560,1984,160,54434,408,-188,68,1389807191.873160
2,205,0,42550,-1276,-51,143,43136,8416,2992,-96,42276,376,-145,23,1389807191.890700
3,205,0,57346,10,-24,39,57127,8464,1920,496,57012,409,-187,73,1389807191.890706
2,206,0,44539,-1145,-58,98,45015,8304,2624,304,44837,373,-141,28,1389807191.901835
3,206,0,58346,11,-27,49,59004,8400,1680,592,57012,409,-187,73,1389807191.901841
2,207,0,46529,-839,-68,82,46892,8272,2576,-144,44837,373,-141,28,1389807191.907213
3,207,0,60345,0,-10,56,60882,8368,1440,240,59590,413,-193,64,1389807191.907363
2,208,0,48518,-703,-67,49,48771,8080,1984,-800,47397,377,-137,30,1389807191.918998
3,208,0,62345,-29,16,79,62760,8336,1536,-16,62168,407,-189,67,1389807191.919002
2,209,0,50507,-865,-65,7,50650,7792,1552,-656,49957,377,-139,31,1389807191.930695
3,209,0,64344,-32,13,84,64638,8272,1440,160,64746,411,-186,66,1389807191.930699
2,210,0,52497,-1139,-93,-38,52528,7616,1600,192,52518,371,-139,28,1389807191.942505
3,210,0,807,-1,-12,111,980,8272,1552,352,64746,411,-186,66,1389807191.942510
2,211,0,54486,-1242,-132,-69,54407,7776,1792,1408,52518,371,-139,28,1389807191.942617
3,211,0,2807,59,5,126,2858,8240,1616,400,1789,413,-186,70,1389807191.942717
2,212,0,56476,-1066,-137,-108,56284,8032,2112,2304,55079,370,-133,39,1389807191.960143
3,212,0,4806,105,18,133,4736,8144,1872,0,4368,410,-186,69,1389807191.960152
2,213,0,57470,-914,-119,-139,58163,8064,2704,2960,57639,374,-136,35,1389807191.971983
3,213,0,6805,98,5,138,6614,8064,2000,-208,4368,410,-186,69,1389807191.971991
2,214,0,59460,-615,-68,-183,60042,7936,3024,3120,60200,373,-138,35,1389807191.972230
3,214,0,7805,57,-8,141,8492,8144,1968,-96,6945,408,-179,73,1389807191.983630
2,215,0,61449,-107,3,-165,61921,7824,3568,2912,60200,373,-138,35,1389807191.983905
3,215,0,9805,-25,-14,170,10370,8336,1952,448,9524,415,-181,66,1389807191.983911
2,216,0,63439,612,62,-49,63799,7760,3664,2272,62761,371,-135,42,1389807192.1566
3,216,0,11804,5,-21,203,12248,8528,2080,1104,12103,412,-180,67,1389807192.1574
2,217,0,65428,1248,103,88,141,7888,3056,832,65321,375,-137,35,1389807192.13904
3,217,0,13803,138,-11,188,14126,8464,2080,1312,12103,412,-180,67,1389807192.13919
2,218,0,1882,1501,125,174,2019,8192,2112,-976,65321,375,-137,35,1389807192.14246
3,218,0,15803,193,25,177,16004,8336,2336,752,14680,409,-176,71,1389807192.14256
2,219,0,3871,1253,120,197,3898,8272,1376,-2336,2346,375,-138,31,1389807192.32019
3,219,0,17802,103,46,169,17882,8288,2400,-64,17258,415,-177,67,1389807192.32027
2,220,0,5861,659,103,147,5776,8016,1168,-2592,4907,369,-136,30,1389807192.32214
3,220,0,19801,16,35,203,19759,8304,2256,-224,19835,413,-178,64,1389807192.44417
2,221,0,7850,70,75,83,7654,7600,1600,-1984,7467,376,-136,27,1389807192.44745
3,221,0,21801,-17,28,204,21638,8272,2208,384,19835,413,-178,64,1389807192.44756
2,222,0,8845,-132,51,71,9533,7600,2352,-992,7467,376,-136,27,1389807192.62941
3,222,0,22801,-20,24,198,23516,8160,2256,912,22413,414,-172,70,1389807192.62955
2,223,0,10834,-368,15,79,11412,7904,2992,-272,10027,374,-139,26,1389807192.63277
3,223,0,24800,2,32,207,25394,8208,2096,704,24991,419,-168,66,1389807192.63288
2,224,0,12824,-431,11,87,13290,8080,3248,-128,12587,374,-134,29,1389807192.80705
3,224,0,26799,21,60,226,27272,8240,1728,560,24991,419,-168,66,1389807192.80713
2,225,0,14813,-366,40,86,15168,8080,3408,48,15148,374,-131,30,1389807192.92755
3,225,0,28799,34,61,248,29149,8208,1440,624,27569,418,-172,64,1389807192.92764
2,226,0,16803,-280,59,66,17047,7888,3376,0,15148,374,-131,30,1389807192.93032
3,226,0,30798,7,47,283,31027,8160,1008,752,30146,413,-163,65,1389807192.93038
2,227,0,18792,-208,64,66,18925,7808,3072,64,17709,376,-136,27,1389807192.111028
3,227,0,32797,-10,59,327,32905,8096,704,816,32725,417,-166,63,1389807192.111042
2,228,0,20781,-213,51,77,20803,7760,2896,320,20269,372,-132,23,1389807192.123254
3,228,0,34797,-21,73,394,34783,8128,368,768,32725,417,-166,63,1389807192.123268
2,229,0,22771,-215,65,95,22680,7728,2512,720,22829,371,-127,29,1389807192.123583
3,229,0,36796,-33,75,485,36661,8240,256,640,35303,416,-160,61,1389807192.123659
2,230,0,23766,-190,75,96,24558,7664,2304,880,22829,371,-127,29,1389807192.141783
3,230,0,37796,-69,65,548,38538,8512,16,400,37881,416,-154,62,1389807192.141797
2,231,0,25755,-143,107,92,26436,7744,1968,240,25389,378,-128,26,1389807192.147370
3,231,0,39795,-203,39,673,40416,8880,-656,96,40458,420,-143,64,1389807192.147659
2,232,0,27744,-121,134,63,28314,7696,2096,-464,27949,371,-128,25,1389807192.159371
3,232,0,41795,-351,36,844,42294,9120,-992,-256,40458,420,-143,64,1389807192.159380
2,233,0,29734,-213,146,70,30192,7904,1984,-1216,27949,371,-128,25,1389807192.171605
3,233,0,43794,-407,35,945,44171,8960,-1744,96,43036,420,-140,66,1389807192.171614
2,234,0,31723,-356,129,83,32070,8240,2096,-1376,30509,375,-125,27,1389807192.183631
3,234,0,45793,-484,3,1044,46048,9104,-2240,480,45615,422,-129,61,1389807192.183639
2,235,0,33713,-478,100,66,33949,8128,2960,-944,33070,376,-125,21,1389807192.183839
3,235,0,47793,-458,-90,1173,47926,9920,-2608,704,45615,422,-129,61,1389807192.183844
2,236,0,35702,-378,102,63,35826,7872,3104,-352,35630,374,-126,21,1389807192.201518
3,236,0,49792,-305,-174,1315,49803,10928,-2784,944,48193,422,-112,67,1389807192.201527
2,237,0,37692,-187,116,82,37704,7904,2704,640,35630,374,-126,21,1389807192.213202
3,237,0,51792,16,-235,1401,51681,11232,-64,1520,50770,422,-105,67,1389807192.213211
2,238,0,39681,57,105,120,39582,8176,2880,400,38191,380,-119,22,1389807192.213478
3,238,0,52791,169,-265,1477,53559,12336,-384,1536,53347,422,-92,70,1389807192.213484
2,239,0,40676,242,111,143,41461,8448,2320,144,40751,380,-119,23,1389807192.230990
3,239,0,54791,-45,-316,1629,55437,14144,-3056,-336,53347,422,-92,70,1389807192.230999
2,240,0,42665,373,103,167,43340,8352,2336,-944,43311,379,-124,18,1389807192.242505
3,240,0,56790,-551,-425,1817,57315,15472,-1792,-1600,55925,426,-69,79,1389807192.242519
2,241,0,44655,278,114,156,45219,8000,2848,-1904,43311,379,-124,18,1389807192.242843
3,241,0,58789,-735,-468,2071,59192,14512,640,432,58502,426,-51,78,1389807192.242854
2,242,0,46644,77,115,147,47098,8000,3056,-1616,45871,374,-118,14,1389807192.259775
3,242,0,60789,-751,-469,2151,61071,12848,2864,3472,61080,417,-34,80,1389807192.259783
2,243,0,48634,-64,58,161,48978,8224,2832,-688,48432,375,-116,18,1389807192.271811
3,243,0,62788,-753,-483,2215,62948,11728,5136,4688,61080,417,-34,80,1389807192.271820
2,244,0,50623,59,11,197,50856,8176,2960,-32,50993,381,-118,12,1389807192.278147
3,244,0,64788,-470,-517,2352,64826,11600,5712,4432,63659,417,-7,89,1389807192.278421
2,245,0,52613,245,36,197,52735,8192,2976,-672,50993,381,-118,12,1389807192.290530
3,245,0,1251,-202,-432,2436,1169,12480,3984,2384,700,409,12,91,1389807192.290539
2,246,0,54602,410,54,226,54613,8304,3104,-880,53552,375,-114,16,1389807192.302193
3,246,0,3250,-174,-286,2233,3046,12816,3568,-1392,700,409,12,91,1389807192.302201
2,247,0,56591,399,35,243,56491,8368,3104,-1152,56111,379,-111,18,1389807192.302423
3,247,0,4250,-180,-209,2047,4924,11360,3568,-3840,3277,409,25,90,1389807192.308556
2,248,0,57586,375,12,245,58370,8432,3168,-1424,56111,379,-111,18,1389807192.320848
3,248,0,6249,-299,-144,1590,6801,8816,2368,-3344,5855,407,42,95,1389807192.320856
2,249,0,59576,285,-25,231,60249,8256,3568,-1344,58671,380,-114,14,1389807192.332987
3,249,0,8249,-657,-179,1084,8680,7056,1344,-2208,8432,404,57,95,1389807192.332996
2,250,0,61565,146,-35,178,62128,8048,4144,-1264,61231,379,-108,16,1389807192.333203
3,250,0,10248,-782,-238,660,10558,6272,1408,-1264,8432,404,57,95,1389807192.333209
2,251,0,63554,60,-34,134,64007,8032,4400,-432,63789,379,-103,17,1389807192.351223
3,251,0,12248,-465,-257,208,12436,5552,1472,16,11010,405,51,93,1389807192.351232
2,252,0,8,68,-51,119,349,8176,4128,208,63789,379,-103,17,1389807192.363421
3,252,0,14247,49,-274,-272,14314,4736,1216,816,13588,401,52,97,1389807192.363435
2,253,0,1997,240,-56,92,2228,8096,3712,416,813,380,-113,13,1389807192.363761
3,253,0,16246,488,-300,-771,16191,4224,1280,336,16165,404,45,103,1389807192.363772
2,254,0,3987,425,-49,84,4106,8000,3232,256,3373,378,-106,17,1389807192.381016
3,254,0,18246,869,-317,-1237,18068,4400,1584,-592,16165,404,45,103,1389807192.381030
2,255,0,5976,529,-30,66,5984,7744,2816,-352,5933,377,-103,17,1389807192.393200
3,255,0,19245,992,-311,-1466,19946,4832,1920,-1296,18742,406,26,107,1389807192.393214
2,0,0,6971,519,-25,58,7863,7808,2032,-944,5933,377,-103,17,1389807192.393541
3,0,0,21245,1055,-259,-1923,21823,4928,2416,-1840,21318,404,7,107,1389807192.393551
2,1,0,8960,395,-33,57,9741,7840,2256,-1520,8493,379,-110,11,1389807192.411508
3,1,0,23244,890,-145,-2369,23700,4928,2992,-2272,21318,404,7,107,1389807192.411522
2,2,0,10950,274,-62,80,11619,7824,2096,-1840,11053,376,-110,15,1389807192.423166
3,2,0,25244,641,-10,-2758,25578,5056,3424,-2224,23896,405,246,114,1389807192.423181
2,3,0,12939,147,-65,110,13497,7744,1824,-1504,11053,376,-110,15,1389807192.423481
3,3,0,27243,337,128,-3102,27455,5344,3984,-1936,26472,412,-42,111,1389807192.423487
2,4,0,14929,-18,-81,136,15376,7760,1824,-1040,13614,374,-101,21,1389807192.441249
3,4,0,29242,46,243,-3392,29332,5792,4464,-1392,29050,412,-73,107,1389807192.441257
2,5,0,16918,-2,-89,176,17253,7616,1728,-704,16176,378,-103,15,1389807192.453449
3,5,0,31242,-174,325,-3623,31211,6352,4576,-880,29050,412,-73,107,1389807192.453458
2,6,0,18908,16,-88,227,19131,7712,1248,-800,18735,376,-104,18,1389807192.453727
3,6,0,33241,-285,369,-3834,33089,6800,4816,-448,31627,412,-101,107,1389807192.453743
2,7,0,20897,23,-86,279,21010,7744,1440,-1360,18735,376,-104,18,1389807192.471748
3,7,0,34241,-294,385,-3915,34967,7248,5136,64,34205,416,-133,103,1389807192.471757
2,8,0,22887,-24,-67,312,22888,7904,1952,-1712,21296,376,-93,21,1389807192.477706
3,8,0,36240,-244,403,-4053,36843,7680,5024,416,36781,412,-168,99,1389807192.477938
2,9,0,23881,-103,-66,336,24766,7984,2112,-1312,23856,378,-95,19,1389807192.489924
3,9,0,38240,-202,373,-4158,38722,8224,4896,304,36781,412,-168,99,1389807192.489933
2,10,0,25871,-245,-62,381,26644,8064,2368,-496,26417,378,-93,19,1389807192.501694
3,10,0,40239,-87,350,-4220,40599,8960,4752,-240,39358,407,-198,100,1389807192.501703
2,11,0,27860,-240,-64,428,28524,8240,2512,320,26417,378,-93,19,1389807192.513835
3,11,0,42238,93,347,-4243,42477,9392,4944,-416,41935,402,-231,96,1389807192.513850
2,12,0,29850,-111,-66,480,30403,8368,2656,592,28976,375,-85,28,1389807192.514108
3,12,0,44238,240,343,-4235,44356,9472,5008,48,41935,402,-231,96,1389807192.514119
2,13,0,31839,62,-38,515,32283,8480,3056,528,31536,382,-81,24,1389807192.531782
3,13,0,46237,210,287,-4174,46234,9808,4432,64,44514,395,-14,95,1389807192.531791
2,14,0,33828,231,-8,553,34162,8752,2944,400,34097,379,-79,20,1389807192.537948
3,14,0,48236,158,223,-4046,48113,10224,3536,-576,47091,379,-300,90,1389807192.538201
2,15,0,35818,373,8,592,36041,9136,2592,320,34097,379,-79,20,1389807192.550464
3,15,0,49236,105,221,-3967,49990,10656,1824,-944,49668,370,-328,90,1389807192.550473
2,16,0,37807,412,-10,652,37919,9136,2176,448,36656,375,-73,25,1389807192.562662
3,16,0,51236,-48,231,-3789,51867,10688,688,-304,49668,370,-328,90,1389807192.562671
2,17,0,39797,351,-31,685,39797,8864,2240,352,39217,380,-64,24,1389807192.562937
3,17,0,53235,0,159,-3660,53744,9552,3008,1520,52245,358,-356,87,1389807192.562943
2,18,0,40792,321,-35,708,41675,8720,2288,624,39217,380,-64,24,1389807192.581052
3,18,0,55234,873,129,-3454,55621,7840,4304,4928,54823,335,-381,83,1389807192.581062
2,19,0,42781,256,-61,756,43553,8800,2128,912,41776,379,-62,24,1389807192.592641
3,19,0,57234,911,278,-3190,57499,7216,208,5328,57399,325,-403,80,1389807192.592655
2,20,0,44770,163,-127,831,45432,8704,1904,896,44338,373,-51,25,1389807192.592957
3,20,0,59233,940,408,-2677,59376,6656,368,80,57399,325,-403,80,1389807192.592962
2,21,0,46760,71,-210,890,47310,8496,1456,992,46898,378,-44,27,1389807192.610685
3,21,0,61232,1064,481,-2014,61255,5264,-3936,-3360,59977,310,-421,69,1389807192.610699
2,22,0,48749,-40,-252,955,49188,8400,1456,544,46898,378,-44,27,1389807192.622145
3,22,0,63232,-138,149,-1270,63132,2768,-5920,-4992,62554,299,-427,62,1389807192.622154
2,23,0,50739,-164,-273,1024,51066,8736,1760,-240,49458,377,-36,31,1389807192.622435
3,23,0,64232,-734,-86,-867,65009,1648,-3280,-2096,62554,299,-427,62,1389807192.628388
2,24,0,52728,-328,-314,1086,52945,9152,2256,-656,52018,374,-25,29,1389807192.640280
3,24,0,695,-1289,-355,159,1352,3840,-352,4272,65132,292,-425,75,1389807192.640294
2,25,0,54718,-489,-363,1156,54823,9376,2368,-656,54578,374,-11,36,1389807192.652663
3,25,0,2694,-1354,-313,1010,3230,6240,2592,7888,2174,295,-414,82,1389807192.652672
2,26,0,55712,-497,-383,1186,56702,9488,2400,-448,54578,374,-11,36,1389807192.652885
3,26,0,4694,-693,-87,1422,5108,7600,3360,7104,4752,294,-403,88,1389807192.652892
2,27,0,57702,-389,-380,1247,58111,9504,2736,-416,57139,377,-5,38,1389807192.671003
3,27,0,6693,414,68,1785,6986,8160,1728,3888,4752,294,-403,88,1389807192.671012
2,28,0,59691,-222,-356,1302,59990,9408,2784,-384,59700,368,-249,42,1389807192.682766
3,28,0,8692,753,-74,2025,8864,8144,1312,400,7329,303,-387,87,1389807192.682775
2,29,0,61681,-33,-343,1358,61869,9264,2880,-464,62260,369,22,46,1389807192.683019
3,29,0,10692,490,-304,2202,10742,8272,1888,-1712,9906,317,-373,78,1389807192.683026
2,30,0,63670,134,-332,1410,63747,9136,3232,-368,62260,369,22,46,1389807192.700396
3,30,0,12691,-102,-444,2379,12619,9136,3152,-1872,12484,328,-358,83,1389807192.700405
2,31,0,124,269,-332,1441,89,9248,3296,-16,64820,368,28,50,1389807192.712635
3,31,0,13691,-371,-480,2428,14497,9520,2336,-960,12484,328,-358,83,1389807192.712645
2,32,0,2113,419,-345,1483,1968,9488,3120,480,1844,361,41,52,1389807192.712899
3,32,0,15690,-1053,-462,2304,16374,10592,-432,-1424,15061,335,-341,92,1389807192.712906
2,33,0,4102,592,-367,1521,3846,10064,2848,880,1844,361,41,52,1389807192.731083
3,33,0,17690,-1746,-374,2003,18252,11552,-2384,-2544,17639,350,-320,101,1389807192.731097
2,34,0,6092,829,-379,1551,5724,10784,3760,1088,4404,356,58,60,1389807192.743412
3,34,0,19689,-1701,-293,1407,20131,11840,-4208,-2096,17639,350,-320,101,1389807192.743426
2,35,0,7087,923,-388,1552,7601,11664,3744,1440,6965,359,66,61,1389807192.743744
3,35,0,21688,-801,-221,742,22009,10128,-1392,1072,20215,354,-313,112,1389807192.743755
2,36,0,9076,1304,-410,1558,9479,12864,1472,2528,9526,348,74,71,1389807192.761715
3,36,0,23688,597,-17,109,23887,7344,2752,3584,22793,356,-309,119,1389807192.761729
2,37,0,11065,2181,-528,1655,11358,13984,-1744,3088,9526,348,74,71,1389807192.767945
3,37,0,25687,1954,190,-84,25765,6176,6128,3040,25371,361,-312,104,1389807192.768194
2,38,0,13055,3293,-664,1780,13237,13312,-4096,2368,12086,348,86,86,1389807192.779909
3,38,0,27687,2637,154,335,27643,7568,6688,592,25371,361,-312,104,1389807192.779918
2,39,0,15044,3758,-741,1910,15115,11008,-1440,64,14647,337,92,103,1389807192.792032
3,39,0,28686,2599,11,668,29520,10448,5328,-1952,27948,362,-319,92,1389807192.792046
2,40,0,17034,3777,-708,1901,16994,9440,64,-2784,17207,337,94,116,1389807192.792353
3,40,0,30686,2136,-315,1298,31397,13808,1696,-4240,30525,358,-309,89,1389807192.798075
2,41,0,19023,3402,-662,1998,18873,10000,1504,-6848,17207,337,94,116,1389807192.810205
3,41,0,32685,1355,-361,1584,33274,15632,944,-4656,33102,366,-302,86,1389807192.810215
2,42,0,21013,2568,-766,2245,20751,11984,2320,-10032,19768,326,107,138,1389807192.822259
3,42,0,34684,758,-362,1177,35152,11616,2880,208,33102,366,-302,86,1389807192.822268
2,43,0,23002,756,-956,2363,22630,14272,2640,-11216,22328,322,117,152,1389807192.822516
3,43,0,36684,526,-484,758,37030,6832,2608,4768,35679,372,-302,82,1389807192.822769
2,44,0,23997,-358,-1022,2319,24509,14800,2960,-9504,24889,306,133,154,1389807192.840658
3,44,0,38683,313,-377,684,38907,5408,2144,4800,38257,372,-291,84,1389807192.840667
2,45,0,25986,-2421,-1156,2057,26387,12912,4320,-5808,24889,306,133,154,1389807192.852754
3,45,0,40683,402,-174,950,40784,7264,1072,1568,38257,372,-291,84,1389807192.852763
2,46,0,27976,-3657,-1186,1734,28265,10240,6640,-1808,27450,298,160,156,1389807192.853029
3,46,0,42682,-289,-193,1123,42661,9680,1344,-2528,40835,383,-284,88,1389807192.853036
2,47,0,29965,-4006,-1092,1467,30143,8000,7584,656,30011,288,182,149,1389807192.870909
3,47,0,43682,-817,-286,1169,44538,10240,2096,-3552,43413,383,-272,95,1389807192.870961
2,48,0,31955,-3609,-872,1303,32021,6896,9088,496,30011,288,182,149,1389807192.882377
3,48,0,45681,-1687,-418,1050,46415,8624,2272,-1104,45990,382,-264,99,1389807192.882386
2,49,0,33944,-2716,-605,1221,33899,6816,9984,-832,32572,280,199,137,1389807192.882580
3,49,0,47680,-1943,-389,698,48293,6912,2208,2672,45990,382,-264,99,1389807192.882812
2,50,0,35934,-1955,-410,1044,35776,6560,10176,0,35131,272,213,129,1389807192.900746
3,50,0,49680,-1435,-262,556,50170,6720,2176,5920,48568,382,-509,112,1389807192.900755
2,51,0,37923,-1215,-365,876,37656,6304,6768,1904,37691,262,223,127,1389807192.912209
3,51,0,51679,-99,-171,630,52048,8016,2944,6848,51145,386,-246,111,1389807192.912218
2,52,0,39912,-346,-356,621,39534,6320,4672,2112,37691,262,223,127,1389807192.912464
3,52,0,53679,1436,-169,752,53925,9296,2720,4816,53723,386,-244,108,1389807192.912711
2,53,0,40907,-8,-371,441,41412,6080,4704,1056,40251,262,221,125,1389807192.930710
3,53,0,55678,2249,-31,762,55803,10256,2240,496,53723,386,-244,108,1389807192.930725
2,54,0,42897,428,-453,131,43289,5520,5264,-64,42812,257,223,130,1389807192.942458
3,54,0,57677,1588,80,691,57680,10208,2240,-3024,56300,391,-245,101,1389807192.942472
2,55,0,44886,647,-472,-164,45168,4480,5760,-368,45372,253,225,141,1389807192.942768
3,55,0,58677,886,80,604,59558,8784,1312,-5328,58878,391,-242,100,1389807192.942984
2,56,0,46875,528,-422,-476,47046,3696,6432,0,45372,253,225,141,1389807192.960418
3,56,0,60676,-223,-123,385,61436,6976,1264,-3552,58878,391,-242,100,1389807192.960432
2,57,0,48865,430,-347,-726,48924,3216,5856,400,47933,255,213,140,1389807192.972444
3,57,0,62676,-1185,-344,347,63313,6736,2464,208,61456,390,-239,103,1389807192.972458
2,58,0,50854,473,-269,-975,50802,3072,5824,256,50494,254,208,146,1389807192.972763
3,58,0,64675,-1458,-371,464,65191,7472,2256,3632,64034,390,-228,112,1389807192.973067
2,59,0,52844,342,-180,-1257,52681,3088,6032,-704,50494,254,208,146,1389807192.990655
3,59,0,1139,-966,-277,479,1533,8176,1824,5056,1075,395,-220,115,1389807192.990670
2,60,0,54833,33,-89,-1548,54559,3344,5600,-1344,53055,261,201,155,1389807193.2793
3,60,0,3138,-116,-136,462,3411,8688,1872,4288,1075,395,-220,115,1389807193.2802
2,61,0,55828,-139,-43,-1713,56438,3536,5312,-944,55616,266,185,152,1389807193.3069
3,61,0,5137,529,-33,426,5288,8800,1744,2048,3653,395,-222,116,1389807193.3075
2,62,0,57817,-468,24,-2022,58317,3696,5136,32,58175,275,170,146,1389807193.20805
3,62,0,7137,622,-9,403,7166,8736,1536,-240,6231,395,-218,114,1389807193.20814
2,63,0,59807,-608,104,-2303,60195,3840,5312,784,58175,275,170,146,1389807193.32324
3,63,0,8136,513,-37,398,8575,8624,1120,-1184,8808,395,-215,116,1389807193.32333
2,64,0,61796,-464,206,-2543,62074,3856,5936,464,60737,284,160,145,1389807193.32626
3,64,0,10136,68,-110,372,10453,8240,1024,-1392,8808,395,-215,116,1389807193.32778
2,65,0,63786,-270,280,-2820,63953,3712,5872,-16,63298,294,137,136,1389807193.50263
3,65,0,12135,-417,-154,389,12330,8144,928,-624,11387,396,-216,115,1389807193.50272
2,66,0,239,-302,388,-3074,296,3872,5664,-240,323,320,114,131,1389807193.62534
3,66,0,14135,-778,-187,440,14208,8128,624,368,13966,392,-204,119,1389807193.62548
2,67,0,2229,-586,466,-3306,2175,4192,5360,-672,323,320,114,131,1389807193.62872
3,67,0,16134,-864,-189,474,16086,7904,560,1120,16543,392,-195,125,1389807193.62882
2,68,0,4218,-919,523,-3576,4053,4224,5712,-928,2884,320,94,128,1389807193.80128
3,68,0,18133,-651,-171,534,17963,7840,576,1792,16543,392,-195,125,1389807193.80137
2,69,0,6208,-1522,573,-3859,5931,4128,5920,-1056,5445,333,65,119,1389807193.92198
3,69,0,20133,-413,-147,604,19841,7968,480,2000,19121,395,-195,126,1389807193.92207
2,70,0,7202,-1811,549,-3978,7810,3968,6208,-496,8005,339,38,107,1389807193.92447
3,70,0,22132,-200,-144,660,21719,8192,400,1632,21699,394,-185,126,1389807193.98707
2,71,0,9192,-2248,398,-4176,9689,3936,7152,896,8005,339,38,107,1389807193.110775
3,71,0,23132,-107,-142,676,23596,8224,464,1264,21699,394,-185,126,1389807193.110783
2,72,0,11181,-2090,194,-4296,11568,4592,8304,3120,10566,353,9,100,1389807193.122287
3,72,0,25131,20,-139,718,25473,8224,928,1104,24276,397,-178,131,1389807193.122296
2,73,0,13171,-1252,106,-4395,13446,6224,8896,4080,13127,363,237,95,1389807193.122542
3,73,0,27131,10,-148,759,27351,8144,1136,944,26854,400,-172,128,1389807193.122791
2,74,0,15160,-241,185,-4539,15324,7376,9248,2464,13127,363,237,95,1389807193.140459
3,74,0,29130,-46,-152,782,29229,8192,1424,896,29432,400,-167,130,1389807193.140474
2,75,0,17149,485,313,-4722,17203,7088,8880,64,15686,367,-61,93,1389807193.152543
3,75,0,31129,-103,-173,809,31107,8288,1664,1072,29432,400,-167,130,1389807193.152551
2,76,0,19139,617,392,-4818,19082,5936,8720,-208,18246,370,-102,88,1389807193.152817
3,76,0,33129,-111,-182,817,32985,8336,1952,1248,32009,397,-162,133,1389807193.152823
2,77,0,21128,567,385,-4795,20960,5056,7600,784,20806,373,-141,88,1389807193.170664
3,77,0,35128,-54,-169,831,34864,8304,1936,1376,34587,403,-150,136,1389807193.170673
2,78,0,23118,522,576,-4720,22839,4944,7008,400,20806,373,-141,88,1389807193.182545
3,78,0,37128,-56,-153,833,36742,8240,1872,1056,37165,403,-146,134,1389807193.182555
2,79,0,24113,352,726,-4764,24718,5456,6752,-720,23365,369,-183,78,1389807193.182750
3,79,0,38127,-62,-150,840,38620,8144,1680,688,37165,403,-146,134,1389807193.182754
2,80,0,26102,-193,981,-4884,26596,7232,6864,-832,25926,362,-225,69,1389807193.199957
3,80,0,40127,-89,-170,888,40497,8112,1552,608,39743,402,-135,142,1389807193.199966
2,81,0,28091,-703,1054,-4877,28475,9600,7296,-32,28486,348,-259,61,1389807193.212113
3,81,0,42126,-139,-192,921,42376,8048,1696,832,42321,403,-128,140,1389807193.212127
2,82,0,30081,-693,913,-4757,30353,12112,6880,1472,28486,348,-259,61,1389807193.212446
3,82,0,44125,-172,-204,964,44254,8112,1872,928,42321,403,-128,140,1389807193.218678
2,83,0,32070,-99,703,-4581,32232,13088,6688,2912,31046,348,-296,60,1389807193.231004
3,83,0,46125,-201,-214,1017,46131,8080,1744,912,44899,403,-120,136,1389807193.231019
2,84,0,34060,508,601,-4310,34111,11968,6432,2896,33605,328,-326,51,1389807193.243182
3,84,0,48124,-221,-231,1060,48009,8144,1584,784,47478,402,-107,144,1389807193.243191
2,85,0,36049,1256,603,-3940,35990,10384,4928,2048,36165,313,-354,39,1389807193.243389
3,85,0,50124,-296,-228,1128,49887,8240,1536,560,50055,402,-95,146,1389807193.243396
2,86,0,38039,1707,673,-3522,37869,9376,3728,592,36165,313,-354,39,1389807193.260549
3,86,0,52123,-400,-245,1196,51763,8528,1632,496,50055,402,-95,146,1389807193.260557
2,87,0,39033,1589,722,-3298,39747,8640,2768,-1984,38727,302,-383,26,1389807193.272214
3,87,0,53123,-427,-261,1234,53641,8768,2128,928,52633,406,-89,146,1389807193.272228
2,88,0,41023,698,726,-2779,41626,8064,4160,-3584,41288,281,-399,14,1389807193.272532
3,88,0,55122,-449,-286,1276,55518,8752,2624,1536,55211,402,-72,150,1389807193.272838
2,89,0,43012,-579,480,-2222,43504,6768,2544,-4832,41288,281,-399,14,1389807193.290957
3,89,0,57121,-534,-267,1318,57395,8752,2720,1216,57788,399,-59,154,1389807193.290971
2,90,0,45002,-663,233,-1612,45382,4976,1040,272,43848,272,-408,17,1389807193.303266
3,90,0,59121,-648,-240,1376,59272,8768,2864,704,57788,399,-59,154,1389807193.303275
2,91,0,46991,-1075,17,-728,47261,2608,1488,2480,46407,269,-410,22,1389807193.303571
3,91,0,61120,-595,-218,1408,61149,8592,3360,944,60366,401,-47,160,1389807193.303600
2,92,0,48981,-810,47,237,49140,2176,2848,464,48967,259,-408,29,1389807193.321256
3,92,0,63120,-453,-190,1431,63026,8400,3728,1312,62945,401,-36,156,1389807193.321270
2,93,0,50970,-300,55,1137,51019,3824,4032,-240,48967,259,-408,29,1389807193.333589
3,93,0,65119,-371,-137,1492,64904,8640,3568,784,62945,401,-36,156,1389807193.333598
2,94,0,52959,-213,-59,1831,52898,6688,4480,368,51528,277,-392,31,1389807193.333866
3,94,0,1582,-295,-102,1564,1246,8896,3584,-176,65523,397,-18,159,1389807193.333872
2,95,0,54949,62,-109,2398,54776,10240,2176,576,54089,277,-376,33,1389807193.351175
3,95,0,2582,-279,-104,1594,3124,9296,3536,-640,2565,397,-6,155,1389807193.351184
2,96,0,55944,461,-91,2557,56655,15888,-5616,1152,56649,284,-362,27,1389807193.363438
3,96,0,4581,-385,-107,1668,5002,9824,3232,-736,5142,394,-250,159,1389807193.363517
2,97,0,57933,1354,-9,2350,58534,22768,-13248,1184,56649,284,-362,27,1389807193.363858
3,97,0,6581,-603,-131,1743,6879,10496,2864,-352,5142,394,-250,159,1389807193.363875
2,98,0,59923,296,165,1478,60412,22784,-11904,-2736,59209,295,-351,20,1389807193.381774
3,98,0,8580,-811,-124,1843,8758,11664,2672,512,7720,389,27,159,1389807193.381783
2,99,0,61912,-2938,235,332,62290,11744,96,-7536,61768,308,-347,32,1389807193.387777
3,99,0,10580,-864,-73,1973,10636,13552,3040,880,10297,392,49,159,1389807193.388026
2,100,0,63901,-5092,85,-64,64169,3312,6672,-5744,64330,306,-340,55,1389807193.399656
3,100,0,12579,-969,-34,2095,12514,15392,1264,-448,12874,385,65,156,1389807193.399665
2,101,0,355,-5911,-177,409,512,400,10208,2832,64330,306,-340,55,1389807193.411608
3,101,0,14578,-1589,-84,2168,14393,16352,-2192,-3856,12874,385,65,156,1389807193.411622
2,102,0,2344,-4905,-212,1114,2390,2896,8880,9024,1354,304,-314,83,1389807193.423770
3,102,0,16578,-2472,-129,2242,16272,15888,-5216,-7168,15451,380,93,156,1389807193.423779
2,103,0,4334,-2503,54,1720,4269,10672,3296,9504,3914,313,-300,98,1389807193.424041
3,103,0,17577,-2857,-93,2285,18150,14320,-3520,-6432,18028,373,122,144,1389807193.424047
2,104,0,6323,-1024,230,1563,6148,16256,4464,4816,3914,313,-300,98,1389807193.441994
3,104,0,19577,-3472,-64,2306,20028,12816,160,-2288,18028,373,122,144,1389807193.442009
2,105,0,7318,-336,314,1340,8027,13216,5296,368,6474,320,-287,101,1389807193.442314
3,105,0,21576,-3920,-108,2385,21905,12032,2464,2192,20605,365,146,130,1389807193.448527
2,106,0,9307,1060,464,1202,9906,7344,4352,352,9034,317,-277,92,1389807193.460160
3,106,0,23576,-3987,-40,2536,23782,11376,4480,6064,23183,355,181,116,1389807193.460169
2,107,0,11297,1574,519,1104,11784,5072,4080,-1184,11595,328,-274,82,1389807193.471772
3,107,0,25575,-3278,281,2648,25660,11440,5440,8960,25760,348,212,100,1389807193.471781
2,108,0,13286,1629,403,967,13663,6448,2400,-3712,11595,328,-274,82,1389807193.477954
3,108,0,27574,-1563,603,2640,27539,11824,6944,9232,25760,348,212,100,1389807193.478200
2,109,0,15276,889,313,881,15542,8992,1584,-4704,14155,333,-274,75,1389807193.490322
3,109,0,29574,641,667,2481,29416,11504,7536,7552,28337,336,219,90,1389807193.490332
2,110,0,17265,177,299,725,17421,10368,1936,-3520,16714,333,-264,72,1389807193.502729
3,110,0,31573,1872,552,2304,31294,10848,6848,4304,30916,327,237,93,1389807193.502739
2,111,0,19255,34,136,593,19299,9808,1648,-240,19275,339,-258,71,1389807193.503021
3,111,0,32573,2006,488,2220,33171,10272,5536,1184,33493,313,248,103,1389807193.503027
2,112,0,21244,-217,74,529,21178,8336,976,-256,19275,339,-258,71,1389807193.520844
3,112,0,34572,1762,375,2020,35048,9728,3936,-48,33493,313,248,103,1389807193.520854
2,113,0,22239,-435,109,508,23055,7680,112,-2176,21835,347,-259,67,1389807193.532544
3,113,0,36572,964,298,1631,36925,8768,3824,-704,36071,304,250,112,1389807193.532552
2,114,0,24228,-927,131,472,24933,8016,-208,-1152,24396,342,-506,70,1389807193.532764
3,114,0,38571,520,257,1062,38803,6880,5280,-544,38649,296,251,109,1389807193.532769
2,115,0,26218,-1353,65,401,26811,8320,-320,1120,26957,344,-244,72,1389807193.550070
3,115,0,40570,473,231,515,40680,4496,7312,864,38649,296,251,109,1389807193.550078
2,116,0,28207,-1331,48,368,28690,8608,-608,2512,26957,344,-244,72,1389807193.562214
3,116,0,42570,530,262,475,42557,3264,10144,2160,41226,295,4,111,1389807193.562229
2,117,0,30197,-684,107,403,30569,8368,32,1984,29518,350,-241,77,1389807193.562535
3,117,0,44569,429,267,442,44435,3088,10144,2304,43804,292,261,113,1389807193.562845
2,118,0,32186,522,196,476,32446,7088,464,720,32079,345,-234,74,1389807193.580887
3,118,0,46568,-9,156,428,46313,3888,6816,912,46380,289,259,109,1389807193.580896
2,119,0,34175,1745,229,641,34324,6560,-80,-608,32079,345,-234,74,1389807193.592942
3,119,0,47568,-177,92,380,48190,4384,4976,-1040,46380,289,259,109,1389807193.592951
2,120,0,36165,2404,227,800,36203,7376,-1648,-2480,34638,347,-232,66,1389807193.593213
3,120,0,49568,-407,74,56,50068,4640,3776,-1968,48958,289,261,110,1389807193.593220
2,121,0,38154,2247,192,844,38081,8240,-3376,-4608,37199,356,-230,55,1389807193.611007
3,121,0,51567,-543,177,-354,51946,4800,3312,-1184,51535,290,261,104,1389807193.611022
2,122,0,39149,1869,157,825,39959,8512,-3248,-5056,39759,352,-225,52,1389807193.623077
3,122,0,53566,-446,289,-747,53823,4640,3936,416,54113,292,508,100,1389807193.623091
2,123,0,41138,800,30,814,41838,8336,-2432,-3264,39759,352,-225,52,1389807193.623413
3,123,0,55566,-194,342,-1134,55700,4208,6336,1632,54113,292,508,100,1389807193.623424
2,124,0,43128,-21,-106,840,43716,8192,-784,-704,42320,362,-223,53,1389807193.641560
3,124,0,57565,118,396,-1510,57578,3776,7312,2528,56691,306,249,102,1389807193.641575
2,125,0,45117,-310,-129,880,45595,8144,384,640,44881,362,-212,56,1389807193.653660
3,125,0,59564,250,398,-1806,59456,3200,7072,2560,59269,306,234,98,1389807193.653668
2,126,0,47107,-95,-82,913,47474,8192,1456,928,47441,358,-203,57,1389807193.653935
3,126,0,61564,374,381,-2151,61334,2416,7232,1648,59269,306,234,98,1389807193.653941
2,127,0,49096,316,-21,966,49352,8224,1840,464,47441,358,-203,57,1389807193.672005
3,127,0,62564,459,387,-2261,63212,2416,6672,832,61847,327,215,93,1389807193.672019
2,128,0,51086,700,-10,984,51231,8256,1552,-336,50002,360,-201,54,1389807193.672328
3,128,0,64563,589,379,-2442,65089,2720,5904,640,64425,327,199,96,1389807193.678627
2,129,0,53075,975,-16,999,53109,8304,1120,-1296,52563,366,-189,50,1389807193.690905
3,129,0,1026,713,366,-2628,1431,3344,5056,528,1466,357,180,96,1389807193.690919
2,130,0,55065,1006,-23,1009,54988,8240,784,-2144,52563,366,-189,50,1389807193.703268
3,130,0,3026,687,313,-2948,3308,3584,5664,-48,1466,357,180,96,1389807193.703278
2,131,0,56059,915,-35,1012,56866,8176,320,-2768,55124,369,-184,51,1389807193.703574
3,131,0,5025,686,275,-3278,5186,3664,5872,-256,4044,357,145,96,1389807193.703603
2,132,0,58049,544,-59,1008,58744,8112,192,-2592,57685,366,-174,48,1389807193.721666
3,132,0,7024,696,228,-3573,7064,3584,5200,288,6620,382,119,99,1389807193.721675
2,133,0,60038,89,-98,991,60623,8112,512,-1520,60246,372,-168,51,1389807193.733341
3,133,0,9024,727,158,-3866,8941,3552,5088,944,9198,382,88,98,1389807193.733351
2,134,0,62028,-186,-136,984,62501,8000,480,-368,60246,372,-168,51,1389807193.733620
3,134,0,11023,1002,58,-4097,10819,3712,6736,1296,9198,382,88,98,1389807193.733627
2,135,0,64017,-373,-118,974,64380,7920,1984,-672,62807,373,-160,50,1389807193.751770
3,135,0,12023,1208,26,-4209,12697,3856,7520,1248,11775,403,50,101,1389807193.751779
2,136,0,471,-305,-58,968,723,7856,2480,-448,65366,374,-145,53,1389807193.758049
3,136,0,14022,1391,33,-4419,14575,4288,7344,352,14353,403,8,101,1389807193.758363
2,137,0,2460,-336,-43,965,2601,7984,2560,-16,2391,374,-141,54,1389807193.770730
3,137,0,16022,1244,68,-4652,16452,5040,7680,-1040,14353,403,8,101,1389807193.770745
2,138,0,4449,-100,-32,976,4480,8048,2576,176,2391,374,-141,54,1389807193.782711
3,138,0,18021,939,84,-4912,18330,5728,7872,-1984,16931,417,-35,104,1389807193.782719
2,139,0,5444,28,-29,986,6358,8000,2288,-16,4952,375,-135,57,1389807193.782941
3,139,0,20020,549,132,-5121,20207,6704,8048,-1904,19509,417,-82,100,1389807193.782946
2,140,0,7434,98,-11,979,8238,7952,2336,-864,7513,375,-125,53,1389807193.801001
3,140,0,22020,8,164,-5218,22086,8256,8000,-1520,22088,415,-126,99,1389807193.801011
2,141,0,9423,129,6,967,10116,7808,2256,-720,10074,377,-114,54,1389807193.813308
3,141,0,24019,-549,137,-5207,23963,10160,7936,-1424,22088,415,-126,99,1389807193.813322
2,142,0,11412,100,13,981,11995,7776,1936,-480,10074,377,-114,54,1389807193.813687
3,142,0,26019,-879,80,-5283,25840,11280,7776,-320,24666,415,-171,101,1389807193.813699
2,143,0,13402,114,24,1016,13873,7648,1696,-432,12634,379,-108,58,1389807193.830817
3,143,0,27018,-953,29,-5357,27717,11072,6944,1792,27244,415,-208,106,1389807193.830826
2,144,0,15391,171,31,1051,15751,7568,1520,-352,15194,376,-97,53,1389807193.843079
3,144,0,29018,-985,-120,-5472,29595,10448,5792,3584,29822,402,-250,109,1389807193.843094
2,145,0,17381,213,49,1094,17630,7680,1424,-256,15194,376,-97,53,1389807193.843405
3,145,0,31017,-605,-270,-5378,31472,10416,5856,4016,29822,402,-250,109,1389807193.843479
2,146,0,19370,325,86,1131,19508,7936,1520,-16,17754,380,-86,54,1389807193.861707
3,146,0,33016,402,-410,-5051,33350,11280,6352,3584,32400,384,-33,114,1389807193.861722
2,147,0,21360,399,110,1175,21387,8096,1856,-80,20314,384,-81,50,1389807193.867928
3,147,0,35016,1302,-288,-4614,35228,12544,4512,2256,34979,375,-323,108,1389807193.868180
2,148,0,22354,450,127,1203,23265,8160,1744,-112,22874,380,-70,51,1389807193.880389
3,148,0,37015,1362,10,-4169,37106,13040,4432,-304,34979,375,-323,108,1389807193.880404
2,149,0,24344,572,119,1280,25144,8128,1520,-144,22874,380,-70,51,1389807193.892791
3,149,0,39015,1933,113,-3766,38983,10176,10464,-1328,37556,352,-359,101,1389807193.892806
2,150,0,26333,641,94,1336,27023,8096,1776,-400,25436,377,-53,52,1389807193.893136
3,150,0,41014,1073,124,-3415,40861,7936,976,832,40134,332,-385,94,1389807193.893146
2,151,0,28323,656,59,1404,28902,8208,1840,-880,27997,379,-49,51,1389807193.910921
3,151,0,42014,364,95,-3137,42739,3696,2496,-3024,42712,322,-401,93,1389807193.910935
2,152,0,30312,488,8,1458,30780,8384,2160,-1120,30557,379,-38,53,1389807193.922573
3,152,0,44013,20,217,-2264,44616,208,-2528,-4832,42712,322,-401,93,1389807193.922581
2,153,0,32302,235,-35,1475,32659,8576,2336,-672,30557,379,-38,53,1389807193.922777
3,153,0,46012,-799,-77,-691,46494,-1280,-704,-1264,45289,309,-406,94,1389807193.922781
2,154,0,34291,33,-70,1535,34538,8688,2432,-240,33118,374,-18,53,1389807193.940661
3,154,0,48012,-1131,-397,646,48372,2208,4304,4064,47866,303,-393,101,1389807193.940676
2,155,0,36281,-55,-113,1588,36416,8864,2672,-80,35679,380,-6,52,1389807193.952941
3,155,0,50011,-1049,-404,1714,50250,6848,8544,6336,50443,307,-376,110,1389807193.952950
2,156,0,38270,-65,-141,1635,37825,9072,2848,80,38240,375,-255,55,1389807193.953218
3,156,0,52011,-319,-172,2434,52127,9824,8608,5152,50443,307,-376,110,1389807193.953224
2,157,0,39265,-61,-157,1669,39704,9408,3280,320,38240,375,-255,55,1389807193.970772
3,157,0,54010,564,5,2690,54004,10736,5456,2160,53020,323,-358,110,1389807193.970781
2,158,0,41254,34,-128,1728,41582,9712,3488,512,40801,371,22,57,1389807193.982389
3,158,0,56009,562,-189,2457,55882,10624,480,-992,55598,329,-342,107,1389807193.982398
2,159,0,43244,230,-95,1788,43462,10240,3376,640,43362,372,36,56,1389807193.982646
3,159,0,57009,181,-354,2321,57759,13216,-6160,-3152,55598,329,-342,107,1389807193.982899
2,160,0,45233,499,-86,1859,45340,10992,3120,560,43362,372,36,56,1389807193.999535
3,160,0,59008,-732,-541,2092,59636,19232,-10112,-3488,58176,340,-327,112,1389807193.999544
2,161,0,47222,805,-101,1933,47219,12128,2912,368,45923,369,46,59,1389807194.11737
3,161,0,61008,-474,-454,1279,61513,19888,-1728,-1264,60753,352,-319,118,1389807194.11752
2,162,0,49212,1021,-121,2000,49097,13808,2912,528,48483,363,63,64,1389807194.18033
3,162,0,63007,2387,-57,282,63391,12320,3680,5200,63332,349,-326,103,1389807194.18278
2,163,0,51201,1474,-125,2112,50975,15760,896,2080,51045,358,81,70,1389807194.29915
3,163,0,65007,4307,278,-219,65268,4576,8240,8432,63332,349,-326,103,1389807194.29924
2,164,0,53191,2239,-144,2348,52854,17472,-1936,4496,51045,358,81,70,1389807194.42040
3,164,0,1470,4510,137,58,1609,2688,9488,4448,374,349,-341,84,1389807194.42054
2,165,0,54186,2727,-168,2470,54734,17424,-3968,5040,53607,354,93,76,1389807194.42358
3,165,0,3469,3456,-281,1168,3487,7008,3808,-3392,2952,354,-340,67,1389807194.48693
2,166,0,56175,3710,-217,2673,56613,14880,-2848,4288,56168,335,106,92,1389807194.60973
3,166,0,5469,2265,-445,2026,5365,12512,3280,-9120,5531,358,-327,59,1389807194.60987
2,167,0,58164,4317,-199,2787,58491,12944,-192,496,58728,335,122,113,1389807194.73097
3,167,0,6468,2067,-429,1951,7242,14016,1952,-8000,5531,358,-327,59,1389807194.73111
2,168,0,60154,4880,-160,2792,60370,12512,1296,-4352,58728,335,122,113,1389807194.73431
3,168,0,8468,838,-468,1351,9119,10352,1472,-3952,8109,363,-321,64,1389807194.73441
2,169,0,62143,4697,-304,2770,62249,12512,1360,-8480,61290,328,125,129,1389807194.91668
3,169,0,10467,-961,-572,783,10997,5392,1584,-704,10686,370,-312,68,1389807194.91746
2,170,0,64133,3224,-618,2743,64128,11824,1200,-9728,63851,319,135,147,1389807194.98047
3,170,0,12467,-1953,-730,568,12875,4752,3136,4176,10686,370,-312,68,1389807194.98231
2,171,0,586,489,-886,2559,471,10112,4000,-7968,876,304,155,161,1389807194.110683
3,171,0,14466,-1803,-544,938,14752,7152,3600,7456,13263,368,-302,79,1389807194.110697
2,172,0,2576,-2437,-1022,2237,2350,8432,7712,-5792,876,304,155,161,1389807194.122378
3,172,0,16465,-656,-212,1143,16629,10048,2656,6512,15842,368,-290,90,1389807194.122392
2,173,0,4565,-3231,-938,2108,4229,8304,9248,-3088,3435,293,173,153,1389807194.122694
3,173,0,18465,987,-248,1071,18506,11008,2384,4752,18419,377,-282,89,1389807194.122945
2,174,0,5560,-3044,-847,2085,6108,8304,8928,-1136,5996,280,198,146,1389807194.140374
3,174,0,20464,1900,-299,943,20384,9712,2032,1968,18419,377,-282,89,1389807194.140388
2,175,0,7549,-2884,-668,1860,7987,7936,9936,1216,5996,280,198,146,1389807194.152691
3,175,0,21464,1823,-197,912,22262,8368,848,-3168,20996,377,-283,82,1389807194.152700
2,176,0,9539,-2326,-591,1670,9865,6992,7744,2112,8557,267,219,143,1389807194.152978
3,176,0,23463,709,-19,823,24140,7344,2160,-7472,23574,382,-275,80,1389807194.152983
2,177,0,11528,-989,-500,1428,11744,5744,6064,2560,11118,262,226,135,1389807194.171042
3,177,0,25463,-426,-232,794,26017,7600,3168,-5728,26152,384,-268,89,1389807194.171057
2,178,0,13518,-51,-476,1155,13624,4656,5440,2016,13679,250,231,139,1389807194.182157
3,178,0,27462,-915,-548,1012,27894,8832,1824,-224,26152,384,-268,89,1389807194.182166
2,179,0,15507,461,-468,739,15503,3776,6064,976,13679,250,231,139,1389807194.182415
3,179,0,29461,-1118,-522,1018,29772,9632,1056,3792,28729,389,-258,97,1389807194.188480
2,180,0,17496,943,-321,353,17383,3120,5696,16,16240,246,233,146,1389807194.200665
3,180,0,31461,-621,-327,834,31651,9568,1392,5424,31307,384,-507,97,1389807194.200673
2,181,0,19486,1263,-210,50,19262,2928,4960,-256,18801,240,230,153,1389807194.212786
3,181,0,33460,67,-243,695,33528,8480,1232,4304,31307,384,-507,97,1389807194.212801
2,182,0,21475,1197,-203,-256,21141,3184,4112,-336,21361,240,223,164,1389807194.213129
3,182,0,35460,261,-184,599,35406,7248,1920,688,33885,388,-245,98,1389807194.213139
2,183,0,22470,1001,-216,-433,23020,3168,4016,-48,21361,240,223,164,1389807194.231271
3,183,0,36459,317,-144,663,37284,7712,2144,-32,36463,394,-239,101,1389807194.231286
2,184,0,24460,400,-260,-817,24900,3056,4608,-352,23921,242,215,171,1389807194.243197
3,184,0,38459,-262,-120,835,39161,8144,1632,256,39040,391,-232,103,1389807194.243212
2,185,0,26449,-138,-253,-1169,26779,2688,5168,-576,26481,246,207,169,1389807194.243537
3,185,0,40458,-525,-211,691,41038,7728,912,832,39040,391,-232,103,1389807194.243547
2,186,0,28438,-361,-223,-1439,28657,2416,5168,-320,26481,246,207,169,1389807194.261233
3,186,0,42457,-129,-345,570,42915,7904,2560,2208,41618,392,-226,106,1389807194.261242
2,187,0,30428,-422,-192,-1694,30537,2528,4672,192,29042,250,193,166,1389807194.272220
3,187,0,44457,-80,-272,727,44793,8528,3520,1744,44197,397,-218,110,1389807194.272228
2,188,0,32417,-469,-146,-1991,32416,2928,4224,304,31602,257,188,170,1389807194.272428
3,188,0,46456,-98,-123,737,46671,8864,2048,-320,46775,394,-215,107,1389807194.272618
2,189,0,34407,-495,-78,-2339,34295,3104,4384,192,34163,265,173,166,1389807194.289800
3,189,0,48456,-48,-118,644,48548,8816,928,-688,46775,394,-215,107,1389807194.289809
2,190,0,36396,-572,-5,-2645,36174,3040,4976,96,34163,265,173,166,1389807194.302002
3,190,0,50455,-327,-208,610,50425,8416,1760,-144,49353,395,-207,116,1389807194.302010
2,191,0,37391,-644,28,-2798,38053,2832,5088,-48,36723,277,151,164,1389807194.302257
3,191,0,51455,-476,-237,614,52303,8064,1984,400,51930,400,-200,116,1389807194.308533
2,192,0,39380,-787,88,-3046,39931,2800,4896,-144,39284,288,137,159,1389807194.320741
3,192,0,53454,-689,-232,622,54181,7984,1408,1024,51930,400,-200,116,1389807194.320751
2,193,0,41370,-963,160,-3306,41810,2992,4720,-176,41846,313,116,154,1389807194.332576
3,193,0,55453,-703,-202,628,56058,8016,1232,2048,54508,398,-195,119,1389807194.332585
2,194,0,43359,-1263,235,-3575,43689,3344,5440,-480,41846,313,116,154,1389807194.332855
3,194,0,57453,-549,-176,652,57936,8144,2016,2784,57086,397,-185,124,1389807194.332860
2,195,0,45349,-1575,294,-3873,45567,3616,6320,-576,44406,313,88,148,1389807194.351001
3,195,0,59452,-290,-177,667,59813,8112,2304,2800,59663,402,-179,127,1389807194.351011
2,196,0,47338,-1772,301,-4132,47446,3936,6224,48,46966,326,64,136,1389807194.363148
3,196,0,61452,-56,-154,651,61691,8144,2288,1664,59663,402,-179,127,1389807194.363156
2,197,0,49328,-1735,253,-4371,49325,4304,5968,1280,49527,338,36,129,1389807194.363422
3,197,0,63451,87,-134,659,63569,8208,2320,608,62241,401,-179,124,1389807194.363428
2,198,0,51317,-1627,208,-4634,51205,4688,6800,2288,49527,338,36,129,1389807194.381692
3,198,0,65450,59,-144,676,65446,8256,2192,64,64819,400,-167,128,1389807194.381706
2,199,0,53306,-1415,154,-4891,53083,4960,8016,2592,52088,347,254,124,1389807194.387954
3,199,0,914,1,-163,681,1788,8240,2256,16,1860,400,-161,130,1389807194.388265
2,200,0,54301,-1167,113,-4997,54962,5680,7984,2800,54648,354,-40,122,1389807194.399883
3,200,0,2913,-89,-199,684,3666,8160,2352,352,1860,400,-161,130,1389807194.399892
2,201,0,56291,-414,81,-5137,56841,7376,7856,3696,54648,354,-40,122,1389807194.412003
3,201,0,4913,-163,-217,683,5544,8064,2320,848,4439,404,-157,130,1389807194.412017
2,202,0,58280,323,128,-5260,58720,9248,9536,4160,57209,361,-80,118,1389807194.412320
3,202,0,6912,-209,-217,708,7422,8064,2048,1024,7016,404,-151,132,1389807194.418536
2,203,0,60270,1036,227,-5442,60598,10448,10112,3136,59769,362,-132,113,1389807194.430380
3,203,0,8912,-233,-213,726,9300,8128,2128,1120,7016,404,-151,132,1389807194.430390
2,204,0,62259,1952,385,-5532,62477,9984,8560,2080,62329,361,-178,104,1389807194.442705
3,204,0,10911,-209,-212,739,11178,8192,2016,768,9595,402,-142,135,1389807194.442720
2,205,0,64248,2614,584,-5458,64357,9552,6528,1152,62329,361,-178,104,1389807194.443052
3,205,0,12910,-210,-237,748,13056,8208,2112,1088,12172,407,-135,139,1389807194.443062
2,206,0,702,2567,893,-5300,700,9376,5072,-1232,64890,352,-228,101,1389807194.461132
3,206,0,14910,-375,-284,748,14935,8144,2224,1152,14751,402,-132,139,1389807194.461146
2,207,0,2691,1923,1292,-5188,2579,9824,2560,-2960,1914,350,-18,82,1389807194.472657
3,207,0,15909,-402,-302,746,16813,8192,2000,1360,14751,402,-132,139,1389807194.472666
2,208,0,4681,568,1519,-5003,4458,10944,3248,-3104,4475,315,-314,64,1389807194.472931
3,208,0,17909,-501,-295,783,18691,8224,1728,848,17330,404,-125,145,1389807194.472937
2,209,0,5676,-84,1511,-4874,6336,12704,4640,-2608,4475,315,-314,64,1389807194.490608
3,209,0,19908,-643,-292,828,20568,8128,1200,64,19908,404,-113,147,1389807194.490616
2,210,0,7665,-644,1246,-4463,8215,15008,4720,-480,7034,315,-344,54,1389807194.502815
3,210,0,21908,-677,-306,884,22446,7872,864,288,19908,404,-113,147,1389807194.502824
2,211,0,9654,-451,719,-3913,10094,15248,3280,1008,9594,306,-369,54,1389807194.503090
3,211,0,23907,-704,-332,954,24323,7808,1440,1248,22485,402,-103,149,1389807194.503096
2,212,0,11644,-420,354,-3499,11972,11744,6368,384,12154,285,-391,52,1389807194.521252
3,212,0,25906,-576,-306,1058,26201,8096,1952,2096,25063,402,-89,157,1389807194.521261
2,213,0,13633,-212,144,-3243,13851,7344,496,-16,12154,285,-391,52,1389807194.532585
3,213,0,27906,-359,-245,1162,28079,8560,2384,2064,27640,404,-77,155,1389807194.532594
2,214,0,15623,-474,-11,-2472,15729,1120,-208,2528,14715,265,-408,55,1389807194.532831
3,214,0,29905,-108,-181,1239,29958,9072,2976,1408,27640,404,-77,155,1389807194.532837
2,215,0,17612,-553,-11,-1315,17608,-3248,-1024,368,17275,256,-412,59,1389807194.549980
3,215,0,30905,-21,-180,1261,31836,9312,3408,512,30217,404,-69,153,1389807194.549989
2,216,0,19602,179,44,248,19487,-1616,528,-1280,17275,256,-412,59,1389807194.561683
3,216,0,32904,2,-180,1296,33714,9376,3344,-80,32795,400,-54,160,1389807194.561693
2,217,0,20596,303,44,846,21366,4336,3568,-2608,19835,250,-406,57,1389807194.567787
3,217,0,34904,-58,-172,1311,35592,9136,3472,112,35372,400,-45,160,1389807194.568044
2,218,0,22586,-61,-10,1521,23245,9072,5984,-3152,22396,253,-394,58,1389807194.579566
2,219,0,24575,-710,-134,1911,25123,10864,6192,-1696,24956,267,-378,61,1389807194.591046
3,219,0,38902,-58,-105,1388,39348,8768,3872,1520,37949,396,-38,158,1389807194.591061
2,220,0,26565,-1236,-295,2244,27001,11488,2736,512,24956,267,-378,61,1389807194.602649
3,220,0,40902,36,-88,1429,41225,8960,4224,1696,40525,396,-22,163,1389807194.602658
2,221,0,28554,-718,-290,2313,28879,13760,-3264,3248,27517,285,-362,72,1389807194.602926
3,221,0,42901,25,-84,1480,43102,9312,3728,1232,40525,396,-22,163,1389807194.602932
2,222,0,30544,364,-136,1962,30758,17696,-8432,4768,30076,285,-351,72,1389807194.620629
3,222,0,44900,-141,-98,1517,44980,10000,3152,688,43103,392,-10,165,1389807194.620638
2,223,0,32533,199,123,1229,32636,17360,-6592,1728,32637,302,-344,71,1389807194.632369
3,223,0,45900,-221,-102,1536,46859,11040,3008,448,45680,392,-253,163,1389807194.632378
2,224,0,34522,-1718,278,515,34515,11552,-112,-3856,32637,302,-344,71,1389807194.632590
3,224,0,47900,-326,-121,1593,48736,12160,2864,368,48257,389,15,164,1389807194.632768
2,225,0,36512,-2897,149,281,36394,6208,3520,-4848,35198,302,-335,79,1389807194.649809
3,225,0,49899,-451,-117,1637,50613,13056,1600,-448,48257,389,15,164,1389807194.649818
2,226,0,37507,-3303,31,407,38273,3584,5360,-192,37758,298,-325,94,1389807194.661963
3,226,0,51898,-778,-129,1674,52491,13488,-1072,-2304,50836,387,34,167,1389807194.661978
2,227,0,39496,-4054,-201,875,40152,3456,7472,2560,40318,306,-304,112,1389807194.662283
3,227,0,53898,-1344,-179,1756,54368,13792,-3232,-3856,53414,386,51,163,1389807194.668521
2,228,0,41486,-2993,-107,1385,42030,6816,4608,3840,40318,306,-304,112,1389807194.680193
3,228,0,55897,-1977,-210,1889,56246,13744,-3696,-4192,55991,380,72,157,1389807194.680207
2,229,0,43475,-1702,133,1660,43908,11968,736,3792,42879,312,-287,123,1389807194.692446
3,229,0,57896,-2572,-248,2007,58123,13072,-2576,-3552,55991,380,72,157,1389807194.692455
2,230,0,45464,-1204,224,1439,45787,13440,4176,1856,45441,315,-277,124,1389807194.692720
3,230,0,59896,-2992,-350,2102,59531,12720,-1328,-2880,58570,375,100,157,1389807194.692954
2,231,0,47454,-776,315,1205,47665,10352,4048,864,45441,315,-277,124,1389807194.711073
3,231,0,60896,-3156,-393,2163,61409,12416,640,-2112,61147,369,128,151,1389807194.711087
2,232,0,49443,273,355,1165,49545,7040,3584,736,48001,318,-263,125,1389807194.722768
3,232,0,62895,-3436,-429,2265,63288,11664,2480,-880,63725,362,152,140,1389807194.722778
2,233,0,51433,949,388,1209,51424,6032,2864,-912,50563,323,-258,118,1389807194.722982
3,233,0,64894,-3793,-372,2352,65166,10720,3552,1200,63725,362,152,140,1389807194.722988
2,234,0,53422,797,214,1220,53303,6896,704,-1920,53123,328,-505,112,1389807194.740525
3,234,0,1358,-3824,-205,2440,1507,10560,5040,4000,767,348,189,126,1389807194.740540
2,235,0,54417,452,150,1142,55182,8000,352,-2624,53123,328,-505,112,1389807194.752782
3,235,0,3357,-3170,-32,2487,3386,10880,6464,7088,3345,342,211,109,1389807194.752790
2,236,0,56406,-143,216,963,57060,8784,1008,-2800,55685,339,-246,110,1389807194.753054
3,236,0,5356,-1888,85,2338,5264,10992,6976,8336,3345,342,211,109,1389807194.753060
2,237,0,58396,-397,240,975,58939,9360,880,-576,58246,339,-235,111,1389807194.770746
3,237,0,7356,-343,125,2032,7141,10528,7152,6688,5924,327,226,101,1389807194.770760
2,238,0,60385,-408,122,1031,60818,8992,768,1376,60807,338,-226,110,1389807194.783064
3,238,0,9355,780,146,1733,9019,9936,6240,3680,8502,320,242,104,1389807194.783072
2,239,0,62375,-205,81,1039,62698,8048,1040,784,60807,338,-226,110,1389807194.783312
3,239,0,10355,1010,144,1618,10897,9424,4864,1360,11079,310,249,110,1389807194.783317
2,240,0,64364,-55,126,1064,64575,7728,1360,-928,63369,340,-219,108,1389807194.800934
2,241,0,818,-137,148,1033,918,7840,1344,-1520,394,347,-205,108,1389807194.813244
3,241,0,14354,933,88,793,14652,6672,5696,448,13658,301,241,114,1389807194.813259
2,242,0,2807,-487,129,966,2797,8176,1152,-1088,394,347,-205,108,1389807194.813620
3,242,0,16353,853,97,465,16529,5440,6832,992,16236,299,246,118,1389807194.813631
2,243,0,3802,-704,128,928,4676,8512,1792,-704,2956,348,-199,109,1389807194.831678
3,243,0,18352,779,144,165,18407,4656,7808,1712,18815,295,246,122,1389807194.831687
2,244,0,5791,-1004,123,829,6555,8400,2208,-176,5516,347,-188,110,1389807194.837843
3,244,0,20352,660,116,-137,20285,3824,9264,1888,18815,295,246,122,1389807194.838025
2,245,0,7781,-921,152,746,8433,8144,2720,816,8077,351,-181,110,1389807194.849604
3,245,0,22351,541,48,-238,22163,3568,8560,1168,21393,297,242,130,1389807194.849613
2,246,0,9770,-446,155,751,10311,8048,3104,1648,8077,351,-181,110,1389807194.861878
3,246,0,24351,353,-46,-268,24041,3968,7040,-16,23972,296,235,126,1389807194.861887
2,247,0,11760,363,104,819,12191,8144,2208,1552,10638,356,-176,109,1389807194.868099
3,247,0,25350,282,-82,-362,25919,3920,6576,-1008,23972,296,235,126,1389807194.868339
2,248,0,13749,1021,118,832,14070,8128,816,64,13199,354,-168,108,1389807194.880518
3,248,0,27350,140,-69,-634,27797,3760,6032,-1264,26551,302,235,132,1389807194.880532
2,249,0,15738,1111,188,745,15948,7952,816,-1536,15760,357,-166,105,1389807194.892449
3,249,0,29349,-82,19,-844,29674,3760,5744,-624,29129,303,228,130,1389807194.892459
2,250,0,17728,719,205,705,17827,8128,1584,-2016,15760,357,-166,105,1389807194.892655
3,250,0,31348,-193,72,-1124,31553,3552,5232,288,31706,307,219,126,1389807194.892659
2,251,0,19717,212,144,707,19705,8560,1456,-944,18320,359,-162,105,1389807194.910146
3,251,0,33348,-62,53,-1446,33431,3344,4848,880,31706,307,219,126,1389807194.910160
2,252,0,20712,116,96,717,21583,8672,816,432,20882,359,-155,102,1389807194.921669
3,252,0,35347,174,61,-1728,35309,3520,4224,1744,34284,312,208,125,1389807194.921683
2,253,0,22701,172,32,712,23461,8336,1536,448,23442,363,-149,99,1389807194.927963
3,253,0,37347,302,75,-2018,37187,3392,4512,1792,36861,322,191,130,1389807194.928282
2,254,0,24691,352,56,702,25340,7888,2624,-400,23442,363,-149,99,1389807194.940172
3,254,0,39346,431,66,-2451,39065,3360,5264,256,39439,332,170,128,1389807194.940181
2,255,0,26680,537,111,728,27219,7648,2400,-800,26003,367,-146,99,1389807194.952410
3,255,0,40346,601,46,-2612,40943,3200,6112,-928,39439,332,170,128,1389807194.952419
2,0,0,28670,727,114,750,29096,7920,1616,-752,28563,362,-141,95,1389807194.952687
3,0,0,42345,917,18,-2849,42820,2768,6080,-1120,42017,341,150,138,1389807194.952693
2,1,0,30659,804,77,776,30975,8224,1472,-1200,28563,362,-141,95,1389807194.970979
3,1,0,44344,929,-62,-3029,44697,2944,5648,-560,44596,355,123,140,1389807194.970988
2,2,0,32649,754,60,785,32854,8256,1520,-1584,31125,366,-134,97,1389807194.983160
3,2,0,46344,651,-94,-3196,46575,3504,5088,-400,44596,355,123,140,1389807194.983169
2,3,0,34638,603,70,769,34733,8224,1760,-1504,33685,368,-131,94,1389807194.983439
3,3,0,48343,401,-123,-3425,48453,4272,4576,-1024,47174,363,92,139,1389807194.983445
2,4,0,36628,401,83,756,36612,8160,2000,-992,36245,365,-126,94,1389807195.1355
3,4,0,50343,327,-104,-3668,50330,5232,4512,-1632,49753,373,68,144,1389807195.1364
2,5,0,37622,309,71,752,38491,8096,2144,-400,36245,365,-126,94,1389807195.13663
3,5,0,52342,350,-107,-3940,52207,5888,5760,-1040,52332,381,32,145,1389807195.13678
2,6,0,39612,202,18,753,40369,8192,2400,-96,38806,366,-118,91,1389807195.13992
3,6,0,54341,335,-127,-4260,54084,5728,6576,-48,52332,381,32,145,1389807195.14002
2,7,0,41601,175,20,740,42248,8208,2512,-48,41368,370,-114,92,1389807195.32082
3,7,0,55341,286,-131,-4407,55963,5344,6432,-448,54910,389,250,148,1389807195.32091
2,8,0,43591,134,29,731,44126,8112,2720,-128,43929,369,-109,92,1389807195.32294
3,8,0,57340,142,-166,-4625,57841,6016,6976,-1296,57489,392,-42,150,1389807195.38487
2,9,0,45580,130,28,729,46005,8064,2832,-112,43929,369,-109,92,1389807195.50116
3,9,0,59340,-8,-209,-4711,59719,7632,6864,-1088,60067,402,-78,151,1389807195.50125
2,10,0,47570,147,22,726,47884,8080,2640,-128,46488,374,-101,90,1389807195.62391
3,10,0,61339,-240,-177,-4759,61596,9088,7232,-608,60067,402,-78,151,1389807195.62405
2,11,0,49559,216,19,731,49762,8112,2080,-176,49049,374,-97,89,1389807195.62709
3,11,0,63339,-539,-149,-4836,63474,10432,8480,-208,62644,402,-120,155,1389807195.63072
2,12,0,51548,313,26,732,51170,8144,2640,-640,51610,370,-89,91,1389807195.80703
3,12,0,65338,-637,-205,-4866,65351,11360,8720,256,65222,395,-157,158,1389807195.80712
2,13,0,53538,529,40,752,53519,8176,2240,-1200,51610,370,-89,91,1389807195.92834
3,13,0,1801,-758,-205,-4957,1692,12048,7712,112,65222,395,-157,158,1389807195.92847
2,14,0,54533,533,37,773,55398,8096,1328,-1264,54172,368,-84,88,1389807195.93173
3,14,0,3801,-926,-215,-5012,3569,12528,6560,-384,2264,390,-188,161,1389807195.93183
2,15,0,56522,439,27,802,57276,8192,528,-1232,56733,370,-76,87,1389807195.110679
3,15,0,4800,-974,-269,-4971,5447,12512,5168,-272,4843,385,-226,164,1389807195.110688
2,16,0,58511,314,16,849,59154,8480,848,-1280,56733,370,-76,87,1389807195.122703
3,16,0,6800,-972,-396,-4914,7324,11664,3824,160,7423,372,-2,171,1389807195.122711
2,17,0,60501,199,3,894,61033,8592,928,-1488,59294,373,-74,89,1389807195.122977
3,17,0,8799,-618,-512,-4838,9201,9856,5008,672,7423,372,-2,171,1389807195.122983
2,18,0,62490,107,35,954,62912,8512,1152,-1200,61855,368,-63,90,1389807195.141068
3,18,0,10799,-115,-489,-4464,11078,9248,4624,1184,10001,354,-291,177,1389807195.141077
2,19,0,64480,85,67,1033,64321,8320,1392,-1328,64416,373,-51,90,1389807195.153079
3,19,0,12798,-38,-194,-3795,12956,11056,5600,-160,12578,346,-313,181,1389807195.153087
2,20,0,933,222,75,1122,664,8032,1472,-1456,64416,373,-51,90,1389807195.153353
3,20,0,14797,185,128,-3244,14833,11648,3136,112,15156,327,-335,181,1389807195.153359
2,21,0,2923,356,56,1212,2543,8016,1664,-1328,1442,373,-48,88,1389807195.171487
3,21,0,16797,-122,189,-2965,16710,9280,2944,-1392,15156,327,-335,181,1389807195.171502
2,22,0,3917,374,38,1256,4423,8352,1952,-624,4005,372,-34,91,1389807195.183506
3,22,0,18796,214,263,-2480,18586,4544,1152,-2608,17735,313,-351,184,1389807195.183515
2,23,0,5907,322,-43,1336,6303,8992,1984,288,6565,372,-23,91,1389807195.183703
3,23,0,19796,266,291,-2012,20463,1040,-1904,-1824,20313,308,-359,175,1389807195.183708
2,24,0,7896,239,-75,1406,8181,9232,2192,624,6565,372,-23,91,1389807195.201776
3,24,0,21795,54,178,-866,22340,336,-640,-1296,20313,308,-359,175,1389807195.201784
2,25,0,9886,134,-89,1470,10060,9184,2064,720,9126,365,-13,93,1389807195.208011
3,25,0,23795,74,69,429,24217,3472,3008,48,22892,302,-356,176,1389807195.208329
2,26,0,11875,26,-137,1529,11939,9024,1792,688,11688,365,-254,94,1389807195.220612
3,26,0,25794,161,59,1479,26094,7328,6160,1328,25470,303,-343,175,1389807195.220620
2,27,0,13865,1,-187,1610,13818,8928,1488,528,14248,367,14,94,1389807195.232407
3,27,0,27793,137,216,2091,27972,9600,6304,1024,28049,309,-329,171,1389807195.232416
2,28,0,15854,32,-202,1703,15696,9072,1248,112,14248,367,14,94,1389807195.232656
3,28,0,29793,69,314,2385,29848,10656,3824,-1056,28049,309,-329,171,1389807195.232663
2,29,0,17844,99,-174,1799,17575,9456,2032,-960,16810,364,29,98,1389807195.250661
3,29,0,31792,-706,93,2379,31725,11984,-464,-3104,30627,321,-315,165,1389807195.250670
2,30,0,19833,88,-155,1871,19454,10304,2432,-1808,19370,359,41,100,1389807195.262137
3,30,0,33792,-2242,-394,2180,33602,14688,-4304,-4400,33204,331,-291,176,1389807195.262151
2,31,0,20828,48,-148,1909,21333,11536,3408,-2000,19370,359,41,100,1389807195.262460
3,31,0,35791,-3199,-758,1657,35480,15408,-3136,-4400,35782,338,-269,197,1389807195.262684
2,32,0,22817,76,-154,1986,23211,13264,2704,-736,21931,352,62,104,1389807195.280790
3,32,0,36791,-3194,-685,1322,37358,12480,1904,-3712,35782,338,-269,197,1389807195.280805
2,33,0,24807,597,-165,2124,25089,15568,752,576,24492,351,75,104,1389807195.293116
3,33,0,38790,-2601,-88,948,39235,9344,3312,-1952,38360,343,-503,212,1389807195.293130
2,34,0,26796,1454,-158,2311,26968,16960,-288,1296,27053,343,90,113,1389807195.293454
3,34,0,40789,-2436,315,890,41112,7232,3520,1856,40938,342,-231,209,1389807195.293465
2,35,0,28786,2319,-153,2480,28846,15648,-2160,1648,27053,343,90,113,1389807195.311714
3,35,0,42789,-2694,188,965,42990,5552,5120,8160,40938,342,-231,209,1389807195.311729
2,36,0,30775,2848,-110,2621,30725,13264,-2528,1248,29615,334,101,122,1389807195.317972
3,36,0,44788,-2237,-259,1215,44867,6112,5120,15008,43516,347,-209,218,1389807195.318263
2,37,0,32764,3124,-15,2639,32604,12272,-1264,16,32176,317,115,136,1389807195.330631
3,37,0,46788,-33,-258,1589,46744,6848,6832,14640,46095,352,-196,221,1389807195.330645
2,38,0,34754,3254,-12,2601,34483,12144,-96,336,34736,317,124,149,1389807195.342831
3,38,0,48787,3070,302,1605,48622,8064,6384,7808,48673,354,-195,211,1389807195.342845
2,39,0,36743,3035,-179,2605,36362,11840,2496,448,34736,317,124,149,1389807195.343170
3,39,0,50786,4421,725,1798,50500,10224,6064,416,48673,354,-195,211,1389807195.343180
2,40,0,37738,2831,-279,2610,38241,11360,5376,-1152,37296,312,133,164,1389807195.360670
3,40,0,51786,4318,743,1779,52377,11328,2816,-5824,51251,354,-203,196,1389807195.360679
2,41,0,39727,2482,-479,2600,40120,11296,6208,-3248,39856,301,142,176,1389807195.372715
3,41,0,53785,3283,208,1252,54256,9024,2752,-8064,53829,366,-205,190,1389807195.372730
2,42,0,41717,2109,-656,2497,41998,11264,5248,-4096,39856,301,142,176,1389807195.373057
3,42,0,55785,2019,-228,889,56133,7408,3696,-6032,56408,366,-208,185,1389807195.373068
2,43,0,43706,1128,-790,2245,43878,10640,5120,-4528,42418,290,150,193,1389807195.391168
3,43,0,57784,727,-126,1186,58012,8384,1872,-1952,56408,366,-208,185,1389807195.391177
2,44,0,45696,-352,-864,1862,45757,9152,6592,-5616,44978,278,164,199,1389807195.403447
3,44,0,59784,-477,-20,1304,59889,9168,592,64,58985,371,-197,191,1389807195.403456
2,45,0,47685,-1637,-899,1611,47635,7696,7504,-5776,47538,268,179,200,1389807195.403776
3,45,0,61783,-1061,-145,1066,61767,8688,1856,480,61563,371,-182,188,1389807195.403783
2,46,0,49675,-2311,-919,1385,49514,6320,9584,-4032,47538,268,179,200,1389807195.420745
3,46,0,63782,-1077,-231,970,63645,8240,4400,2608,61563,371,-182,188,1389807195.420755
2,47,0,51664,-2375,-917,1078,51393,5264,9472,-928,50096,256,192,197,1389807195.432558
3,47,0,246,-652,-221,851,65522,7568,5120,4192,64142,368,-173,193,1389807195.432566
2,48,0,52659,-2118,-892,925,53272,4592,5808,2352,52656,248,210,195,1389807195.432804
3,48,0,1245,-192,-158,786,1865,7680,3792,4160,1185,368,-165,194,1389807195.432809
2,49,0,54648,-1200,-820,605,55150,4752,3296,3504,55217,240,215,196,1389807195.450576
3,49,0,3245,750,-40,740,3743,8128,3648,2976,3762,376,-161,194,1389807195.450586
2,50,0,56638,-427,-712,141,57030,4992,3776,1312,55217,240,215,196,1389807195.462563
2,51,0,58627,-353,-657,-319,58908,4752,5744,-1232,57776,235,209,201,1389807195.462835
3,51,0,7244,1533,5,748,7498,9136,3952,-560,6340,376,-163,190,1389807195.462841
2,52,0,60617,-610,-721,-718,60787,4112,6640,-2384,60337,235,212,201,1389807195.480918
3,52,0,9243,1382,-121,692,9376,8864,4128,-736,8918,376,-163,190,1389807195.480933
2,53,0,62606,-870,-786,-1070,62666,3440,6144,-1328,62897,235,210,202,1389807195.493181
3,53,0,11242,1052,-151,555,11254,8672,3056,-720,11498,376,-160,190,1389807195.493195
2,54,0,64596,-1109,-818,-1339,64544,3312,5168,-112,62897,235,210,202,1389807195.493516
3,54,0,13242,551,-115,449,13132,8448,2592,-432,11498,376,-160,190,1389807195.493527
2,55,0,1049,-1173,-815,-1646,887,3376,4832,256,65459,233,199,202,1389807195.511195
3,55,0,15241,38,-98,374,15010,8112,3008,-208,14076,370,-163,192,1389807195.511210
2,56,0,3038,-1228,-780,-1997,2767,3472,5184,0,2484,238,190,199,1389807195.523503
3,56,0,16241,-162,-85,344,16888,7984,2896,0,16655,370,-160,191,1389807195.523518
2,57,0,4033,-1236,-759,-2166,4646,3328,5600,-464,2484,238,190,199,1389807195.523842
3,57,0,18240,-479,-130,338,18766,8096,2608,224,16655,370,-160,191,1389807195.523853
2,58,0,6023,-1157,-717,-2469,6526,3168,5456,-560,5044,247,183,197,1389807195.541867
3,58,0,20240,-719,-174,324,20644,8288,2304,800,19234,373,-152,195,1389807195.541886
2,59,0,8012,-1126,-694,-2754,8405,3104,5456,-528,7604,253,169,196,1389807195.542170
3,59,0,22239,-798,-177,317,22522,8480,2240,1584,21812,378,-148,195,1389807195.554230
2,60,0,10001,-1152,-658,-3026,10284,3232,5104,-512,10166,262,152,195,1389807195.554502
3,60,0,24238,-689,-124,284,24399,8304,2224,2240,24390,375,-145,195,1389807195.554508
2,61,0,11991,-1182,-624,-3299,12163,3424,5264,-656,10166,262,152,195,1389807195.572607
3,61,0,26238,-381,-58,248,26277,8048,2176,2576,24390,375,-145,195,1389807195.572616
2,62,0,13980,-1213,-595,-3578,14042,3584,5584,-608,12727,275,138,194,1389807195.572850
3,62,0,28237,0,-37,248,28154,8016,2144,2400,26968,375,-141,197,1389807195.572857
2,63,0,15970,-1309,-577,-3826,15921,3824,6096,-400,15289,285,111,193,1389807195.591029
3,63,0,30236,292,-38,237,30032,8112,2208,1616,29546,377,-138,197,1389807195.591043
2,64,0,17959,-1285,-568,-4058,17800,3968,6144,-192,17850,305,89,193,1389807195.603323
3,64,0,31236,370,-34,238,31910,8288,1952,736,32124,375,-139,199,1389807195.603333
2,65,0,19949,-1134,-554,-4292,19680,4112,6080,208,17850,305,89,193,1389807195.603524
3,65,0,33236,296,-48,242,33787,8368,1760,80,32124,375,-139,199,1389807195.603531
2,66,0,20943,-1095,-544,-4407,21558,4288,6384,640,20411,305,65,193,1389807195.621608
3,66,0,35235,-35,-54,255,35665,8320,1696,-336,34702,374,-136,201,1389807195.621617
2,67,0,22933,-993,-530,-4635,23438,4480,6880,688,22972,322,31,191,1389807195.633260
3,67,0,37234,-350,-62,270,37542,8192,1600,64,37279,376,-130,197,1389807195.633269
2,68,0,24922,-750,-489,-4857,25317,4880,7200,880,25533,322,249,192,1389807195.633665
3,68,0,39234,-554,-85,285,39419,8080,1520,576,37279,376,-130,197,1389807195.633674
2,69,0,26912,-572,-437,-5059,27196,5600,7776,1232,25533,322,249,192,1389807195.651749
3,69,0,41233,-602,-94,284,41297,7984,1472,880,39857,379,-128,200,1389807195.651758
2,70,0,28901,-415,-303,-5267,29075,6768,7568,1520,28095,326,-41,196,1389807195.657541
3,70,0,43232,-524,-111,296,43174,8048,1664,976,42435,373,-123,202,1389807195.657794
2,71,0,30891,-155,-153,-5432,30953,7984,6784,2096,30656,333,-84,193,1389807195.669235
3,71,0,45232,-358,-118,321,45052,8080,1712,1072,45014,377,-117,203,1389807195.669244
2,72,0,32880,215,1,-5564,32832,8816,6160,2256,30656,333,-84,193,1389807195.681496
3,72,0,46232,-301,-121,334,46928,8160,1520,976,45014,377,-117,203,1389807195.681505
2,73,0,34870,488,216,-5591,34711,9136,6432,576,33215,336,-130,193,1389807195.693691
3,73,0,48231,-277,-136,369,48806,8272,1392,672,47592,376,-118,206,1389807195.693706
2,74,0,35864,539,347,-5603,36590,9312,5680,-1168,35775,331,-170,192,1389807195.694019
3,74,0,50230,-369,-146,404,50684,8176,1312,448,50170,374,-107,205,1389807195.694030
2,75,0,37854,319,628,-5576,38468,10416,4688,-2064,38337,327,-214,182,1389807195.712149
3,75,0,52230,-577,-146,438,52561,8096,784,240,52750,374,-101,210,1389807195.712164
2,76,0,39843,-378,825,-5448,40347,12256,3904,-2272,38337,327,-214,182,1389807195.712471
3,76,0,54229,-848,-156,489,54439,7936,400,384,52750,374,-101,210,1389807195.712692
2,77,0,41833,-1173,866,-5239,42225,14128,2688,-1200,40899,319,-248,178,1389807195.730783
3,77,0,56228,-1085,-181,545,56317,7712,-32,1024,55328,376,-94,214,1389807195.730792
2,78,0,43822,-1759,791,-4955,44103,14624,2896,-96,43460,306,-23,177,1389807195.742929
3,78,0,58228,-1158,-183,644,58194,7744,-512,1952,57907,372,-86,209,1389807195.742943
2,79,0,45812,-1929,708,-4585,45982,13792,3744,-544,46021,285,-300,177,1389807195.743266
3,79,0,60227,-1058,-198,742,60071,7776,-912,2672,57907,372,-86,209,1389807195.743276
2,80,0,47801,-1954,482,-4126,47861,12288,8944,1120,46021,285,-300,177,1389807195.760759
3,80,0,61227,-932,-183,799,61948,7456,-800,3216,60485,374,-69,214,1389807195.760768
2,81,0,49790,-2147,66,-3740,49740,8688,3376,-2480,48583,285,-320,185,1389807195.772866
3,81,0,63226,-659,-123,885,63826,7056,-496,2912,63063,376,-63,215,1389807195.772880
2,82,0,51780,-852,-116,-2938,51619,4288,48,2880,51145,269,-335,190,1389807195.773205
3,82,0,65226,-495,-67,1035,167,7248,-1040,1872,106,371,-51,211,1389807195.773216
2,83,0,52775,-1007,-221,-2408,53498,-2544,-2832,2752,53706,261,-332,197,1389807195.791255
3,83,0,1689,-446,-51,1225,2045,7600,-672,1184,106,371,-51,211,1389807195.791263
2,84,0,54764,-639,-34,-940,55377,-5376,-672,-2864,53706,261,-332,197,1389807195.803538
3,84,0,3688,-364,-78,1361,3922,7536,1360,2240,2685,371,-39,215,1389807195.803547
2,85,0,56753,270,181,626,57256,-832,2048,-5744,56268,257,-330,192,1389807195.803858
3,85,0,5688,-291,-85,1437,5800,7552,2432,3008,5264,371,-25,212,1389807195.803864
2,86,0,58743,-208,119,1579,59135,4784,5104,-5776,58830,255,-315,194,1389807195.820910
3,86,0,7687,-120,-69,1505,7678,7856,2656,2816,5264,371,-25,212,1389807195.820919
2,87,0,60732,-1565,-107,2195,61013,8304,6192,-4064,58830,255,-315,194,1389807195.833056
3,87,0,9687,-128,-41,1563,9554,8224,3136,1280,7842,367,-16,218,1389807195.833065
2,88,0,62722,-2461,-442,2691,62892,10176,5344,-912,61390,269,-293,202,1389807195.833275
3,88,0,10686,-185,-44,1589,11432,8400,3616,272,10421,366,-255,218,1389807195.833280
2,89,0,64711,-2518,-499,2842,64771,11168,3392,1792,63950,279,-262,213,1389807195.851435
3,89,0,12686,-353,-93,1617,13309,8464,4000,96,12999,367,14,216,1389807195.851443
2,90,0,1165,-1601,-84,2675,1114,13120,-2224,2672,975,283,-495,223,1389807195.863562
3,90,0,14685,-485,-183,1618,15186,8768,4320,752,12999,367,14,216,1389807195.863576
2,91,0,3154,1237,349,2079,2994,21696,-17936,8208,975,283,-495,223,1389807195.863908
3,91,0,16684,-628,-256,1672,17063,9888,4272,1552,15578,363,27,217,1389807195.863919
2,92,0,4149,1456,340,1481,4872,24432,-6352,10368,3536,289,-239,214,1389807195.882034
3,92,0,18684,-779,-327,1767,18940,11968,3504,2416,18155,352,49,216,1389807195.882043
2,93,0,6138,-1534,267,153,6751,12848,9808,-7680,6096,300,-231,215,1389807195.882247
3,93,0,20683,-747,-383,1928,20818,14672,3824,2432,20733,354,65,218,1389807195.887934
2,94,0,8128,-2131,347,-191,8630,1232,12000,-9008,8657,299,-215,217,1389807195.900153
3,94,0,22683,-703,-363,2041,22696,16304,2224,464,20733,354,65,218,1389807195.900162
2,95,0,10117,-4217,-25,1169,10509,-2464,7904,672,8657,299,-215,217,1389807195.911643
3,95,0,24682,-1009,-340,2083,24573,16432,-624,-2912,23311,348,76,218,1389807195.911652
2,96,0,12107,-4077,-360,2041,12387,2352,4816,12032,11217,299,-184,231,1389807195.917626
3,96,0,25682,-1170,-364,2044,26450,14832,-800,-3952,25888,337,101,222,1389807195.917873
2,97,0,14096,-1514,-188,2161,14266,11952,5824,8528,13777,303,-158,236,1389807195.930136
3,97,0,27681,-1658,-383,2140,28327,13648,304,-3296,25888,337,101,222,1389807195.930151
2,98,0,16086,-299,421,1417,16145,14608,8448,1504,13777,303,-158,236,1389807195.942322
3,98,0,29680,-1902,-414,2430,30205,13760,1360,-1520,28466,335,127,214,1389807195.942331
2,99,0,18075,91,674,953,18023,11600,7904,1648,16340,306,-148,235,1389807195.942506
3,99,0,31680,-2063,-602,2632,32082,14416,2496,-896,31045,325,151,223,1389807195.942757
2,100,0,19070,283,722,988,19902,8880,5344,2736,18902,306,-140,228,1389807195.960541
3,100,0,33679,-2474,-760,2756,33958,15232,2416,-2080,33624,313,181,210,1389807195.960549
2,101,0,21059,1074,548,1225,21781,8592,5632,928,21465,311,-139,223,1389807195.972150
3,101,0,35679,-3069,-762,2826,35835,15648,1952,-3536,33624,313,181,210,1389807195.972159
2,102,0,23049,1680,261,1185,23660,8448,3712,-3104,21465,311,-139,223,1389807195.972399
3,102,0,37678,-3581,-679,2652,37712,14000,3712,-2912,36202,296,216,198,1389807195.972591
2,103,0,25038,1478,119,1045,25540,7904,768,-3584,24025,317,-137,218,1389807195.990715
3,103,0,39677,-3719,-640,2240,39589,11664,5808,-432,38780,285,239,179,1389807195.990730
2,104,0,27027,510,102,836,27419,7120,288,-3760,26586,315,-134,216,1389807196.2943
3,104,0,40677,-3617,-632,1991,41466,9344,7136,2544,41356,268,6,167,1389807196.2952
2,105,0,29017,-510,184,698,29299,7360,416,-3104,29147,319,-127,215,1389807196.3185
3,105,0,42676,-3091,-623,1703,43344,7360,8976,4528,41356,268,6,167,1389807196.3192
2,106,0,31006,-1191,230,688,31178,8224,1168,80,29147,319,-127,215,1389807196.21400
3,106,0,44676,-1911,-590,1376,45222,5808,10096,5472,43935,255,275,154,1389807196.21410
2,107,0,32996,-1198,187,650,33057,9136,2720,3392,31708,322,-116,216,1389807196.33289
3,107,0,46675,-299,-672,1293,47098,5200,10544,5088,46513,246,287,154,1389807196.33299
2,108,0,34985,-366,155,640,34934,9232,3392,4192,34269,315,-110,213,1389807196.33536
3,108,0,48675,854,-963,1113,48975,5008,11008,3184,46513,246,287,154,1389807196.33543
2,109,0,35980,179,177,668,36813,8848,3392,2624,36831,324,-103,213,1389807196.50789
3,109,0,50674,1192,-1292,951,50853,4976,9088,-992,49091,234,288,168,1389807196.50855
2,110,0,37969,1055,171,722,38693,8352,2512,240,36831,324,-103,213,1389807196.63131
3,110,0,52673,198,-1406,806,52731,5392,4752,-8176,51668,226,292,185,1389807196.63145
2,111,0,39959,1286,117,692,40571,7968,1040,-1632,39392,324,-106,212,1389807196.63472
3,111,0,54673,-1417,-1325,530,54609,5840,2080,-12928,54246,218,296,176,1389807196.63482
2,112,0,41948,846,61,594,42450,8000,272,-2704,41954,321,-103,210,1389807196.81564
3,112,0,55672,-2042,-1358,308,56486,4960,3968,-9696,54246,218,296,176,1389807196.81573
2,113,0,43938,1,74,498,44329,8208,416,-3136,41954,321,-103,210,1389807196.93649
3,113,0,57672,-2732,-1438,-131,58363,3600,5984,-4288,56824,208,302,171,1389807196.93663
2,114,0,45927,-802,105,403,46207,8176,1232,-2432,44514,325,-100,207,1389807196.93990
3,114,0,59671,-2865,-1264,-508,60240,2416,5680,-656,59402,205,313,157,1389807196.94000
2,115,0,47917,-1345,39,355,48086,8080,1856,-832,47076,328,-92,210,1389807196.112205
3,115,0,61671,-2548,-1090,-771,62118,1856,4960,0,61979,204,318,143,1389807196.112220
2,116,0,49906,-1543,-61,360,49965,8272,1664,944,49636,324,-84,208,1389807196.112574
3,116,0,63670,-1688,-1127,-877,63995,1664,5328,-352,61979,204,318,143,1389807196.112883
2,117,0,51896,-1396,-84,359,51843,8384,1664,2640,49636,324,-84,208,1389807196.131001
3,117,0,133,-475,-1219,-987,336,2192,5136,112,64557,205,309,143,1389807196.131010
2,118,0,52890,-1196,-61,328,53722,8368,1952,4016,52197,324,-77,207,1389807196.143129
3,118,0,2133,486,-1331,-1227,2213,2608,5296,544,1600,208,310,149,1389807196.143144
2,119,0,54880,-537,27,294,55600,8144,2048,4608,54758,328,-71,210,1389807196.143468
3,119,0,4132,1000,-1390,-1501,4091,3088,5824,-528,1600,208,310,149,1389807196.143478
2,120,0,56869,245,98,361,57478,8176,1712,3440,57319,325,-68,208,1389807196.160990
3,120,0,5132,1131,-1377,-1642,5968,3536,5712,-2496,4178,212,297,159,1389807196.160999
2,121,0,58859,867,134,416,59356,8464,880,1136,57319,325,-68,208,1389807196.172682
3,121,0,7131,1125,-1285,-1893,7845,3936,5040,-4080,6755,220,282,179,1389807196.172691
2,122,0,60848,1087,137,429,61235,8400,400,-640,59879,330,-66,209,1389807196.172955
3,122,0,9131,702,-1138,-2193,9723,4016,4768,-4784,9332,223,268,184,1389807196.172961
2,123,0,62838,724,119,420,63114,8032,160,-1936,62439,330,-67,205,1389807196.190439
3,123,0,11130,90,-1027,-2511,11601,3840,5024,-4672,9332,223,268,184,1389807196.190449
2,124,0,64827,151,93,433,64992,7920,-32,-1968,62439,330,-67,205,1389807196.202646
3,124,0,13129,-345,-930,-2796,13479,3856,5584,-3664,11910,232,258,190,1389807196.202655
2,125,0,1280,-388,42,435,1335,8000,128,-1632,65000,325,-68,202,1389807196.202918
3,125,0,15129,-575,-853,-3005,15355,4032,5936,-2272,14487,247,494,191,1389807196.202924
2,126,0,2275,-522,13,435,3214,8032,256,-512,2024,325,-59,207,1389807196.220298
3,126,0,17128,-616,-767,-3204,17233,4336,6048,-1488,17064,257,221,193,1389807196.220307
2,127,0,4265,-505,-37,442,5093,8000,640,224,4586,333,-53,206,1389807196.231886
3,127,0,19128,-496,-667,-3402,19110,4624,6176,-1344,17064,257,221,193,1389807196.231894
2,128,0,6254,-408,-33,487,6971,7888,1168,-32,4586,333,-53,206,1389807196.232150
3,128,0,20127,-402,-599,-3497,20987,5088,5664,-1520,19642,270,201,191,1389807196.238299
2,129,0,8243,-248,-17,523,8850,8032,1072,-608,7146,329,-53,205,1389807196.249961
3,129,0,22127,-284,-444,-3688,22864,5520,5344,-1888,22219,286,185,196,1389807196.249970
2,130,0,10233,-271,-33,543,10730,8096,1040,-1024,9708,323,-46,207,1389807196.261285
3,130,0,24126,-295,-293,-3890,24742,5904,5488,-2240,22219,286,185,196,1389807196.261291
2,131,0,12222,-477,-56,546,12609,7968,1280,-864,12269,326,-40,205,1389807196.272107
3,131,0,26125,-395,-170,-4058,26619,6384,5616,-2176,24797,302,158,197,1389807196.272121
2,132,0,14212,-685,-97,580,14488,7968,1248,-224,12269,326,-40,205,1389807196.272428
3,132,0,28125,-538,-76,-4178,28497,6848,5360,-1856,27375,314,137,195,1389807196.272739
2,133,0,16201,-676,-119,622,16368,8048,1216,400,14830,325,-33,204,1389807196.290134
3,133,0,30124,-719,-11,-4288,30374,7536,5008,-1616,29953,345,106,191,1389807196.290214
2,134,0,18191,-573,-110,644,18246,8000,1488,608,17392,323,-25,204,1389807196.302533
3,134,0,32124,-878,48,-4360,32251,8576,4864,-1536,29953,345,106,191,1389807196.302542
2,135,0,19185,-533,-109,644,20124,7840,1856,240,19953,322,-15,207,1389807196.302753
3,135,0,34123,-969,39,-4416,34129,9920,4816,-1184,32531,345,78,189,1389807196.302759
2,136,0,21175,-461,-108,670,21533,7728,1856,-80,19953,322,-15,207,1389807196.320755
3,136,0,35123,-894,-5,-4450,36008,10352,5840,240,35110,366,50,188,1389807196.320764
2,137,0,23164,-430,-122,702,23412,7840,1600,-304,22515,320,-11,210,1389807196.332661
3,137,0,37122,-342,-22,-4559,37886,9952,6320,2560,37687,366,15,184,1389807196.332670
2,138,0,25154,-548,-149,719,25291,7984,1664,-624,25076,320,-4,208,1389807196.332927
3,138,0,39121,322,169,-4590,39763,10480,5488,3504,37687,366,15,184,1389807196.332935
2,139,0,27143,-767,-167,716,27170,7840,2352,-448,25076,320,-4,208,1389807196.350343
3,139,0,41121,649,373,-4472,41640,11968,5936,1504,40265,380,-27,188,1389807196.350352
2,140,0,29133,-876,-183,720,29050,7584,2624,752,27636,321,-248,207,1389807196.362667
3,140,0,43120,1033,557,-4346,43518,13424,4112,-608,42841,380,-61,181,1389807196.362681
2,141,0,31122,-782,-215,776,30928,7664,2352,2272,30197,319,13,208,1389807196.363007
3,141,0,45120,750,791,-4347,45395,13760,2656,-2816,42841,380,-61,181,1389807196.363017
2,142,0,33112,-463,-222,808,32807,8032,2192,2176,32758,316,25,212,1389807196.380573
3,142,0,47119,566,867,-4359,47273,12064,1952,-2688,45419,389,-97,175,1389807196.380581
2,143,0,35101,-162,-171,796,34685,8256,2720,880,32758,316,25,212,1389807196.392702
3,143,0,49118,443,912,-4196,49151,9872,1120,-960,47997,389,-132,172,1389807196.392743
2,144,0,36096,-92,-140,783,36564,8112,2672,-448,35318,314,30,209,1389807196.393063
3,144,0,50118,444,924,-4059,51029,7824,2032,-1616,50574,385,-163,158,1389807196.393070
2,145,0,38085,-180,-130,763,38443,8064,2384,-560,37879,313,35,209,1389807196.410605
3,145,0,52117,649,798,-3803,52907,6144,784,-1984,50574,385,-163,158,1389807196.410614
2,146,0,40075,-434,-187,746,40322,8160,3232,-992,40441,310,42,212,1389807196.422282
3,146,0,54117,382,460,-3374,54785,5536,-2304,-1376,53151,385,-192,155,1389807196.422297
2,147,0,42064,-485,-220,697,42200,8016,3536,-160,40441,310,42,212,1389807196.422607
3,147,0,56116,-587,152,-2664,56663,4160,-5232,-2064,55728,379,-211,154,1389807196.422915
2,148,0,44053,-603,-238,686,44078,8048,4064,736,43002,309,46,212,1389807196.439786
3,148,0,58116,-1609,40,-1774,58540,1504,-5744,-2656,58304,379,-214,158,1389807196.439795
2,149,0,46043,-507,-224,654,45956,8128,4560,800,45563,309,57,212,1389807196.451761
3,149,0,60115,-1398,77,-656,60418,1520,-3808,1520,58304,379,-214,158,1389807196.451769
2,150,0,48032,-351,-231,650,47835,8336,3968,752,48123,302,64,213,1389807196.458034
3,150,0,62114,-472,185,383,61826,3360,-528,5616,60881,375,-213,158,1389807196.458350
2,151,0,50022,-263,-276,650,49713,8496,3488,-32,48123,302,64,213,1389807196.470530
3,151,0,64114,303,232,1033,63703,6112,3824,6720,63459,378,-199,159,1389807196.470539
2,152,0,51017,-212,-293,646,51591,8192,3376,-560,50684,298,66,220,1389807196.482567
3,152,0,65113,659,216,1312,46,8096,4608,3744,501,379,-188,158,1389807196.482576
2,153,0,53006,-200,-307,634,53469,8112,3552,-608,53245,298,75,218,1389807196.482748
3,153,0,1577,1017,133,1741,1924,8928,3424,-512,501,379,-188,158,1389807196.482752
2,154,0,54995,-231,-313,622,55349,8224,3904,-208,53245,298,75,218,1389807196.500828
3,154,0,3576,892,66,1964,3801,9008,2464,-3120,3079,383,-178,157,1389807196.500838
2,155,0,56985,-237,-322,629,57227,8528,3856,80,55805,295,80,221,1389807196.513122
3,155,0,5576,420,-18,2002,5679,8384,3232,-2400,5657,391,-159,152,1389807196.513137
2,156,0,58974,-206,-341,646,59106,8944,3872,176,58367,292,85,222,1389807196.513496
3,156,0,7575,-288,-91,2167,7557,8240,4096,-448,5657,391,-159,152,1389807196.513507
2,157,0,60964,-104,-371,653,60985,9328,3632,272,60927,292,92,223,1389807196.531745
3,157,0,9574,-641,-116,2364,9434,8528,3680,1232,8234,393,-140,155,1389807196.531828
2,158,0,62953,17,-387,670,62864,9536,3120,208,60927,292,92,223,1389807196.538059
3,158,0,11574,-633,-78,2304,11311,9472,2208,2192,10811,393,-120,155,1389807196.538375
2,159,0,64943,178,-413,709,64742,9840,2448,32,63489,285,95,229,1389807196.550333
3,159,0,13573,-705,-124,1939,13188,11472,-416,2256,13390,394,-104,156,1389807196.550341
2,160,0,1396,290,-430,759,1085,10240,1664,-256,514,279,98,231,1389807196.562666
3,160,0,14573,-880,-210,1658,15066,13472,-7472,1088,13390,394,-104,156,1389807196.562680
2,161,0,2391,307,-442,802,2964,10768,720,-672,3076,278,106,234,1389807196.562935
3,161,0,16572,-1340,-452,918,16942,12880,-5312,-2816,15966,398,-97,161,1389807196.562942
2,162,0,4380,295,-468,890,4843,11520,-160,-816,3076,278,106,234,1389807196.580359
3,162,0,18572,-165,-438,247,18818,9328,800,-2448,18543,392,-91,166,1389807196.580374
2,163,0,6370,256,-498,1027,6722,12160,-912,-480,5638,273,112,243,1389807196.592562
3,163,0,20571,897,-76,56,20696,7472,3040,960,21120,394,-92,167,1389807196.592576
2,164,0,8359,268,-522,1193,8601,12160,-1664,0,8199,263,118,249,1389807196.592901
3,164,0,22570,1135,126,281,22573,6992,8064,1648,21120,394,-92,167,1389807196.592912
2,165,0,10349,396,-509,1389,10479,11648,-1728,256,10760,264,127,252,1389807196.610970
3,165,0,24570,1554,19,1029,24450,9584,8176,624,23698,394,-89,169,1389807196.610984
2,166,0,12338,622,-498,1592,12358,11232,-1888,0,10760,264,127,252,1389807196.622694
3,166,0,26569,1296,-331,1632,26327,12848,2064,-2480,26276,392,-80,167,1389807196.622709
2,167,0,14328,1066,-507,1866,14238,11584,-3360,-192,13323,244,131,262,1389807196.623037
3,167,0,28568,995,-461,1492,28204,11728,2688,-6592,26276,392,-80,167,1389807196.623047
2,168,0,16317,1475,-551,2175,16117,12496,-3584,-688,15884,244,141,266,1389807196.641356
3,168,0,29568,982,-300,1236,30081,9632,2512,-4720,28855,391,-74,168,1389807196.641370
2,169,0,18306,1761,-543,2356,17995,13296,-2464,-1056,15884,244,141,266,1389807196.653587
3,169,0,31568,416,-103,787,31960,5920,2912,-400,31433,393,-74,173,1389807196.653596
2,170,0,19301,1757,-524,2411,19874,13648,-1760,-1248,18446,236,148,280,1389807196.653863
3,170,0,33567,-394,-280,509,33838,5392,2736,656,34012,394,-65,175,1389807196.653869
2,171,0,21291,1669,-501,2454,21753,13152,-2368,-752,21007,226,151,292,1389807196.671541
3,171,0,35566,-821,-535,914,35716,7680,2880,1360,34012,394,-65,175,1389807196.671549
2,172,0,23280,1770,-498,2450,23632,11952,-1072,80,23567,210,154,303,1389807196.683820
3,172,0,37566,-734,-398,1154,37594,9936,3120,2160,36589,390,-54,180,1389807196.683829
2,173,0,25269,1654,-538,2444,25512,10288,2656,-80,23567,210,154,303,1389807196.684065
3,173,0,39565,-144,-210,982,39472,10576,2608,3024,39167,389,-42,182,1389807196.684072
2,174,0,27259,1039,-585,2322,27392,8608,6064,80,26130,199,162,309,1389807196.701876
3,174,0,41564,320,-290,761,41350,9024,2256,2160,41743,388,-41,187,1389807196.701885
2,175,0,29248,532,-572,2302,29270,8352,7632,-448,28691,186,168,317,1389807196.702127
3,175,0,43564,204,-405,698,43228,7552,1472,160,41743,388,-41,187,1389807196.714292
2,176,0,31238,654,-437,2294,31149,9216,6768,-2160,31253,173,172,327,1389807196.714628
3,176,0,44564,-228,-413,706,45106,7120,1600,-3008,44322,384,-31,191,1389807196.714639
2,177,0,33227,377,-378,2071,33027,9856,6576,-2304,31253,173,172,327,1389807196.732357
3,177,0,46563,-1553,-371,726,46984,7456,2800,-5280,46901,387,-21,191,1389807196.732366
2,178,0,34222,-18,-377,1904,34906,10064,4336,-2416,33814,162,183,332,1389807196.732551
3,178,0,48562,-2376,-304,844,48862,8528,2144,-2640,46901,387,-21,191,1389807196.732801
2,179,0,36211,-572,-389,1588,36785,9168,3536,-1136,36373,153,191,330,1389807196.750378
3,179,0,50562,-2317,-233,828,50740,9328,2112,3344,49479,383,-3,192,1389807196.750387
2,180,0,38201,-1012,-474,1274,38664,7456,2544,-720,38934,146,202,323,1389807196.762709
3,180,0,52561,-1356,-306,697,52618,9152,2304,8304,52057,378,-247,189,1389807196.762724
2,181,0,40190,-1264,-472,937,40543,5680,2368,-1216,38934,146,202,323,1389807196.763048
3,181,0,54560,57,-306,627,54497,8224,2720,8944,54636,380,15,193,1389807196.763119
2,182,0,42180,-1819,-300,659,42420,4432,4112,-1696,41495,131,214,319,1389807196.780746
3,182,0,56560,1255,-151,613,56376,7520,2608,5424,54636,380,15,193,1389807196.780756
2,183,0,44169,-2469,-148,311,44299,4128,4896,-1584,44055,131,226,308,1389807196.792185
3,183,0,58559,1768,-52,669,58253,7808,2144,1520,57213,377,10,196,1389807196.792194
2,184,0,46159,-2696,-39,5,46178,4528,4992,-320,44055,131,226,308,1389807196.792316
3,184,0,59559,1782,-32,682,60131,8176,1392,-576,59792,372,11,198,1389807196.792436
2,185,0,48148,-2675,41,-298,48056,5024,5248,752,46615,130,237,289,1389807196.810524
3,185,0,61558,1378,-38,615,62009,8112,848,-800,62370,372,12,202,1389807196.810532
2,186,0,50138,-2432,41,-611,49934,5312,5760,1280,49175,128,251,278,1389807196.822624
3,186,0,63558,539,-67,527,63887,7888,1728,-96,62370,372,12,202,1389807196.822632
2,187,0,51132,-2290,24,-774,51813,5264,6480,1424,51736,135,255,261,1389807196.822896
3,187,0,21,-421,-136,503,229,8016,1536,1072,64948,375,12,207,1389807196.822902
2,188,0,53122,-1943,-46,-1089,53691,5040,6432,1776,51736,135,255,261,1389807196.840550
3,188,0,2020,-816,-186,481,2106,8064,1168,3136,1989,369,21,204,1389807196.840558
2,189,0,55111,-1433,-139,-1343,55570,5072,5584,2048,54298,141,255,252,1389807196.852765
3,189,0,4020,-312,-168,401,3984,7952,2128,6080,1989,369,21,204,1389807196.852774
2,190,0,57101,-896,-244,-1608,57448,5456,5216,2064,56858,148,254,248,1389807196.853040
3,190,0,6019,824,-55,393,5862,8064,2400,8080,4566,367,27,202,1389807196.853047
2,191,0,59090,-565,-312,-1904,59326,5824,5456,1488,59419,156,247,247,1389807196.870818
3,191,0,8019,2026,57,413,7739,8144,3216,6272,7144,370,22,206,1389807196.870832
2,192,0,61080,-263,-397,-2220,61205,5744,5984,960,59419,156,247,247,1389807196.882406
3,192,0,9018,2552,110,428,9616,8272,3040,1968,9722,366,14,209,1389807196.882415
2,193,0,63069,-40,-475,-2498,63084,5392,6208,816,61980,167,233,249,1389807196.882620
3,193,0,11018,3053,162,461,11493,8528,2224,-2640,9722,366,14,209,1389807196.882644
2,194,0,65058,-4,-516,-2741,64962,5200,5728,704,64539,187,222,251,1389807196.899969
3,194,0,13017,2847,130,479,13371,8704,2560,-5856,12300,368,256,212,1389807196.899978
2,195,0,1512,-54,-510,-2995,1305,5072,5712,256,64539,187,222,251,1389807196.912065
3,195,0,15016,2079,53,488,15248,8816,2880,-7216,14877,369,-1,211,1389807196.912074
2,196,0,2507,-158,-470,-3136,3183,5232,6160,16,1563,187,202,251,1389807196.912326
3,196,0,17016,945,-51,545,17125,8832,2400,-7056,17454,367,-254,215,1389807196.918027
2,197,0,4496,-450,-394,-3382,5062,5536,5808,176,4123,218,183,250,1389807196.930185
3,197,0,19015,-19,-216,536,19003,8464,2464,-4816,17454,367,-254,215,1389807196.930199
2,198,0,6485,-556,-331,-3596,6940,6048,5568,992,6683,218,166,254,1389807196.942455
3,198,0,21015,-571,-325,488,20880,8176,2160,-1648,20033,368,6,217,1389807196.942470
2,199,0,8475,-758,-260,-3787,8818,6528,5680,896,6683,218,166,254,1389807196.942797
3,199,0,23014,-843,-371,496,22757,8032,2352,1904,22611,365,13,217,1389807196.942808
2,200,0,10464,-984,-192,-3963,10698,6752,5600,144,9242,232,146,251,1389807196.961092
3,200,0,24014,-852,-369,494,24634,8064,2912,4048,22611,365,13,217,1389807196.961106
2,201,0,12454,-1355,-154,-4093,12576,6656,5312,-112,11803,248,126,246,1389807196.972788
3,201,0,26013,-351,-316,445,26512,8032,2512,4928,25189,364,18,224,1389807196.972803
2,202,0,14443,-1799,-181,-4153,14454,6704,5168,-96,14364,261,106,241,1389807196.973134
3,202,0,28012,193,-220,436,28389,8304,2544,3792,27767,357,20,225,1389807196.973144
2,203,0,16433,-2167,-232,-4198,16333,7120,5264,96,14364,261,106,241,1389807196.991191
3,203,0,30012,343,-170,420,30266,8256,2592,704,30345,360,23,225,1389807196.991199
2,204,0,17427,-2332,-252,-4202,18212,7776,5648,-32,16923,271,88,238,1389807197.3549
3,204,0,32011,434,-180,415,32144,8352,1920,-1296,30345,360,23,225,1389807197.3557
2,205,0,19417,-2624,-302,-4219,20090,8624,5792,-352,19484,288,71,235,1389807197.3821
3,205,0,34011,222,-198,485,34022,8400,2176,-1312,32923,355,19,226,1389807197.3827
2,206,0,21406,-2755,-370,-4190,21969,9312,7152,-16,22044,296,54,235,1389807197.22083
3,206,0,36010,-141,-240,438,35900,7984,2768,-336,35502,351,30,229,1389807197.22097
2,207,0,23396,-2948,-470,-4193,23848,9632,6880,-48,22044,296,54,235,1389807197.22406
3,207,0,38009,-290,-274,433,37777,7840,2912,832,38080,351,36,230,1389807197.22633
2,208,0,25385,-2773,-526,-4143,25727,9120,6560,320,24605,306,34,235,1389807197.40258
3,208,0,39009,-321,-273,450,39654,7968,2720,1808,38080,351,36,230,1389807197.40266
2,209,0,27375,-2488,-537,-4036,27605,8288,5936,544,27166,323,17,237,1389807197.52511
3,209,0,41008,-322,-258,486,41532,8144,2640,2064,40657,353,40,236,1389807197.52519
2,210,0,29364,-2257,-526,-3862,29484,7696,5424,1088,27166,323,17,237,1389807197.52785
3,210,0,43008,-268,-244,480,43409,8176,2464,1904,43235,347,44,233,1389807197.52791
2,211,0,31354,-2068,-497,-3653,31363,7664,5488,1472,29726,323,255,244,1389807197.70382
3,211,0,45007,-306,-232,472,45287,8160,1936,1424,43235,347,44,233,1389807197.70391
2,212,0,33343,-1686,-416,-3422,33241,8288,4912,1392,32286,322,-17,247,1389807197.82532
3,212,0,47007,-321,-226,486,47165,8080,2176,1408,45813,347,52,236,1389807197.82542
2,213,0,34338,-1424,-341,-3272,35120,9136,4592,1232,34846,328,-38,248,1389807197.82773
3,213,0,49006,-290,-210,494,49043,8112,2704,1696,48391,346,53,235,1389807197.82779
2,214,0,36327,-936,-192,-3005,36999,9520,4144,-96,34846,328,-38,248,1389807197.100839
3,214,0,51005,-140,-223,505,50921,8080,2992,2000,50970,337,58,238,1389807197.100848
2,215,0,38317,-415,12,-2745,38878,9488,3104,-1712,37406,329,-59,254,1389807197.113163
3,215,0,53005,-3,-212,516,52800,8112,3280,1760,50970,337,58,238,1389807197.113178
2,216,0,40306,-221,201,-2457,40756,9232,2240,-3360,39965,330,-81,251,1389807197.113567
3,216,0,54004,27,-198,519,54678,8224,2640,976,53548,337,59,235,1389807197.113578
2,217,0,42296,-546,303,-2182,42635,8544,3120,-4624,42526,333,-99,250,1389807197.131097
3,217,0,56004,-39,-178,517,56556,8320,2976,352,56126,336,67,241,1389807197.131112
2,218,0,44285,-1168,319,-1938,44514,7696,1744,-4976,42526,333,-99,250,1389807197.143307
3,218,0,58003,-134,-210,546,58434,8400,2416,592,58705,336,68,242,1389807197.143321
2,219,0,46274,-1773,251,-1620,46391,7072,1568,-3056,45088,334,-105,255,1389807197.143648
3,219,0,60003,-430,-217,555,60312,8256,2544,896,58705,336,68,242,1389807197.143659
2,220,0,48264,-2308,177,-1259,48270,6624,2496,-896,47649,333,-111,247,1389807197.161856
3,220,0,62002,-676,-221,571,62190,8240,2864,2048,61283,331,79,245,1389807197.161870
2,221,0,50253,-2112,194,-893,50149,6320,3072,1136,50210,337,-108,246,1389807197.167528
3,221,0,64001,-826,-203,610,64069,8240,2688,2592,63861,331,86,242,1389807197.167740
2,222,0,51248,-1750,257,-717,52028,6208,3536,2960,50210,337,-108,246,1389807197.179898
3,222,0,465,-847,-174,609,411,7888,2768,2672,63861,331,86,242,1389807197.179912
2,223,0,53237,-728,391,-337,53906,6656,3616,2880,52769,335,-109,250,1389807197.192107
3,223,0,2464,-932,-169,580,2288,7648,2800,2336,904,322,91,239,1389807197.192122
2,224,0,55227,310,545,-12,55785,7376,3072,672,55329,338,-112,235,1389807197.192433
3,224,0,3464,-967,-186,581,4167,7984,3184,2624,3483,322,107,237,1389807197.192743
2,225,0,57216,880,674,235,57663,7920,2448,-1248,55329,338,-112,235,1389807197.210196
3,225,0,5463,-977,-207,647,6044,8592,3648,2800,6060,321,113,236,1389807197.210210
2,226,0,59206,713,657,425,59542,8144,1920,-2688,57889,338,-111,229,1389807197.222280
3,226,0,7463,-919,-192,680,7922,9008,4368,2080,6060,321,113,236,1389807197.222289
2,227,0,61195,222,580,563,61420,8304,1760,-3456,60448,340,-111,224,1389807197.222508
3,227,0,9462,-944,-214,635,9801,8992,3664,480,8637,321,119,234,1389807197.222756
2,228,0,63185,-489,529,649,63298,8192,1632,-3248,63008,338,-106,217,1389807197.240082
3,228,0,11461,-1346,-361,621,11678,9120,2768,496,11216,310,133,233,1389807197.240091
2,229,0,65174,-1197,493,703,65177,7824,2368,-2656,63008,338,-106,217,1389807197.251547
3,229,0,13461,-1883,-649,525,13555,8512,4432,2992,13794,310,148,230,1389807197.251556
2,230,0,1628,-1604,460,734,1519,7472,2304,-1888,34,339,-95,211,1389807197.262948
3,230,0,15460,-2362,-631,549,15433,8688,4000,2784,13794,310,148,230,1389807197.263027
2,231,0,2622,-1725,445,764,3398,7744,1440,-768,2596,346,-84,207,1389807197.263341
3,231,0,17460,-2529,-479,577,17310,9104,4272,1232,16371,307,160,228,1389807197.263360
2,232,0,4612,-2034,347,820,5277,8496,528,720,5158,341,-71,202,1389807197.281478
3,232,0,18459,-2442,-471,580,19188,9088,3664,1136,18949,300,177,220,1389807197.281487
2,233,0,6601,-2729,55,834,7155,9696,464,3808,5158,341,-71,202,1389807197.293610
3,233,0,20459,-2273,-563,534,21065,9328,3632,1616,18949,300,177,220,1389807197.293625
2,234,0,8591,-3680,-331,828,9035,10960,544,6464,7719,345,-51,203,1389807197.293949
3,234,0,22458,-2144,-595,567,22942,10336,4240,1104,21527,295,194,206,1389807197.293960
2,235,0,10580,-3889,-451,829,10913,11536,128,7072,10280,346,-30,205,1389807197.312078
3,235,0,24457,-2063,-549,705,24820,11392,4496,-560,24103,293,204,205,1389807197.312087
2,236,0,12570,-3464,-165,805,12793,12128,-608,7184,12841,337,-12,202,1389807197.312329
3,236,0,26457,-2251,-552,803,26697,12240,3792,-2480,26682,285,220,195,1389807197.318499
2,237,0,14559,-3087,160,715,14671,12016,720,6864,12841,337,-12,202,1389807197.330735
3,237,0,28456,-2762,-702,907,28574,13312,2768,-4400,26682,285,220,195,1389807197.330749
2,238,0,16548,-2753,419,553,16549,10160,4176,6144,15401,337,-250,192,1389807197.342893
3,238,0,30456,-3345,-893,1051,30452,14560,960,-4960,29260,275,237,186,1389807197.342901
2,239,0,17543,-2485,466,530,18428,7616,6320,6832,17963,340,17,183,1389807197.343169
3,239,0,32455,-4100,-1107,1015,32330,14000,1728,-4112,31839,268,3,168,1389807197.343175
2,240,0,19533,-1668,384,640,20307,6944,5312,8096,17963,340,17,183,1389807197.361434
3,240,0,33455,-4404,-1206,993,34208,13488,-2192,-2816,34417,260,280,151,1389807197.361449
2,241,0,21522,-271,320,857,22185,8032,4080,5088,20524,340,29,179,1389807197.373131
3,241,0,35454,-5217,-1507,815,36086,11360,-4400,-1056,34417,260,280,151,1389807197.373145
2,242,0,23512,1422,436,937,24063,9008,4416,-1664,23084,335,32,170,1389807197.373471
3,242,0,37453,-5645,-1517,1308,37964,11024,-2784,816,36995,249,314,124,1389807197.373481
2,243,0,25501,2603,599,935,25941,9136,2832,-7840,25646,336,34,168,1389807197.391661
3,243,0,39453,-6220,-1413,1877,39841,9888,1424,3760,39573,237,337,84,1389807197.391703
2,244,0,27490,2426,581,897,27820,8496,-96,-11664,25646,336,34,168,1389807197.398049
3,244,0,41452,-5778,-1341,2363,41719,9888,4288,8448,39573,237,337,84,1389807197.398372
2,245,0,29480,917,352,733,29698,7504,-2512,-11072,28206,338,32,169,1389807197.410441
3,245,0,43452,-4663,-1415,2949,43597,11568,7072,12144,42151,219,363,49,1389807197.410455
2,246,0,31469,-1334,100,521,31576,7248,-1744,-5712,30768,335,38,170,1389807197.422617
3,246,0,45451,-3053,-1348,3605,45474,13952,9152,12048,44729,198,390,21,1389807197.422626
2,247,0,33459,-3113,-36,403,33455,8080,720,-32,33328,335,48,160,1389807197.422890
3,247,0,47450,-1314,-959,4116,47352,16304,10848,8144,47307,168,411,9,1389807197.422896
2,248,0,34453,-3513,-87,391,35334,9104,2848,5360,33328,335,48,160,1389807197.439814
3,248,0,48450,-620,-684,4305,49230,17632,12288,2512,47307,168,411,9,1389807197.439822
2,249,0,36443,-3033,-104,457,37213,9312,3344,10544,35888,337,66,156,1389807197.451883
3,249,0,50449,218,-329,4563,51108,16768,12464,-2880,49885,138,422,5,1389807197.451891
2,250,0,38432,-1516,43,570,39091,8400,2768,10032,38449,331,73,148,1389807197.452142
3,250,0,52449,206,-298,4547,52986,13936,12528,-5680,52463,100,445,3,1389807197.458408
2,251,0,40422,-163,316,641,40971,7808,960,4384,38449,331,73,148,1389807197.470387
3,251,0,54448,-126,-437,4368,54863,11056,13280,-4896,55042,69,460,5,1389807197.470396
2,252,0,42411,711,492,647,42849,7616,-64,-144,41009,331,79,144,1389807197.482577
3,252,0,56448,-539,-461,4510,56741,10320,12048,-3024,55042,69,460,5,1389807197.482586
2,253,0,44401,637,471,636,44728,7920,128,-3728,43570,331,83,139,1389807197.482819
3,253,0,58447,-753,-375,4774,58619,9856,12480,-864,57620,38,466,6,1389807197.482826
2,254,0,46390,136,362,666,46606,8368,-352,-4688,46130,329,84,143,1389807197.500224
3,254,0,60446,-695,-154,4651,60496,9168,11488,-416,60198,0,469,1,1389807197.500264
2,255,0,48380,-433,223,657,48485,8448,512,-3520,46130,329,84,143,1389807197.512295
3,255,0,62446,-317,1,4535,62373,8176,10960,-1232,60198,0,469,1,1389807197.512310
2,0,0,50369,-819,158,593,50363,8176,2720,-1376,48691,332,90,135,1389807197.512619
3,0,0,63445,-46,4,4421,64251,6464,11952,-1024,62776,-31,466,4,1389807197.512928
2,1,0,51364,-690,160,578,52243,7920,2928,2576,51252,331,98,130,1389807197.530514
3,1,0,65445,478,-9,4197,592,5136,11008,-384,65353,-66,458,18,1389807197.530522
2,2,0,53353,-127,129,612,54121,8176,2432,5008,53813,323,102,129,1389807197.542720
3,2,0,1908,841,-141,4055,2470,4080,9824,-192,2395,-106,445,30,1389807197.542734
2,3,0,55343,636,155,617,55530,8224,1920,4416,53813,323,102,129,1389807197.543056
3,3,0,3908,1229,-444,3880,4347,4176,9184,-880,2395,-106,445,30,1389807197.543067
2,4,0,57332,1421,237,621,57408,8176,1712,2464,56374,324,101,132,1389807197.561334
3,4,0,5907,1902,-722,3752,6225,5264,9008,-1968,4974,-136,431,45,1389807197.561348
2,5,0,59322,1633,313,641,59286,8272,1440,336,58936,324,106,130,1389807197.573539
3,5,0,7906,2640,-847,3416,8102,5808,9120,-2704,7552,-169,415,70,1389807197.573553
2,6,0,61311,1534,313,630,61165,8400,2176,-1440,61497,321,107,136,1389807197.573881
3,6,0,9906,3101,-858,2965,9980,5360,8624,-3376,10128,-197,395,97,1389807197.573891
2,7,0,63300,1862,220,624,63044,8288,2160,-592,61497,321,107,136,1389807197.591972
3,7,0,11905,3085,-895,2547,11857,4368,7744,-4304,10128,-197,395,97,1389807197.591980
2,8,0,65290,1948,275,583,64923,8432,2096,-176,64057,318,103,139,1389807197.592231
3,8,0,12905,2896,-914,2330,13734,3280,8224,-5408,12706,-222,384,120,1389807197.598503
2,9,0,749,2084,289,574,1265,8240,1872,-304,1081,324,107,143,1389807197.609939
3,9,0,14904,2416,-885,1881,15611,2272,6880,-5552,15283,-242,368,136,1389807197.609947
2,10,0,2738,2022,335,613,3144,8112,1952,-288,1081,324,107,143,1389807197.621673
3,10,0,16904,1751,-694,1479,17489,1712,5728,-4752,15283,-242,368,136,1389807197.621681
2,11,0,4728,1645,315,542,5023,8112,1376,16,3641,317,102,149,1389807197.627945
3,11,0,18903,1124,-459,977,19366,1120,3792,-3360,17861,-258,357,143,1389807197.628260
2,12,0,6717,1409,278,481,6901,8368,1376,-912,6202,317,104,151,1389807197.639914
3,12,0,20902,687,-299,449,21244,480,2960,-4112,20439,-268,353,146,1389807197.639928
2,13,0,8706,1137,287,459,8780,8480,1712,176,8764,320,103,151,1389807197.652146
3,13,0,22902,1056,-312,2,23122,368,4592,-4384,23017,-271,355,151,1389807197.652155
2,14,0,10696,958,301,446,10658,8672,2432,-352,8764,320,103,151,1389807197.652401
3,14,0,24901,686,-202,-678,25000,-672,1776,-2928,23017,-271,355,151,1389807197.652655
2,15,0,12685,712,322,394,12537,8544,1904,-672,11325,319,101,151,1389807197.670741
3,15,0,26900,-465,-36,-1206,26877,-2496,2000,-2848,25595,-270,351,156,1389807197.670750
2,16,0,14675,385,265,318,14416,8048,2496,-384,13886,315,105,152,1389807197.682557
3,16,0,27900,-645,6,-1430,28755,-2912,2736,-1360,28172,-263,360,150,1389807197.682566
2,17,0,16664,165,212,221,16294,8160,1776,-1296,16448,319,103,146,1389807197.682878
3,17,0,29900,-582,158,-1884,30633,-2912,1904,1328,30750,-250,375,146,1389807197.682884
2,18,0,17659,-99,161,147,18173,8624,1008,-2160,16448,319,103,146,1389807197.700698
3,18,0,31899,-452,327,-2380,32511,-2848,2096,2048,30750,-250,375,146,1389807197.700707
2,19,0,19648,-697,39,148,20051,8672,1424,-560,19009,318,105,148,1389807197.712242
3,19,0,33898,147,316,-2829,34388,-2688,1392,1696,33327,-235,377,148,1389807197.712250
2,20,0,21638,-997,-31,131,21931,8416,1744,720,21570,314,112,144,1389807197.712497
3,20,0,35898,504,375,-3222,36266,-2368,1952,624,35905,-210,386,148,1389807197.712724
2,21,0,23627,-715,19,119,23809,8576,1200,0,24132,315,113,138,1389807197.729817
3,21,0,37897,743,499,-3605,38143,-2512,448,304,35905,-210,386,148,1389807197.729832
2,22,0,25617,-564,25,132,25688,8320,1152,-496,24132,315,113,138,1389807197.742017
3,22,0,39896,842,650,-3874,40021,-2576,160,-592,38482,-183,393,154,1389807197.742026
2,23,0,27606,-704,23,199,27567,8192,176,-1056,26693,318,113,139,1389807197.742252
3,23,0,41896,1095,729,-4017,41899,-1728,192,96,41059,-154,394,164,1389807197.748466
2,24,0,29596,-917,-13,198,29445,8528,-1424,-1856,29252,313,120,133,1389807197.760668
3,24,0,42896,1265,754,-4034,43777,-688,2640,1376,43637,-118,389,177,1389807197.760683
2,25,0,31585,-1316,-90,286,31323,8544,-960,448,29252,313,120,133,1389807197.772872
3,25,0,44895,1805,712,-4161,45655,-1024,3104,704,43637,-118,389,177,1389807197.772881
2,26,0,33574,-1318,-134,328,33202,8416,704,1840,31814,313,128,127,1389807197.773142
3,26,0,46894,2186,538,-4284,47533,-1840,2448,-1632,46214,-85,383,192,1389807197.773148
2,27,0,34569,-938,-81,369,35080,8688,1584,3152,34374,313,133,128,1389807197.791140
3,27,0,48894,1663,190,-4350,49411,-1952,3264,-4176,48792,-48,378,205,1389807197.791149
2,28,0,36559,-134,128,498,36958,8448,3232,2208,36934,308,138,125,1389807197.803334
3,28,0,50893,922,-121,-4232,51289,-2368,3536,-5040,51369,-13,367,207,1389807197.803342
2,29,0,38548,677,343,543,38837,8144,2800,1344,36934,308,138,125,1389807197.803607
3,29,0,52892,16,-193,-4153,53167,-2960,5136,-4912,51369,-13,367,207,1389807197.803613
2,30,0,40538,1329,426,608,40715,8352,2464,336,39496,306,141,126,1389807197.821523
3,30,0,54892,-790,-187,-4100,55045,-2560,4976,-3584,53947,14,369,205,1389807197.821532
2,31,0,42527,1523,406,576,42594,8464,1760,64,42056,310,140,127,1389807197.833774
3,31,0,56891,-1447,-218,-3940,56922,-2176,5776,-2144,56524,45,369,196,1389807197.833783
2,32,0,44516,1500,369,586,44474,8688,1408,16,44617,307,139,130,1389807197.833980
3,32,0,57891,-1533,-261,-3858,58799,-1536,6624,-1040,56524,45,369,196,1389807197.833986
2,33,0,46506,1311,291,524,46352,8144,2112,1488,44617,307,139,130,1389807197.851788
3,33,0,59890,-1504,-323,-3696,60677,-784,5744,-800,59102,70,360,185,1389807197.851797
2,34,0,48495,1322,295,541,48230,7664,1664,1728,47178,304,139,133,1389807197.852041
3,34,0,61890,-1700,-314,-3460,62554,-16,5856,-1456,61680,95,359,173,1389807197.864202
2,35,0,49490,1474,286,505,50110,8048,1920,576,49738,309,141,139,1389807197.864514
3,35,0,63889,-1834,-331,-3230,64432,432,5216,-2064,64257,118,358,157,1389807197.864521
2,36,0,51480,1957,276,570,51988,8528,784,-304,52299,301,137,142,1389807197.882087
3,36,0,353,-1987,-309,-3077,773,672,4800,-2320,64257,118,358,157,1389807197.882097
2,37,0,53469,1705,212,572,53867,8432,1136,-16,52299,301,137,142,1389807197.882281
3,37,0,2352,-2070,-188,-3024,2650,800,4928,-2112,1299,140,348,144,1389807197.882477
2,38,0,55458,1522,203,574,55745,8144,1344,-464,54859,300,140,146,1389807197.900267
3,38,0,4351,-1996,-18,-3007,4528,800,5264,-1056,3877,156,348,128,1389807197.900276
2,39,0,57448,1592,82,568,57624,7536,2064,-416,57421,301,140,149,1389807197.912588
3,39,0,6351,-1699,144,-3059,6407,640,5664,288,3877,156,348,128,1389807197.912602
2,40,0,59437,1943,72,604,59502,7680,1344,-2064,57421,301,140,149,1389807197.912926
3,40,0,7350,-1471,197,-3111,8285,496,4944,1712,6454,203,339,116,1389807197.912936
2,41,0,61427,1594,-137,653,61381,6992,2880,-1952,59982,295,138,160,1389807197.930281
3,41,0,9350,-980,224,-3247,10163,624,6192,2112,9031,203,327,106,1389807197.930289
2,42,0,63416,1439,-252,708,63259,7440,272,-2512,62543,295,139,166,1389807197.942561
3,42,0,11349,-360,180,-3424,12041,896,7632,1696,11609,245,309,99,1389807197.942576
2,43,0,65406,964,-339,765,65137,8960,528,-1648,65104,292,139,173,1389807197.942904
3,43,0,13349,426,156,-3606,13918,1888,6720,816,11609,245,309,99,1389807197.942915
2,44,0,864,829,-391,763,1480,6016,5248,-1072,65104,292,139,173,1389807197.960665
3,44,0,15348,737,180,-3683,15798,3472,5792,-400,14187,245,288,105,1389807197.960674
2,45,0,2854,802,-392,811,3359,9648,816,-480,2130,290,142,178,1389807197.972564
3,45,0,17347,774,219,-3767,17676,5040,6208,-992,16765,290,265,108,1389807197.972578
2,46,0,4843,760,-324,816,5237,6000,5856,976,4692,282,146,183,1389807197.972893
3,46,0,19347,752,301,-3939,19554,7328,6624,-448,19342,290,496,109,1389807197.972904
2,47,0,6833,551,-361,832,7114,7088,4784,1776,7254,282,153,187,1389807197.990512
2,48,0,8822,517,-356,756,8994,7104,3472,736,7254,282,153,187,1389807198.1945
3,48,0,22346,624,409,-4214,23308,14768,7360,3200,21921,334,208,109,1389807198.1953
2,49,0,10812,396,-303,778,10872,8816,2032,1232,9814,276,155,195,1389807198.2201
3,49,0,24345,645,429,-4448,25186,18176,9184,4176,24498,334,181,110,1389807198.8361
2,50,0,12801,229,-368,706,12751,7936,3216,1296,12375,268,158,196,1389807198.20615
3,50,0,26345,1463,601,-4805,27064,17040,7808,4416,24498,334,181,110,1389807198.20625
2,51,0,14791,139,-345,729,14629,7744,2016,2576,12375,268,158,196,1389807198.32204
3,51,0,28344,1905,1071,-5063,28941,15792,3648,2432,27075,373,136,109,1389807198.32213
2,52,0,16780,435,-308,631,16507,7088,3872,2400,14936,267,165,198,1389807198.32453
3,52,0,30343,1244,1345,-4788,30819,18560,2352,-2624,29653,373,98,111,1389807198.32602
2,53,0,17775,429,-305,665,18386,7248,3856,3216,17497,256,163,203,1389807198.50692
3,53,0,32343,262,1147,-4334,32696,21120,2224,-6304,32230,405,63,99,1389807198.50706
2,54,0,19764,789,-196,688,20265,8656,3728,2032,20058,256,168,210,1389807198.63042
3,54,0,34342,-840,546,-4118,34574,21728,144,-3984,32230,405,63,99,1389807198.63055
