nodeID,seqNumber,status,gyroTick,gyroX,gyroY,gyroZ,accelTick,accelX,accelY,accelZ,magTick,magX,magY,magZ,currentTime
2,175,0,30247,26,5,-30,30985,8176,-672,-864,29295,372,3,-241,1389807033.6010
3,175,0,45021,-28,-1,-8,45002,8288,736,-640,42962,381,32,-286,1389807033.6021
2,176,0,32237,14,-7,-28,32863,8144,-592,-752,31858,372,4,-238,1389807033.9314
3,176,0,46021,-32,-4,-8,46880,8304,832,-528,45541,383,34,-282,1389807033.9323
2,177,0,34226,32,-10,-30,34741,8144,-624,-784,34419,373,7,-237,1389807033.9325
3,177,0,48020,-14,-2,-9,48757,8240,688,-560,48119,382,33,-280,1389807033.9327
2,178,0,36215,50,-1,-29,36619,8192,-704,-800,34419,373,7,-237,1389807033.9340
3,178,0,50019,-9,-7,-8,50633,8240,784,-640,50697,380,34,-288,1389807033.9342
2,179,0,38204,62,-3,-27,38498,8160,-688,-736,36980,373,1,-238,1389807033.9343
3,179,0,52019,-7,-7,-12,52510,8320,896,-752,50697,380,34,-288,1389807033.9345
2,180,0,40193,59,-6,-21,40375,8176,-672,-784,39540,370,4,-240,1389807033.9347
3,180,0,54018,-9,-3,-10,54388,8288,912,-720,53274,382,29,-284,1389807033.9348
2,181,0,42183,55,-11,-21,42253,8176,-608,-736,42100,373,5,-236,1389807033.9350
3,181,0,56017,-14,-6,-12,56265,8320,912,-736,55852,384,34,-282,1389807033.9352
2,182,0,44172,66,-13,-18,44130,8160,-592,-768,42100,373,5,-236,1389807033.9353
3,182,0,58017,-1,-8,-17,58142,8352,928,-752,55852,384,34,-282,1389807033.9355
2,183,0,46161,58,-5,-32,46007,8176,-592,-800,44661,369,256,-235,1389807033.9357
3,183,0,60016,-9,-12,-15,60021,8368,976,-800,58429,384,33,-285,1389807033.9358
2,184,0,47156,50,-15,-36,47884,8160,-592,-800,47221,371,-250,-236,1389807033.9360
3,184,0,61016,-3,-7,-21,61898,8320,1040,-880,61006,386,33,-282,1389807033.9362
2,185,0,49145,43,-9,-26,49761,8112,-496,-688,49783,371,8,-237,1389807033.9364
3,185,0,63015,-19,-5,-17,63776,8368,960,-928,63582,386,34,-284,1389807033.9365
2,186,0,51134,63,-5,-24,51639,8128,-576,-688,49783,371,8,-237,1389807033.9367
3,186,0,65014,-32,1,-24,117,8384,912,-880,63582,386,34,-284,1389807033.9368
2,187,0,53123,96,-1,-28,53517,8176,-544,-720,52344,371,3,-238,1389807033.9370
3,187,0,1478,-28,-3,-24,1996,8256,960,-704,623,383,36,-283,1389807033.9372
2,188,0,55113,107,7,-23,55394,8144,-576,-832,54905,371,4,-240,1389807033.9374
3,188,0,3477,-26,-2,-20,3873,8304,944,-704,3201,383,33,-285,1389807033.9375
2,189,0,57102,95,3,-26,57271,8176,-656,-848,54905,371,4,-240,1389807033.9377
3,189,0,5476,-18,4,-21,5751,8336,960,-672,5778,381,34,-284,1389807033.9379
2,190,0,59091,72,4,-15,59148,8144,-640,-768,57465,373,10,-236,1389807033.9380
3,190,0,7476,-33,10,-27,7628,8352,896,-688,5778,381,34,-284,1389807033.9382
2,191,0,61080,56,4,-6,61026,8160,-608,-688,60026,371,9,-236,1389807033.9384
3,191,0,9475,-45,6,-24,9506,8304,832,-672,8354,381,30,-285,1389807033.9385
2,192,0,62075,79,7,2,62904,8112,-592,-672,62586,372,6,-241,1389807033.9387
3,192,0,10475,-51,3,-26,11383,8320,768,-672,10933,381,32,-284,1389807033.9389
2,193,0,64064,104,8,4,64782,8160,-704,-768,62586,372,6,-241,1389807033.9390
3,193,0,12474,-70,7,-21,13260,8384,768,-688,10933,381,32,-284,1389807033.9392
2,194,0,517,132,8,16,1125,8192,-864,-896,65146,373,7,-238,1389807033.9394
3,194,0,14474,-74,7,-24,15137,8400,768,-592,13510,381,31,-284,1389807033.9395
2,195,0,2507,120,11,21,3003,8176,-928,-1056,2171,370,9,-238,1389807033.9397
3,195,0,16473,-79,13,-28,17015,8384,768,-640,16087,381,35,-284,1389807033.9399
2,196,0,4496,68,3,15,4881,8240,-1104,-1040,4731,369,10,-241,1389807033.9401
3,196,0,18472,-89,15,-28,18892,8400,672,-704,18664,381,31,-287,1389807033.9402
2,197,0,6485,5,-8,16,6759,8224,-896,-1056,4731,369,10,-241,1389807033.9404
3,197,0,20472,-108,12,-32,20768,8352,704,-704,18664,381,31,-287,1389807033.9406
2,198,0,8474,-28,-14,17,8637,8128,-944,-1040,7293,374,11,-233,1389807033.9407
3,198,0,22471,-109,8,-24,22645,8256,704,-624,21242,382,30,-287,1389807033.9409
2,199,0,10464,-39,-9,25,10516,8032,-896,-960,9853,369,11,-236,1389807033.9411
3,199,0,24470,-115,11,-31,24523,8208,688,-576,23820,382,30,-286,1389807033.9412
2,200,0,12453,-50,-16,29,12394,8112,-928,-880,12414,373,6,-243,1389807033.9414
3,200,0,25470,-116,11,-29,25931,8176,736,-560,26397,382,28,-289,1389807033.9416
2,201,0,13447,-49,-18,32,14272,8208,-816,-960,12414,373,6,-243,1389807033.9458
3,201,0,27469,-102,12,-14,28278,8272,672,-496,26397,382,28,-289,1389807033.9460
2,202,0,15437,-46,-12,47,16150,8256,-656,-912,14973,373,9,-236,1389807033.9461
3,202,0,29469,-88,6,-5,30155,8272,640,-480,28974,381,23,-285,1389807033.9463
2,203,0,17426,-60,-14,42,18028,8160,-432,-848,17535,371,10,-238,1389807033.9464
3,203,0,31468,-83,16,3,32032,8240,688,-496,31552,382,30,-286,1389807033.9466
2,204,0,19415,-55,-16,46,19906,8128,-320,-768,17535,371,10,-238,1389807033.9468
3,204,0,33467,-85,13,-3,33910,8208,672,-576,31552,382,30,-286,1389807033.9469
2,205,0,21404,-34,-8,50,21784,8144,-240,-736,20096,368,10,-239,1389807033.9471
3,205,0,35467,-62,3,-3,35788,8208,736,-544,34130,382,28,-288,1389807033.9473
2,206,0,23393,-23,-7,41,23662,8176,-288,-784,22657,369,13,-239,1389807033.9474
3,206,0,37466,-42,-8,18,37665,8192,736,-528,36707,384,29,-289,1389807033.9476
2,207,0,25383,-8,-11,33,25540,8208,-336,-864,25219,375,15,-238,1389807033.9477
3,207,0,39465,-5,-14,13,39542,8256,832,-544,39284,383,31,-286,1389807033.9479
2,208,0,27372,0,-26,25,27417,8176,-240,-992,25219,375,15,-238,1389807033.9481
3,208,0,40465,16,-22,11,41420,8336,928,-704,39284,383,31,-286,1389807033.9482
2,209,0,29361,-39,-14,-9,29296,8112,-256,-1104,27780,372,13,-236,1389807033.9484
3,209,0,42464,48,-11,4,43297,8336,1008,-832,41862,380,30,-285,1389807033.9486
2,210,0,30356,-73,-17,-23,31173,8128,-48,-896,30340,374,13,-238,1389807033.9487
3,210,0,44464,70,-5,11,45176,8480,1008,-976,44439,383,29,-287,1389807033.9489
2,211,0,32345,-94,-23,-37,33051,8224,32,-560,32901,374,11,-233,1389807033.9491
3,211,0,46463,82,-1,-2,46584,8464,1024,-1072,47016,381,32,-287,1389807033.9492
2,212,0,34334,-38,-42,-29,34928,8224,-160,-240,32901,374,11,-233,1389807033.9494
3,212,0,48462,81,-6,-9,48931,8432,1136,-1168,47016,381,32,-287,1389807033.9496
2,213,0,36323,74,-18,-42,36806,8176,-256,-512,35461,370,8,-237,1389807033.9497
3,213,0,50462,56,-14,6,50809,8432,1184,-1152,49592,382,31,-285,1389807033.9499
2,214,0,38313,158,-5,-39,38684,8160,-288,-800,38022,368,8,-237,1389807033.9501
3,214,0,52461,54,-12,-3,52687,8496,1184,-1120,52170,381,30,-287,1389807033.9502
2,215,0,40302,155,-3,-51,40561,8192,-368,-1072,40582,373,16,-234,1389807033.9504
3,215,0,54460,42,-15,-18,54565,8496,1248,-976,52170,381,30,-287,1389807033.9506
2,216,0,42291,85,-19,-61,42438,8208,-416,-1072,40582,373,16,-234,1389807033.9507
3,216,0,55460,54,-14,-27,56442,8432,1136,-928,54746,381,33,-284,1389807033.9509
2,217,0,44280,40,-26,-71,44315,8144,-416,-784,43142,373,14,-235,1389807033.9511
3,217,0,57459,37,-6,-30,57851,8400,1072,-960,57324,381,37,-284,1389807033.9512
2,218,0,45275,35,-29,-74,46193,8160,-480,-704,45703,371,12,-239,1389807033.9514
3,218,0,59459,10,-11,-33,59728,8448,896,-928,59899,380,32,-287,1389807033.9516
2,219,0,47264,53,-22,-70,48072,8128,-752,-640,45703,371,12,-239,1389807033.9517
3,219,0,61458,-4,-13,-26,61606,8416,880,-800,59899,380,32,-287,1389807033.9519
2,220,0,49253,94,-14,-73,49950,8112,-944,-736,48264,373,12,-237,1389807033.9521
3,220,0,63457,-12,-8,-36,63484,8336,896,-576,62476,381,30,-286,1389807033.9522
2,221,0,51243,88,-8,-64,51827,8112,-992,-864,50825,369,9,-237,1389807033.9524
3,221,0,65457,-6,-8,-31,65362,8288,848,-528,65054,379,29,-286,1389807033.9526
2,222,0,53232,50,-8,-60,53706,8112,-880,-976,53384,372,13,-238,1389807033.9527
3,222,0,1920,-5,-8,-27,1703,8240,864,-544,2095,382,32,-287,1389807033.9529
2,223,0,55221,-10,-4,-50,55584,8144,-768,-928,53384,372,13,-238,1389807033.9531
3,223,0,3919,-27,1,-26,3580,8240,880,-512,2095,382,32,-287,1389807033.9532
2,224,0,57210,-83,-13,-62,57462,8176,-624,-752,55945,374,9,-235,1389807033.9534
3,224,0,4919,-37,10,-38,5458,8224,912,-496,4672,382,28,-285,1389807033.9536
2,225,0,59200,-93,-10,-53,59340,8208,-528,-656,58505,373,14,-235,1389807033.9561
3,225,0,6918,-24,11,-34,7336,8224,832,-496,7250,383,30,-283,1389807033.9563
2,226,0,61189,-55,-19,-46,61217,8144,-640,-464,61065,371,8,-235,1389807033.9565
3,226,0,8918,-60,8,-36,9213,8208,864,-480,7250,383,30,-283,1389807033.9567
2,227,0,62183,-33,3,-36,63094,8144,-752,-576,61065,371,8,-235,1389807033.9583
3,227,0,10917,-66,10,-44,11091,8240,784,-480,9827,378,26,-286,1389807033.9585
2,228,0,64173,29,-1,-34,64973,8192,-800,-704,63625,374,10,-234,1389807033.9587
3,228,0,12916,-63,11,-34,12969,8240,752,-384,12405,382,29,-286,1389807033.9588
2,229,0,626,34,3,-26,1316,8160,-848,-928,649,375,13,-233,1389807033.9590
3,229,0,14916,-68,13,-41,14846,8272,736,-368,14982,385,31,-287,1389807033.9592
2,230,0,2615,0,6,-19,3194,8176,-848,-1008,649,375,13,-233,1389807033.9594
3,230,0,16915,-47,13,-38,16724,8256,736,-432,14982,385,31,-287,1389807033.9595
2,231,0,4604,-69,9,-24,5072,8160,-656,-848,3210,375,10,-236,1389807033.9597
3,231,0,18915,-30,21,-29,18602,8288,640,-496,17559,380,29,-286,1389807033.9599
2,232,0,6594,-117,0,-13,6950,8160,-560,-720,5770,375,9,-237,1389807033.9601
3,232,0,19914,-25,22,-33,20480,8384,720,-624,20136,382,28,-288,1389807033.9603
2,233,0,8583,-96,3,-29,8828,8160,-480,-688,8331,372,9,-236,1389807033.9604
3,233,0,21914,-47,23,-29,22358,8400,800,-736,22714,386,31,-287,1389807033.9606
2,234,0,10572,-65,6,-20,10707,8112,-496,-640,8331,372,9,-236,1389807033.9607
3,234,0,23913,-62,9,-34,24236,8416,832,-816,22714,386,31,-287,1389807033.9609
2,235,0,12561,-50,14,-21,12585,8160,-496,-832,10891,368,8,-237,1389807033.9611
3,235,0,25912,-84,15,-27,26113,8560,832,-752,25291,381,25,-286,1389807033.9613
2,236,0,13556,-60,11,-23,14463,8144,-496,-944,13452,374,9,-239,1389807033.9614
3,236,0,27912,-81,8,-30,27992,8640,880,-752,27868,380,26,-289,1389807033.9616
2,237,0,15545,-81,9,-12,16340,8160,-592,-832,16012,373,12,-234,1389807033.9618
3,237,0,29911,-93,-2,-37,29870,8448,912,-704,27868,380,26,-289,1389807033.9619
2,238,0,17534,-80,4,-12,18218,8192,-656,-688,16012,373,12,-234,1389807033.9621
3,238,0,31910,-105,9,-41,31748,8336,896,-768,30446,384,27,-286,1389807033.9623
2,239,0,19524,-77,4,-3,20096,8160,-656,-816,18573,370,7,-235,1389807033.9624
3,239,0,33910,-100,18,-41,33626,8272,848,-832,33022,381,31,-291,1389807033.9626
2,189,0,9063,-176,-73,-86,8995,8272,144,-288,7130,349,113,22,1389807033.9879
3,189,0,23043,-302,-68,-55,23056,8288,240,64,21804,405,102,26,1389807033.9887
2,190,0,11052,-246,-82,-83,10873,8256,400,-272,9691,349,111,25,1389807033.28210
3,190,0,25043,-257,-81,-51,24934,8272,400,-80,24382,400,104,24,1389807033.28219
2,191,0,12047,-246,-86,-78,12751,8192,704,-208,12251,350,112,24,1389807033.28510
3,191,0,26042,-232,-85,-33,26811,8384,496,-48,26960,402,103,26,1389807033.28539
2,192,0,14036,-135,-88,-76,14629,8096,704,64,14812,346,110,23,1389807033.46176
3,192,0,28042,-155,-86,-20,28689,8512,608,208,26960,402,103,26,1389807033.46184
2,193,0,16025,4,-84,-71,16508,8096,720,-48,14812,346,110,23,1389807033.56975
3,193,0,30041,-97,-78,-18,30567,8576,592,240,29537,404,103,32,1389807033.56984
2,194,0,18014,88,-55,-70,18386,8048,576,-384,17372,349,113,26,1389807033.57202
3,194,0,32040,-101,-71,-24,32444,8464,848,-32,32113,401,100,24,1389807033.57207
2,195,0,20004,108,-59,-57,20264,8128,112,-336,19932,350,109,28,1389807033.75245
3,195,0,34040,-142,-69,-20,34322,8240,1024,16,32113,401,100,24,1389807033.75259
2,196,0,21993,15,-84,-49,22142,8304,-272,-144,19932,350,109,28,1389807033.86939
3,196,0,36039,-205,-91,-36,36199,8144,960,352,34691,402,105,26,1389807033.86954
2,197,0,23982,-78,-81,-49,24020,8304,-432,-32,22492,347,108,28,1389807033.87256
3,197,0,38038,-304,-94,-26,38076,8192,672,368,37267,403,104,32,1389807033.87555
2,198,0,25971,-143,-84,-34,25899,8320,-576,224,25053,348,110,25,1389807033.105549
3,198,0,40038,-351,-79,-13,39953,8320,272,176,39844,402,106,26,1389807033.105563
2,199,0,27961,-227,-80,-24,27778,8304,-480,176,27615,351,111,31,1389807033.117895
3,199,0,41037,-346,-91,-6,41831,8432,-224,80,39844,402,106,26,1389807033.117904
2,200,0,28955,-230,-83,-7,29656,8368,-224,48,27615,351,111,31,1389807033.118170
3,200,0,43037,-329,-87,16,43709,8368,-368,96,42421,403,103,25,1389807033.118177
2,201,0,30945,-194,-85,8,31534,8416,0,-48,30176,347,111,31,1389807033.135867
3,201,0,45036,-256,-94,31,45586,8272,-352,384,45000,401,106,27,1389807033.135877
2,202,0,32934,-146,-80,43,33413,8320,272,-208,32737,347,112,22,1389807033.148089
3,202,0,47035,-129,-102,57,47463,8288,-320,832,47576,399,107,28,1389807033.148098
2,203,0,34923,-57,-90,61,35291,8176,240,-224,35298,347,111,26,1389807033.148382
3,203,0,49035,6,-111,74,49342,8256,0,1040,47576,399,107,28,1389807033.148389
2,204,0,36912,50,-80,93,37169,8112,240,-64,35298,347,111,26,1389807033.165526
3,204,0,51034,139,-87,92,51219,8352,224,944,50154,399,109,28,1389807033.165535
2,205,0,38902,141,-76,128,39047,8112,320,-112,37859,347,115,29,1389807033.177867
3,205,0,53033,239,-76,113,53097,8432,240,816,52732,400,108,31,1389807033.177882
2,206,0,40891,243,-73,150,40925,8160,336,-144,40420,345,116,28,1389807033.178185
3,206,0,55033,243,-78,110,54976,8208,416,384,52732,400,108,31,1389807033.178194
2,207,0,42880,283,-74,159,42803,8192,256,-176,42980,347,116,33,1389807033.196197
3,207,0,56033,204,-76,114,56854,8096,400,-208,55308,398,112,32,1389807033.196206
2,208,0,44869,250,-77,167,44680,8208,240,-208,42980,347,116,33,1389807033.207676
3,208,0,58032,105,-86,141,58732,8176,304,-224,57885,397,111,30,1389807033.207690
2,209,0,45864,232,-78,160,46558,8128,352,-144,45540,345,117,33,1389807033.208012
3,209,0,60031,83,-116,176,60610,8368,384,144,60462,402,112,33,1389807033.208023
2,210,0,47853,192,-93,161,48436,8080,400,-144,48101,342,119,33,1389807033.225936
3,210,0,62031,114,-127,196,62488,8320,656,464,60462,402,112,33,1389807033.225950
2,211,0,49843,189,-88,168,50314,8160,144,-16,48101,342,119,33,1389807033.238103
3,211,0,64030,161,-106,213,64366,8256,848,480,63039,397,109,37,1389807033.238117
2,212,0,51832,196,-70,165,52192,8192,-96,16,50661,344,119,34,1389807033.238442
3,212,0,493,164,-98,223,708,8224,752,256,80,394,119,32,1389807033.238452
2,213,0,53821,188,-64,169,54069,8256,96,-80,53221,344,123,39,1389807033.256005
3,213,0,2493,157,-108,247,2586,8304,800,160,2657,395,119,42,1389807033.256014
2,214,0,55810,211,-54,159,55948,8176,352,112,55781,344,123,36,1389807033.267243
3,214,0,4492,160,-110,268,4465,8448,944,416,2657,395,119,42,1389807033.267251
2,215,0,57800,86,-45,135,57826,8128,912,144,55781,344,123,36,1389807033.267515
3,215,0,5492,161,-116,268,6343,8368,944,640,5234,395,120,45,1389807033.267521
2,216,0,59789,19,-59,141,59703,8368,768,304,58342,345,124,40,1389807033.285416
3,216,0,7491,143,-119,269,8222,8256,1088,784,7811,392,123,42,1389807033.285424
2,217,0,60784,26,-66,136,61581,8352,992,672,60903,345,123,43,1389807033.297319
3,217,0,9490,111,-105,260,10100,8288,912,864,7811,392,123,42,1389807033.297327
2,218,0,62773,16,-71,144,63458,8224,1056,640,63463,340,126,40,1389807033.297592
3,218,0,11490,97,-111,268,11978,8544,656,880,10389,394,123,40,1389807033.297598
2,219,0,64762,84,-55,136,65335,8144,1152,592,63463,340,126,40,1389807033.315529
3,219,0,13489,108,-103,259,13857,8480,784,896,12966,388,125,46,1389807033.315538
2,220,0,1215,151,-38,115,1677,8192,976,480,489,340,128,42,1389807033.327798
3,220,0,15488,169,-97,227,15736,8224,1008,928,15543,388,126,41,1389807033.327812
2,221,0,3205,228,-42,107,3554,8192,592,192,3050,345,126,43,1389807033.328139
3,221,0,17488,249,-83,219,17613,8096,1104,896,15543,388,126,41,1389807033.328149
2,222,0,5194,234,-35,102,5431,8272,480,-48,3050,345,126,43,1389807033.345595
3,222,0,19487,295,-66,235,19491,8160,1152,768,18120,391,127,45,1389807033.345604
2,223,0,7183,157,-20,99,7309,8272,592,-240,5611,338,129,44,1389807033.357733
3,223,0,20487,294,-67,249,21369,8320,1264,624,20697,391,129,51,1389807033.357742
2,224,0,9172,50,-22,93,9186,8304,272,-304,8172,338,131,42,1389807033.357973
3,224,0,22486,271,-81,226,23246,8304,1616,592,20697,391,129,51,1389807033.357981
2,225,0,11162,-41,-21,95,11064,8288,16,-288,10731,341,129,46,1389807033.375898
3,225,0,24486,278,-80,177,25123,8256,1664,576,23274,386,131,51,1389807033.375913
2,226,0,12156,-110,-23,96,12942,8240,176,-480,10731,341,129,46,1389807033.387841
3,226,0,26485,320,-76,178,27002,8256,1968,544,25852,386,133,53,1389807033.387850
2,227,0,14146,-265,-17,95,14820,8240,432,-416,13291,338,130,45,1389807033.388117
3,227,0,28484,390,-66,173,28881,8224,1952,560,28430,384,131,57,1389807033.388165
2,228,0,16135,-390,-25,108,16698,8288,688,48,15852,336,133,42,1389807033.404712
3,228,0,30484,363,-57,167,30758,8304,1696,496,28430,384,131,57,1389807033.404720
2,229,0,18124,-447,-40,122,18575,8320,992,480,18413,341,133,40,1389807033.416792
3,229,0,32483,262,-70,165,32636,8432,1632,400,31006,384,134,58,1389807033.416801
2,230,0,20113,-380,-36,131,20453,8272,1296,608,18413,341,133,40,1389807033.417046
3,230,0,34482,226,-86,111,34514,8352,1968,608,33584,385,134,58,1389807033.417287
2,231,0,22103,-215,-21,129,22330,8224,1392,560,20974,336,130,41,1389807033.434883
3,231,0,35482,252,-87,83,36392,8256,2240,1040,36161,385,133,59,1389807033.434897
2,232,0,24092,-52,-19,130,24206,8208,1504,416,23535,336,135,38,1389807033.446152
3,232,0,37481,309,-56,69,38269,8288,2032,1056,36161,385,133,59,1389807033.446160
2,233,0,26081,6,-3,104,26084,8192,1632,240,26095,334,138,41,1389807033.457540
3,233,0,39481,284,-33,73,40145,8416,1936,704,38738,378,134,61,1389807033.457548
2,234,0,28070,37,-6,84,27963,8272,1600,192,26095,334,138,41,1389807033.457746
3,234,0,41480,237,-23,63,42022,8304,1824,416,41315,378,136,61,1389807033.457750
2,235,0,29065,51,-4,70,29840,8288,1584,336,28657,334,137,43,1389807033.475030
3,235,0,43479,190,-25,64,43430,8272,1664,480,43891,386,137,62,1389807033.475035
2,236,0,31054,37,0,41,31718,8288,1520,304,31218,329,140,38,1389807033.486715
3,236,0,45479,142,-33,60,45777,8272,1712,656,43891,386,137,62,1389807033.486722
2,237,0,33044,49,6,24,33595,8288,1488,240,31218,329,140,38,1389807033.486882
3,237,0,47478,137,-20,61,47653,8384,1712,752,46468,381,135,65,1389807033.492425
2,238,0,35033,77,11,-8,35473,8288,1328,288,33778,340,140,41,1389807033.503530
3,238,0,49477,161,-8,64,49531,8288,1776,720,49046,378,136,62,1389807033.503536
2,239,0,37022,99,18,-5,37351,8256,1216,192,36339,335,140,42,1389807033.515137
3,239,0,50477,163,-5,72,51409,8240,1792,640,49046,378,136,62,1389807033.515141
2,240,0,39011,112,13,-15,39228,8176,1008,128,38900,332,139,38,1389807033.527155
3,240,0,52476,145,-1,58,53286,8272,1696,560,51624,383,135,65,1389807033.527164
2,241,0,41001,97,9,-28,41105,8096,960,32,38900,332,139,38,1389807033.527357
3,241,0,54476,116,1,63,55164,8352,1696,800,54202,382,135,66,1389807033.527362
2,242,0,42990,101,9,-41,42982,8112,992,80,41459,336,140,40,1389807033.544505
3,242,0,56475,87,-1,62,57042,8400,1600,928,56780,377,138,65,1389807033.544511
2,243,0,44979,119,16,-33,44859,8192,1024,176,44021,335,138,43,1389807033.555854
3,243,0,58474,68,19,57,58919,8320,1632,960,56780,377,138,65,1389807033.555858
2,244,0,45974,133,18,-36,46737,8224,1216,176,46582,333,140,39,1389807033.566867
3,244,0,60474,75,29,40,60327,8272,1536,880,59358,380,138,64,1389807033.566872
2,245,0,47963,170,25,-40,48614,8272,1360,96,46582,333,140,39,1389807033.566969
3,245,0,62473,93,41,45,62204,8304,1264,800,61934,385,134,67,1389807033.567111
2,246,0,49952,254,11,-50,50491,8304,1152,208,49143,334,140,44,1389807033.583991
3,246,0,64473,19,41,40,64081,8288,1184,640,64511,376,139,67,1389807033.583997
2,247,0,51942,337,15,-47,52368,8256,928,224,51704,337,138,45,1389807033.595555
3,247,0,65472,-18,40,36,423,8368,1232,512,64511,376,139,67,1389807033.595559
2,248,0,53931,349,19,-47,54247,8144,800,96,54265,333,133,44,1389807033.606940
3,248,0,1936,-11,37,26,2300,8304,1296,736,1552,381,140,62,1389807033.606945
2,249,0,55920,292,41,-58,56124,8096,640,-128,54265,333,133,44,1389807033.607102
3,249,0,3935,76,34,34,4178,8304,1072,960,4130,383,138,66,1389807033.607207
2,250,0,57909,179,39,-76,58002,8128,608,-160,56826,333,136,48,1389807033.624709
3,250,0,5934,98,54,48,6056,8320,1216,752,4130,383,138,66,1389807033.624715
2,251,0,59899,105,21,-81,59879,8256,544,-144,59387,337,134,48,1389807033.636189
3,251,0,7934,98,60,41,7933,8272,1504,480,6707,378,139,71,1389807033.636193
2,252,0,60893,75,15,-86,61757,8368,512,-96,59387,337,134,48,1389807033.647590
3,252,0,9933,127,50,32,9811,8240,1616,416,9286,380,141,62,1389807033.647595
2,253,0,62883,26,14,-106,63636,8336,592,-144,61948,334,136,44,1389807033.647799
3,253,0,11932,102,42,18,11689,8288,1728,544,11863,383,138,65,1389807033.647835
2,254,0,64872,-9,41,-96,65513,8144,640,64,64509,334,133,39,1389807033.664708
3,254,0,13932,53,39,1,13567,8320,1952,688,11863,383,138,65,1389807033.664714
2,255,0,1325,-35,33,-66,1854,8176,448,288,1535,339,133,46,1389807033.676290
3,255,0,14931,38,34,4,15446,8368,1872,688,14440,378,139,64,1389807033.676294
2,0,0,3314,21,24,-50,3732,8256,544,384,1535,339,133,46,1389807033.682223
3,0,0,16931,-2,45,-19,17324,8336,1664,592,17018,377,142,64,1389807033.682404
2,1,0,5304,135,33,-53,5610,8288,816,288,4097,334,133,44,1389807033.693732
3,1,0,18930,-44,62,-28,19201,8368,1376,336,19595,383,139,65,1389807033.693738
2,2,0,7293,217,51,-31,7487,8240,704,0,6657,332,135,41,1389807033.705407
3,2,0,20929,-71,53,-31,21079,8320,1184,432,19595,383,139,65,1389807033.705413
2,3,0,9282,220,60,-19,9364,8128,432,-256,9219,337,132,44,1389807033.717211
3,3,0,22929,-57,45,-29,22956,8304,1152,752,22172,382,135,65,1389807033.717218
2,4,0,11271,143,51,-17,11241,8096,240,-432,9219,337,132,44,1389807033.717496
3,4,0,24928,-12,41,-16,24834,8208,1200,976,24750,378,138,60,1389807033.717500
2,5,0,12266,80,45,-19,13118,8144,432,-640,11780,336,132,47,1389807033.735161
3,5,0,26927,30,59,-8,26711,8272,1104,832,24750,378,138,60,1389807033.735171
2,6,0,14255,-62,36,-40,14995,8144,528,-288,14339,340,133,41,1389807033.747214
3,6,0,28927,53,73,6,28589,8272,1200,496,27328,381,138,61,1389807033.747223
2,7,0,16245,-148,45,-46,16872,8160,464,144,16900,338,134,41,1389807033.747407
3,7,0,29927,65,62,6,30467,8304,1280,320,29905,380,139,63,1389807033.747412
2,8,0,18234,-170,36,-34,18750,8192,592,496,16900,338,134,41,1389807033.765231
3,8,0,31926,53,66,11,32345,8336,1456,400,32483,378,141,60,1389807033.765240
2,9,0,20223,-121,43,-15,20627,8192,800,512,19461,338,133,45,1389807033.777391
3,9,0,33925,6,53,19,34223,8336,1376,496,32483,378,141,60,1389807033.777400
2,10,0,22212,-17,48,-5,22504,8208,784,528,22022,333,132,38,1389807033.777663
3,10,0,35925,-40,58,14,36101,8304,1456,480,35060,383,141,59,1389807033.777669
2,11,0,24202,59,57,0,24383,8240,400,304,22022,333,132,38,1389807033.795528
3,11,0,37924,-6,47,20,37979,8304,1504,608,37637,382,140,63,1389807033.795537
2,12,0,26191,82,82,16,26261,8256,336,-208,24584,337,134,41,1389807033.807204
3,12,0,39923,0,40,23,39857,8352,1440,576,40215,378,141,63,1389807033.807213
2,13,0,28180,31,83,10,28140,8160,288,-720,27145,337,133,43,1389807033.807519
3,13,0,41923,-16,62,25,41734,8336,1536,480,40215,378,141,63,1389807033.807525
2,14,0,29175,-31,79,12,30018,8176,336,-800,29706,333,133,39,1389807033.825609
3,14,0,43922,-22,65,29,43611,8304,1584,464,42792,380,135,57,1389807033.825623
2,15,0,31164,-189,64,21,31895,8160,304,-432,29706,333,133,39,1389807033.837745
3,15,0,44922,-16,61,31,45489,8240,1504,576,45370,385,142,61,1389807033.837754
2,16,0,33153,-326,56,28,33774,8176,512,-64,32267,342,130,37,1389807033.838018
3,16,0,46921,-16,72,27,47366,8224,1568,496,45370,385,142,61,1389807033.838024
2,17,0,35143,-356,50,32,35652,8256,960,128,34826,338,134,37,1389807033.856218
3,17,0,48920,-56,70,23,49244,8288,1568,464,47949,379,141,60,1389807033.856227
2,18,0,37132,-272,55,42,37529,8240,1088,320,37385,337,137,33,1389807033.862351
3,18,0,50920,-88,75,19,51122,8304,1568,368,50525,381,141,55,1389807033.862546
2,19,0,39121,-170,62,49,39407,8208,1056,368,37385,337,137,33,1389807033.874552
3,19,0,52919,-90,65,20,53000,8272,1520,528,53104,381,145,60,1389807033.874561
2,20,0,41110,-70,66,59,41285,8240,816,224,39944,338,138,31,1389807033.886404
3,20,0,54918,-108,81,25,54878,8304,1600,528,53104,381,145,60,1389807033.886418
2,21,0,43100,-26,81,65,43163,8288,656,-16,42505,340,139,33,1389807033.892561
3,21,0,56918,-115,84,29,56755,8272,1584,416,55682,379,144,59,1389807033.892713
2,22,0,44094,-32,88,69,45040,8256,656,-224,42505,340,139,33,1389807033.904631
3,22,0,58917,-145,92,15,58633,8256,1680,336,58259,378,146,51,1389807033.904640
2,23,0,46083,-74,77,62,46917,8128,576,-224,45064,337,138,32,1389807033.916819
3,23,0,59917,-169,90,19,60511,8304,1680,320,60838,383,143,53,1389807033.916827
2,24,0,48073,-142,80,69,48794,8128,432,-256,47625,337,140,30,1389807033.917154
3,24,0,61916,-223,92,17,62389,8352,1536,448,60838,383,143,53,1389807033.917407
2,25,0,50062,-216,83,72,50671,8176,544,-112,50186,339,137,29,1389807033.934946
3,25,0,63915,-249,87,20,64267,8240,1472,528,63415,379,140,56,1389807033.934955
2,26,0,52051,-275,76,74,52550,8160,704,-80,50186,339,137,29,1389807033.947152
3,26,0,379,-243,94,9,608,8272,1376,512,456,378,146,49,1389807033.947160
2,27,0,54041,-279,77,82,54427,8176,736,112,52747,335,142,25,1389807033.947371
3,27,0,2378,-215,97,9,2486,8272,1248,528,456,378,146,49,1389807033.947376
2,28,0,56030,-246,85,95,56305,8192,784,144,55308,335,142,24,1389807033.965211
3,28,0,4378,-173,101,25,4365,8240,1200,560,3035,384,145,49,1389807033.965220
2,29,0,58019,-194,98,99,58182,8176,832,-32,57869,336,145,25,1389807033.977370
3,29,0,6377,-124,102,42,6243,8272,1184,528,5612,383,149,53,1389807033.977385
2,30,0,60008,-175,96,119,60059,8256,752,-144,57869,336,145,25,1389807033.977684
3,30,0,8376,-93,105,47,8120,8288,1168,512,8190,377,149,45,1389807033.977695
2,31,0,61003,-187,100,119,61937,8240,752,-304,60430,335,140,25,1389807033.995669
3,31,0,9376,-93,107,53,9999,8336,1104,352,8190,377,149,45,1389807033.995678
2,32,0,62992,-221,91,128,63345,8224,720,-304,62992,333,145,20,1389807034.7814
3,32,0,11375,-127,98,53,11878,8368,1264,352,10770,383,149,44,1389807034.7828
2,33,0,64981,-252,94,122,65223,8176,832,-352,18,335,149,18,1389807034.8291
3,33,0,13375,-161,91,50,13757,8288,1200,432,13348,381,148,47,1389807034.8306
2,34,0,1435,-277,90,120,1565,8176,896,-240,18,335,149,18,1389807034.25695
3,34,0,15374,-155,101,66,15634,8224,1072,560,15925,378,149,44,1389807034.25709
2,35,0,3424,-290,89,124,3443,8080,928,-224,2577,333,146,17,1389807034.37820
3,35,0,17373,-126,99,88,17512,8320,1088,544,15925,378,149,44,1389807034.37828
2,36,0,5413,-266,87,133,5321,8048,976,-144,5137,333,149,11,1389807034.38098
3,36,0,19373,-114,102,106,19389,8272,1088,480,18502,385,149,37,1389807034.38104
2,37,0,7403,-220,97,150,7199,8096,912,-240,5137,333,149,11,1389807034.55444
3,37,0,21372,-102,121,122,21267,8208,784,464,21080,385,151,41,1389807034.55453
2,38,0,9392,-213,103,159,9077,8128,784,-320,7697,332,150,13,1389807034.67175
3,38,0,23371,-103,105,147,23145,8224,544,480,21080,385,151,41,1389807034.67183
2,39,0,11381,-232,99,156,10954,8192,736,-352,10259,332,153,12,1389807034.67472
3,39,0,24371,-96,96,166,25022,8224,768,400,23657,377,155,43,1389807034.67477
2,40,0,12376,-260,102,171,12832,8128,688,-224,12819,331,155,9,1389807034.85184
3,40,0,26370,-28,93,180,26900,8176,784,448,26234,377,157,39,1389807034.85191
2,41,0,14365,-335,101,172,14710,8128,688,-224,12819,331,155,9,1389807034.97377
3,41,0,28370,19,96,215,28778,8176,512,352,28812,375,160,38,1389807034.97387
2,42,0,16354,-428,101,170,16588,8080,1056,-160,15381,330,158,7,1389807034.97599
3,42,0,30369,18,93,263,30656,8256,448,304,28812,375,160,38,1389807034.97604
2,43,0,18343,-468,104,158,18465,8048,1392,144,17942,330,158,5,1389807034.115637
3,43,0,32368,1,70,296,32534,8240,-240,400,31391,375,162,38,1389807034.115647
2,44,0,20333,-385,126,159,20343,8128,1504,128,20503,329,160,2,1389807034.127727
3,44,0,34368,-60,84,366,34411,8336,-480,272,33969,373,161,34,1389807034.127736
2,45,0,22322,-268,124,177,22221,8208,1520,32,20503,329,160,2,1389807034.128007
3,45,0,36367,-52,61,371,36290,8192,-256,272,36546,373,166,39,1389807034.128013
2,46,0,24311,-183,123,173,24098,8288,1248,-288,23065,329,163,-1,1389807034.146161
3,46,0,38367,79,77,420,38168,7792,256,192,36546,373,166,39,1389807034.146170
2,47,0,26301,-214,134,160,25977,8224,1072,-864,25625,330,162,0,1389807034.157752
3,47,0,39366,121,97,497,40046,8112,-560,-176,39124,367,165,37,1389807034.157766
2,48,0,27295,-264,132,151,27854,8128,1088,-1232,28185,327,162,-7,1389807034.158086
3,48,0,41366,47,108,682,41925,8304,-784,-608,41704,367,179,32,1389807034.158096
2,49,0,29284,-398,122,126,29733,8080,896,-880,28185,327,162,-7,1389807034.176249
3,49,0,43365,-48,88,827,43803,8432,-768,-720,41704,367,179,32,1389807034.176257
2,50,0,31274,-511,115,129,31611,8096,1232,-96,30745,326,166,-5,1389807034.182345
3,50,0,45364,-105,79,960,45681,8496,-816,-624,44281,365,186,34,1389807034.182509
2,51,0,33263,-534,110,129,33489,8144,1472,144,33305,327,168,-12,1389807034.194456
3,51,0,47364,-199,76,1103,47559,8832,-832,-608,46859,365,194,38,1389807034.194464
2,52,0,35252,-292,130,142,35367,8144,1696,688,33305,327,168,-12,1389807034.206223
3,52,0,49363,-267,50,1226,49437,9232,-432,-576,49436,357,206,30,1389807034.206238
2,53,0,37241,-4,153,158,37245,8336,1408,528,35866,324,168,-14,1389807034.212513
3,53,0,51362,-263,25,1320,51315,9488,304,-160,49436,357,206,30,1389807034.212723
2,54,0,39231,121,166,185,39124,8480,1104,-496,38428,324,170,-17,1389807034.223817
3,54,0,53362,-237,17,1400,53194,9808,496,336,52013,354,214,27,1389807034.223832
2,55,0,41220,9,154,152,41002,8272,1136,-1696,40990,328,173,-14,1389807034.235123
3,55,0,54361,-214,22,1449,55072,10496,912,320,54591,350,223,30,1389807034.235132
2,56,0,43209,-130,134,143,42879,8032,1248,-1696,40990,328,173,-14,1389807034.247165
3,56,0,56361,-144,-4,1502,56950,11184,1696,240,57169,337,234,30,1389807034.247174
2,57,0,44204,-201,124,145,44757,8064,1456,-1024,43550,327,173,-19,1389807034.247379
3,57,0,58360,-86,-57,1471,58828,11504,2272,112,57169,337,234,30,1389807034.247384
2,58,0,46193,-248,117,142,46634,8240,1664,-928,46112,319,176,-21,1389807034.264459
3,58,0,60359,-146,-85,1455,60706,11824,1600,-256,59747,330,243,28,1389807034.264468
2,59,0,48182,-102,98,156,48512,8320,1808,-544,48674,325,176,-19,1389807034.276418
3,59,0,62359,-383,-117,1452,62584,11728,1312,-560,62324,324,253,32,1389807034.276426
2,60,0,50172,64,96,177,50389,8256,1824,-464,48674,325,176,-19,1389807034.276673
3,60,0,64358,-433,-121,1447,64462,11024,2240,-240,62324,324,253,32,1389807034.288154
2,61,0,52161,243,89,193,52266,8128,1520,-432,51234,322,178,-20,1389807034.288492
3,61,0,821,-366,-49,1470,803,10368,2320,384,64902,316,10,28,1389807034.288503
2,62,0,54150,316,97,205,54144,8080,1104,-576,53796,321,181,-22,1389807034.306696
3,62,0,2821,-449,18,1481,2681,9984,2448,880,1944,308,279,22,1389807034.306710
2,63,0,56139,422,96,217,56022,8160,912,-496,56357,322,182,-19,1389807034.307016
3,63,0,3820,-435,35,1478,4559,9312,3744,1360,4520,298,284,22,1389807034.307327
2,64,0,58129,519,107,218,57900,8320,1024,-176,56357,322,182,-19,1389807034.325215
3,64,0,5820,-83,78,1437,6436,8624,4448,2048,4520,298,284,22,1389807034.325229
2,65,0,60118,619,118,227,59779,8320,1488,0,58917,321,182,-20,1389807034.336956
3,65,0,7819,353,135,1355,8313,8240,4592,1728,7097,292,295,26,1389807034.336965
2,66,0,61113,624,120,219,61657,8192,1776,-176,61480,317,184,-16,1389807034.337215
3,66,0,9819,635,131,1187,10191,8240,4016,176,9675,281,301,26,1389807034.337458
2,67,0,63102,617,87,226,63534,8304,2128,-592,61480,317,184,-16,1389807034.355545
3,67,0,11818,668,79,967,12069,8272,2512,-1808,12251,277,304,35,1389807034.355560
2,68,0,65091,658,66,218,65412,8256,2080,-896,64041,318,188,-15,1389807034.367730
3,68,0,13817,422,43,665,13947,8080,2224,-3264,12251,277,304,35,1389807034.367739
2,69,0,1544,567,70,223,1755,8240,1808,-1152,1066,318,187,-9,1389807034.368006
3,69,0,15817,104,66,332,15825,7520,1968,-3312,14827,268,302,34,1389807034.368012
2,70,0,3534,562,61,218,3633,8208,2320,-896,3627,313,189,-11,1389807034.386169
3,70,0,17816,-223,75,-15,17703,6768,2464,-2192,17405,266,309,31,1389807034.386178
2,71,0,5523,621,47,201,5511,8160,2208,32,3627,313,189,-11,1389807034.397769
3,71,0,18816,-363,88,-183,19580,6352,3008,-1200,17405,266,309,31,1389807034.397777
2,72,0,7512,677,25,213,7390,8192,1904,304,6187,316,187,-5,1389807034.398017
3,72,0,20815,-527,136,-448,21458,6480,2752,-528,19982,269,303,28,1389807034.398022
2,73,0,9501,843,31,239,9267,8208,1536,-128,8748,314,190,-2,1389807034.415594
3,73,0,22814,-586,148,-693,23335,6720,2576,-112,22559,273,299,25,1389807034.415603
2,74,0,10496,871,45,245,11144,8112,1600,-880,11309,312,192,3,1389807034.427670
3,74,0,24814,-492,162,-952,25212,6864,2592,80,25136,273,294,21,1389807034.427679
2,75,0,12485,819,46,234,13023,8064,1552,-1088,11309,312,192,3,1389807034.427942
3,75,0,26813,-267,174,-1205,27089,6976,2688,464,25136,273,294,21,1389807034.427989
2,76,0,14475,745,26,236,14901,8064,1296,-752,13871,313,193,6,1389807034.445720
3,76,0,28812,-64,206,-1411,28966,6992,2832,592,27713,283,287,17,1389807034.445729
2,77,0,16464,671,3,240,16779,8016,1312,-912,16433,311,195,13,1389807034.457897
3,77,0,30812,158,240,-1580,30843,7104,3152,528,30290,288,276,20,1389807034.457911
2,78,0,18453,584,32,242,18657,7792,1312,-944,16433,311,195,13,1389807034.458233
3,78,0,32811,353,265,-1736,32721,7408,3232,224,32867,297,262,16,1389807034.458244
2,79,0,20442,510,35,269,20534,7792,1312,-592,18994,307,192,8,1389807034.476231
3,79,0,33811,417,278,-1812,34598,7760,3424,0,32867,297,262,16,1389807034.476245
2,80,0,22432,422,20,285,22413,8096,1248,-768,21555,307,197,11,1389807034.482452
3,80,0,35810,458,302,-1942,36475,8000,3232,-128,35445,310,503,16,1389807034.482709
2,81,0,24421,330,7,291,24291,8176,1472,-1008,24116,307,198,14,1389807034.494539
3,81,0,37809,368,316,-2082,38352,8016,3200,-448,38022,324,235,22,1389807034.494553
2,82,0,26410,243,10,296,26170,8256,1552,-944,24116,307,198,14,1389807034.506315
3,82,0,39809,345,321,-2223,40229,7952,3488,-256,38022,324,235,22,1389807034.506329
2,83,0,27405,208,6,303,28047,8128,1776,-816,26676,303,201,16,1389807034.512406
3,83,0,41808,342,315,-2271,42106,8016,3360,-32,40599,331,220,17,1389807034.512609
2,84,0,29394,179,-5,320,29925,8000,1936,-864,29237,303,203,18,1389807034.524609
3,84,0,43808,320,309,-2302,43984,8128,3296,32,43176,342,202,13,1389807034.524618
2,85,0,31383,144,-13,325,31803,7952,2096,-928,31798,305,208,20,1389807034.536804
3,85,0,45807,306,300,-2335,45862,8208,3216,112,45754,359,187,16,1389807034.536813
2,86,0,33373,101,-12,319,33681,8064,2304,-800,31798,305,208,20,1389807034.537054
3,86,0,47806,299,290,-2355,47739,8304,2720,384,45754,359,187,16,1389807034.537260
2,87,0,35362,95,-16,327,35559,8080,2400,-640,34360,300,203,19,1389807034.555310
3,87,0,48806,307,282,-2360,49616,8400,2592,544,48331,365,168,17,1389807034.555324
2,88,0,37351,107,-19,318,37437,8048,2288,-768,36920,295,210,16,1389807034.567700
3,88,0,50805,374,268,-2383,51493,8592,2768,816,50909,371,150,13,1389807034.567715
2,89,0,39340,57,-28,319,39315,7968,2304,-976,39482,299,212,19,1389807034.568037
3,89,0,52805,405,252,-2413,53370,8640,2736,496,53487,388,130,14,1389807034.568047
2,90,0,41330,14,-31,317,41193,7952,2352,-1136,39482,299,212,19,1389807034.585722
3,90,0,54804,423,238,-2411,55248,8864,2656,16,53487,388,130,14,1389807034.585731
2,91,0,43319,-27,-39,316,43072,7904,2304,-976,42043,296,215,18,1389807034.597555
3,91,0,56803,378,218,-2385,57125,9088,1920,-336,56065,394,109,15,1389807034.597564
2,92,0,44314,-84,-40,316,44948,7840,2416,-1120,44603,290,217,18,1389807034.597831
3,92,0,58803,227,194,-2366,59003,9104,1440,-608,58643,402,95,9,1389807034.597838
2,93,0,46303,-187,-20,294,46825,7888,2688,-1088,44603,290,217,18,1389807034.616089
3,93,0,60802,227,132,-2373,60880,8576,2080,-176,58643,402,95,9,1389807034.616099
2,94,0,48292,-257,-29,281,48703,8080,2960,-256,47164,296,219,20,1389807034.628367
3,94,0,62801,298,79,-2267,62758,8096,2016,864,61220,409,73,12,1389807034.628376
2,95,0,50281,-176,-60,293,50581,8208,2816,480,49725,291,222,21,1389807034.628640
3,95,0,63801,247,53,-2164,64636,8192,1520,1136,63797,413,55,12,1389807034.628646
2,96,0,52271,90,-52,317,52459,8288,2576,480,52286,287,225,17,1389807034.645855
3,96,0,264,179,-12,-2005,978,8256,1680,688,838,417,38,11,1389807034.645861
2,97,0,54260,250,-34,327,54336,8256,2400,-496,52286,287,225,17,1389807034.656623
3,97,0,2264,292,-17,-1914,2855,8400,1328,336,838,417,38,11,1389807034.656636
2,98,0,56249,199,-35,310,56214,8128,2288,-1488,54847,285,226,19,1389807034.656737
3,98,0,4263,286,45,-1877,4733,8320,576,-64,3416,422,22,13,1389807034.667945
2,99,0,58238,6,-57,284,58093,8096,2064,-1632,57407,285,229,24,1389807034.668183
3,99,0,6262,164,73,-1817,6611,7984,736,-368,5994,426,4,18,1389807034.668188
2,100,0,60228,-197,-80,284,59970,7968,2256,-1104,59967,282,232,21,1389807034.685067
3,100,0,8262,15,64,-1711,8489,7584,400,-464,8572,422,251,14,1389807034.685082
2,101,0,61222,-242,-90,290,61848,7936,2176,-608,59967,282,232,21,1389807034.697153
3,101,0,10261,-123,49,-1557,10366,7392,768,-720,8572,422,251,14,1389807034.697161
2,102,0,63212,-198,-88,303,63727,7920,2048,-352,62529,281,236,22,1389807034.697406
3,102,0,12261,-215,32,-1410,12243,7376,720,-688,11149,430,-26,14,1389807034.697411
2,103,0,65201,-97,-72,316,70,7792,2416,-816,65090,280,237,23,1389807034.714760
3,103,0,13260,-303,4,-1331,14122,7504,480,-720,13727,433,-30,18,1389807034.714769
2,104,0,1654,-78,-59,316,1948,7696,2064,-960,2115,277,238,20,1389807034.726775
3,104,0,15260,-499,-67,-1175,15999,7440,544,-560,13727,433,-30,18,1389807034.726784
2,105,0,3643,-108,-67,345,3825,7920,2144,-592,2115,277,238,20,1389807034.727032
3,105,0,17259,-615,-132,-1030,17876,7248,368,-144,16305,427,-35,16,1389807034.727287
2,106,0,5633,-113,-80,372,5704,8080,2000,-288,4676,276,244,22,1389807034.745148
3,106,0,19258,-664,-168,-897,19753,7056,416,400,18883,431,-46,16,1389807034.745163
2,107,0,7622,-126,-89,400,7582,8128,2208,-496,7236,277,243,23,1389807034.757303
3,107,0,21258,-607,-186,-762,21631,6928,304,768,21460,435,-51,19,1389807034.757317
2,108,0,9611,-84,-69,409,9461,8128,1584,-448,7236,277,243,23,1389807034.757645
3,108,0,23257,-510,-189,-608,23508,6992,224,640,21460,435,-51,19,1389807034.757655
2,109,0,10606,-127,-68,416,11339,8224,2640,-1088,9796,269,247,23,1389807034.774838
3,109,0,25256,-363,-174,-457,25386,6992,496,272,24037,431,-53,21,1389807034.774853
2,110,0,12595,-104,-41,430,13217,8192,2688,-736,12358,266,254,17,1389807034.786417
3,110,0,27256,-153,-149,-338,27265,6896,560,64,26614,431,-57,18,1389807034.786431
2,111,0,14584,-195,-40,457,15095,8096,3104,-608,14918,269,255,22,1389807034.792707
3,111,0,29255,-5,-148,-215,29144,6960,464,-16,29191,430,-57,24,1389807034.793019
2,112,0,16574,-36,-34,485,16974,8064,2832,-240,14918,269,255,22,1389807034.805253
3,112,0,30255,40,-158,-152,31021,7040,512,144,29191,430,-57,24,1389807034.805268
2,113,0,18563,29,-21,510,18852,8144,3104,-640,17479,258,257,24,1389807034.817362
3,113,0,32254,118,-170,-35,32898,6976,880,320,31768,430,-61,30,1389807034.817371
2,114,0,20552,95,-5,521,20730,8144,2912,-208,20040,258,263,19,1389807034.817639
3,114,0,34253,310,-157,70,34777,7168,816,432,34347,431,-58,26,1389807034.817645
2,115,0,22541,138,-17,534,22608,8176,2784,224,22602,258,265,24,1389807034.835362
3,115,0,36253,547,-131,181,36655,7296,864,416,34347,431,-58,26,1389807034.835376
2,116,0,24531,280,-11,565,24487,8192,2784,160,22602,258,265,24,1389807034.847520
3,116,0,38252,783,-126,274,38533,7264,1040,352,36925,431,-55,29,1389807034.847529
2,117,0,26520,354,3,596,26365,8128,2560,-112,25162,255,266,27,1389807034.847792
3,117,0,40251,953,-118,382,40411,7280,832,176,39503,429,-53,30,1389807034.847798
2,118,0,27515,360,10,620,28242,8160,2528,-368,27721,249,274,28,1389807034.865978
3,118,0,42251,1028,-119,503,42288,7264,800,-224,42081,429,-51,30,1389807034.865987
2,119,0,29504,319,8,641,30120,8208,2784,-416,30282,248,275,28,1389807034.878139
3,119,0,44250,1106,-102,610,44167,7184,1184,-464,42081,429,-51,30,1389807034.878148
2,120,0,31493,256,13,657,31998,8272,2848,-112,30282,248,275,28,1389807034.878421
3,120,0,45250,1124,-105,675,46044,7088,1200,-384,44658,433,-45,27,1389807034.878427
2,121,0,33482,248,2,685,33876,8256,2752,208,32842,242,281,32,1389807034.895942
3,121,0,47249,1076,-117,820,47921,7232,1184,-336,47237,433,-41,36,1389807034.895951
2,122,0,35472,308,-6,720,35754,8208,2736,64,35402,236,287,31,1389807034.908158
3,122,0,49249,956,-141,981,49798,7872,240,-224,49814,430,-32,38,1389807034.908166
2,123,0,37461,368,-14,762,37633,8112,2528,-144,35402,236,287,31,1389807034.908431
3,123,0,51248,550,-176,1095,51676,10528,-4464,-704,49814,430,-32,38,1389807034.908437
2,124,0,39450,388,-33,813,39510,8288,2304,-672,37962,235,290,36,1389807034.925869
3,124,0,53247,-398,-260,1012,53554,15984,-10784,-2720,52392,430,-29,41,1389807034.925883
2,125,0,41439,368,-70,855,41388,8752,2000,-1536,40524,230,292,45,1389807034.937099
3,125,0,55247,-1217,-301,370,55432,20416,-7616,-6096,54969,425,-24,40,1389807034.937108
2,126,0,43429,225,-100,914,43265,9584,1872,-1856,43085,224,300,38,1389807034.937396
3,126,0,57246,43,-182,-546,57309,15312,16,-3216,54969,425,-24,40,1389807034.937403
2,127,0,44423,64,-119,943,45142,10192,1984,-544,43085,224,300,38,1389807034.954981
3,127,0,59245,1587,20,-840,59187,5616,1120,4224,57547,425,-29,40,1389807034.954996
2,128,0,46413,-212,-141,1001,47019,9744,1616,912,45646,213,303,40,1389807034.967209
3,128,0,60245,1620,171,-856,61064,1648,528,3232,60124,428,-37,36,1389807034.967218
2,129,0,48402,-43,-101,1089,48897,8736,1456,992,48207,213,312,43,1389807034.967502
3,129,0,62244,947,86,-373,62942,4368,-144,-4384,62702,427,-39,45,1389807034.967508
2,130,0,50391,363,-35,1189,50775,8624,1536,96,50767,200,316,46,1389807034.985243
3,130,0,64244,522,-127,758,64820,10288,-3072,-7760,62702,427,-39,45,1389807034.985256
2,131,0,52380,514,-35,1288,52653,9552,1552,-192,50767,200,316,46,1389807034.997351
3,131,0,707,-243,-351,1192,1162,13408,-848,-4896,65281,429,-28,47,1389807034.997381
2,132,0,54370,418,-46,1393,54531,10080,1504,256,53328,195,326,52,1389807034.997638
3,132,0,2706,-414,-401,904,3040,12272,-368,112,2322,423,-20,48,1389807034.997643
2,133,0,56359,296,-38,1478,56409,10416,1808,688,55889,185,331,55,1389807035.15725
3,133,0,4706,-235,-212,527,4917,8704,448,2000,4900,428,-14,51,1389807035.15733
2,134,0,58348,297,2,1527,58288,10592,2544,1088,55889,185,331,55,1389807035.28061
3,134,0,6705,-86,-117,418,6794,5776,-288,1344,4900,428,-14,51,1389807035.28075
2,135,0,59343,334,9,1548,60165,10800,3568,1536,58451,170,339,55,1389807035.28367
3,135,0,8704,-258,-168,638,8672,5728,-1696,176,7477,422,-12,51,1389807035.28374
2,136,0,61332,590,24,1589,62043,11248,1792,1984,61012,161,346,58,1389807035.45972
3,136,0,9704,-344,-219,785,10550,7776,-2256,1312,10055,421,-1,47,1389807035.45980
2,137,0,63321,1323,54,1699,63921,12000,-112,2064,63573,154,349,75,1389807035.58205
3,137,0,11703,-149,-376,808,12428,8592,-1136,4544,10055,421,-1,47,1389807035.58219
2,138,0,65311,2093,53,1866,263,11968,-848,672,63573,154,349,75,1389807035.58536
3,138,0,13703,420,-395,595,14307,8192,-160,5648,12631,419,-252,56,1389807035.58546
2,139,0,1764,2687,86,1971,2141,10656,896,-560,598,137,356,97,1389807035.76545
3,139,0,15702,792,-150,568,16184,8016,192,3136,15208,418,4,60,1389807035.76559
2,140,0,3753,2558,113,2011,4019,9184,3024,-1712,3158,124,361,113,1389807035.76864
3,140,0,17702,897,-61,666,18061,7808,176,-1136,17786,417,13,62,1389807035.83102
2,141,0,5742,2186,153,2034,5897,8672,3776,-1856,5721,112,358,133,1389807035.95386
3,141,0,19701,923,-127,709,19939,8128,-48,-3680,17786,417,13,62,1389807035.95401
2,142,0,7732,1926,139,2116,7775,9232,4224,-1360,5721,112,358,133,1389807035.107522
3,142,0,21700,594,-203,702,21818,8656,96,-3920,20361,417,16,63,1389807035.107537
2,143,0,9721,1748,87,2177,9652,9824,4512,-1472,8283,75,362,148,1389807035.107860
3,143,0,23700,142,-287,666,23696,8784,272,-3200,22938,417,18,70,1389807035.107870
2,144,0,10716,1668,74,2190,11530,10048,4832,-1904,10844,75,368,164,1389807035.126099
3,144,0,24699,-91,-309,668,25575,8688,512,-2304,25516,414,25,70,1389807035.126113
2,145,0,12705,1389,66,2154,13408,10032,4528,-2368,13404,63,367,178,1389807035.137761
3,145,0,26699,-434,-327,710,27452,8608,944,-800,25516,414,25,70,1389807035.137769
2,146,0,14694,1098,43,2011,15286,9552,4336,-1792,13404,63,367,178,1389807035.138033
3,146,0,28698,-494,-344,741,29330,8512,1312,1152,28093,410,34,71,1389807035.138040
2,147,0,16683,782,22,1812,17163,8656,4496,-1120,15965,46,368,183,1389807035.155520
3,147,0,30697,-296,-342,724,31208,8480,1632,2864,30671,415,38,75,1389807035.155528
2,148,0,18673,308,41,1573,19040,7456,5920,-768,18525,29,372,186,1389807035.167731
3,148,0,32697,127,-284,680,33085,8304,1584,3312,30671,415,38,75,1389807035.167739
2,149,0,20662,-147,60,1485,20918,6656,6128,-736,18525,29,372,186,1389807035.168002
3,149,0,34696,533,-185,624,34963,8192,1232,2144,33249,406,44,77,1389807035.168008
2,150,0,22651,-387,64,1310,22795,5824,7152,-560,21086,20,380,187,1389807035.185439
3,150,0,36695,673,-115,579,36841,8224,1072,224,35827,405,48,76,1389807035.185447
2,151,0,24640,-469,159,1136,24672,5360,7616,-240,23649,10,374,184,1389807035.197530
3,151,0,38695,526,-128,552,38250,8288,992,-848,38404,405,51,84,1389807035.197540
2,152,0,26630,-312,284,941,26549,5168,7440,1040,26209,-4,382,182,1389807035.197787
3,152,0,39694,334,-140,551,40127,8464,640,-1600,38404,405,51,84,1389807035.197792
2,153,0,27624,-221,318,839,28426,5376,5168,2272,26209,-4,382,182,1389807035.215454
3,153,0,41694,-197,-190,549,42004,8640,624,-1696,40980,401,55,87,1389807035.215462
2,154,0,29614,228,372,626,30304,5680,3536,2848,28771,-6,386,181,1389807035.227693
3,154,0,43693,-645,-227,547,43882,8560,784,-752,43557,400,61,81,1389807035.227707
2,155,0,31603,669,461,305,32181,5616,4160,1840,31334,-8,381,187,1389807035.228016
3,155,0,45692,-867,-252,527,45761,8320,800,432,46134,402,68,84,1389807035.228024
2,156,0,33592,717,507,-27,34059,5296,4576,448,33896,-10,380,187,1389807035.245741
3,156,0,47692,-804,-231,513,47638,8128,864,1376,46134,402,68,84,1389807035.245750
2,157,0,35581,647,484,-348,35936,4656,4464,192,33896,-10,380,187,1389807035.257900
3,157,0,49691,-545,-186,501,49516,8144,880,1760,48712,397,73,86,1389807035.257910
2,158,0,37571,406,499,-658,37814,4240,4352,736,36456,-254,376,190,1389807035.258148
3,158,0,51691,-208,-142,499,51393,8176,896,1472,51289,396,81,82,1389807035.258154
2,159,0,39560,37,536,-880,39691,4144,4432,960,39017,2,368,193,1389807035.275110
3,159,0,53690,58,-109,499,53271,8320,944,784,51289,396,81,82,1389807035.275119
2,160,0,41549,-261,532,-1156,41569,4176,4864,896,41577,20,369,188,1389807035.287245
3,160,0,54690,137,-102,498,55148,8336,896,144,53866,395,84,86,1389807035.287260
2,161,0,42544,-363,541,-1294,43447,4368,4688,656,41577,20,369,188,1389807035.287605
3,161,0,56689,120,-95,487,57026,8224,768,-208,56443,391,88,88,1389807035.287615
2,162,0,44533,-279,560,-1562,45325,4432,4480,1248,44137,20,369,183,1389807035.304687
3,162,0,58688,-26,-123,491,58904,8176,640,-48,59021,387,91,87,1389807035.304701
2,163,0,46522,-320,579,-1853,47202,4448,4592,1264,46698,35,362,179,1389807035.316844
3,163,0,60688,-198,-154,493,60782,8160,848,400,59021,387,91,87,1389807035.316853
2,164,0,48512,-465,621,-2135,49081,4496,4000,1056,46698,35,362,179,1389807035.317122
3,164,0,62687,-315,-153,506,62660,8192,1008,880,61598,392,95,86,1389807035.317371
2,165,0,50501,-511,666,-2378,50959,4464,4960,1136,49259,53,354,173,1389807035.335317
3,165,0,64686,-374,-136,509,64538,8320,1200,832,64175,388,98,91,1389807035.335325
2,166,0,52490,-822,701,-2643,52836,4512,5536,880,51819,75,350,159,1389807035.347419
3,166,0,1150,-420,-102,511,880,8512,1216,560,1216,383,108,87,1389807035.347428
2,167,0,54479,-914,711,-2849,54715,4720,5104,1376,54380,97,337,150,1389807035.347657
3,167,0,3149,-495,-91,503,2758,8464,1168,464,1216,383,108,87,1389807035.347663
2,168,0,56469,-776,678,-3072,56593,5120,5056,2336,54380,97,337,150,1389807035.365624
3,168,0,4149,-517,-97,498,4636,8240,1296,752,3793,384,111,88,1389807035.365633
2,169,0,58458,-721,645,-3299,58471,5392,5552,2480,56941,118,327,138,1389807035.376299
3,169,0,6148,-489,-95,481,6513,8208,1344,1136,6371,385,114,89,1389807035.376307
2,170,0,59453,-629,634,-3414,60350,5360,5824,2368,59501,142,316,127,1389807035.381567
3,170,0,8147,-384,-67,495,8391,8192,1408,1072,6371,385,114,89,1389807035.381695
2,171,0,61442,-322,619,-3618,62228,5264,5824,2576,62062,171,296,124,1389807035.393693
3,171,0,10147,-261,-40,493,10269,8208,1184,672,8947,378,119,85,1389807035.393707
2,172,0,63431,-34,591,-3764,64107,5536,5808,2720,62062,171,296,124,1389807035.405877
3,172,0,12146,-236,-38,493,12147,8224,816,336,11523,379,124,86,1389807035.405886
2,173,0,65420,270,575,-3905,449,6160,5840,2512,64623,218,273,119,1389807035.417966
3,173,0,14145,-262,-53,516,14025,8224,832,352,14101,378,128,86,1389807035.417975
2,174,0,1874,685,599,-4048,2327,6976,5824,2256,1649,218,504,112,1389807035.418238
3,174,0,16145,-322,-61,509,15902,8160,896,592,14101,378,128,86,1389807035.418244
2,175,0,3863,1012,641,-4193,4205,7504,5680,1600,1649,218,504,112,1389807035.435858
3,175,0,18144,-300,-58,505,17779,8208,1344,736,16678,373,133,89,1389807035.435908
2,176,0,5852,1107,711,-4326,6083,7888,5376,512,4210,273,218,113,1389807035.447503
3,176,0,19144,-255,-65,506,19657,8176,1312,848,19256,370,139,82,1389807035.447512
2,177,0,7842,878,769,-4452,7962,7920,4528,-400,6772,273,181,114,1389807035.447768
3,177,0,21143,-213,-48,510,21534,8224,1088,672,21833,371,145,83,1389807035.447774
2,178,0,9831,378,813,-4539,9840,8032,3936,-976,9332,292,149,106,1389807035.466086
3,178,0,23143,-275,-43,548,23412,8304,944,400,21833,371,145,83,1389807035.466095
2,179,0,10825,79,824,-4573,11717,8208,3760,-1184,9332,292,149,106,1389807035.478221
3,179,0,25142,-312,-42,548,25289,8256,1072,320,24411,367,148,83,1389807035.478235
2,180,0,12815,-473,810,-4600,13595,8928,3872,-816,11892,317,118,98,1389807035.478559
3,180,0,27141,-240,-46,539,27167,8112,1120,576,26988,365,154,82,1389807035.478570
2,181,0,14804,-893,757,-4571,15473,9904,3792,-160,14454,335,81,88,1389807035.496431
3,181,0,29141,-170,-55,573,29045,8096,1088,752,26988,365,154,82,1389807035.496441
2,182,0,16793,-1088,656,-4486,17350,10832,3472,384,17014,349,46,76,1389807035.496646
3,182,0,31140,-175,-28,609,30923,8112,1024,512,29566,368,159,80,1389807035.508586
2,183,0,18782,-910,495,-4346,19227,11440,3168,528,17014,349,46,76,1389807035.508920
3,183,0,33139,-148,-32,636,32800,8112,1136,224,32142,368,164,79,1389807035.508930
2,184,0,20772,-494,332,-4165,21105,11536,2864,464,19575,361,13,68,1389807035.526593
3,184,0,34139,-100,-38,639,34678,8128,1424,544,34719,359,170,78,1389807035.526602
2,185,0,22761,-170,253,-3905,22982,11408,2784,208,22136,368,240,69,1389807035.526849
3,185,0,36138,-18,-58,661,36555,8112,1600,976,34719,359,170,78,1389807035.532452
2,186,0,24750,-94,187,-3692,24390,11040,2592,128,24698,372,-47,63,1389807035.544608
3,186,0,38138,75,-63,673,38433,8160,1968,1056,37296,359,174,81,1389807035.544623
2,187,0,25745,-177,168,-3592,26269,10624,2080,416,24698,372,-47,63,1389807035.556842
3,187,0,40137,109,-32,725,40310,8288,2080,704,39872,349,179,84,1389807035.556851
2,188,0,27734,-632,119,-3402,28146,9808,3600,432,27259,381,-78,64,1389807035.557125
3,188,0,42136,43,-24,741,42188,8208,1744,192,42449,349,185,83,1389807035.557375
2,189,0,29723,-475,-6,-3333,30023,8384,960,176,29821,381,-102,66,1389807035.574729
3,189,0,44136,-45,-29,753,44065,8080,1392,96,42449,349,185,83,1389807035.574744
2,190,0,31713,213,-52,-2957,31902,6672,16,2304,29821,381,-102,66,1389807035.586922
3,190,0,46135,-109,-46,785,45943,8128,1520,752,45027,345,189,80,1389807035.586931
2,191,0,33702,543,-39,-2449,33779,5152,432,2736,32384,376,-126,61,1389807035.587178
3,191,0,48134,-37,-30,828,47821,8240,1616,1472,47604,345,195,84,1389807035.587385
2,192,0,35691,1299,72,-1919,35657,4016,80,2160,34945,376,-142,60,1389807035.605169
3,192,0,49134,26,-27,834,49699,8160,1904,1728,47604,345,195,84,1389807035.605183
2,193,0,37681,2214,266,-1346,37535,3440,-960,1008,37506,378,-152,61,1389807035.616856
3,193,0,51134,147,0,842,51577,8176,2224,1344,50181,336,200,83,1389807035.616865
2,194,0,39670,2632,283,-660,39413,4128,-1872,-864,37506,378,-152,61,1389807035.617063
3,194,0,53133,236,30,874,53455,8192,2448,704,52757,336,209,84,1389807035.617233
2,195,0,41659,2356,121,-5,41291,5216,-1632,-3360,40067,369,-159,48,1389807035.635318
3,195,0,55132,286,48,902,55332,8208,2752,352,55334,329,212,87,1389807035.635327
2,196,0,42654,2070,27,246,43169,6160,-368,-4080,42627,373,-161,43,1389807035.646945
3,196,0,57132,227,33,911,57210,8208,3136,176,55334,329,212,87,1389807035.646954
2,197,0,44643,1268,-129,616,45047,6800,1008,-2656,45188,378,-155,49,1389807035.647162
3,197,0,59131,84,37,941,59088,8304,3456,128,57910,329,221,87,1389807035.647169
2,198,0,46632,552,-173,904,46925,7120,2320,-448,45188,378,-155,49,1389807035.665334
3,198,0,61130,10,28,965,60966,8352,3408,384,60486,323,226,85,1389807035.665343
2,199,0,48621,371,-121,1149,48803,7040,3216,976,47748,377,-144,50,1389807035.677593
3,199,0,63130,-57,37,963,62843,8512,3552,720,63063,324,232,84,1389807035.677608
2,200,0,50611,671,-28,1336,50681,7072,2928,1168,50309,376,-134,45,1389807035.677856
3,200,0,64129,-88,41,964,64721,8656,3728,800,63063,324,232,84,1389807035.677941
2,201,0,52600,1120,76,1501,52559,7344,2624,848,52870,380,-122,45,1389807035.696254
3,201,0,593,-125,52,961,1064,8928,3776,672,105,316,237,88,1389807035.696269
2,202,0,54589,1253,139,1638,54437,7760,3088,64,52870,380,-122,45,1389807035.702513
3,202,0,2592,-152,81,963,2941,9088,3760,320,2683,310,247,84,1389807035.702827
2,203,0,56579,1152,109,1735,56315,7968,3424,-1328,55430,383,-108,45,1389807035.714484
3,203,0,4591,-209,93,955,4819,9008,3648,32,2683,310,247,84,1389807035.714492
2,204,0,58568,927,-9,1816,58193,8080,2592,-2320,57992,381,-95,41,1389807035.726637
3,204,0,6591,-314,92,954,6696,8912,3280,-144,5260,306,254,82,1389807035.726651
2,205,0,59562,721,-106,1833,60070,8864,528,-2208,57992,381,-95,41,1389807035.726955
3,205,0,8590,-398,109,981,8575,8880,3040,0,7837,302,4,80,1389807035.733111
2,206,0,61552,221,-358,1796,61947,11056,-3616,-1456,60553,384,-81,41,1389807035.745328
3,206,0,10589,-437,137,1039,10452,9120,2816,256,10414,297,268,74,1389807035.745343
2,207,0,63541,158,-500,1517,63825,14752,-10400,-1168,63113,384,-69,49,1389807035.757511
3,207,0,12589,-454,168,1098,12330,9328,2736,512,10414,297,268,74,1389807035.757526
2,208,0,65530,265,-296,877,167,17200,-14272,-1520,138,379,-67,50,1389807035.757849
3,208,0,13588,-441,183,1131,14208,9744,2720,816,12992,292,275,72,1389807035.757860
2,209,0,1984,-1681,84,-31,2044,14384,-8080,-5312,138,379,-67,50,1389807035.775047
3,209,0,15588,-364,213,1210,16085,10416,2640,896,15569,289,284,70,1389807035.775056
2,210,0,3973,-3929,155,-578,3922,8688,480,-7616,2697,386,-67,46,1389807035.786590
3,210,0,17587,-263,273,1309,17963,10864,2368,240,18147,274,293,66,1389807035.786605
2,211,0,5962,-4967,-68,-403,5800,5920,3488,-2624,5259,385,-60,48,1389807035.786910
3,211,0,19587,-248,313,1356,19840,10672,1888,-1088,18147,274,293,66,1389807035.793202
2,212,0,7951,-5428,-306,215,7677,5824,6096,4288,7820,379,-49,47,1389807035.805460
3,212,0,21586,-425,330,1375,21717,10016,1392,-1872,20724,271,303,63,1389807035.805474
2,213,0,9941,-4191,-274,789,9554,7520,4512,7312,7820,379,-49,47,1389807035.817806
3,213,0,23585,-626,307,1459,23595,9920,1600,-1232,23302,262,309,58,1389807035.817815
2,214,0,10935,-3191,-137,973,11431,10448,3360,7440,10381,383,-34,47,1389807035.818171
3,214,0,25585,-690,339,1628,25472,10400,2448,-416,23302,262,309,58,1389807035.818178
2,215,0,12924,-1422,103,1098,13309,12560,2832,4528,12942,380,-23,46,1389807035.835728
3,215,0,27584,-704,409,1750,27349,11232,2464,-304,25879,251,322,48,1389807035.835736
2,216,0,14914,320,186,1088,15186,11232,1824,3616,15504,377,-15,46,1389807035.846885
3,216,0,28584,-838,432,1793,29227,12192,816,-1216,28456,243,334,41,1389807035.846894
2,217,0,16903,1179,225,976,17063,7744,2784,912,15504,377,-15,46,1389807035.847035
3,217,0,30583,-1228,418,1922,31104,12816,-352,-2960,31033,231,345,34,1389807035.847206
2,218,0,18892,1911,348,848,18941,5968,2256,-2704,18064,379,-8,42,1389807035.865143
3,218,0,32582,-1666,438,2043,32982,12704,-2224,-3584,31033,231,345,34,1389807035.865152
2,219,0,20882,2015,324,817,20819,6272,176,-5264,20626,383,-7,43,1389807035.877446
3,219,0,34582,-2217,497,2150,34860,11888,-1296,-2304,33611,214,356,17,1389807035.877460
2,220,0,22871,782,283,787,22697,7776,-1088,-7360,20626,383,-7,43,1389807035.877778
3,220,0,36581,-2168,467,2081,36737,10288,464,1056,36188,200,372,-7,1389807035.877788
2,221,0,24860,-707,243,676,24574,8976,-720,-5952,23187,377,-3,42,1389807035.894928
3,221,0,38580,-1826,472,1971,38615,9040,2288,4032,38764,189,380,-19,1389807035.894938
2,222,0,25855,-1246,160,609,26452,8800,1328,-1312,25747,377,-249,39,1389807035.906770
3,222,0,40580,-1193,552,2028,40492,8832,3600,5424,38764,189,380,-19,1389807035.906785
2,223,0,27844,-1485,3,528,28330,8192,2096,2656,28308,378,12,37,1389807035.907114
3,223,0,42579,-440,677,2165,42369,9360,4624,5504,41341,175,387,-24,1389807035.907338
2,224,0,29833,-955,50,519,30207,7536,1840,3216,28308,378,12,37,1389807035.925185
3,224,0,43579,-39,729,2239,44247,10016,5392,4752,43918,155,400,-32,1389807035.925199
2,225,0,31823,-385,199,509,32086,7952,1488,1232,30870,375,15,36,1389807035.937477
3,225,0,45578,780,786,2299,46124,10112,5824,3952,43918,155,400,-32,1389807035.937491
2,226,0,33812,6,259,449,33964,8880,1328,384,33432,375,20,30,1389807035.937813
3,226,0,47577,1563,756,2149,48002,9584,6016,3296,46495,140,404,-20,1389807035.937822
2,227,0,35801,63,225,423,35842,9680,1040,464,35992,376,24,30,1389807035.955533
3,227,0,49577,2116,693,1904,49880,8880,5968,2368,49072,124,408,-3,1389807035.955547
2,228,0,37790,60,225,382,37720,9792,1136,-384,35992,376,24,30,1389807035.967129
3,228,0,51576,2327,672,1705,51757,8288,5888,1136,51648,110,413,14,1389807035.967138
2,229,0,39780,88,247,316,39597,9088,1248,-1616,38553,375,28,30,1389807035.967408
3,229,0,53576,2224,673,1491,53634,7728,5872,-16,51648,110,413,14,1389807035.967414
2,230,0,41769,247,231,266,41475,8096,1760,-2144,41115,373,29,21,1389807035.985180
3,230,0,55575,1903,671,1237,55512,7056,6064,-992,54226,98,410,29,1389807035.985195
2,231,0,42763,466,208,272,43353,7312,1440,-1232,43677,378,30,24,1389807035.997324
3,231,0,57574,1482,680,1024,57389,6112,6528,-1424,56803,89,408,46,1389807035.997332
2,232,0,44753,1031,137,314,45231,7152,224,-496,43677,378,30,24,1389807035.997540
3,232,0,58574,1235,690,926,59267,5440,6832,-1216,59381,81,410,49,1389807035.997545
2,233,0,46742,1512,134,338,47110,7552,-1024,-1920,46239,375,31,31,1389807036.15641
3,233,0,60573,673,700,727,61144,5104,6352,-192,59381,81,410,49,1389807036.15649
2,234,0,48731,1762,177,335,48988,7792,-2064,-3568,48799,368,33,26,1389807036.27126
3,234,0,62573,163,703,605,63021,4880,6752,704,61957,78,416,52,1389807036.27135
2,235,0,50721,1472,140,356,50865,7904,-2752,-4096,48799,368,33,26,1389807036.27400
3,235,0,64572,76,745,442,64899,4560,7328,1840,64535,75,410,56,1389807036.27406
2,236,0,52710,874,51,432,52744,8112,-3008,-3680,51359,374,37,30,1389807036.44942
3,236,0,1035,122,807,252,1240,4400,7344,2864,64535,75,410,56,1389807036.44951
2,237,0,54699,353,-25,497,54622,8272,-2672,-2320,53920,374,38,33,1389807036.57167
3,237,0,3035,263,839,84,3117,4192,7296,3392,1576,74,409,52,1389807036.57181
2,238,0,56688,35,-18,523,56500,8128,-1728,-1344,56480,369,44,30,1389807036.57491
3,238,0,5034,494,845,-48,4993,4144,7312,3600,4154,73,409,50,1389807036.57501
2,239,0,58678,16,17,561,58377,7904,-768,-720,56480,369,44,30,1389807036.75218
3,239,0,7033,786,878,-205,6870,4000,7200,3360,6731,80,408,56,1389807036.75232
2,240,0,59672,62,11,602,60256,7968,-224,-704,59041,370,46,29,1389807036.87239
3,240,0,8033,930,908,-291,8747,3936,7296,2848,6731,80,408,56,1389807036.87254
2,241,0,61662,219,-7,678,62133,8080,-128,-1056,61602,372,55,35,1389807036.87588
3,241,0,10032,1166,969,-485,10624,3856,7520,2240,9309,79,405,62,1389807036.87598
2,242,0,63651,384,-10,723,64010,8224,-160,-1440,64163,365,60,31,1389807036.105137
3,242,0,12032,1280,1003,-720,12501,3680,7200,1856,11887,87,403,69,1389807036.105151
2,243,0,104,386,10,723,351,8128,128,-1648,64163,365,60,31,1389807036.117477
3,243,0,14031,1166,1013,-893,14378,3680,6176,1568,14464,98,397,79,1389807036.117486
2,244,0,2093,295,-1,735,2229,8032,368,-1856,1187,365,62,33,1389807036.117755
3,244,0,16030,941,985,-1058,16256,3968,5680,1312,14464,98,397,79,1389807036.117762
2,245,0,4083,242,-23,762,4107,8080,304,-1744,3745,363,73,36,1389807036.135390
3,245,0,18030,842,968,-1249,18133,4304,5392,1344,17043,105,386,82,1389807036.135405
2,246,0,6072,168,-64,789,5985,8208,64,-1504,3745,363,73,36,1389807036.147642
3,246,0,20029,698,968,-1473,20010,4640,5664,1152,19620,118,382,83,1389807036.147651
2,247,0,8061,75,-70,789,7862,8128,240,-1536,6305,361,79,39,1389807036.147918
3,247,0,22029,511,936,-1726,21887,4656,6464,1280,19620,118,382,83,1389807036.147924
2,248,0,9056,33,-57,778,9740,8064,752,-1504,8865,359,83,35,1389807036.165839
3,248,0,23028,426,913,-1825,23764,4752,6848,2176,22197,130,378,86,1389807036.165847
2,249,0,11045,-37,-43,762,11617,8016,1168,-1328,11426,358,91,40,1389807036.178127
3,249,0,25028,257,831,-1984,25641,4928,6336,2688,24775,147,367,79,1389807036.178141
2,250,0,13034,-12,-61,782,13495,8112,1056,-944,11426,358,91,40,1389807036.178459
3,250,0,27027,264,759,-2167,27518,5040,5856,2384,27352,162,356,78,1389807036.178537
2,251,0,15024,35,-70,812,15373,8144,912,-736,13987,353,96,40,1389807036.196647
3,251,0,29026,444,737,-2400,29396,5216,6016,1680,27352,162,356,78,1389807036.196657
2,252,0,17013,45,-57,809,17250,8144,1136,-864,16547,353,106,38,1389807036.196834
3,252,0,31026,531,750,-2642,31273,5344,6208,1296,29930,186,347,79,1389807036.203012
2,253,0,19002,42,-28,784,19129,8080,1360,-1024,19108,353,110,43,1389807036.214809
3,253,0,33025,476,734,-2824,33150,5312,6128,1504,32508,207,327,78,1389807036.214817
2,254,0,20991,26,-17,785,21006,7968,1440,-832,19108,353,110,43,1389807036.226242
3,254,0,35024,408,657,-2971,35027,5344,6224,2000,35086,222,314,79,1389807036.226257
2,255,0,22981,-27,-13,782,22885,8096,1408,-880,21668,346,117,44,1389807036.232466
3,255,0,37024,436,550,-3081,36905,5664,5984,2352,35086,222,314,79,1389807036.232718
2,0,0,24970,-53,-17,771,24763,8192,1536,-944,24229,344,126,40,1389807036.244864
3,0,0,38023,503,493,-3133,38782,6016,6224,2448,37663,241,298,79,1389807036.244879
2,1,0,25965,-62,-8,759,26640,8272,1952,-848,26791,344,129,39,1389807036.257246
3,1,0,40023,703,400,-3254,40659,6448,6720,2592,40240,285,274,79,1389807036.257261
2,2,0,27954,-100,5,740,28519,8304,2288,-736,26791,344,129,39,1389807036.257520
3,2,0,42022,1008,340,-3416,42536,6560,6720,2832,40240,285,274,79,1389807036.257528
2,3,0,29943,-81,15,719,30396,8256,2640,-608,29352,341,134,46,1389807036.274748
3,3,0,44021,1384,266,-3553,44414,6720,6752,3392,42816,285,503,82,1389807036.274763
2,4,0,31932,-30,12,699,32274,8128,2784,-448,31912,334,142,37,1389807036.286407
3,4,0,46021,1767,194,-3671,46291,6944,6768,3392,45393,328,225,86,1389807036.286421
2,5,0,33922,46,25,685,34152,8096,2576,-464,31912,334,142,37,1389807036.292667
3,5,0,48020,2092,159,-3764,48168,7520,6336,2784,47970,328,189,98,1389807036.292987
2,6,0,35911,134,36,678,36031,8080,2640,-432,34471,335,145,38,1389807036.304740
3,6,0,50019,2252,157,-3843,50046,8080,5936,1856,47970,328,189,98,1389807036.304748
2,7,0,37900,232,50,672,37908,8064,2496,-400,37032,331,150,42,1389807036.316776
3,7,0,52019,2236,158,-3939,51923,8688,5840,832,50547,360,153,104,1389807036.316784
2,8,0,39889,293,68,673,39787,8000,2592,-384,39593,328,156,42,1389807036.317130
3,8,0,53019,2166,154,-3996,53801,9216,5888,112,53124,360,121,109,1389807036.317378
2,9,0,41879,400,90,673,41665,8000,2528,-496,39593,328,156,42,1389807036.335317
3,9,0,55018,1922,156,-4103,55678,9584,6176,-208,55701,390,81,114,1389807036.335332
2,10,0,42873,458,93,673,43543,8128,2256,-384,42155,324,164,41,1389807036.347248
3,10,0,57017,1610,128,-4189,57555,9840,5760,-288,55701,390,81,114,1389807036.347256
2,11,0,44863,513,106,696,45421,8160,2272,-592,44714,324,165,46,1389807036.347429
3,11,0,59017,1289,52,-4216,59433,10048,4656,-544,58277,390,43,118,1389807036.347434
2,12,0,46852,556,121,691,47300,8112,2032,-816,47275,318,170,45,1389807036.365365
3,12,0,61016,913,-38,-4155,61310,10096,4480,-480,60855,408,7,116,1389807036.365374
2,13,0,48841,552,132,692,49178,8176,2128,-928,47275,318,170,45,1389807036.377569
3,13,0,63015,506,-118,-4079,63187,10144,3808,432,60855,408,7,116,1389807036.377583
2,14,0,50830,491,144,706,51057,8080,2336,-832,49836,318,176,44,1389807036.377907
3,14,0,65015,237,-196,-3922,65065,10480,3728,1632,63432,408,226,114,1389807036.377917
2,15,0,52820,546,144,729,52935,7776,1968,-448,52398,316,180,51,1389807036.396010
3,15,0,1478,322,-201,-3784,1406,10832,4960,2576,474,409,-61,123,1389807036.396019
2,16,0,54809,628,158,768,54813,7568,1696,-880,54959,313,184,49,1389807036.407556
3,16,0,2478,500,-164,-3697,3283,11136,4672,2464,3051,409,-90,121,1389807036.407565
2,17,0,56798,720,182,792,56692,7600,1472,-1584,54959,313,184,49,1389807036.407810
3,17,0,4477,953,-84,-3504,5161,10896,4560,1392,3051,409,-90,121,1389807036.407814
2,18,0,57793,712,185,813,58571,7552,1552,-2256,57520,310,189,54,1389807036.425658
3,18,0,6476,1410,-66,-3355,7039,9728,3808,256,5628,411,-121,119,1389807036.425666
2,19,0,59782,670,193,848,60450,7488,1616,-2720,60082,308,192,53,1389807036.437729
3,19,0,8476,1420,-148,-3159,8917,7856,2624,-1584,8205,409,-150,117,1389807036.437808
2,20,0,61771,566,206,894,62328,7616,1568,-2608,60082,308,192,53,1389807036.438158
3,20,0,10475,1103,-235,-2785,10795,5840,1936,-3456,10782,403,-174,122,1389807036.438164
2,21,0,63761,395,201,938,64206,7760,2144,-2096,62643,303,197,57,1389807036.455513
3,21,0,12474,506,-323,-2135,12672,4496,416,-3056,10782,403,-174,122,1389807036.455522
2,22,0,214,357,209,963,548,8064,2528,-1504,65204,300,207,56,1389807036.467672
3,22,0,14474,-279,-451,-1307,14549,3696,-848,-1584,13359,400,-184,121,1389807036.467680
2,23,0,2203,386,219,997,2426,8320,2752,-944,2228,294,214,59,1389807036.467945
3,23,0,16473,-426,-512,-467,16426,3568,-688,992,15936,398,-188,125,1389807036.467951
2,24,0,4192,418,224,1019,4304,8400,3152,-720,2228,294,214,59,1389807036.486188
3,24,0,17473,-160,-485,-47,18303,4736,1136,4368,15936,398,-188,125,1389807036.486202
2,25,0,6182,427,237,1035,6182,8400,3408,-576,4788,282,217,59,1389807036.492441
3,25,0,19472,856,-369,692,20180,6432,3376,6368,18513,394,-183,128,1389807036.492757
2,26,0,8171,412,232,1050,8060,8368,3264,-224,7350,282,228,57,1389807036.504476
3,26,0,21472,2170,-221,1188,22058,7584,4960,5696,21091,394,-177,127,1389807036.504490
2,27,0,9166,421,219,1069,9939,8368,3104,112,9909,283,231,59,1389807036.516752
3,27,0,23471,3263,-140,1508,23936,7536,5120,3056,23669,399,-175,125,1389807036.516761
2,28,0,11155,469,219,1092,11817,8320,3424,48,9909,283,231,59,1389807036.516959
3,28,0,25470,3725,-132,1730,25813,7168,4400,96,23669,399,-175,125,1389807036.517160
2,29,0,13144,524,234,1108,13694,8368,3488,-128,12470,273,241,63,1389807036.535211
3,29,0,27470,3688,-177,1915,27691,7472,3840,-1952,26247,400,-170,117,1389807036.535220
2,30,0,15133,547,242,1128,15573,8432,3296,112,15031,267,248,60,1389807036.546686
3,30,0,29469,3434,-208,2091,29568,8480,2960,-2384,28824,401,-162,111,1389807036.546694
2,31,0,17123,607,235,1164,17451,8368,3056,208,17592,266,253,64,1389807036.546892
3,31,0,31468,2918,-244,2151,31445,10432,736,-2512,31401,408,-153,111,1389807036.547066
2,32,0,19112,754,236,1209,19328,8464,2608,-32,17592,266,253,64,1389807036.564766
3,32,0,32468,2572,-287,2119,33323,12960,-2800,-3168,31401,408,-153,111,1389807036.564775
2,33,0,21101,907,248,1273,21206,8800,2192,-400,20151,258,1,69,1389807036.577181
3,33,0,34467,1828,-345,1840,35201,14672,-4416,-4160,33978,410,-146,110,1389807036.577196
2,34,0,23090,999,253,1344,23083,9424,1696,-608,22711,247,266,69,1389807036.577521
3,34,0,36467,1420,-345,1227,37078,13168,-2048,-4096,36555,404,-141,111,1389807036.577531
2,35,0,25080,1038,264,1429,24960,10272,1536,-272,22711,247,266,69,1389807036.595776
3,35,0,38466,1723,-304,607,38956,9632,1504,-1296,36555,404,-141,111,1389807036.595790
2,36,0,26074,1056,285,1475,26838,11120,1776,416,25273,245,274,81,1389807036.608240
3,36,0,40465,1921,-282,342,40833,6304,5648,1568,39133,411,-142,109,1389807036.608254
2,37,0,28064,1186,338,1587,28715,12144,1424,1648,27834,235,279,84,1389807036.608588
3,37,0,42465,2048,-314,518,42710,5824,6768,1696,41709,409,-146,114,1389807036.608598
2,38,0,30053,1705,417,1726,30593,13584,704,3600,30393,224,288,95,1389807036.626159
3,38,0,44464,1945,-403,1046,44588,8112,5872,-1840,44285,406,-140,112,1389807036.626172
2,39,0,32042,2696,503,1939,32471,15040,-768,4928,30393,224,288,95,1389807036.632383
3,39,0,46463,1202,-468,1444,46467,11040,1920,-5536,44285,406,-140,112,1389807036.632633
2,40,0,34031,4055,575,2212,34350,14592,-960,4800,32953,203,290,112,1389807036.644708
3,40,0,47463,388,-530,1515,48344,12224,2480,-6672,46863,408,-130,116,1389807036.644716
2,41,0,36021,4931,582,2465,36228,12272,880,944,35514,203,291,147,1389807036.656623
3,41,0,49462,-1502,-678,1442,50222,10640,4528,-2752,49440,409,-114,121,1389807036.656631
2,42,0,38010,5010,628,2554,38107,10368,3008,-3856,38075,187,293,176,1389807036.656879
3,42,0,51462,-1838,-703,1296,52099,7936,3728,3808,52017,406,-100,127,1389807036.663167
2,43,0,39999,3931,599,2538,39985,9552,3968,-7120,38075,187,293,176,1389807036.675128
3,43,0,53461,-1054,-501,979,53977,6336,3328,6624,52017,406,-100,127,1389807036.675136
2,44,0,40994,3003,527,2549,41863,9680,4176,-7248,40635,174,291,196,1389807036.687205
3,44,0,55461,-113,-294,845,55855,6912,3312,3936,54594,406,-90,134,1389807036.687213
2,45,0,42983,862,347,2574,43740,10208,4736,-4608,43196,159,299,196,1389807036.687479
3,45,0,57460,684,-263,935,57732,8560,2640,-128,57171,406,-87,137,1389807036.687485
2,46,0,44972,-453,330,2496,45618,10176,5136,-1296,43196,159,299,196,1389807036.705604
3,46,0,59459,1145,-194,941,59610,10096,2544,-2016,57171,406,-87,137,1389807036.705613
2,47,0,46962,-797,539,2222,47497,9200,7312,1648,45756,144,315,196,1389807036.717065
3,47,0,61459,1419,-270,802,61487,9904,3152,-848,59748,404,-82,136,1389807036.717084
2,48,0,48951,-1335,730,1908,49375,7920,11088,1296,48316,130,326,181,1389807036.717424
3,48,0,62458,1304,-337,735,63365,8624,3840,-320,62326,407,-81,138,1389807036.717431
2,49,0,50940,-934,826,1782,51254,7088,10336,1120,50876,117,334,171,1389807036.735735
3,49,0,64458,702,-313,695,65243,8384,4384,-1168,64903,403,-75,144,1389807036.735749
2,50,0,52930,2,890,1592,53132,5888,9472,2928,50876,117,334,171,1389807036.747751
3,50,0,921,62,-226,722,1585,8800,3840,-1376,64903,403,-75,144,1389807036.747760
2,51,0,54919,731,989,1527,55011,5488,6736,4000,53438,110,341,170,1389807036.748027
3,51,0,2920,-272,-339,566,3463,8480,2544,-688,1944,403,-70,145,1389807036.748033
2,52,0,56908,1835,1000,1354,56889,5184,5200,4112,56000,98,347,176,1389807036.765986
3,52,0,4920,-547,-342,409,5340,8496,1584,-352,4522,400,-65,151,1389807036.765996
2,53,0,57903,2264,1009,1163,58767,4480,6432,2448,58561,98,339,190,1389807036.778147
3,53,0,6919,-995,-206,418,7218,9072,1680,-720,7099,404,-57,149,1389807036.778161
2,54,0,59892,2597,1090,761,60645,3344,6416,576,58561,98,339,190,1389807036.778489
3,54,0,8918,-1265,-231,440,9095,9216,2096,-384,7099,404,-57,149,1389807036.778500
2,55,0,61881,2587,1226,484,62523,2560,4912,-64,61122,96,331,208,1389807036.796148
3,55,0,10918,-1064,-291,419,10972,8640,2000,1600,9676,398,-50,152,1389807036.796158
2,56,0,63871,2333,1302,303,64402,2640,3936,144,63683,96,327,213,1389807036.801686
3,56,0,11917,-882,-268,404,12849,8064,1168,3008,12252,394,-43,151,1389807036.801938
2,57,0,324,1796,1301,68,744,3472,3104,224,708,96,316,223,1389807036.814064
3,57,0,13917,-444,-190,305,14727,7792,1328,2624,12252,394,-43,151,1389807036.814073
2,58,0,2313,1268,1265,-246,2623,4048,2304,448,708,96,316,223,1389807036.826317
3,58,0,15916,144,-149,292,16604,8064,1664,1680,14829,398,-42,154,1389807036.826332
2,59,0,4302,729,1265,-638,4501,4240,2880,912,3270,102,307,227,1389807036.832549
3,59,0,17915,376,-87,409,18481,8624,944,80,17407,396,-40,152,1389807036.832797
2,60,0,6292,132,1248,-953,6379,4272,4144,1088,5831,111,304,220,1389807036.845094
3,60,0,19915,42,-47,455,20359,8672,544,-1712,19984,395,-31,154,1389807036.845102
2,61,0,8281,-233,1215,-1205,8257,4224,4752,1040,5831,111,304,220,1389807036.857279
3,61,0,21914,-242,-133,405,22236,8272,576,-1120,19984,395,-31,154,1389807036.857288
2,62,0,9275,-272,1197,-1309,10134,4176,4752,1648,8392,125,301,209,1389807036.857500
3,62,0,23914,-356,-175,447,24113,8096,944,512,22561,396,-30,155,1389807036.857507
2,63,0,11265,-248,1179,-1526,12013,4224,4272,2512,10953,138,294,201,1389807036.875328
3,63,0,25913,-349,-156,485,25990,8048,1440,1232,25139,395,-26,159,1389807036.875343
2,64,0,13254,-274,1179,-1800,13890,4336,4064,2624,13515,153,286,192,1389807036.887136
3,64,0,26913,-264,-145,496,27867,8128,1200,1184,27716,392,-23,160,1389807036.887151
2,65,0,15243,-209,1211,-2095,15767,4448,4272,2368,13515,153,286,192,1389807036.887474
3,65,0,28912,-125,-105,527,29744,8304,1136,368,27716,392,-23,160,1389807036.887484
2,66,0,17233,-242,1225,-2365,17645,4304,4816,2160,16076,167,276,181,1389807036.905167
3,66,0,30911,-52,-98,561,31621,8272,1552,-16,30293,390,-12,162,1389807036.905176
2,67,0,19222,-365,1218,-2588,19523,4304,5344,2016,18637,206,258,168,1389807036.917437
3,67,0,32911,21,-111,590,33499,8144,1616,288,32870,389,-10,159,1389807036.917445
2,68,0,21211,-455,1159,-2791,21401,4368,5168,2032,21197,206,504,157,1389807036.917764
3,68,0,34910,71,-108,604,35376,8080,1712,624,32870,389,-10,159,1389807036.917813
2,69,0,23200,-390,1077,-2973,23279,4768,4880,2576,21197,206,504,157,1389807036.935700
3,69,0,36909,91,-107,606,37254,8000,2016,640,35448,390,-7,162,1389807036.935709
2,70,0,25190,-302,1011,-3205,25158,5360,5024,2800,23756,248,230,148,1389807036.947988
3,70,0,38909,99,-92,625,39130,8032,2128,384,38024,386,-255,161,1389807036.947997
2,71,0,26184,-236,977,-3322,27036,5712,5584,2816,26315,248,207,139,1389807036.948294
3,71,0,40908,114,-85,650,41008,8208,2240,304,40601,390,4,167,1389807036.948323
2,72,0,28174,-28,875,-3551,28445,5824,6032,2848,28876,267,181,131,1389807036.965624
3,72,0,41908,123,-87,654,42885,8224,2512,640,40601,390,4,167,1389807036.965634
2,73,0,30163,223,776,-3743,30793,5808,6336,2832,28876,267,181,131,1389807036.977987
3,73,0,43907,157,-97,649,44293,8208,2624,864,43178,386,8,163,1389807036.978001
2,74,0,32152,619,669,-3890,32672,6112,6112,2848,31437,290,156,126,1389807036.978292
3,74,0,45906,192,-65,650,46171,8272,2832,896,45755,385,16,164,1389807036.978300
2,75,0,34141,1174,624,-4021,34550,6592,6496,2848,33997,305,117,124,1389807036.996330
3,75,0,47906,249,-52,651,48049,8384,3008,768,48333,387,17,167,1389807036.996339
2,76,0,36131,1664,627,-4137,36429,7072,6672,2144,33997,305,117,124,1389807037.2460
3,76,0,49905,221,-39,637,49927,8448,2976,400,48333,387,17,167,1389807037.2721
2,77,0,38120,2080,662,-4278,38306,7344,6304,1200,36557,318,83,125,1389807037.14182
3,77,0,51904,112,-36,614,51805,8512,3376,-144,50909,381,21,169,1389807037.14191
2,78,0,40109,2248,724,-4422,40184,7344,5968,400,39118,337,47,120,1389807037.26331
3,78,0,53904,6,-48,593,53683,8416,3488,-368,53487,381,28,166,1389807037.26346
2,79,0,41104,2177,754,-4490,42062,7408,5728,-176,41680,352,1,118,1389807037.32578
3,79,0,55903,-135,-55,574,55561,8368,3360,-16,53487,381,28,166,1389807037.32773
2,80,0,43093,1908,789,-4592,43471,7552,5440,-320,41680,352,1,118,1389807037.44604
3,80,0,56903,-179,-64,566,57440,8288,3280,464,56063,382,32,168,1389807037.44613
2,81,0,45082,1690,803,-4653,45349,8160,4848,48,44242,358,214,110,1389807037.56635
3,81,0,58902,-193,-41,570,59318,8400,3168,656,58639,382,35,167,1389807037.56649
2,82,0,47072,1555,819,-4702,47227,9216,4064,224,46802,374,-83,102,1389807037.56959
3,82,0,60902,-174,-18,561,61196,8352,3104,528,61216,379,43,167,1389807037.57263
2,83,0,49061,1634,845,-4738,49106,10608,3584,336,49362,374,-126,92,1389807037.75021
3,83,0,62901,-145,-16,537,63075,8160,3120,608,61216,379,43,167,1389807037.75036
2,84,0,51050,1652,832,-4777,50984,11616,3456,352,49362,374,-126,92,1389807037.87106
3,84,0,64900,-93,-16,535,64953,8080,3296,688,63793,379,50,164,1389807037.87120
2,85,0,53039,1586,769,-4718,52862,12256,3440,-336,51923,370,-170,85,1389807037.87449
3,85,0,1364,-4,3,545,1296,8080,3136,672,834,376,49,166,1389807037.87460
2,86,0,55029,1776,671,-4575,54741,12160,2624,-880,54483,364,-212,73,1389807037.105319
3,86,0,3363,-82,5,547,3174,8144,2864,128,3411,376,59,169,1389807037.105333
2,87,0,57018,1669,644,-4353,56620,11648,2096,-336,57044,361,-247,61,1389807037.117497
3,87,0,5362,-206,-7,558,5052,8240,2672,-192,3411,376,59,169,1389807037.117507
2,88,0,58013,1405,597,-4249,58498,10560,2640,-1280,57044,361,-247,61,1389807037.117778
3,88,0,6362,-241,-11,579,6931,8432,2592,112,5989,376,64,171,1389807037.117785
2,89,0,60002,1309,455,-4127,60376,9072,480,-1648,59606,351,-28,53,1389807037.135556
3,89,0,8361,-233,0,610,8809,8416,2624,432,8565,374,67,167,1389807037.135571
2,90,0,61991,1218,358,-3793,62255,7840,160,-1744,62166,336,-311,46,1389807037.147363
3,90,0,10361,-160,24,606,10688,8144,2432,320,8565,374,67,167,1389807037.147371
2,91,0,63980,1097,236,-3358,64133,6496,-592,-1136,62166,336,-311,46,1389807037.147554
3,91,0,12360,-183,38,606,12567,7712,2064,-224,11142,371,75,167,1389807037.147560
2,92,0,434,920,131,-2783,476,4064,-1792,448,64727,328,-336,38,1389807037.165465
3,92,0,14359,-258,49,679,14444,7744,1712,-480,13719,370,78,165,1389807037.165474
2,93,0,2423,1077,157,-2034,2354,704,-3632,864,1752,315,-351,31,1389807037.177742
3,93,0,16359,-202,73,789,16321,8048,1728,-16,16296,371,85,164,1389807037.177817
2,94,0,4412,1524,161,-882,4233,-640,-3840,-224,4313,304,-356,26,1389807037.178200
3,94,0,18358,-34,94,869,18199,8128,1792,672,16296,371,85,164,1389807037.178206
2,95,0,6401,1540,-2,216,6112,1808,-720,-2640,4313,304,-356,26,1389807037.196478
3,95,0,20358,144,130,901,20077,7808,1776,928,18872,365,92,163,1389807037.196488
2,96,0,8391,998,-119,850,7990,5296,3216,-3376,6872,307,-352,16,1389807037.196685
3,96,0,21357,235,150,937,21955,7728,1920,1040,21449,364,102,159,1389807037.202919
2,97,0,9385,567,-155,1097,9869,7584,4960,-1584,9432,313,-343,19,1389807037.214800
3,97,0,23357,411,189,1044,23833,8064,2016,816,24027,364,109,165,1389807037.214809
2,98,0,11375,-31,-227,1501,11748,8080,4512,912,11993,313,-330,21,1389807037.227137
3,98,0,25356,448,209,1151,25712,8528,1968,480,24027,364,109,165,1389807037.227152
2,99,0,13364,-42,-229,1740,13627,7936,3872,1728,11993,313,-330,21,1389807037.227475
3,99,0,27355,282,169,1233,27590,9056,1968,48,26605,359,112,166,1389807037.227486
2,100,0,15353,205,-161,1861,15505,7520,4208,1040,14555,323,-320,19,1389807037.244959
3,100,0,29355,-4,118,1308,29468,9312,1968,16,29182,354,125,161,1389807037.244967
2,101,0,17342,535,-170,1989,17382,7056,4256,736,17117,331,-299,20,1389807037.256491
3,101,0,31354,-304,126,1373,31345,9152,1904,128,29182,354,125,161,1389807037.256505
2,102,0,19332,644,-313,2162,19260,7792,2304,16,17117,331,-299,20,1389807037.256815
3,102,0,33353,-533,172,1430,33224,9008,1664,176,31758,354,137,162,1389807037.262832
2,103,0,21321,633,-524,2238,21139,9872,-1184,-896,19678,334,-282,19,1389807037.274583
3,103,0,35353,-682,191,1521,35101,9200,1616,-128,34335,350,149,159,1389807037.274592
2,104,0,23310,616,-636,1913,23016,14256,-7808,-2320,22239,343,-266,23,1389807037.286218
3,104,0,36352,-731,193,1587,36980,9840,1760,-416,36912,341,165,151,1389807037.286227
2,105,0,24305,762,-536,1550,24895,20656,-16240,-4848,24800,351,-260,24,1389807037.292476
3,105,0,38352,-805,201,1739,38857,11088,2192,-880,36912,341,165,151,1389807037.292788
2,106,0,26294,237,36,473,26774,20512,-11056,-6016,24800,351,-260,24,1389807037.305066
3,106,0,40351,-863,237,1909,40735,13168,1248,-1152,39489,339,183,147,1389807037.305074
2,107,0,28283,-3459,318,-547,28652,11040,3552,-8016,27361,351,-265,26,1389807037.317163
3,107,0,42350,-1273,278,2090,42613,15808,-816,-2400,42066,334,195,141,1389807037.317171
2,108,0,30273,-5487,-24,-685,30530,4464,8176,-2448,29921,351,-258,40,1389807037.317436
3,108,0,44350,-1922,298,2276,44491,16960,-3104,-4064,44644,322,221,126,1389807037.317443
2,109,0,32262,-5837,-525,346,32408,3104,6928,8112,32482,349,-500,66,1389807037.335677
3,109,0,46349,-2654,480,2355,46368,16032,-4176,-3680,44644,322,221,126,1389807037.335692
2,110,0,34251,-3672,-574,1357,34287,6944,5648,11648,32482,349,-500,66,1389807037.347584
3,110,0,48348,-2848,583,2358,48246,13904,-2704,400,47221,313,248,115,1389807037.347592
2,111,0,36241,-428,-212,1921,36164,12720,3088,7808,35043,350,-222,80,1389807037.347806
3,111,0,50348,-2284,628,2367,50124,12160,224,4192,49798,301,10,92,1389807037.347812
2,112,0,38230,1192,102,1794,38043,13648,2016,5840,37603,362,-209,79,1389807037.365500
3,112,0,51347,-1747,647,2438,52002,12000,3296,6624,49798,301,10,92,1389807037.365509
2,113,0,40219,2312,374,1328,39921,8784,4448,704,40164,362,-202,66,1389807037.377752
3,113,0,53347,-974,738,2631,53880,12160,5088,7712,52375,289,285,80,1389807037.377767
2,114,0,41214,3016,490,1172,41800,5040,2800,-3040,40164,362,-202,66,1389807037.378105
3,114,0,55346,-476,909,2623,55757,11904,5824,6976,54952,273,301,70,1389807037.378115
2,115,0,43203,3789,376,1099,43679,4432,1568,-7040,42724,363,-202,57,1389807037.395572
3,115,0,57346,702,1138,2520,57634,10832,6304,6832,57530,262,313,71,1389807037.395581
2,116,0,45192,3212,8,1160,45558,5552,-784,-11328,45285,364,-196,47,1389807037.407374
3,116,0,59345,1813,1329,2278,59511,9216,8528,6320,57530,262,313,71,1389807037.407383
2,117,0,47182,1450,-140,1268,47436,7472,-2672,-11184,45285,364,-196,47,1389807037.407649
3,117,0,61344,2643,1416,1989,61388,7712,10208,4896,60107,247,319,76,1389807037.407697
2,118,0,49171,-1016,-206,1182,49314,8336,-480,-7792,47847,372,-189,45,1389807037.425714
3,118,0,63344,3010,1357,1909,63266,7072,8976,2928,62685,234,326,89,1389807037.425729
2,119,0,51160,-2789,-315,1016,51192,8592,2864,-3168,50407,373,-176,54,1389807037.438191
3,119,0,65343,3377,1175,1970,65143,6944,9744,1744,65262,227,324,108,1389807037.438206
2,120,0,53149,-3020,-392,973,53070,8768,3968,2128,52969,368,-160,62,1389807037.438541
3,120,0,807,3540,1080,1869,1485,6672,9248,2336,65262,227,324,108,1389807037.438552
3,121,0,2806,3167,1001,1617,3362,6064,7104,1456,2303,219,320,130,1389807037.454797
2,122,0,57128,-1035,-80,902,56826,8544,3968,3632,55529,372,-149,70,1389807037.466881
3,122,0,4805,2291,951,1336,5239,4928,5616,-608,4880,212,319,140,1389807037.466890
2,123,0,58122,-420,-9,904,58704,8592,3680,2784,58091,374,-142,70,1389807037.467153
3,123,0,6805,1368,952,955,7115,4144,5792,-1664,4880,212,319,140,1389807037.467159
2,124,0,60112,335,28,906,60582,8768,2400,1984,60651,371,-134,65,1389807037.485489
3,124,0,8804,549,1043,726,8993,4272,5440,-1072,7458,206,320,143,1389807037.485497
2,125,0,62101,585,25,880,62461,8816,2048,-80,60651,371,-134,65,1389807037.497231
3,125,0,10803,-65,1026,496,10871,4528,4416,608,10036,203,318,141,1389807037.497239
2,126,0,64090,555,43,783,64338,8304,2288,-2096,63211,374,-127,66,1389807037.497488
3,126,0,12803,-428,998,75,12748,4432,4896,2384,12613,203,320,132,1389807037.497493
2,127,0,544,279,31,715,680,7936,2480,-2800,236,375,-123,67,1389807037.515667
3,127,0,14802,-366,1024,-379,14625,3808,6560,3392,12613,203,320,132,1389807037.515676
2,128,0,2533,33,-26,705,2558,7600,2224,-2400,2797,375,-117,67,1389807037.527900
3,128,0,16801,171,1085,-710,16503,3216,6976,3424,15191,209,323,124,1389807037.527913
2,129,0,4522,-131,-69,700,4437,7792,1696,-1600,2797,375,-117,67,1389807037.528232
3,129,0,17801,451,1121,-827,18381,3024,6368,3184,17769,213,312,120,1389807037.528242
2,130,0,6511,-228,-56,606,6315,7808,1664,-1600,5357,375,-110,67,1389807037.546309
3,130,0,19801,796,1152,-1099,20259,3136,6032,2768,20346,221,305,121,1389807037.546318
2,131,0,7506,-224,-40,549,8193,7872,1792,-1552,7918,376,-105,70,1389807037.552034
3,131,0,21800,916,1133,-1355,22137,3344,6320,2144,20346,221,305,121,1389807037.552280
2,132,0,9495,-328,-25,439,10072,8208,2208,-1360,7918,376,-105,70,1389807037.563132
3,132,0,23799,953,1115,-1590,24014,3504,6000,1392,22924,235,298,120,1389807037.563142
2,133,0,11485,-541,41,351,11950,8384,3184,-320,10480,375,-104,69,1389807037.575458
3,133,0,25799,939,1113,-1819,25893,3904,5520,976,25502,250,278,118,1389807037.575473
2,134,0,13474,-442,47,327,13828,8560,3200,1152,13040,376,-97,69,1389807037.587649
3,134,0,27798,839,1072,-2069,27771,4032,6032,736,25502,250,278,118,1389807037.587664
2,135,0,15463,-132,22,320,15705,8736,2832,1616,15600,380,-97,71,1389807037.587988
3,135,0,29797,655,1037,-2353,29648,4032,6048,640,28079,263,263,118,1389807037.587998
2,136,0,17452,305,38,294,17584,8704,2272,592,15600,380,-97,71,1389807037.606124
3,136,0,31797,294,1012,-2549,31527,4176,5360,320,30656,280,510,114,1389807037.606133
2,137,0,19442,611,78,278,19462,8304,1696,-704,18161,377,-93,66,1389807037.611812
3,137,0,32796,186,983,-2637,33404,4528,5664,928,33234,294,232,109,1389807037.612064
2,138,0,21431,641,103,237,21340,7936,1184,-1856,20721,376,-93,65,1389807037.624180
3,138,0,34796,226,890,-2866,35281,4864,7088,2832,33234,294,232,109,1389807037.624194
2,139,0,23420,426,78,199,23218,7568,784,-2704,23281,380,-91,66,1389807037.635721
3,139,0,36795,519,789,-3155,37159,5040,6768,4464,35812,313,210,103,1389807037.635730
2,140,0,24415,298,70,198,25096,7792,576,-2704,23281,380,-91,66,1389807037.647744
3,140,0,38794,937,630,-3349,39037,5152,6816,4752,38391,332,187,100,1389807037.647753
2,141,0,26404,41,47,239,26975,8096,544,-2336,25842,378,-90,67,1389807037.648018
3,141,0,40794,1535,484,-3506,40914,5216,7184,4112,40968,345,152,103,1389807037.648023
2,142,0,28393,-97,23,270,28852,8272,464,-1504,28403,377,-87,66,1389807037.665514
3,142,0,42793,2028,465,-3626,42792,5648,6784,3072,40968,345,152,103,1389807037.665523
2,143,0,30383,-128,4,276,30730,8080,512,-1104,30964,377,-83,68,1389807037.677668
3,143,0,44792,2308,498,-3779,44670,6112,6944,1824,43546,361,117,108,1389807037.677677
2,144,0,32372,-142,21,291,32608,7936,880,-816,30964,377,-83,68,1389807037.677941
3,144,0,46792,2401,560,-3907,46548,6432,6832,976,46123,388,85,112,1389807037.677947
2,145,0,34361,-31,31,361,34486,7968,928,-160,33524,379,-81,65,1389807037.696156
3,145,0,47791,2327,603,-3953,48426,6560,6816,240,46123,388,85,112,1389807037.696170
2,146,0,36350,136,37,422,36364,7952,960,48,36085,377,-78,63,1389807037.701794
3,146,0,49791,2058,638,-4041,50302,6928,6864,-224,48701,388,47,111,1389807037.702082
2,147,0,38340,337,47,474,38242,7952,1088,-160,36085,377,-78,63,1389807037.713918
3,147,0,51790,1675,644,-4127,52179,7408,6144,-208,51279,407,2,107,1389807037.713927
2,148,0,40329,507,63,526,40120,7888,928,-384,38646,378,-72,66,1389807037.725563
3,148,0,53790,1231,575,-4224,54057,8064,5984,80,53856,407,225,101,1389807037.725577
2,149,0,41324,562,68,537,41998,7696,928,-704,41206,380,-71,62,1389807037.737347
3,149,0,55789,970,485,-4333,55934,8480,6272,640,53856,407,225,101,1389807037.737356
2,150,0,43313,689,82,588,43876,7568,704,-752,43767,375,-65,65,1389807037.737623
3,150,0,57788,856,377,-4437,57811,8768,5984,1056,56435,420,-72,97,1389807037.737630
2,151,0,45302,776,57,660,45754,7520,432,-928,43767,375,-65,65,1389807037.755748
3,151,0,59788,798,218,-4529,59688,9120,5808,1168,59013,420,-113,95,1389807037.755762
2,152,0,47291,833,50,722,47631,7696,544,-1504,46328,380,-63,61,1389807037.767419
3,152,0,61787,798,24,-4554,61565,9616,6032,1040,61591,414,-154,91,1389807037.767429
2,153,0,49281,811,64,763,49509,8000,672,-1888,48889,382,-57,59,1389807037.767626
3,153,0,62787,812,-42,-4566,63443,10240,5520,976,61591,414,-154,91,1389807037.767633
2,154,0,51270,634,64,788,51387,8416,1088,-1792,51451,374,-49,62,1389807037.784956
3,154,0,64786,815,-155,-4527,65320,10960,4768,800,64169,414,-194,94,1389807037.784964
2,155,0,53259,428,75,798,53266,8528,1824,-1584,51451,374,-49,62,1389807037.797145
3,155,0,1249,789,-230,-4439,1662,11184,3760,432,1210,393,-229,95,1389807037.797155
2,156,0,55249,360,62,811,55144,8352,2000,-944,54013,378,-47,62,1389807037.797438
3,156,0,3249,658,-245,-4313,3540,10864,3040,240,1210,393,-229,95,1389807037.797444
2,157,0,56243,370,46,836,57023,8144,1808,-560,56574,378,-39,61,1389807037.815112
3,157,0,5248,556,-222,-4109,5417,10384,3664,1056,3788,393,-10,96,1389807037.815120
2,158,0,58232,422,42,890,58902,7840,1664,-752,56574,378,-39,61,1389807037.827144
3,158,0,7247,502,-141,-3885,7294,9920,4048,1920,6366,371,-298,95,1389807037.827154
2,159,0,60222,528,53,933,60781,7632,1296,-1008,59134,378,-31,62,1389807037.827357
3,159,0,9247,759,-82,-3563,9172,9728,6240,1872,8944,371,-326,96,1389807037.827364
2,160,0,62211,635,79,984,62659,7584,848,-1120,61695,376,-19,61,1389807037.845035
3,160,0,11246,646,-17,-3313,11049,9648,2048,2512,8944,371,-326,96,1389807037.845045
2,161,0,64200,647,83,1052,64537,7728,768,-1568,64258,378,-14,62,1389807037.857360
3,161,0,12246,341,-13,-3143,12927,8496,2592,-640,11521,340,-349,93,1389807037.857375
2,162,0,654,477,89,1099,878,7936,1360,-2048,64258,378,-14,62,1389807037.857657
3,162,0,14245,333,-51,-2783,14804,4720,320,-2960,14098,340,-364,92,1389807037.857677
2,163,0,2643,187,87,1126,2757,8224,2208,-1968,1283,373,-6,60,1389807037.875305
3,163,0,16244,-350,-315,-2049,16682,1280,-2800,-2816,16675,331,-373,97,1389807037.875320
2,164,0,4632,-64,68,1144,4634,8416,2832,-1440,3845,372,-249,58,1389807037.887373
3,164,0,18244,-1411,-608,-953,18559,1040,-1440,-512,16675,331,-373,97,1389807037.887388
2,165,0,6621,-191,49,1172,6512,8624,3296,-832,6406,374,17,58,1389807037.887716
3,165,0,20243,-1646,-615,187,20437,4416,2272,2880,19253,325,-368,110,1389807037.887726
2,166,0,7616,-198,42,1188,8390,8768,3520,-560,6406,374,17,58,1389807037.904744
3,166,0,22243,-1235,-429,910,22314,7472,5280,4656,21830,321,-357,121,1389807037.904753
2,167,0,9605,-87,64,1223,10267,8736,3408,-320,8967,373,25,65,1389807037.917035
3,167,0,24242,-203,-221,1266,24192,9040,5680,4128,21830,321,-357,121,1389807037.917088
2,168,0,11595,163,99,1264,12146,8672,3216,-352,11528,367,38,61,1389807037.917360
3,168,0,26241,747,-221,1545,26070,8704,5040,2592,24407,326,-350,124,1389807037.917366
2,169,0,13584,459,142,1303,14024,8704,3424,-704,14089,368,45,61,1389807037.935506
3,169,0,27241,983,-296,1628,27947,7456,4336,784,26983,333,-334,122,1389807037.935515
2,170,0,15573,708,201,1344,15902,8800,3360,-944,14089,368,45,61,1389807037.947178
3,170,0,29240,1021,-397,1816,29824,6896,4480,-896,29560,334,-325,117,1389807037.947187
2,171,0,17562,893,245,1399,17780,8992,3120,-752,16650,365,54,61,1389807037.947453
3,171,0,31240,857,-380,2065,31701,7584,5152,-736,29560,334,-325,117,1389807037.947459
2,172,0,19552,1039,268,1454,19658,9216,2768,-352,19211,359,68,62,1389807037.965478
3,172,0,33239,834,-350,2239,33579,8640,4592,208,32136,344,-311,118,1389807037.965486
2,173,0,21541,1125,281,1513,21536,9536,2736,-96,19211,359,68,62,1389807037.977410
3,173,0,35238,1003,-268,2219,35457,10528,2048,-416,34712,354,-299,117,1389807037.977425
2,174,0,23530,1183,288,1577,23415,10032,2720,240,21771,359,82,60,1389807037.977749
3,174,0,37238,1006,-127,1955,37335,14016,-4880,-2960,37290,360,-286,110,1389807037.977759
2,175,0,24525,1215,284,1620,25293,10864,2752,688,24332,357,87,63,1389807037.996080
3,175,0,39237,725,-66,1429,39212,17328,-8176,-6448,37290,360,-286,110,1389807037.996089
2,176,0,26514,1282,274,1709,27170,11984,2976,848,26893,349,104,64,1389807038.8290
3,176,0,41236,1528,-69,641,41090,16032,-3232,-4656,39868,366,-285,109,1389807038.8305
2,177,0,28503,1492,255,1808,29049,13696,1408,1488,26893,349,104,64,1389807038.8628
3,177,0,42236,2223,-68,300,42967,9744,2768,2432,42446,369,-288,103,1389807038.8638
2,178,0,30493,2037,253,1980,30927,15952,-1264,3280,29454,349,115,70,1389807038.26841
3,178,0,44235,3058,23,-34,44844,4784,6176,5520,42446,369,-288,103,1389807038.26855
2,179,0,32482,2746,244,2258,32805,17568,-3472,4464,32014,341,124,78,1389807038.27197
3,179,0,46235,3239,19,263,46721,5024,7584,2272,45024,367,-296,90,1389807038.27413
2,180,0,34471,3430,230,2510,34684,16304,-2560,3984,34574,333,138,88,1389807038.45495
3,180,0,48234,2590,-135,1165,48600,8832,3936,-4656,47601,369,-293,81,1389807038.45504
2,181,0,36460,3632,238,2624,36561,13872,368,3120,34574,333,138,88,1389807038.57638
3,181,0,50233,1083,-225,1824,50477,13888,-736,-9296,50178,375,-283,74,1389807038.57652
2,182,0,38450,3836,260,2619,38440,12624,2912,2432,37135,326,154,103,1389807038.57979
3,182,0,52233,-46,-514,1709,52355,13728,2544,-3424,50178,375,-283,74,1389807038.57989
2,183,0,40439,4545,166,2671,40317,12656,3472,-16,39695,314,160,120,1389807038.74617
3,183,0,54232,-511,-796,1202,54233,9280,3168,6400,52755,379,-270,80,1389807038.74626
2,184,0,41434,4866,39,2702,42194,12736,2608,-3408,42255,304,166,145,1389807038.86777
3,184,0,56232,-206,-353,907,56111,4992,2512,9344,55332,381,-262,90,1389807038.86792
2,185,0,43423,4670,-313,2718,44072,12048,2064,-5872,42255,304,166,145,1389807038.87096
3,185,0,57231,450,-107,818,57990,4288,3344,5248,57909,386,-259,83,1389807038.87395
2,186,0,45412,3131,-562,2614,45950,10064,3056,-7168,44814,294,176,164,1389807038.105177
3,186,0,59231,1729,-1,893,59868,6336,3776,-1168,57909,386,-259,83,1389807038.105187
2,187,0,47401,794,-595,2341,47827,8480,5584,-7376,47376,269,183,173,1389807038.117368
3,187,0,61230,1551,-175,1209,61746,9488,3888,-5984,60486,385,-256,81,1389807038.117377
2,188,0,49391,-1124,-468,1912,49705,7680,6256,-5632,47376,269,183,173,1389807038.117661
3,188,0,63229,871,-299,1399,63625,11456,3552,-5856,63064,389,-499,78,1389807038.117668
2,189,0,51380,-2081,-400,1571,51582,6864,8016,-3088,49936,269,198,173,1389807038.135812
3,189,0,65229,234,-402,1150,65501,10816,3072,-3248,63064,389,-499,78,1389807038.135826
2,190,0,53369,-2709,-311,1419,53460,6448,9136,-512,52496,258,218,163,1389807038.148082
3,190,0,1692,-607,-408,855,1843,9056,2816,-1856,106,393,-235,81,1389807038.148091
2,191,0,55358,-3173,-226,1156,55338,5568,10432,2144,55057,251,231,147,1389807038.148359
3,191,0,3691,-1369,-380,743,3720,7904,3376,-1744,2683,397,-229,91,1389807038.148407
2,192,0,56353,-2846,-194,1107,57216,4688,8160,3632,55057,251,231,147,1389807038.166405
3,192,0,5691,-1626,-376,779,5598,7872,3664,-720,5260,395,-213,96,1389807038.166414
2,193,0,58342,-1156,-139,1007,59094,3984,6208,4240,57619,242,245,137,1389807038.166562
3,193,0,6690,-1528,-386,825,7477,8336,2944,2000,5260,395,-213,96,1389807038.177926
2,194,0,60332,408,-59,769,60971,3360,6064,2640,60181,238,247,140,1389807038.178201
3,194,0,8690,-1012,-412,835,9355,8480,2464,4480,7838,397,-204,102,1389807038.178208
2,195,0,62321,1201,57,389,62849,2816,5632,944,62741,235,245,145,1389807038.196375
3,195,0,10689,-325,-296,715,11233,8304,2320,4688,10416,400,-200,106,1389807038.196384
2,196,0,64310,1359,197,33,64726,2368,5008,-112,62741,235,245,145,1389807038.196573
3,196,0,12688,317,-129,604,13111,8288,2032,3088,12993,397,-195,108,1389807038.208748
2,197,0,763,1391,312,-258,1068,2416,4800,-784,65302,236,239,153,1389807038.209078
3,197,0,14688,815,-103,487,14988,8048,1808,1744,12993,397,-195,108,1389807038.209088
2,198,0,2753,1316,322,-557,2946,2848,3744,-768,2327,234,231,157,1389807038.226777
3,198,0,16687,904,-153,383,16865,7840,2256,784,15570,398,-196,107,1389807038.226786
2,199,0,4742,878,291,-821,4824,3232,3008,-208,4889,240,223,160,1389807038.227055
3,199,0,18687,607,-148,375,18742,8208,3344,-304,18146,403,-195,104,1389807038.227246
2,200,0,6731,189,311,-1158,6701,3344,3248,-352,4889,240,223,160,1389807038.244856
3,200,0,20686,-147,-121,451,20621,9024,3280,-2160,18146,403,-195,104,1389807038.244871
2,201,0,7726,-128,330,-1325,8578,3296,4176,-240,7452,247,213,158,1389807038.257179
3,201,0,21686,-585,-115,454,22499,9248,1824,-3536,20723,396,-192,107,1389807038.257187
2,202,0,9715,-650,342,-1627,10456,3200,4624,112,10013,266,205,150,1389807038.257387
3,202,0,23685,-1121,-191,329,24377,8672,912,-2448,23300,401,-183,115,1389807038.257392
2,203,0,11704,-793,323,-1894,12334,3392,4352,992,10013,266,205,150,1389807038.274057
3,203,0,25684,-1245,-291,256,26254,8288,1360,352,25878,402,-180,114,1389807038.274066
2,204,0,13694,-742,310,-2103,14212,3728,4640,1504,12574,266,193,143,1389807038.285640
3,204,0,27684,-1039,-306,327,28132,8288,1792,3008,25878,402,-180,114,1389807038.285649
2,205,0,15683,-660,317,-2383,16089,3936,4864,1264,15135,275,178,138,1389807038.297003
3,205,0,29683,-634,-231,339,30010,8272,2080,3984,28455,398,-172,121,1389807038.297011
2,206,0,17672,-449,340,-2632,17968,3920,4864,1088,17696,285,160,131,1389807038.297166
3,206,0,31682,-68,-132,334,31888,8112,1408,3584,31032,400,-168,122,1389807038.297171
2,207,0,19662,-261,386,-2869,19846,3776,5136,960,17696,285,160,131,1389807038.314560
3,207,0,33682,264,-74,325,33766,7968,544,1952,33610,401,-170,121,1389807038.314570
2,208,0,21651,-207,450,-3090,21724,3776,5232,800,20258,299,137,126,1389807038.326236
3,208,0,35681,164,-56,314,35645,7984,608,32,33610,401,-170,121,1389807038.326250
2,209,0,23640,-187,530,-3331,23601,3872,5392,416,22819,313,117,121,1389807038.331826
3,209,0,36681,59,-70,338,37523,8016,1072,-928,36188,400,-168,122,1389807038.332005
2,210,0,24635,-232,578,-3451,25479,4048,5136,-304,25379,324,89,114,1389807038.344107
3,210,0,38680,-165,-126,411,39401,8096,1184,-272,38765,402,-160,123,1389807038.344121
2,211,0,26624,-464,669,-3671,27357,4368,4576,-528,25379,324,89,114,1389807038.356359
3,211,0,40679,-364,-167,450,41279,8064,1088,816,38765,402,-160,123,1389807038.356374
2,212,0,28613,-828,725,-3892,29236,4944,4720,-240,27940,337,58,103,1389807038.356680
3,212,0,42679,-378,-174,479,43158,8192,1104,1440,41342,401,-154,125,1389807038.362873
2,213,0,30603,-1257,731,-4127,31114,5216,5984,320,30502,351,28,91,1389807038.374980
3,213,0,44678,-133,-153,540,45037,8256,1200,1488,43919,404,-151,132,1389807038.374989
2,214,0,32592,-1333,616,-4321,32992,5328,6672,1808,30502,351,28,91,1389807038.387094
3,214,0,46677,191,-117,591,46915,8288,1216,1264,46497,402,-145,132,1389807038.387108
2,215,0,34581,-692,453,-4382,34870,6256,6416,4048,33064,357,250,87,1389807038.387434
3,215,0,48677,310,-86,585,48794,8160,1360,672,46497,402,-145,132,1389807038.387444
2,216,0,36570,430,385,-4370,36747,7808,7424,4912,35625,368,-37,82,1389807038.405119
3,216,0,50676,298,-110,592,50672,8080,1840,272,49074,402,-140,129,1389807038.405128
2,217,0,38560,1443,517,-4430,38625,8800,9120,2592,38186,374,-81,76,1389807038.417294
3,217,0,51676,301,-129,606,52550,8144,1936,512,51652,401,-138,129,1389807038.417303
2,218,0,39554,1817,621,-4518,40502,9024,8800,-288,38186,374,-81,76,1389807038.417572
3,218,0,53675,204,-142,654,54429,8272,2128,768,54229,401,-134,130,1389807038.417578
2,219,0,41544,2374,795,-4681,42380,8656,7424,-544,40748,374,-122,68,1389807038.435827
3,219,0,55675,171,-152,675,56307,8240,2368,1152,54229,401,-134,130,1389807038.435835
2,220,0,43533,2522,817,-4732,44257,8192,7120,384,43310,371,-166,57,1389807038.448031
3,220,0,57674,168,-140,665,58185,8176,2512,1088,56806,403,-128,132,1389807038.448040
2,221,0,45522,2318,854,-4705,46135,8144,6352,480,45871,370,-209,41,1389807038.448252
3,221,0,59673,163,-127,659,60063,8160,2688,656,59384,403,-121,133,1389807038.448258
2,222,0,47511,2300,1090,-4681,48013,8592,4864,416,45871,370,-209,41,1389807038.466396
3,222,0,61673,175,-123,679,61942,8256,2576,528,59384,403,-121,133,1389807038.466405
2,223,0,49501,2049,1353,-4678,49891,9616,4016,-64,48432,366,-253,27,1389807038.466655
3,223,0,63672,119,-122,699,63820,8320,2272,480,61961,405,-114,135,1389807038.472832
2,224,0,51490,1639,1476,-4622,51769,10864,3424,-1264,50992,352,-33,6,1389807038.484305
3,224,0,135,32,-132,718,162,8304,2176,400,64537,405,-108,136,1389807038.484314
2,225,0,53479,1520,1451,-4502,53647,11632,2320,-1696,53552,342,-327,-13,1389807038.496385
3,225,0,1135,9,-149,728,2040,8240,2240,528,1579,401,-105,134,1389807038.496394
2,226,0,55468,1357,1310,-4325,55054,11712,1904,-1408,53552,342,-327,-13,1389807038.496579
3,226,0,3134,-35,-144,744,3917,8176,2176,592,1579,401,-105,134,1389807038.508763
2,227,0,56463,1058,1231,-4219,56932,11552,5760,-1280,56113,322,-360,-24,1389807038.509097
3,227,0,5134,-145,-126,769,5796,8176,2256,448,4156,401,-98,136,1389807038.509107
2,228,0,58452,689,915,-4082,58810,11360,1920,-2864,58673,306,-385,-39,1389807038.526727
3,228,0,7133,-197,-127,802,7674,8112,2272,496,6734,401,-90,140,1389807038.526742
2,229,0,60442,1241,568,-3779,60687,10896,-688,-240,58673,306,-385,-39,1389807038.527067
3,229,0,9132,-264,-132,830,9553,8096,2336,720,9311,404,-81,140,1389807038.527367
2,230,0,62431,813,317,-3362,62565,8976,-1568,304,61236,290,-412,-50,1389807038.544914
3,230,0,11132,-304,-130,874,10961,8128,2256,1008,9311,404,-81,140,1389807038.544929
2,231,0,64420,50,243,-2792,64443,4512,-1584,-624,63798,269,-431,-53,1389807038.557125
3,231,0,13131,-223,-117,932,12839,8240,2240,1328,11888,401,-77,143,1389807038.557140
2,232,0,873,-190,245,-2049,784,-1232,-3360,-1152,823,245,-439,-52,1389807038.557467
3,232,0,15131,-104,-99,982,14716,8320,2048,1456,14465,400,-63,142,1389807038.557477
2,233,0,2863,81,148,-709,2663,-3712,-3376,784,823,245,-439,-52,1389807038.575394
3,233,0,16130,-70,-94,999,16593,8256,2080,1040,17043,402,-57,142,1389807038.575408
2,234,0,4852,33,-23,587,4541,176,192,-416,3383,245,-436,-55,1389807038.587060
3,234,0,18130,-10,-92,1028,18470,8032,2400,816,17043,402,-57,142,1389807038.587075
2,235,0,6841,-344,-40,1248,6419,5440,4144,-2448,5944,246,-428,-55,1389807038.587398
3,235,0,20129,30,-111,1069,20348,7984,2592,1184,19621,402,-46,146,1389807038.587409
2,236,0,7836,-701,-53,1479,8298,8336,5552,-1344,8505,251,-416,-47,1389807038.605590
3,236,0,22128,92,-101,1146,22225,8096,2800,1824,22197,397,-37,145,1389807038.605605
2,237,0,9825,-1349,-183,1964,10175,9120,5648,1360,8505,251,-416,-47,1389807038.617858
3,237,0,24128,51,-94,1214,24103,8368,2864,1728,22197,397,-37,145,1389807038.617866
2,238,0,11814,-1422,-296,2299,12053,8896,5056,2272,11066,263,-399,-38,1389807038.618131
3,238,0,26127,-45,-106,1265,25980,8672,3008,1120,24774,402,-26,145,1389807038.618137
2,239,0,13804,-883,-279,2443,13931,8784,2848,1456,13628,277,-381,-29,1389807038.635766
3,239,0,28126,-194,-134,1297,27857,8880,3040,848,27352,398,-15,145,1389807038.635781
2,240,0,15793,-158,-330,2473,15809,10256,-896,1408,16189,289,-366,-29,1389807038.648139
3,240,0,30126,-411,-160,1344,29734,9136,2992,816,29928,395,-4,146,1389807038.648148
2,241,0,17782,339,-470,2219,17687,14688,-8096,1504,16189,289,-366,-29,1389807038.648416
3,241,0,31125,-496,-160,1361,31612,9584,3136,944,29928,395,-4,146,1389807038.648422
2,242,0,19772,942,-350,1383,19565,21376,-14976,-160,18750,302,-354,-27,1389807038.666463
3,242,0,33125,-593,-143,1421,33491,10096,3408,1152,32505,394,-248,147,1389807038.666472
2,243,0,21761,-535,80,32,21443,20272,-11584,-3664,21309,310,-358,-28,1389807038.666718
3,243,0,35124,-631,-104,1500,35369,10912,3376,1392,35082,391,27,147,1389807038.673054
2,244,0,22755,-2175,217,-441,23321,10928,624,-8064,21309,310,-358,-28,1389807038.684583
3,244,0,37123,-528,-70,1617,37246,12096,3344,816,37658,387,39,149,1389807038.684592
2,245,0,24745,-4201,83,-627,25199,3888,5856,-5296,23871,308,-357,-11,1389807038.696554
3,245,0,39123,-364,-27,1716,39125,12592,3584,-912,37658,387,39,149,1389807038.696563
2,246,0,26734,-5263,-321,145,27076,1968,7344,3120,26432,304,-348,17,1389807038.696814
3,246,0,41122,-560,-3,1734,41003,12368,2752,-3136,40235,385,59,149,1389807038.703055
2,247,0,28723,-4706,-544,1030,28955,4384,5952,8464,28993,313,-335,43,1389807038.714763
3,247,0,43121,-1265,-73,1775,42881,12320,624,-4304,42812,384,74,144,1389807038.714772
2,248,0,30713,-2086,-321,1615,30833,10256,4272,7936,28993,313,-335,43,1389807038.727023
3,248,0,45121,-2156,-124,2018,44760,13248,-1312,-4880,42812,384,74,144,1389807038.727032
2,249,0,32702,294,-50,1672,32712,14112,1184,5280,31554,313,-318,49,1389807038.727297
3,249,0,46121,-2513,-88,2180,46638,14560,-2224,-5568,45390,375,98,141,1389807038.727303
2,250,0,34691,1113,152,1297,34590,11872,2080,1296,34115,318,-311,46,1389807038.745349
3,250,0,48120,-3202,-1,2415,48516,14368,-1536,-5520,47968,369,127,128,1389807038.745364
2,251,0,36680,1608,369,904,36468,7424,3152,-1136,36676,326,-306,36,1389807038.757333
3,251,0,50119,-3627,-32,2412,50394,12944,544,-3376,50546,364,154,118,1389807038.757347
2,252,0,38670,1834,216,848,38346,4912,1536,-1040,36676,326,-306,36,1389807038.757661
3,252,0,52119,-3692,-62,2333,52272,11344,2080,-304,50546,364,154,118,1389807038.757671
2,253,0,39664,1856,85,871,40223,5008,16,-2896,39237,327,-301,27,1389807038.775661
3,253,0,54118,-3627,-7,2291,54150,10240,3888,1888,53123,355,178,103,1389807038.775670
2,254,0,41654,1639,-19,956,42102,6864,-1504,-5536,41798,334,-294,21,1389807038.787095
3,254,0,56117,-3363,185,2437,56028,10320,3984,4416,55700,344,211,85,1389807038.787104
2,255,0,43643,787,98,939,43979,8400,-2000,-6064,41798,334,-294,21,1389807038.787274
3,255,0,58117,-2842,427,2490,57907,10400,4176,6752,58276,334,232,73,1389807038.787279
2,0,0,45632,-362,122,771,45858,8640,-448,-5056,44359,336,-292,17,1389807038.805405
3,0,0,60116,-1627,581,2348,59786,9920,5200,7408,58276,334,232,73,1389807038.805419
2,1,0,47621,-1138,46,668,47737,8224,1040,-2976,46921,336,-285,19,1389807038.817764
3,1,0,61116,-752,595,2243,61664,8896,6720,7040,60853,321,245,61,1389807038.817773
3,2,0,63115,1270,567,1844,63542,7728,7792,6128,63430,312,255,65,1389807038.818009
2,3,0,51600,-1805,-44,763,51493,8560,2432,-160,49481,338,-274,26,1389807038.836251
3,3,0,65114,2791,546,1644,65420,7328,8880,4416,63430,312,255,65,1389807038.836260
2,4,0,53589,-1778,-62,800,53370,9232,2640,1584,52042,340,-265,31,1389807038.842532
3,4,0,1578,3134,453,1783,1762,7584,8672,2480,472,303,5,80,1389807038.842837
2,5,0,55578,-1299,-43,808,55248,9696,3040,3328,54602,346,-258,38,1389807038.855039
3,5,0,3577,2797,330,1688,3640,7264,8688,592,3049,294,260,95,1389807038.855048
2,6,0,56573,-940,-14,786,57126,9600,3008,3648,57164,350,-249,41,1389807038.866562
3,6,0,5576,2174,343,1382,5518,6592,7888,-1680,5626,288,267,106,1389807038.866571
2,7,0,58562,-197,92,755,59005,9248,2880,2112,57164,350,-249,41,1389807038.866783
3,7,0,7576,1236,402,1135,7395,5968,5664,-3184,5626,288,267,106,1389807038.872967
2,8,0,60552,359,155,752,60884,8688,2192,64,59724,350,-247,40,1389807038.885273
3,8,0,9575,372,408,846,9273,5312,4768,-2096,8203,285,269,110,1389807038.885282
2,9,0,62541,602,133,727,62763,8160,1648,-1344,62286,354,-243,37,1389807038.897405
3,9,0,10575,76,405,683,11150,4704,6160,752,10781,278,268,107,1389807038.897414
2,10,0,64530,663,104,680,64642,7696,1600,-2608,64846,354,-232,32,1389807038.897658
3,10,0,12574,-234,411,324,13028,3968,6896,2624,13358,277,269,104,1389807038.897665
2,11,0,983,637,72,658,985,7616,1280,-2704,64846,354,-232,32,1389807038.915592
3,11,0,14574,-96,437,-33,14905,3360,7008,3024,13358,277,269,104,1389807038.915601
2,12,0,2973,359,37,627,2863,7824,656,-2464,1870,354,-234,34,1389807038.927775
3,12,0,16573,287,455,-312,16783,3280,6304,2736,15935,275,271,101,1389807038.927784
2,13,0,4962,60,27,568,4742,8192,256,-1968,4431,361,-226,32,1389807038.928048
3,13,0,18572,438,484,-548,18661,3520,5584,1984,18513,280,265,103,1389807038.928054
2,14,0,5957,-43,26,545,6621,8416,352,-1232,4431,361,-226,32,1389807038.945763
3,14,0,20572,412,514,-833,20539,3712,5168,1056,18513,280,265,103,1389807038.945772
2,15,0,7946,-99,20,475,8499,8576,592,-640,6991,359,-223,35,1389807038.958113
3,15,0,22571,452,568,-1187,22417,3488,4848,192,21090,286,508,100,1389807038.958122
2,16,0,9935,-8,25,460,10378,8592,992,-256,9551,363,-216,29,1389807038.958398
3,16,0,24570,649,624,-1541,24295,3024,5360,160,23668,292,246,100,1389807038.958404
2,17,0,11924,27,20,436,12256,8176,1184,-416,12112,365,-212,31,1389807038.976355
3,17,0,25570,777,644,-1699,26174,2416,7168,864,26246,301,228,101,1389807038.976363
2,18,0,13914,52,29,438,14134,7936,1136,-640,12112,365,-212,31,1389807038.976613
3,18,0,27569,900,669,-1969,28051,2144,7696,1600,26246,301,228,101,1389807038.982575
2,19,0,15903,-11,19,432,16012,7936,1072,-784,14672,361,-211,30,1389807038.994874
3,19,0,29569,522,662,-2120,29929,2464,6304,976,28824,310,212,101,1389807038.994888
2,20,0,17892,-32,-18,404,17889,8064,1200,-656,17232,366,-204,29,1389807039.7034
3,20,0,31568,47,601,-2173,31806,3360,4784,-496,31401,326,198,96,1389807039.7049
2,21,0,19882,120,-1,384,19766,8112,1312,-448,19793,366,-201,30,1389807039.7374
3,21,0,33567,-96,552,-2367,33684,4064,5280,-1168,33978,336,181,89,1389807039.7385
2,22,0,21871,338,29,371,21643,8160,1136,-640,19793,366,-201,30,1389807039.25385
3,22,0,35567,-168,516,-2763,35562,4256,5568,-976,33978,336,181,89,1389807039.25400
2,23,0,22865,407,34,381,23521,8176,1136,-1264,22353,366,-199,33,1389807039.37043
3,23,0,37566,-297,466,-3017,37439,4304,5504,-320,36556,345,157,85,1389807039.37052
2,24,0,24855,408,19,399,25399,8112,816,-1472,24914,365,-194,29,1389807039.37247
3,24,0,39565,-343,401,-3220,39317,4368,6560,1248,39134,361,135,79,1389807039.37252
2,26,0,28833,93,12,391,29155,8224,656,-912,27474,371,-192,24,1389807039.67187
3,26,0,42564,-94,224,-3518,43072,4816,6336,1824,41712,388,107,78,1389807039.67196
2,27,0,30823,-78,-2,364,31032,8240,656,-992,30035,369,-192,30,1389807039.67413
3,27,0,44564,162,50,-3653,44951,5184,6272,992,44290,388,81,75,1389807039.67420
2,28,0,32812,-153,-30,354,32910,8112,592,-720,32595,368,-184,27,1389807039.85000
3,28,0,46563,340,-77,-3815,46829,5664,6368,544,46867,403,47,78,1389807039.85010
2,29,0,34801,-115,-11,403,34787,7952,640,-544,32595,368,-184,27,1389807039.96807
3,29,0,48563,473,-133,-3982,48706,5904,6832,208,46867,403,47,78,1389807039.96817
2,30,0,36790,29,-7,431,36664,7984,912,-496,35156,371,-183,29,1389807039.97036
3,30,0,50562,667,-162,-4123,50583,6160,7152,176,49445,403,12,82,1389807039.97279
2,31,0,38780,245,-2,482,38543,7840,784,-576,37717,373,-179,27,1389807039.115155
3,31,0,52561,721,-152,-4185,52461,6784,6816,-112,52022,414,-26,80,1389807039.115164
2,32,0,39774,334,9,497,40421,7936,480,-800,40276,373,-172,25,1389807039.126545
3,32,0,54561,636,-159,-4259,54339,7648,6528,-816,54599,414,-64,82,1389807039.126552
2,33,0,41764,408,19,554,42299,8112,160,-1120,40276,373,-172,25,1389807039.126724
3,33,0,55560,597,-158,-4307,56216,8416,6624,-1360,54599,414,-64,82,1389807039.132700
2,34,0,43753,354,4,591,44177,8192,32,-1440,42838,371,-171,27,1389807039.144410
3,34,0,57560,472,-144,-4409,58095,9184,6080,-992,57177,419,-101,85,1389807039.144414
2,35,0,45742,195,-20,615,46055,8144,128,-1456,45399,374,-166,25,1389807039.156099
3,35,0,59559,237,-159,-4499,59972,9888,5232,-192,59754,419,-146,87,1389807039.156102
2,36,0,47731,49,-23,644,47933,8080,272,-1136,47959,376,-159,26,1389807039.161998
3,36,0,61558,199,-229,-4571,61850,10560,5136,1024,59754,419,-146,87,1389807039.162189
2,37,0,49721,35,-37,700,49810,7824,224,-640,47959,376,-159,26,1389807039.173789
3,37,0,63558,473,-298,-4593,63726,11344,5664,2464,62332,406,-178,90,1389807039.173794
2,38,0,51710,108,-41,764,51688,7616,368,-592,50520,376,-153,26,1389807039.185274
3,38,0,21,986,-328,-4569,68,12288,6016,3696,64909,406,-219,90,1389807039.185278
2,39,0,53699,197,-23,822,53565,7504,416,-672,53080,376,-145,24,1389807039.196403
3,39,0,2020,1452,-261,-4498,1945,13584,5440,3536,1952,384,-257,89,1389807039.196410
2,40,0,55688,266,0,877,55442,7616,400,-752,55640,379,-140,26,1389807039.196534
3,40,0,4020,1968,-69,-4389,3822,14544,4608,1584,1952,384,-257,89,1389807039.208229
2,41,0,56683,302,-3,920,57320,7824,384,-848,55640,379,-140,26,1389807039.208437
3,41,0,5019,2301,37,-4356,5699,14016,3152,192,4529,384,-297,80,1389807039.208440
2,42,0,58672,374,-18,1001,59198,7808,544,-1200,58202,379,-129,25,1389807039.225180
3,42,0,7019,2490,200,-4363,7577,12080,3168,-1584,7107,371,-332,70,1389807039.225188
2,43,0,60662,332,-10,1042,61076,7856,1088,-1616,60763,379,-118,25,1389807039.236273
3,43,0,9018,2365,342,-4239,9454,9248,1648,-2480,9684,352,-368,55,1389807039.236277
2,44,0,62651,183,-28,1098,62954,7872,1360,-1520,60763,379,-118,25,1389807039.236465
3,44,0,11018,1668,432,-3900,11333,7072,1440,-2912,9684,352,-368,55,1389807039.248096
2,45,0,64640,58,-53,1131,64830,8000,1696,-992,63325,379,-113,26,1389807039.248302
3,45,0,13017,556,357,-3345,13211,5472,-384,-4368,12261,337,-396,48,1389807039.248306
2,46,0,1093,4,-82,1163,1172,8016,1840,-304,351,381,-100,26,1389807039.265070
3,46,0,15016,-888,-57,-2556,15088,2496,-4224,-5408,14838,320,-403,53,1389807039.265075
2,47,0,3083,45,-99,1196,3050,8064,1920,-192,2912,384,-87,28,1389807039.276617
3,47,0,17016,-1890,-550,-1447,16966,-448,-4160,-2688,14838,320,-403,53,1389807039.276620
2,48,0,5072,75,-81,1202,4927,8032,2592,-880,2912,384,-87,28,1389807039.276807
3,48,0,19015,-1752,-586,-180,18844,1440,-816,4096,17415,310,-406,70,1389807039.276919
2,49,0,6067,20,-75,1196,6805,8016,2848,-1392,5472,383,-81,26,1389807039.294192
3,49,0,20015,-1429,-496,320,20722,5408,4896,8592,19992,309,-395,77,1389807039.294195
2,50,0,8056,-158,-111,1202,8683,8176,2560,-1216,8034,382,-71,32,1389807039.305604
3,50,0,22014,-203,-224,919,22600,8560,6976,7632,22570,303,-392,77,1389807039.305617
2,51,0,10045,-255,-139,1216,10560,8288,2496,-928,10595,381,-59,30,1389807039.317798
3,51,0,24013,1363,42,1309,24478,9824,5520,3712,22570,303,-392,77,1389807039.317807
2,52,0,12034,-208,-115,1241,12438,8416,3248,-1040,10595,381,-59,30,1389807039.318073
3,52,0,26013,2158,12,1433,26356,8256,4320,-640,25147,311,-383,68,1389807039.318079
2,53,0,14024,-118,-81,1242,14316,8512,3920,-1264,13157,381,-47,31,1389807039.336046
3,53,0,28012,2257,-229,1363,28233,6352,2592,-3184,27724,322,-377,57,1389807039.336055
2,54,0,16013,-56,-58,1236,16194,8480,3984,-1072,15718,379,-37,34,1389807039.347579
3,54,0,30011,1623,-240,1528,30111,6416,3392,-3376,30301,327,-368,49,1389807039.347588
2,55,0,18002,12,-54,1241,18072,8544,3744,-576,15718,379,-37,34,1389807039.347800
3,55,0,32011,1083,-137,1809,31989,7200,5104,-1568,30301,327,-368,49,1389807039.347805
2,56,0,19992,144,-66,1249,19951,8432,3584,-272,18279,381,-26,31,1389807039.365921
3,56,0,34010,1032,-62,1990,33867,7872,5344,688,32877,336,-363,45,1389807039.365930
2,57,0,21981,283,-45,1261,21829,8368,3216,-208,20839,379,-17,34,1389807039.377873
3,57,0,35010,1123,-22,2014,35744,7904,5056,2192,35455,343,-343,37,1389807039.377882
2,58,0,22975,341,-34,1279,23707,8512,2624,-352,23400,376,-4,35,1389807039.378131
3,58,0,37009,1408,20,1951,37622,8496,2816,2672,35455,343,-343,37,1389807039.378138
2,59,0,24965,473,0,1310,25585,8752,2224,-688,23400,376,-4,35,1389807039.395374
3,59,0,39008,1493,-38,1807,39500,10784,-1504,784,38031,352,-333,31,1389807039.395382
2,60,0,26954,653,45,1379,27462,9072,1616,-1120,25959,378,-251,35,1389807039.406991
3,60,0,41008,1145,-180,1474,41377,14720,-8352,-2960,40608,360,-324,29,1389807039.407000
2,61,0,28943,822,56,1494,29339,9616,1248,-1104,28521,378,17,35,1389807039.407205
3,61,0,43007,593,-320,759,43254,17552,-3568,-7840,43185,367,-324,25,1389807039.407211
2,62,0,30933,889,26,1625,31218,10448,896,-928,31081,370,32,39,1389807039.424811
3,62,0,45007,1655,-237,-35,45132,14512,4544,-5600,43185,367,-324,25,1389807039.424826
2,63,0,32922,781,21,1760,33096,11488,1168,-64,31081,370,32,39,1389807039.436905
3,63,0,47006,2522,-34,-220,47010,8464,8512,272,45762,367,-329,17,1389807039.436914
2,64,0,34911,603,65,1855,34975,12368,2096,640,33642,371,43,40,1389807039.437179
3,64,0,49005,2239,64,-9,48888,4752,9392,144,48339,362,-333,10,1389807039.437185
2,65,0,36900,1041,148,1976,36852,13600,592,1552,36202,367,58,41,1389807039.455087
3,65,0,50005,1842,-14,376,50766,6736,2304,-6320,50917,366,-324,0,1389807039.455101
2,66,0,38890,1911,181,2230,38731,15376,-400,3456,38763,356,77,50,1389807039.467302
3,66,0,52004,11,-270,1326,52643,10960,-1408,-11088,50917,366,-324,0,1389807039.467310
2,67,0,39884,2433,163,2353,40609,16608,-1360,3520,38763,356,77,50,1389807039.467574
3,67,0,54004,-1972,-610,1412,54521,13184,2272,-5408,53494,372,-316,15,1389807039.467581
2,68,0,41874,3625,141,2577,42486,15888,-576,2832,41323,356,90,54,1389807039.485038
3,68,0,56003,-3027,-966,1141,56399,11120,5616,7600,56071,377,-296,35,1389807039.485048
2,69,0,43863,4107,183,2721,44363,13888,1504,768,43884,349,104,67,1389807039.497015
3,69,0,58002,-2508,-650,696,58277,6864,3488,14944,56071,377,-296,35,1389807039.497024
2,70,0,45852,4014,176,2639,46240,12064,3344,-464,43884,349,104,67,1389807039.497299
3,70,0,60002,-597,-155,530,60155,5936,3136,13088,58648,378,-291,44,1389807039.497305
2,71,0,47841,3767,145,2516,48119,10816,4592,-624,46444,343,117,81,1389807039.513987
3,71,0,62001,2118,12,652,62033,6576,4272,6640,61227,379,-287,39,1389807039.513995
2,72,0,49831,3291,24,2452,49996,9600,5744,-1408,49005,333,131,95,1389807039.525949
3,72,0,64000,3141,77,683,63911,7504,4176,-992,63803,378,-286,30,1389807039.525958
2,73,0,51820,2729,-158,2386,51874,8576,5920,-2640,51564,325,141,106,1389807039.538026
3,73,0,65000,3032,97,750,253,9680,3120,-7136,63803,378,-286,30,1389807039.538040
2,74,0,53809,2233,-249,2320,53752,8096,5264,-2976,51564,325,141,106,1389807039.538367
3,74,0,1463,2740,51,752,2131,10544,1888,-7424,844,387,-287,16,1389807039.538377
2,75,0,54804,1972,-231,2265,55630,7888,4288,-2928,54124,315,151,116,1389807039.556509
3,75,0,3463,1727,-191,547,4009,9968,1872,-6400,3421,390,-283,12,1389807039.556523
2,76,0,56793,875,-81,1925,57507,7200,4096,-3568,56684,309,164,125,1389807039.556828
3,76,0,5462,123,-310,545,5887,8960,1856,-5616,5998,388,-277,17,1389807039.563057
2,77,0,58782,-675,184,1435,59385,5584,7120,-3872,59244,300,172,117,1389807039.575108
3,77,0,7462,-1324,-376,587,7765,8416,1536,-4208,5998,388,-277,17,1389807039.575122
2,78,0,60772,-2194,363,1316,61262,4720,9280,-1504,59244,300,172,117,1389807039.587376
3,78,0,9461,-2569,-494,559,9642,8400,2304,-2352,8576,391,-277,27,1389807039.587390
2,79,0,62761,-2846,293,1178,63139,4176,10032,3168,61805,294,189,108,1389807039.587718
3,79,0,11460,-2929,-596,516,11521,8256,3072,560,11154,392,-262,39,1389807039.587728
2,80,0,64750,-1815,303,995,65017,4064,8128,7264,64365,290,201,92,1389807039.605719
3,80,0,13460,-2324,-519,425,13399,8064,2080,4448,11154,392,-262,39,1389807039.605734
2,81,0,1204,172,458,755,1360,4208,5392,8032,1390,285,202,90,1389807039.618045
3,81,0,14459,-1827,-419,389,15276,8128,1248,6976,13731,392,-256,52,1389807039.618054
2,82,0,3193,1821,609,416,3238,4208,3616,5264,1390,285,202,90,1389807039.618322
3,82,0,16459,-610,-248,390,17154,8272,960,6896,16308,389,-504,57,1389807039.618328
2,83,0,5182,2444,775,7,5116,3856,3520,1584,3949,285,196,95,1389807039.636365
3,83,0,18458,557,-121,405,19031,8224,896,4336,18885,394,-248,56,1389807039.636374
2,84,0,6177,2384,834,-145,6994,3424,3808,-736,6510,286,190,100,1389807039.636623
2,85,0,8166,1707,846,-411,8872,3056,3792,-1552,6510,286,190,100,1389807039.654187
3,85,0,22457,1205,5,306,22788,8416,-112,-1408,21463,395,-247,54,1389807039.654201
2,86,0,10155,806,794,-683,10750,3088,3104,-896,9070,287,184,98,1389807039.666022
3,86,0,24456,779,-17,336,24666,8416,-16,-2192,24040,393,-243,53,1389807039.666031
2,87,0,12145,-22,780,-934,12629,3216,2800,96,11631,295,174,94,1389807039.678328
3,87,0,26455,164,-96,341,26543,8160,176,-1584,26619,395,-244,51,1389807039.678343
2,88,0,14134,-789,805,-1166,14506,3536,3104,576,14193,298,172,84,1389807039.678659
3,88,0,28455,-611,-173,381,28421,7952,-352,-1264,26619,395,-244,51,1389807039.678670
2,89,0,16123,-1343,837,-1433,16384,3760,3520,800,14193,298,172,84,1389807039.696820
3,89,0,29454,-1021,-180,403,30299,8080,-624,-1440,29196,399,-242,55,1389807039.696829
2,90,0,18112,-1714,876,-1753,18261,3856,4448,928,16754,308,161,70,1389807039.697050
3,90,0,31454,-1609,-194,477,32177,8208,-304,-832,31773,394,-228,63,1389807039.697220
2,91,0,20102,-1833,897,-2032,20139,4160,4688,1408,19314,316,148,53,1389807039.715247
3,91,0,33453,-1545,-241,559,34055,8144,112,1296,31773,394,-228,63,1389807039.715256
