nodeID,seqNumber,status,gyroTick,gyroX,gyroY,gyroZ,accelTick,accelX,accelY,accelZ,magTick,magX,magY,magZ,currentTime
2,59,0,56154,22,19,-21,56645,8208,-400,-464,56189,338,-84,-300,1389807102.141756
3,59,0,4160,-9,15,-16,5052,8272,-96,352,3039,396,-105,-239,1389807102.141767
2,60,0,58143,32,15,-25,58524,8224,-496,-464,56189,338,-84,-300,1389807102.145077
3,60,0,6160,-9,9,-13,6929,8224,-96,336,5616,397,-110,-238,1389807102.145086
2,61,0,60133,28,10,-24,60403,8256,-480,-592,58751,338,-82,-297,1389807102.145088
3,61,0,8159,-20,23,-21,8807,8208,-48,288,8194,398,-106,-239,1389807102.145090
2,62,0,62122,6,12,-32,62281,8240,-544,-608,61313,333,-83,-299,1389807102.145092
3,62,0,10159,-28,22,-17,10685,8240,0,368,10771,395,-105,-240,1389807102.145094
2,63,0,64111,-14,10,-23,64159,8224,-528,-560,63874,333,-81,-300,1389807102.145095
3,63,0,12158,-44,16,-18,12563,8288,-128,352,10771,395,-105,-240,1389807102.145097
2,64,0,65106,-24,4,-25,501,8192,-496,-512,63874,333,-81,-300,1389807102.145099
3,64,0,14157,-33,19,-17,14441,8304,-96,400,13349,392,-106,-232,1389807102.145100
2,65,0,1559,-31,-2,-27,2380,8176,-512,-496,899,338,-85,-300,1389807102.145102
3,65,0,16157,-32,23,-20,16318,8272,-128,400,15927,398,-106,-240,1389807102.145104
2,66,0,3549,-29,3,-22,4259,8192,-400,-448,3459,334,-84,-301,1389807102.145106
3,66,0,18156,-19,18,-21,18195,8272,-48,320,15927,398,-106,-240,1389807102.145107
2,67,0,5538,-26,6,-27,6138,8176,-480,-464,6021,335,-85,-300,1389807102.145109
3,67,0,19156,-10,20,-26,20073,8288,-80,304,18504,398,-104,-241,1389807102.145111
2,68,0,7527,-13,1,-20,8017,8192,-304,-464,6021,335,-85,-300,1389807102.145112
3,68,0,21155,-13,14,-15,21950,8224,16,304,21082,396,-105,-240,1389807102.145114
2,69,0,9517,-3,1,-27,9896,8192,-320,-528,8582,336,-84,-299,1389807102.145116
3,69,0,23154,-18,13,-14,23828,8288,-48,320,23660,396,-106,-237,1389807102.145117
2,70,0,11506,3,2,-22,11775,8224,-352,-448,11144,334,-82,-304,1389807102.145119
3,70,0,25154,-46,13,-28,25706,8320,-96,368,23660,396,-106,-237,1389807102.145121
2,71,0,13496,-3,2,-21,13655,8224,-384,-336,11144,334,-82,-304,1389807102.145122
3,71,0,27153,-49,11,-24,27583,8304,-144,480,26237,395,-106,-239,1389807102.145124
2,72,0,15485,-4,12,-27,15533,8192,-480,-272,13706,337,-86,-295,1389807102.145126
3,72,0,29153,-52,15,-19,29461,8272,-240,496,28815,393,-107,-240,1389807102.145127
2,73,0,16480,-7,16,-25,17412,8192,-432,-272,16267,337,-79,-299,1389807102.145129
3,73,0,31152,-33,20,-21,31339,8304,-128,464,28815,393,-107,-240,1389807102.145131
2,74,0,18469,3,9,-22,19291,8208,-512,-352,18829,333,-82,-301,1389807102.145132
3,74,0,33151,-14,17,-15,33218,8256,-128,416,31392,396,-108,-237,1389807102.145134
2,75,0,20458,11,8,-20,21169,8224,-528,-464,18829,333,-82,-301,1389807102.145135
3,75,0,34151,-21,22,-18,35095,8256,-160,320,33969,398,-105,-237,1389807102.145137
2,76,0,22448,-4,10,-13,22579,8192,-576,-480,21391,333,-84,-300,1389807102.145139
3,76,0,36150,-57,20,-11,36973,8272,-144,320,36547,394,-105,-238,1389807102.145140
2,77,0,24437,-17,7,-16,24458,8160,-576,-512,23952,336,-82,-299,1389807102.145142
3,77,0,38150,-55,23,-13,38851,8256,-160,400,36547,394,-105,-238,1389807102.145144
2,78,0,26426,-48,11,-21,26337,8224,-480,-464,26513,337,-80,-301,1389807102.145145
3,78,0,40149,-59,21,-10,40728,8320,-144,448,39125,394,-108,-239,1389807102.145147
2,79,0,28416,-51,5,-19,28216,8192,-544,-400,26513,337,-80,-301,1389807102.145149
3,79,0,42148,-60,22,-9,42605,8272,-176,464,41702,394,-105,-240,1389807102.145150
2,80,0,30405,-40,18,-12,30095,8144,-496,-320,29074,333,-85,-298,1389807102.145152
3,80,0,44148,-44,18,-6,44483,8240,-256,496,44279,394,-104,-240,1389807102.145154
2,81,0,32394,-20,12,-5,31974,8192,-544,-256,31635,336,-81,-302,1389807102.145168
3,81,0,46147,-22,26,1,46360,8272,-224,448,44279,394,-104,-240,1389807102.145169
2,82,0,33389,-11,14,-5,33852,8160,-496,-320,34197,331,-82,-303,1389807102.145171
3,82,0,48147,2,17,6,48238,8256,-256,448,46857,399,-112,-242,1389807102.145173
2,83,0,35378,3,14,3,35731,8176,-496,-304,34197,331,-82,-303,1389807102.145174
3,83,0,50146,8,4,23,50116,8240,-176,352,49435,399,-107,-242,1389807102.145176
2,84,0,37368,8,21,3,37609,8160,-384,-320,36758,333,-85,-300,1389807102.145216
3,84,0,51146,6,4,20,51994,8224,-144,368,49435,399,-107,-242,1389807102.145218
2,85,0,39357,10,24,7,39489,8192,-352,-448,39319,337,-82,-303,1389807102.145220
3,85,0,53145,7,11,20,53872,8240,-128,336,52012,395,-104,-239,1389807102.145221
2,86,0,41347,14,15,11,41368,8240,-448,-448,39319,337,-82,-303,1389807102.145223
3,86,0,55144,10,4,22,55749,8256,16,400,54588,395,-106,-238,1389807102.145225
2,87,0,43336,-13,20,11,43247,8224,-416,-464,41881,332,-80,-300,1389807102.145226
3,87,0,57144,0,19,23,57627,8336,80,320,57165,396,-106,-240,1389807102.145228
2,88,0,45325,-5,16,8,45126,8208,-272,-448,44443,332,-81,-302,1389807102.145230
3,88,0,59143,0,13,19,59504,8304,80,288,57165,396,-106,-240,1389807102.145231
2,89,0,47315,-8,17,-7,47005,8192,-304,-416,47004,335,-80,-301,1389807102.145233
3,89,0,61142,-6,21,16,61382,8256,80,272,59743,396,-103,-237,1389807102.145235
2,90,0,48309,-7,14,-3,48884,8144,-320,-416,47004,335,-80,-301,1389807102.145236
3,90,0,63142,-27,27,11,63259,8288,64,256,62320,390,-103,-239,1389807102.145238
2,91,0,50299,21,24,7,50762,8160,-384,-416,49566,336,-76,-307,1389807102.145240
3,91,0,65141,-26,22,13,65136,8320,112,336,64897,397,-104,-241,1389807102.145241
2,92,0,52288,30,21,4,52641,8208,-384,-544,52126,328,-82,-299,1389807102.145243
3,92,0,605,-26,28,17,1479,8336,0,352,64897,397,-104,-241,1389807102.145245
2,93,0,54277,30,20,6,54519,8176,-416,-640,54687,332,-83,-302,1389807102.145246
3,93,0,2604,-18,25,13,3356,8256,0,384,1938,396,-106,-244,1389807102.145248
2,94,0,56267,13,19,0,56398,8160,-400,-672,54687,332,-83,-302,1389807102.145250
3,94,0,4604,-13,24,6,5233,8208,64,384,4516,395,-107,-243,1389807102.145251
2,95,0,58256,-2,13,6,58276,8208,-384,-672,57248,335,-78,-303,1389807102.145253
3,95,0,6603,7,19,2,6642,8240,48,416,7093,398,-107,-239,1389807102.145255
2,96,0,60245,0,13,-9,60157,8208,-432,-512,59809,332,-82,-304,1389807102.145256
3,96,0,8602,4,14,8,8520,8320,32,352,7093,398,-107,-239,1389807102.145258
2,97,0,62235,-19,18,-2,62036,8208,-288,-448,62370,334,-82,-304,1389807102.145259
3,97,0,10602,-1,19,4,10398,8320,64,288,9671,397,-101,-237,1389807102.145261
2,98,0,64224,-11,2,-14,63914,8208,-224,-416,62370,334,-82,-304,1389807102.145263
3,98,0,12601,-4,19,6,12275,8304,48,352,12249,392,-101,-242,1389807102.145264
2,99,0,65219,-4,13,-8,256,8240,-160,-416,64932,338,-82,-302,1389807102.145266
3,99,0,14600,-8,16,-1,14153,8256,96,272,12249,392,-101,-242,1389807102.145268
2,100,0,1672,0,13,-15,2135,8272,-160,-464,1957,329,-77,-303,1389807102.145269
3,100,0,15600,-12,19,-4,16030,8208,80,192,14827,395,-104,-244,1389807102.145271
2,101,0,3661,-1,10,-23,4014,8208,-112,-432,1957,329,-77,-303,1389807102.145273
3,101,0,17600,-7,9,-10,17908,8256,144,208,17405,395,-104,-242,1389807102.145275
2,102,0,5651,24,17,-26,5892,8240,-208,-416,4520,335,-81,-304,1389807102.145276
3,102,0,19599,-13,15,-19,19786,8240,192,272,19984,398,-100,-240,1389807102.145278
2,103,0,7640,40,12,-41,7771,8224,-320,-416,7081,335,-79,-304,1389807102.145280
3,103,0,21598,-35,14,-14,21664,8256,-32,304,19984,398,-100,-240,1389807102.145281
2,104,0,9630,39,17,-36,9649,8272,-560,-544,9642,333,-79,-304,1389807102.145283
3,104,0,23598,-38,13,-17,23541,8320,-64,352,22562,392,-107,-242,1389807102.145285
2,105,0,11619,33,11,-30,11527,8240,-592,-720,9642,333,-79,-304,1389807102.145286
3,105,0,25597,-31,7,-39,25418,8304,-80,464,25140,395,-105,-241,1389807102.145288
2,106,0,13608,-2,8,-36,13406,8192,-736,-720,12205,330,-81,-305,1389807102.145290
3,106,0,27596,1,9,-36,27296,8256,0,432,27717,396,-102,-245,1389807102.145291
2,107,0,15598,-50,11,-34,15283,8240,-704,-816,14765,337,-81,-304,1389807102.145293
3,107,0,29596,44,15,-38,29173,8224,-64,384,27717,396,-102,-245,1389807102.145295
2,108,0,16592,-68,12,-53,17162,8112,-416,-784,17327,334,-80,-303,1389807102.145296
3,108,0,30595,46,22,-28,31051,8208,-96,320,30294,393,-105,-238,1389807102.145298
2,109,0,18582,-86,4,-34,19040,8128,-336,-672,17327,334,-80,-303,1389807102.145323
3,109,0,32595,9,14,-17,32929,8256,-64,256,32872,396,-106,-243,1389807102.145325
2,110,0,20571,-72,-2,-29,20919,8192,-368,-480,19889,329,-81,-306,1389807102.145341
3,110,0,34594,-3,1,-23,34806,8256,48,288,32872,396,-106,-243,1389807102.145343
2,111,0,22560,-63,5,-26,22799,8224,-176,-368,22452,334,-80,-306,1389807102.145345
3,111,0,36594,6,3,-15,36684,8288,64,416,35449,395,-100,-242,1389807102.145347
2,112,0,24550,-28,3,-30,24678,8256,16,-256,22452,334,-80,-306,1389807102.145348
3,112,0,38593,12,4,-18,38563,8272,16,416,38026,393,-102,-243,1389807102.145350
2,113,0,26539,17,13,-33,26557,8240,80,-208,25013,331,-80,-306,1389807102.145352
3,113,0,40592,18,7,-22,40440,8288,-16,256,40603,394,-104,-241,1389807102.145354
2,114,0,28528,61,19,-30,28436,8208,-128,-256,27575,329,-83,-304,1389807102.145356
3,114,0,42592,7,-3,-32,42318,8304,-80,256,40603,394,-104,-241,1389807102.145357
2,115,0,30518,87,11,-32,30314,8208,-256,-352,30136,331,-83,-306,1389807102.145359
3,115,0,44591,0,-7,-32,44197,8336,-144,400,43180,397,-106,-242,1389807102.145361
2,116,0,31512,82,16,-44,32192,8144,-448,-256,30136,331,-83,-306,1389807102.145363
3,116,0,45591,6,-11,-31,46075,8336,-144,544,45758,393,-101,-244,1389807102.145365
2,117,0,33502,81,15,-53,34071,8192,-656,-352,32698,330,-76,-302,1389807102.145366
3,117,0,47590,45,6,-30,47954,8256,-96,496,48335,394,-106,-245,1389807102.145368
2,118,0,35491,55,19,-42,35949,8208,-688,-512,35259,330,-81,-307,1389807102.145370
3,118,0,49589,87,28,-42,49831,8256,-192,320,48335,394,-106,-245,1389807102.145371
2,119,0,37480,15,19,-36,37828,8128,-640,-576,37822,332,-82,-310,1389807102.145373
3,119,0,51589,101,23,-35,51709,8256,-144,256,50913,398,-102,-239,1389807102.145375
2,120,0,39470,-25,19,-40,39706,8112,-496,-496,37822,332,-82,-310,1389807102.145377
3,120,0,53588,76,18,-18,53587,8240,-64,256,53490,395,-101,-247,1389807102.145379
2,121,0,41459,-42,25,-46,41585,8112,-400,-432,40384,338,-80,-305,1389807102.145380
3,121,0,55588,41,27,-13,55465,8224,16,272,53490,395,-101,-247,1389807102.145382
2,122,0,43449,-44,31,-41,43464,8144,-304,-448,42945,330,-83,-307,1389807102.145384
3,122,0,57587,24,23,3,57342,8352,112,368,56067,394,-108,-245,1389807102.145386
2,123,0,45438,-23,34,-41,45343,8208,-320,-464,45507,332,-83,-307,1389807102.145387
3,123,0,59586,14,21,-6,59220,8304,176,448,58645,398,-101,-245,1389807102.145389
2,191,0,60873,55,3,-95,60996,8144,1904,384,60351,345,-140,130,1389807102.145580
3,191,0,8790,18,-6,-55,9756,8256,1984,640,7954,393,-140,151,1389807102.145841
2,192,0,62863,122,10,-90,62874,8160,1808,240,62911,343,-138,134,1389807102.163793
3,192,0,10789,57,-5,-57,11632,8272,1888,576,10531,389,-137,152,1389807102.163808
2,193,0,64852,148,4,-91,64751,8128,1584,128,62911,343,-138,134,1389807102.176155
3,193,0,12789,59,-2,-54,13509,8256,1920,544,13109,392,-138,151,1389807102.176164
2,194,0,1305,127,4,-97,1093,8128,1552,96,65473,343,-141,131,1389807102.176471
3,194,0,14788,29,4,-53,15386,8224,1952,608,13109,392,-138,151,1389807102.176477
2,195,0,3295,101,1,-93,2971,8128,1584,64,2498,348,-142,129,1389807102.193463
3,195,0,16787,12,-14,-46,17264,8240,2016,688,15685,389,-142,152,1389807102.193473
2,196,0,4290,92,0,-92,4849,8080,1536,144,5059,345,-144,132,1389807102.205533
3,196,0,18787,22,-12,-55,19140,8256,1952,704,18263,392,-140,151,1389807102.205542
2,197,0,6279,79,-5,-85,6728,8192,1472,240,5059,345,-144,132,1389807102.205807
3,197,0,20786,52,1,-42,21017,8320,1904,688,20840,395,-139,154,1389807102.205813
2,198,0,8268,70,-9,-73,8606,8224,1344,288,7620,342,-143,131,1389807102.223593
3,198,0,22786,96,5,-37,22895,8288,1952,448,20840,395,-139,154,1389807102.223602
2,199,0,10258,79,-12,-72,10484,8176,1408,320,10182,345,-144,129,1389807102.235635
3,199,0,24785,88,5,-38,24772,8304,1936,272,23417,389,-144,154,1389807102.235650
2,200,0,12247,109,-15,-73,12362,8144,1344,288,10182,345,-144,129,1389807102.235958
3,200,0,25785,58,0,-28,26650,8288,1936,224,25995,389,-142,150,1389807102.235969
2,201,0,14236,114,-8,-50,14241,8144,1328,176,12743,343,-143,128,1389807102.253710
3,201,0,27784,11,-20,-26,28527,8304,1968,400,25995,389,-142,150,1389807102.253720
2,202,0,16226,99,-10,-42,16119,8112,1264,64,15305,339,-143,128,1389807102.264396
3,202,0,29783,7,-34,-25,30405,8240,2064,752,28573,397,-138,151,1389807102.264448
2,203,0,18215,56,-12,-47,17997,8160,1328,16,17866,344,-142,128,1389807102.270494
3,203,0,31783,48,-15,-31,32283,8208,2048,896,31151,397,-143,152,1389807102.270648
2,204,0,19210,29,-15,-32,19875,8176,1504,48,17866,344,-142,128,1389807102.282583
3,204,0,33782,103,-15,-31,33691,8192,2112,816,33728,392,-143,154,1389807102.282592
2,205,0,21199,-1,-22,-45,21752,8144,1520,160,20427,343,-145,132,1389807102.294730
3,205,0,35781,119,-6,-21,35569,8288,2032,528,33728,392,-143,154,1389807102.294745
2,206,0,23189,8,-35,-27,23631,8064,1584,384,22988,341,-145,131,1389807102.295051
3,206,0,37781,117,-10,-22,37446,8368,2000,368,36306,392,-140,153,1389807102.301323
2,207,0,25178,45,-29,-12,25510,8080,1536,304,25548,344,-143,130,1389807102.313457
3,207,0,39780,108,-14,-29,39324,8288,2048,464,38884,393,-144,149,1389807102.313466
2,208,0,27167,65,-23,-10,27388,8224,1456,192,25548,344,-143,130,1389807102.325551
3,208,0,40780,100,-15,-31,41202,8256,2112,448,41461,393,-144,151,1389807102.325561
2,209,0,29157,64,-21,-7,29267,8208,1456,128,28109,344,-145,131,1389807102.325839
3,209,0,42779,72,-8,-28,43079,8224,2128,384,41461,393,-144,151,1389807102.325859
2,210,0,31146,43,-25,2,31145,8208,1440,240,30669,338,-145,132,1389807102.343214
3,210,0,44779,39,-13,-25,44956,8240,2128,416,44040,394,-139,156,1389807102.343222
2,211,0,33135,21,-39,8,33022,8192,1392,304,33229,341,-145,130,1389807102.355436
3,211,0,46778,-5,-30,-35,46834,8224,2064,624,46617,394,-143,155,1389807102.355445
2,212,0,35125,-1,-36,6,34902,8160,1488,192,33229,341,-145,130,1389807102.355709
3,212,0,48777,-22,-27,-35,48711,8288,2192,848,46617,394,-143,155,1389807102.355716
2,213,0,36119,-8,-33,7,36780,8176,1552,240,35790,342,-146,131,1389807102.373210
3,213,0,50777,39,-29,-34,50588,8288,2128,816,49193,390,-147,152,1389807102.373219
2,214,0,38109,-15,-30,8,38658,8240,1648,240,38351,337,-147,132,1389807102.385237
3,214,0,52776,60,-12,-42,52465,8240,2032,608,51771,390,-142,154,1389807102.385246
2,215,0,40098,-20,-36,0,40538,8224,1808,320,38351,337,-147,132,1389807102.385511
3,215,0,54776,8,-12,-46,54343,8208,1984,144,54347,393,-144,152,1389807102.385518
2,216,0,42088,-15,-35,1,42416,8224,1904,352,40914,339,-144,133,1389807102.402921
3,216,0,55775,-35,-18,-38,56221,8288,2032,-32,54347,393,-144,152,1389807102.402927
2,217,0,44077,7,-29,-1,44295,8176,1792,336,43475,347,-146,131,1389807102.414748
3,217,0,57775,-96,-33,-31,58099,8368,1968,304,56925,393,-146,152,1389807102.414751
2,218,0,46066,36,-30,-4,46174,8176,1712,304,46036,341,-144,133,1389807102.414932
3,218,0,59774,-136,-42,-40,59976,8288,2128,816,59502,388,-144,152,1389807102.420639
2,219,0,48056,39,-31,-6,48052,8144,1648,208,46036,341,-144,133,1389807102.432246
3,219,0,61773,-89,-40,-47,61854,8176,2208,1120,62080,394,-141,153,1389807102.432250
2,220,0,50045,37,-32,-13,49931,8144,1632,208,48596,341,-142,131,1389807102.443255
3,220,0,63773,-7,-29,-49,63731,8240,2080,1120,62080,394,-141,153,1389807102.443259
2,221,0,52034,-8,-34,-7,51810,8128,1680,272,51157,347,-143,132,1389807102.454870
3,221,0,236,11,-34,-36,73,8272,2016,848,64658,393,-146,157,1389807102.454874
2,222,0,53029,-13,-33,-21,53688,8208,1728,336,53719,342,-146,134,1389807102.455059
3,222,0,2235,14,-24,-38,1951,8240,1936,560,1699,390,-144,151,1389807102.455170
2,223,0,55018,-21,-31,-21,55566,8160,1856,464,53719,342,-146,134,1389807102.472174
3,223,0,4235,-16,-14,-43,3828,8224,1904,496,1699,390,-144,151,1389807102.472179
2,224,0,57008,-8,-38,-12,57443,8176,1776,464,56280,342,-142,134,1389807102.483619
3,224,0,5235,-41,-22,-34,5705,8208,1920,512,4277,391,-146,156,1389807102.483623
2,225,0,58997,22,-35,-16,59322,8192,1792,416,58839,345,-143,130,1389807102.495242
3,225,0,7234,-74,-24,-39,7584,8224,1920,608,6854,393,-143,153,1389807102.495246
2,226,0,60986,40,-37,-22,61200,8176,1776,432,61399,339,-143,131,1389807102.495392
3,226,0,9233,-82,-27,-29,9461,8304,1872,640,9432,391,-144,154,1389807102.495397
2,227,0,62976,43,-30,-22,63078,8160,1632,400,61399,339,-143,131,1389807102.512483
3,227,0,11233,-43,-32,-25,11339,8304,1872,784,9432,391,-144,154,1389807102.512526
2,228,0,64965,43,-26,-45,64958,8192,1632,208,63961,339,-143,134,1389807102.524655
3,228,0,13232,-7,-21,-16,13216,8288,1904,736,12010,392,-144,156,1389807102.524662
2,229,0,1419,14,-37,-46,1299,8208,1680,160,985,344,-141,133,1389807102.524856
3,229,0,15231,-20,-19,-17,15094,8256,1872,544,14588,392,-144,156,1389807102.530310
2,230,0,2413,2,-38,-43,3177,8144,1728,304,985,344,-141,133,1389807102.542082
3,230,0,17231,-48,-16,5,16972,8240,1792,512,17165,390,-144,155,1389807102.542091
2,231,0,4403,-9,-38,-54,5056,8144,1600,400,3547,344,-146,130,1389807102.554057
3,231,0,19230,-57,-29,7,18850,8304,1888,640,17165,390,-144,155,1389807102.554067
2,232,0,6392,14,-26,-52,6935,8160,1648,496,6110,339,-144,137,1389807102.566341
3,232,0,20230,-55,-33,-1,20728,8208,2064,896,19743,391,-141,162,1389807102.566356
2,233,0,8381,58,-30,-49,8813,8224,1552,480,8671,343,-143,136,1389807102.566666
3,233,0,22229,-54,-22,-1,22606,8208,2032,896,22321,389,-141,156,1389807102.566674
2,234,0,10371,88,-34,-42,10692,8224,1504,352,8671,343,-143,136,1389807102.584901
3,234,0,24229,-101,-11,23,24484,8272,1840,464,22321,389,-141,156,1389807102.584916
2,235,0,12360,66,-30,-44,12570,8224,1648,288,11232,345,-150,135,1389807102.585210
3,235,0,26228,-165,-13,15,26362,8224,1792,192,24900,392,-144,157,1389807102.585420
2,236,0,14349,60,-37,-50,14449,8160,1584,416,13792,342,-145,134,1389807102.603513
3,236,0,28227,-223,-28,21,28240,8224,1728,320,27476,387,-139,160,1389807102.603527
2,237,0,16339,79,-42,-23,16327,8112,1616,480,16355,341,-145,136,1389807102.615805
3,237,0,30227,-216,-45,27,30119,8272,1856,720,30054,389,-141,157,1389807102.615820
2,238,0,18328,114,-35,-19,18206,8080,1536,384,16355,341,-145,136,1389807102.616133
3,238,0,32226,-111,-41,25,31997,8224,1936,1072,30054,389,-141,157,1389807102.616144
2,239,0,19323,127,-36,-22,20084,8064,1552,208,18916,341,-150,133,1389807102.634331
3,239,0,34225,13,-37,26,33876,8304,2064,1136,32630,390,-138,157,1389807102.634345
2,240,0,21312,130,-39,-24,21963,8128,1472,128,21478,339,-146,134,1389807102.640616
3,240,0,35225,73,-26,27,35754,8320,2048,880,35208,387,-139,159,1389807102.640874
2,241,0,23302,106,-30,-23,23841,8144,1632,64,21478,339,-146,134,1389807102.653017
3,241,0,37224,150,-11,19,37631,8224,2048,640,37784,390,-138,159,1389807102.653031
2,242,0,25291,49,-26,-25,25719,8208,1616,192,24040,339,-145,138,1389807102.665246
3,242,0,39224,167,-13,7,39509,8192,2144,432,37784,390,-138,159,1389807102.665255
2,243,0,27280,22,-30,-23,27598,8320,1568,464,26599,346,-148,136,1389807102.665521
3,243,0,41223,106,-10,9,41388,8144,2144,192,40361,392,-139,158,1389807102.665527
2,244,0,29270,10,-36,-26,29477,8320,1584,592,29160,342,-147,135,1389807102.683156
3,244,0,43223,-5,-31,12,43266,8208,2160,160,42938,389,-139,157,1389807102.683165
2,245,0,31259,45,-31,-22,31356,8224,1600,624,29160,342,-147,135,1389807102.694880
3,245,0,45222,-88,-46,18,45143,8368,2256,496,42938,389,-139,157,1389807102.694895
2,246,0,33248,96,-27,-22,33234,8112,1552,672,31721,342,-145,138,1389807102.695219
3,246,0,47221,-82,-48,15,47021,8352,2336,1056,45515,391,-136,160,1389807102.695525
2,247,0,35238,125,-24,-13,35112,8000,1440,496,34283,341,-147,136,1389807102.713665
3,247,0,49221,-29,-28,1,48898,8336,2432,1360,48092,392,-138,161,1389807102.713680
2,248,0,36233,112,-17,-4,36991,8032,1424,320,36845,345,-149,134,1389807102.726005
3,248,0,50220,20,-24,-5,50776,8256,2480,1200,50670,392,-142,159,1389807102.726014
2,249,0,38222,79,-24,-8,38869,8128,1360,272,36845,345,-149,134,1389807102.726319
3,249,0,52220,84,0,-13,52653,8240,2304,736,50670,392,-142,159,1389807102.726336
2,250,0,40211,42,-21,-4,40747,8176,1504,336,39405,340,-143,140,1389807102.744339
3,250,0,54219,83,2,-24,54531,8256,2240,544,53248,387,-134,161,1389807102.744348
2,251,0,42201,17,-15,7,42626,8208,1536,512,41966,344,-148,137,1389807102.750513
3,251,0,56218,4,-16,-31,56409,8288,2160,416,55826,391,-140,161,1389807102.750767
2,252,0,44190,19,-14,-6,44505,8176,1488,432,44526,340,-149,136,1389807102.762750
3,252,0,58218,-55,-18,-29,58287,8224,2032,688,58403,391,-140,159,1389807102.762801
2,253,0,46179,40,-18,3,46383,8112,1568,464,44526,340,-149,136,1389807102.774908
3,253,0,60217,-95,-20,-44,60165,8272,2144,992,58403,391,-140,159,1389807102.774917
2,254,0,48169,32,-12,12,48262,8112,1664,416,47086,340,-144,138,1389807102.775179
3,254,0,62217,-83,-21,-40,62042,8224,2064,1168,60982,388,-137,161,1389807102.775350
2,255,0,50158,19,-5,8,50141,8096,1616,416,49646,341,-145,133,1389807102.791927
3,255,0,64216,-9,-4,-36,63920,8256,1952,1136,63559,390,-137,158,1389807102.791936
2,0,0,51153,21,-5,11,52019,8160,1808,528,49646,341,-145,133,1389807102.804235
3,0,0,65216,33,-8,-34,261,8256,1904,1024,63559,390,-137,158,1389807102.804250
2,1,0,53142,6,-11,17,53897,8144,1840,464,52206,340,-149,135,1389807102.810346
3,1,0,1679,72,16,-37,2139,8208,1968,656,601,393,-142,159,1389807102.810562
2,2,0,55132,17,-9,7,55774,8080,1824,384,54767,337,-145,137,1389807102.822591
3,2,0,3678,92,20,-32,4016,8208,1968,368,3180,382,-138,159,1389807102.822601
2,3,0,57121,15,-5,-12,57653,8112,1792,432,57329,338,-142,134,1389807102.834764
3,3,0,5678,79,9,-21,5894,8224,1920,432,5758,390,-138,160,1389807102.834779
2,4,0,59110,6,-4,-20,59532,8160,1760,512,57329,338,-142,134,1389807102.835082
3,4,0,7677,55,-1,-13,7772,8288,1968,608,5758,390,-138,160,1389807102.835382
2,5,0,61100,8,-5,-16,61410,8160,1664,576,59890,343,-147,138,1389807102.853369
3,5,0,9677,68,-6,1,9650,8288,2064,800,8335,392,-141,160,1389807102.853384
2,6,0,63089,-3,-5,-20,63289,8240,1856,512,62450,337,-147,135,1389807102.865682
3,6,0,11676,60,10,-14,11528,8208,2032,944,10912,386,-137,157,1389807102.865697
2,7,0,65078,8,2,-31,65167,8224,1776,480,65011,340,-144,135,1389807102.866021
3,7,0,13675,51,11,-9,13406,8144,1968,832,13489,393,-137,160,1389807102.866031
2,8,0,1532,5,3,-35,1509,8160,1760,448,65011,340,-144,135,1389807102.884024
3,8,0,14675,44,5,-4,15284,8208,2032,752,13489,393,-137,160,1389807102.884032
2,9,0,2526,-3,-1,-28,3388,8112,1696,432,2037,343,-150,137,1389807102.895405
3,9,0,16674,12,-5,9,17163,8288,2064,784,16067,390,-142,162,1389807102.895414
2,10,0,4516,-9,-5,-34,5266,8096,1568,448,4599,341,-146,139,1389807102.895681
3,10,0,18674,-3,6,-3,19040,8272,2144,864,18644,388,-142,160,1389807102.895687
2,11,0,6505,-5,-3,-36,7144,8096,1520,320,7159,343,-147,136,1389807102.913225
3,11,0,20673,35,9,-3,20919,8272,2240,896,18644,388,-142,160,1389807102.913234
2,12,0,8494,-1,11,-26,9023,8192,1520,384,7159,343,-147,136,1389807102.925460
3,12,0,22672,51,22,-15,22797,8224,2208,656,21221,385,-139,160,1389807102.925469
2,13,0,10484,-6,14,-15,10901,8224,1584,400,9720,343,-146,134,1389807102.925676
3,13,0,24672,20,33,-7,24676,8208,2048,400,23799,391,-141,159,1389807102.925682
2,14,0,12473,-4,9,-27,12779,8176,1520,400,12281,342,-146,134,1389807102.943142
3,14,0,26671,-22,22,-4,26553,8336,2016,416,26378,391,-140,158,1389807102.943151
2,15,0,14463,-3,6,-16,14658,8160,1520,496,12281,342,-146,134,1389807102.955173
3,15,0,28671,-6,8,-13,28431,8208,2032,768,26378,391,-140,158,1389807102.955182
2,16,0,16452,-4,12,-21,16536,8080,1456,400,14841,339,-143,136,1389807102.955388
3,16,0,29670,5,0,-14,30308,8224,2096,752,28955,389,-141,161,1389807102.955393
2,17,0,18441,-12,13,-12,18415,8144,1488,384,17402,341,-144,134,1389807102.973433
3,17,0,31670,24,17,-11,32185,8256,2096,672,31532,391,-138,158,1389807102.973442
2,18,0,19436,-14,13,-3,20293,8112,1424,448,19963,343,-145,135,1389807102.985482
3,18,0,33669,52,21,-12,34063,8272,2144,640,34109,389,-141,158,1389807102.985491
2,19,0,21425,-40,23,-1,22172,8112,1536,400,19963,343,-145,135,1389807102.985703
3,19,0,35668,56,16,-13,35940,8288,2208,768,34109,389,-141,158,1389807102.985709
2,20,0,23415,-46,10,2,24050,8176,1616,384,22524,339,-143,135,1389807103.3578
3,20,0,37668,92,17,-10,37818,8352,2336,752,36686,389,-137,160,1389807103.3587
2,21,0,25404,-59,14,3,25928,8208,1664,448,25085,345,-144,133,1389807103.15877
3,21,0,39667,75,26,-23,39696,8272,2352,640,39263,393,-139,159,1389807103.15892
2,22,0,27393,-77,21,7,27807,8192,1712,528,27647,340,-146,135,1389807103.16231
3,22,0,41666,31,34,-33,41573,8224,2272,480,39263,393,-139,159,1389807103.16306
2,23,0,29383,-61,22,12,29685,8192,1744,640,27647,340,-146,135,1389807103.34228
3,23,0,43666,4,14,-32,43451,8192,2112,608,41840,393,-143,157,1389807103.34242
2,24,0,31372,-32,26,9,31563,8128,1712,608,30209,338,-144,135,1389807103.40407
3,24,0,44666,-1,6,-35,45329,8240,2128,816,44418,389,-143,157,1389807103.40583
2,25,0,33362,13,40,16,33442,8128,1680,544,32770,341,-142,136,1389807103.52684
3,25,0,46665,5,8,-38,47206,8288,2112,928,46995,389,-140,157,1389807103.52699
2,26,0,34356,17,43,25,35320,8064,1584,336,32770,341,-142,136,1389807103.64555
3,26,0,48664,41,37,-37,49084,8240,2016,864,46995,389,-140,157,1389807103.64564
2,27,0,36346,10,41,28,37199,8032,1488,272,35332,339,-143,135,1389807103.64810
3,27,0,50664,71,43,-35,50962,8240,1856,832,49572,387,-143,155,1389807103.70874
2,28,0,38335,-13,44,33,39077,8128,1520,416,37893,339,-144,135,1389807103.83159
3,28,0,52663,77,39,-34,52840,8224,1888,944,52150,387,-143,155,1389807103.83174
2,29,0,40324,-16,34,46,40957,8112,1408,544,40453,345,-141,133,1389807103.93902
3,29,0,54662,105,43,-23,54718,8240,1920,1088,54727,393,-141,154,1389807103.93908
2,30,0,42314,4,41,66,42835,8160,1360,512,40453,345,-141,133,1389807103.105938
3,30,0,56662,100,58,-16,56595,8288,1824,896,54727,393,-141,154,1389807103.105947
2,31,0,44303,17,51,78,44714,8176,1280,304,43013,346,-141,135,1389807103.106169
3,31,0,58661,56,70,-18,58473,8240,1856,496,57305,393,-145,155,1389807103.106175
2,32,0,46292,-3,57,83,46123,8192,1312,272,45574,339,-140,133,1389807103.124391
3,32,0,59661,38,66,-13,60350,8240,1904,528,59882,388,-144,156,1389807103.124400
2,33,0,48282,-53,58,95,48003,8192,1344,224,48134,343,-138,129,1389807103.130660
3,33,0,61660,-35,56,-17,62228,8288,1936,784,59882,388,-144,156,1389807103.130975
2,34,0,50271,-102,59,107,49882,8112,1296,352,48134,343,-138,129,1389807103.143296
3,34,0,63660,-76,56,-2,64105,8272,1872,928,62460,388,-142,156,1389807103.143311
2,35,0,51266,-113,57,113,51760,8048,1328,416,50694,343,-144,132,1389807103.155373
3,35,0,123,-60,71,1,446,8240,1872,992,65037,394,-142,155,1389807103.155381
2,36,0,53255,-114,60,127,53638,8128,1328,432,53256,345,-136,130,1389807103.155573
3,36,0,2122,-37,75,2,2324,8224,1808,864,2079,390,-142,153,1389807103.155578
2,37,0,55245,-122,62,142,55517,8160,1552,416,55817,345,-134,131,1389807103.173246
3,37,0,4122,-5,81,21,4201,8192,1792,608,2079,390,-142,153,1389807103.173256
2,38,0,57234,-146,79,142,57395,8144,1696,320,55817,345,-134,131,1389807103.185556
3,38,0,6121,-32,85,28,6078,8224,1760,528,4655,391,-139,153,1389807103.185571
2,39,0,59223,-157,81,153,59274,8160,1792,368,58378,344,-136,128,1389807103.185890
3,39,0,8120,-90,86,48,7956,8224,1664,480,7233,393,-142,151,1389807103.185901
2,40,0,61213,-170,78,157,61153,8112,1776,448,60939,344,-130,129,1389807103.203316
3,40,0,9120,-114,84,61,9834,8240,1664,608,9810,394,-141,151,1389807103.203330
2,41,0,63202,-149,80,159,63031,8112,2016,384,60939,344,-130,129,1389807103.215525
3,41,0,11119,-132,77,74,11711,8208,1664,768,9810,394,-141,151,1389807103.215540
2,42,0,65191,-115,81,157,64910,8144,2128,352,63499,346,-127,130,1389807103.215865
3,42,0,13119,-133,84,86,13589,8224,1728,848,12387,392,-140,149,1389807103.215876
2,43,0,1645,-87,82,159,1252,8160,2064,320,524,347,-129,124,1389807103.233278
3,43,0,15118,-135,90,94,15467,8272,1808,928,14965,394,-135,152,1389807103.233287
2,44,0,2640,-85,87,155,3130,8112,2064,240,3086,345,-127,127,1389807103.245428
3,44,0,17118,-95,93,97,17346,8256,1952,1104,14965,394,-135,152,1389807103.245442
2,45,0,4629,-71,82,142,5009,8064,2096,272,3086,345,-127,127,1389807103.245763
3,45,0,19117,-27,109,104,19223,8288,2096,1024,17542,394,-138,148,1389807103.245773
2,46,0,6618,-84,93,144,6887,8176,2144,288,5647,346,-122,124,1389807103.263189
3,46,0,21116,-1,119,104,21102,8288,2272,720,20120,393,-135,153,1389807103.263198
2,47,0,8608,-107,97,128,8765,8160,2160,320,8208,349,-128,122,1389807103.275386
3,47,0,23116,-53,132,93,22980,8224,2256,448,22698,396,-134,147,1389807103.275395
2,48,0,10597,-125,100,117,10643,8128,2192,400,10768,349,-123,124,1389807103.275661
3,48,0,24115,-94,126,96,24857,8288,2160,320,22698,396,-134,147,1389807103.275708
2,49,0,12586,-170,101,102,12521,8064,2304,336,10768,349,-123,124,1389807103.293569
3,49,0,26115,-153,127,115,26735,8368,2000,528,25275,400,-135,148,1389807103.293578
2,50,0,14576,-175,106,89,14399,8064,2304,304,13329,345,-121,128,1389807103.304514
3,50,0,28114,-159,122,111,28613,8224,2032,896,27852,396,-130,146,1389807103.304523
2,51,0,16565,-209,99,80,16277,8128,2256,192,15890,349,-119,124,1389807103.304740
3,51,0,30113,-169,129,100,30490,8208,2000,896,30429,399,-128,143,1389807103.316962
2,52,0,17560,-246,100,71,18155,8112,2256,96,18452,347,-122,118,1389807103.317287
3,52,0,32113,-145,145,127,32367,8320,1840,800,30429,399,-128,143,1389807103.317298
2,53,0,19549,-319,102,58,20034,8000,2288,208,18452,347,-122,118,1389807103.335326
3,53,0,34112,-124,139,148,34245,8304,1616,752,33006,398,-132,142,1389807103.335342
2,54,0,21539,-337,101,52,21912,7936,2192,272,21014,350,-117,126,1389807103.335673
3,54,0,36112,-95,147,162,36122,8256,1648,656,35583,395,-126,142,1389807103.335683
2,55,0,23528,-305,100,45,23791,8032,1984,288,23574,350,-115,119,1389807103.353604
3,55,0,38111,-118,147,183,37999,8240,1488,592,35583,395,-126,142,1389807103.353613
2,56,0,25517,-319,115,42,25669,8048,1984,320,23574,350,-115,119,1389807103.365861
3,56,0,39111,-157,147,202,39876,8432,896,368,38161,395,-121,140,1389807103.365876
2,57,0,27507,-298,113,43,27546,8016,1952,272,26136,351,-114,117,1389807103.366224
3,57,0,41110,-256,143,265,41754,8608,960,0,40740,401,-120,144,1389807103.366234
2,58,0,29496,-213,118,46,29424,8064,1824,144,28698,346,-111,117,1389807103.383675
3,58,0,43109,-299,132,292,43631,8416,960,-80,43317,400,-117,139,1389807103.383690
2,59,0,31485,-185,125,65,31302,8272,1776,-256,31260,349,-110,117,1389807103.395188
3,59,0,45109,-349,125,317,45510,8112,720,-32,43317,400,-117,139,1389807103.395197
2,60,0,33475,-229,128,55,33180,8336,1888,-688,31260,349,-110,117,1389807103.395457
3,60,0,47108,-337,124,376,47388,8064,640,144,45894,397,-110,140,1389807103.395463
2,61,0,34469,-276,121,48,35058,8224,2064,-576,33822,353,-111,114,1389807103.412316
3,61,0,49108,-317,103,462,49265,8208,208,64,48471,404,-108,139,1389807103.412325
2,62,0,36459,-401,109,42,36936,8048,2352,-32,36382,346,-109,116,1389807103.424310
3,62,0,51107,-338,84,583,51143,8624,176,-256,51049,401,-99,136,1389807103.424320
2,63,0,38448,-380,107,38,38815,7984,2464,352,38943,352,-108,115,1389807103.430537
3,63,0,53106,-302,64,624,53022,8944,160,-224,51049,401,-99,136,1389807103.430849
2,64,0,40438,-219,94,48,40694,8064,2496,432,38943,352,-108,115,1389807103.443219
3,64,0,54106,-268,49,653,54900,8896,560,48,53626,401,-98,137,1389807103.443234
2,65,0,42427,-31,109,63,42573,8256,2336,64,41505,350,-110,110,1389807103.455544
3,65,0,56105,-190,51,736,56778,9072,624,96,56205,403,-84,137,1389807103.455553
2,66,0,44416,40,111,67,44452,8384,2096,-480,44065,350,-107,114,1389807103.455820
3,66,0,58105,-196,46,841,58656,9488,880,-304,58782,403,-83,135,1389807103.455827
2,67,0,46406,-15,101,58,46331,8256,2080,-768,46624,351,-104,111,1389807103.473775
3,67,0,60104,-242,9,927,60534,9840,1680,-624,58782,403,-83,135,1389807103.473785
2,68,0,48395,-155,76,45,48210,8176,2048,-864,46624,351,-104,111,1389807103.485965
3,68,0,62103,-272,-11,991,62412,10272,1648,-384,61359,399,-69,140,1389807103.485974
2,69,0,50384,-269,54,18,50088,8032,2192,-784,49186,348,-108,111,1389807103.486248
3,69,0,64103,-461,-40,1008,64290,10688,1616,-224,63937,403,-59,136,1389807103.486254
2,70,0,51379,-298,54,20,51967,8048,2352,-368,51746,348,-106,110,1389807103.504295
3,70,0,566,-675,-65,1011,631,10832,1312,-176,63937,403,-59,136,1389807103.504304
2,71,0,53368,-335,57,25,53847,8208,2656,-112,51746,348,-106,110,1389807103.510356
3,71,0,2566,-773,-64,1029,2508,11008,1264,-80,979,403,-50,135,1389807103.510613
2,72,0,55358,-243,49,23,55725,8256,2608,80,54307,351,-104,112,1389807103.522465
3,72,0,3565,-759,-70,1021,4385,10672,1600,560,3556,402,-36,136,1389807103.522474
2,73,0,57347,-102,44,28,57604,8272,2464,128,56871,356,-104,110,1389807103.534449
3,73,0,5565,-670,-79,1048,6263,10336,1552,1280,6133,402,-23,137,1389807103.534527
2,74,0,59337,-20,39,30,59482,8112,2368,-160,59432,351,-103,110,1389807103.540794
3,74,0,7564,-540,-89,1087,8141,10288,1360,1344,6133,402,-23,137,1389807103.541050
2,75,0,61326,10,26,27,61360,8112,2128,-496,59432,351,-103,110,1389807103.552953
3,75,0,9563,-325,-93,1126,10019,10144,2048,1088,8710,403,-20,135,1389807103.552962
2,76,0,63315,-92,23,16,63239,8080,2096,-640,61994,350,-100,111,1389807103.565132
3,76,0,11563,-28,-87,1098,11897,9680,2928,1440,11286,399,-7,135,1389807103.565146
2,77,0,65305,-242,33,-11,65117,8032,2240,-240,64557,352,-101,109,1389807103.565471
3,77,0,13562,176,-82,1072,13775,9296,3584,1616,13864,394,-251,142,1389807103.565482
2,78,0,1758,-261,21,-6,1460,8064,2496,384,1582,353,-100,108,1389807103.583256
3,78,0,15561,274,-112,1034,15653,9040,4000,1296,13864,394,-251,142,1389807103.583270
2,79,0,2753,-191,20,1,3338,8112,2448,832,1582,353,-100,108,1389807103.594776
3,79,0,17561,318,-140,1005,17531,9104,4032,224,16441,398,9,145,1389807103.594786
2,80,0,4742,74,18,-2,5216,8192,2400,560,4143,348,-97,109,1389807103.594945
3,80,0,18561,300,-148,968,19408,9216,3168,-928,19019,395,14,143,1389807103.601101
2,81,0,6731,291,48,16,7094,8160,2304,-80,6704,353,-103,108,1389807103.611966
3,81,0,20560,107,-148,824,21285,9152,2048,-2032,19019,395,14,143,1389807103.611976
2,82,0,8721,371,54,13,8972,8144,2384,-688,6704,353,-103,108,1389807103.624015
3,82,0,22559,-201,-156,607,23163,8720,1872,-2784,21596,394,22,141,1389807103.624024
2,83,0,10710,325,42,15,10850,8128,2272,-784,9266,352,-104,107,1389807103.636285
3,83,0,24559,-383,-138,354,25040,7984,2368,-2448,24173,395,26,148,1389807103.636300
2,84,0,12700,264,15,33,12729,8176,2176,-544,11827,353,-102,109,1389807103.636623
3,84,0,26558,-538,-110,100,26917,7280,2896,-1616,26751,395,25,142,1389807103.636634
2,85,0,14689,225,-11,26,14607,8160,2272,-592,14387,353,-99,103,1389807103.654305
3,85,0,28557,-644,-106,-126,28795,6880,2768,-1136,26751,395,25,142,1389807103.654314
2,86,0,16678,223,-3,-3,16486,8064,2368,-608,14387,353,-99,103,1389807103.660532
3,86,0,30557,-614,-117,-382,30673,6880,2448,-928,29328,391,25,145,1389807103.660847
2,87,0,17673,203,10,-2,18364,8080,2208,-608,16948,352,-104,107,1389807103.672131
3,87,0,32556,-517,-140,-660,32550,6880,2192,-640,31905,391,22,145,1389807103.672141
2,88,0,19662,128,-8,5,20243,8144,2288,-448,19509,348,-105,108,1389807103.684350
3,88,0,33556,-449,-154,-793,34427,6832,2464,-256,34482,392,15,147,1389807103.684364
2,89,0,21652,101,-23,-8,22121,8160,2416,-224,22069,351,-100,106,1389807103.690653
3,89,0,35555,-213,-157,-1072,36303,6720,2432,208,34482,392,15,147,1389807103.690930
2,90,0,23641,84,-20,-1,23999,8048,2352,160,22069,351,-100,106,1389807103.703257
3,90,0,37555,82,-142,-1331,38181,6704,2624,400,37059,389,5,148,1389807103.703272
2,91,0,25630,114,-7,-6,25878,8112,2288,224,24631,355,-109,107,1389807103.715554
3,91,0,39554,369,-107,-1552,40058,6992,2880,128,39636,398,-8,151,1389807103.715568
2,92,0,27620,197,-14,-7,27756,8080,2240,224,27192,350,-103,106,1389807103.715888
3,92,0,41553,548,-41,-1746,41935,7280,3072,-352,39636,398,-8,151,1389807103.715898
2,93,0,29609,249,0,5,29633,8112,1984,-48,29752,349,-100,109,1389807103.733524
3,93,0,43553,575,28,-1927,43812,7600,3152,-864,42214,398,-29,147,1389807103.733539
2,94,0,31599,238,-7,5,31511,8128,1872,-480,29752,349,-100,109,1389807103.745671
3,94,0,45552,487,98,-2095,45689,7840,3120,-1232,44792,400,-44,147,1389807103.745680
2,95,0,33588,126,-15,5,33389,8144,1824,-848,32313,352,-110,105,1389807103.745948
3,95,0,47551,355,166,-2239,47567,7984,2768,-1232,47369,400,-60,148,1389807103.745954
2,96,0,34583,75,-20,10,35268,8080,1952,-848,34873,349,-101,106,1389807103.763477
3,96,0,48551,283,179,-2304,49444,7984,3120,-816,47369,400,-60,148,1389807103.763492
2,97,0,36572,-10,-34,25,37146,8064,1968,-320,34873,349,-101,106,1389807103.775738
2,98,0,38561,-33,-46,46,39024,8096,1824,64,37433,351,-102,106,1389807103.776006
3,98,0,52550,106,208,-2462,53198,8032,2992,-96,52524,400,-106,144,1389807103.776013
2,99,0,40551,64,-54,64,40903,8048,1680,304,39994,350,-104,108,1389807103.793828
3,99,0,54549,110,206,-2489,55076,8096,2960,-368,52524,400,-106,144,1389807103.793837
2,100,0,42540,142,-44,97,42782,8064,1808,-64,42554,350,-100,108,1389807103.806011
3,100,0,56549,197,197,-2509,56954,8112,2816,-560,55100,401,-123,141,1389807103.806021
2,101,0,44529,175,-35,113,44660,8080,1536,-320,42554,350,-100,108,1389807103.806237
3,101,0,58548,202,188,-2519,58832,8048,2736,-656,57678,401,-147,141,1389807103.806243
2,102,0,46519,94,-45,135,46538,8000,1440,-160,45116,349,-98,109,1389807103.824425
3,102,0,60547,94,158,-2535,60710,7872,2720,-768,60255,395,-166,140,1389807103.824434
2,103,0,48508,23,-60,157,48417,7920,1616,-176,47677,352,-103,108,1389807103.824681
3,103,0,62547,-5,140,-2524,62588,8032,2752,-784,60255,395,-166,140,1389807103.836807
2,104,0,50498,23,-54,182,50294,7888,1616,-96,50237,351,-102,110,1389807103.837292
3,104,0,63546,-74,147,-2506,64465,8208,2752,-704,62832,395,-185,137,1389807103.837308
2,105,0,51492,24,-54,198,52174,7968,1424,-160,50237,351,-102,110,1389807103.855334
3,105,0,10,-230,169,-2489,806,8448,2592,-560,65408,388,-205,134,1389807103.855343
2,106,0,53482,8,-54,226,54053,8000,1632,-464,52798,349,-92,115,1389807103.855605
3,106,0,2009,-396,198,-2475,2683,8688,2352,-528,2450,388,-224,133,1389807103.855611
2,107,0,55471,-26,-59,256,55932,8064,1680,-496,55359,354,-91,109,1389807103.873774
3,107,0,4009,-495,217,-2457,4560,8624,2080,-336,2450,388,-224,133,1389807103.873784
2,108,0,57460,-60,-77,280,57810,8048,1472,-400,57920,352,-91,110,1389807103.886022
3,108,0,6008,-536,235,-2408,6438,8368,1776,32,5028,384,-242,139,1389807103.886037
2,109,0,59450,-117,-87,306,59689,8096,1456,-400,57920,352,-91,110,1389807103.886355
3,109,0,8007,-505,256,-2299,8315,8080,2048,384,7605,382,-255,136,1389807103.886366
2,110,0,61439,-177,-83,311,61568,7952,2064,-736,60481,350,-84,117,1389807103.904530
3,110,0,10007,-252,263,-2158,9723,7664,2752,800,10182,374,-16,134,1389807103.904539
2,111,0,63428,-228,-81,339,63446,7808,1728,-288,63041,353,-81,116,1389807103.904707
3,111,0,12006,-9,286,-1999,12070,7216,1696,1232,10182,374,-16,134,1389807103.916865
2,112,0,65418,-247,-99,368,65325,8032,1520,-16,63041,353,-81,116,1389807103.917235
3,112,0,13006,48,288,-1903,13948,7504,768,144,12758,368,-282,133,1389807103.917241
2,113,0,876,-196,-105,384,1668,8000,1952,-352,66,353,-83,114,1389807103.934790
3,113,0,15005,168,321,-1729,15826,7648,672,-960,15335,365,-295,129,1389807103.934804
2,114,0,2866,-137,-114,414,3546,7888,1520,-704,2628,352,-79,117,1389807103.935108
3,114,0,17004,252,341,-1578,17235,7456,752,-1136,15335,365,-295,129,1389807103.935403
2,115,0,4855,-184,-104,450,5424,7872,1360,-672,5188,352,-72,119,1389807103.952817
3,115,0,19004,197,314,-1419,19113,6960,800,-768,17913,361,-305,124,1389807103.952826
2,116,0,6845,-216,-124,490,7303,7920,1728,-816,5188,352,-72,119,1389807103.964943
3,116,0,21003,36,266,-1223,20990,6640,480,-400,20490,351,-317,122,1389807103.964958
2,117,0,8834,-258,-151,517,9183,7936,1760,-656,7750,353,-71,118,1389807103.965260
3,117,0,23003,-82,261,-945,22867,6496,144,-320,23068,351,-320,121,1389807103.965569
2,118,0,10823,-371,-151,555,11062,8016,1808,-416,10311,350,-61,120,1389807103.983006
3,118,0,25002,-129,252,-616,24746,6512,-80,-176,23068,351,-320,121,1389807103.983021
2,119,0,12813,-440,-157,608,12940,8032,2576,-288,12873,350,-56,119,1389807103.994305
3,119,0,27001,-114,241,-313,26623,6592,192,-128,25646,353,-323,120,1389807103.994314
2,120,0,14802,-336,-191,649,14819,8112,2160,-128,12873,350,-56,119,1389807104.478
3,120,0,28001,-94,227,-164,28501,6736,128,-304,28223,345,-322,119,1389807104.696
2,121,0,16791,-279,-176,657,16697,8176,2528,-496,15434,352,-53,124,1389807104.12711
3,121,0,30000,-97,206,144,30378,6992,96,-416,30801,348,-318,115,1389807104.12721
2,122,0,17786,-254,-175,666,18575,8160,2544,-512,17995,350,-45,123,1389807104.24812
3,122,0,32000,-181,148,438,32255,6960,512,160,30801,348,-318,115,1389807104.24821
2,123,0,19775,-292,-200,690,20454,8208,2880,-480,20557,350,-33,129,1389807104.25064
3,123,0,33999,-217,96,708,34133,6880,976,608,33378,353,-311,118,1389807104.25348
2,124,0,21765,-306,-218,712,22332,8224,3168,-144,20557,350,-33,129,1389807104.42607
3,124,0,35998,-175,75,972,36011,7280,1376,864,35956,354,-303,116,1389807104.42616
2,125,0,23754,-274,-234,747,24210,8432,3392,160,23117,349,-29,132,1389807104.54659
3,125,0,37998,-181,82,1216,37888,7616,1680,720,35956,354,-303,116,1389807104.54674
2,126,0,25744,-184,-234,765,26089,8528,3360,224,25678,348,-25,131,1389807104.54935
3,126,0,39997,-254,71,1412,39766,8064,1888,336,38534,358,-291,120,1389807104.61209
2,127,0,27733,-68,-228,783,27967,8672,3392,128,25678,348,-25,131,1389807104.72409
3,127,0,41997,-440,30,1553,41644,8304,2144,-160,41112,367,-280,115,1389807104.72418
2,128,0,29722,20,-237,817,29846,8928,3216,-48,28239,345,-14,134,1389807104.84662
3,128,0,42996,-587,-20,1601,43522,8816,1504,-464,43689,369,-263,118,1389807104.84677
2,129,0,31712,62,-247,843,31724,9296,2944,-224,30800,345,-10,137,1389807104.84984
3,129,0,44996,-1108,-174,1634,45399,10000,-608,-544,43689,369,-263,118,1389807104.91223
2,130,0,33701,83,-269,875,33603,9600,2672,-288,33361,345,-6,143,1389807104.103550
3,130,0,46995,-1933,-415,1491,47276,11488,-3232,-1408,46266,374,-505,128,1389807104.103565
2,131,0,34696,95,-278,900,35480,10016,2592,-368,33361,345,-6,143,1389807104.115687
3,131,0,48994,-2717,-596,1082,49153,12496,-5024,-2848,48844,381,-232,139,1389807104.115696
2,132,0,36685,54,-297,948,37359,10416,2352,-112,35922,342,-246,143,1389807104.115963
3,132,0,50994,-3180,-572,552,51031,12416,-3616,-3856,51420,380,-220,154,1389807104.115969
2,133,0,38674,7,-326,998,39237,10688,2160,464,38482,341,14,147,1389807104.133532
3,133,0,52993,-3013,-364,74,52908,10928,80,-2960,51420,380,-220,154,1389807104.133541
2,134,0,40664,24,-331,1070,41115,10640,1728,1040,41043,343,21,151,1389807104.145465
3,134,0,54993,-2439,-153,-118,54785,9248,1120,-144,53997,376,-210,160,1389807104.145480
2,135,0,42653,121,-315,1143,42994,10464,1552,1264,41043,343,21,151,1389807104.145796
3,135,0,56992,-2185,-144,-101,56663,7760,2384,1408,56575,378,-201,169,1389807104.145807
2,136,0,44643,246,-304,1233,44871,10320,1280,1040,43604,336,34,156,1389807104.163802
3,136,0,57992,-1935,-178,-8,58540,6944,3488,1840,56575,378,-201,169,1389807104.163817
2,137,0,46632,308,-308,1326,46749,10400,1008,928,46165,336,42,159,1389807104.176298
3,137,0,59991,-1370,-233,354,60418,7520,3440,2432,59154,378,-194,175,1389807104.176326
2,138,0,48621,292,-346,1420,48627,10432,944,816,46165,336,42,159,1389807104.176574
3,138,0,61990,-1097,-201,707,62296,8720,2144,1936,61731,372,-184,177,1389807104.176579
2,139,0,49616,281,-363,1466,50504,10592,1456,512,48724,333,50,161,1389807104.194235
3,139,0,63990,-630,-53,814,64173,10624,672,1328,64310,373,-175,180,1389807104.194250
2,140,0,51605,279,-388,1538,52381,10480,1936,-48,51285,323,61,168,1389807104.200510
3,140,0,453,-96,-70,689,515,11056,240,2352,64310,373,-175,180,1389807104.200829
2,141,0,53595,343,-418,1604,54258,10480,2928,-64,53846,323,77,176,1389807104.212433
3,141,0,2452,314,-167,443,2394,9312,1280,3520,1352,380,-173,178,1389807104.212448
2,142,0,55584,335,-488,1630,56137,10480,2928,-320,53846,323,77,176,1389807104.224774
3,142,0,4452,672,-118,325,4272,7632,1264,3840,3929,379,-173,181,1389807104.224783
2,143,0,57573,474,-540,1618,58014,10352,2160,160,56407,318,83,178,1389807104.225081
3,143,0,6451,733,-35,466,6149,7584,352,2768,6507,376,-173,178,1389807104.225352
2,144,0,59563,698,-549,1648,59892,10176,1776,320,58969,302,96,185,1389807104.243515
3,144,0,7451,691,-14,570,8027,8240,-352,384,6507,376,-173,178,1389807104.243530
2,145,0,61552,1044,-552,1652,61771,9456,2096,416,61530,302,107,193,1389807104.255696
3,145,0,9450,136,9,663,9903,8912,-928,-2720,9085,381,-166,178,1389807104.255706
2,146,0,63542,1344,-506,1653,63649,8480,1824,192,61530,302,107,193,1389807104.255948
3,146,0,11450,-1013,-80,677,11780,8816,-208,-4128,11663,380,-154,181,1389807104.255956
2,147,0,65531,1538,-427,1733,65527,7536,2992,-272,64091,299,108,204,1389807104.272379
3,147,0,13449,-2007,-251,594,13658,8064,688,-1984,11663,380,-154,181,1389807104.272388
2,148,0,990,1536,-394,1769,1869,7040,4944,-1360,1115,290,117,212,1389807104.284520
3,148,0,15448,-2372,-247,520,15536,7440,1344,1920,14240,377,-141,187,1389807104.284535
2,149,0,2979,1369,-332,1797,3747,7008,5152,-1952,3675,283,131,224,1389807104.284838
3,149,0,17448,-1586,-193,514,17414,7520,1680,5488,16818,383,-130,189,1389807104.291046
2,150,0,4968,993,-358,1797,5626,7360,5104,-2128,3675,283,131,224,1389807104.303221
3,150,0,19447,128,-182,585,19292,8304,1872,6800,19396,380,-124,192,1389807104.303236
2,151,0,6958,559,-391,1747,7504,7696,4912,-2576,6236,274,131,229,1389807104.315375
3,151,0,21446,1589,-64,646,21170,8912,2176,4208,19396,380,-124,192,1389807104.315385
2,152,0,8947,79,-421,1642,9381,7728,4608,-2416,8797,265,146,230,1389807104.315652
3,152,0,22446,1947,15,657,23047,9216,1600,-192,21973,379,-128,189,1389807104.315659
2,153,0,10936,-362,-435,1430,11259,7200,6208,-1312,8797,265,146,230,1389807104.332790
3,153,0,24446,1765,94,636,24924,9168,992,-3600,24550,381,-129,186,1389807104.332805
2,154,0,12926,-483,-379,1224,13137,6496,5392,-208,11358,258,158,233,1389807104.344603
3,154,0,26445,621,22,584,26801,8576,1216,-4496,27128,384,-128,186,1389807104.344618
2,155,0,14915,38,-347,1093,15015,6240,3280,2048,13917,252,166,238,1389807104.344921
3,155,0,28444,-716,-167,549,28679,7984,1600,-2736,27128,384,-128,186,1389807104.351175
2,156,0,16905,500,-335,858,16893,6720,2640,2224,16478,248,166,239,1389807104.363256
3,156,0,30444,-1505,-307,551,30557,8064,1824,384,29706,380,-117,190,1389807104.363271
2,157,0,17899,667,-308,700,18772,6672,3856,352,16478,248,166,239,1389807104.374373
3,157,0,32443,-1523,-284,510,32434,8304,2272,3040,32283,381,-104,194,1389807104.374382
2,158,0,19889,969,-261,376,20650,6000,4304,-1040,19040,242,169,248,1389807104.374504
3,158,0,34442,-854,-145,467,34312,8624,2576,4224,32283,381,-104,194,1389807104.385714
2,159,0,21878,964,-262,89,22528,5312,4224,-1200,21600,239,165,253,1389807104.385981
3,159,0,36442,40,-39,445,36189,8672,2816,3776,34860,381,-97,199,1389807104.385987
2,160,0,23867,574,-265,-148,24405,5056,3920,-1744,24160,239,157,257,1389807104.404109
3,160,0,37441,415,-22,423,38067,8464,2544,2016,37438,380,-98,194,1389807104.404124
2,161,0,25857,154,-229,-378,26283,5200,3328,-2032,24160,239,157,257,1389807104.416285
3,161,0,39441,697,-2,380,39945,8384,2080,-320,40015,378,-94,191,1389807104.416300
2,162,0,27846,-165,-138,-628,28161,5520,3744,-1472,26721,234,157,263,1389807104.416626
3,162,0,41440,437,-6,350,41822,8544,2080,-1760,40015,378,-94,191,1389807104.416636
2,163,0,29835,-714,-17,-874,30039,5632,4624,-1568,29282,236,155,254,1389807104.433931
3,163,0,43440,-26,-49,322,43699,8576,1920,-1104,42592,380,-96,195,1389807104.433946
2,164,0,31825,-1368,74,-1100,31917,5536,4608,-1824,31843,242,151,247,1389807104.446266
3,164,0,45439,-524,-124,272,45577,8384,1968,144,45170,381,-95,195,1389807104.446281
2,165,0,32820,-1638,108,-1206,33795,5664,4400,-976,31843,242,151,247,1389807104.446622
3,165,0,47438,-759,-144,241,47455,8320,1968,1024,47748,379,-83,199,1389807104.446632
2,166,0,34809,-2098,117,-1395,35674,5968,4880,208,34403,242,155,247,1389807104.464712
3,166,0,49438,-716,-109,207,49332,8208,2064,1424,47748,379,-83,199,1389807104.464727
2,167,0,36798,-2290,94,-1581,37082,6096,5904,1168,36963,252,157,228,1389807104.465036
3,167,0,51437,-488,-67,188,51211,8224,1824,1264,50325,380,-85,200,1389807104.465339
2,168,0,38788,-1961,40,-1744,38961,6016,6864,2336,36963,252,157,228,1389807104.483233
3,168,0,52437,-376,-62,196,53088,8352,1504,1040,52903,380,-81,201,1389807104.483247
2,169,0,40777,-1188,-5,-1835,40840,6512,7072,3024,39524,259,145,218,1389807104.495394
3,169,0,54436,-225,-55,193,54966,8336,1472,880,52903,380,-81,201,1389807104.495403
2,170,0,42766,-244,2,-1928,42718,7424,6992,2656,42084,263,139,214,1389807104.495699
3,170,0,56435,-173,-54,178,56844,8256,1392,800,55481,381,-75,204,1389807104.495723
2,171,0,44756,436,90,-2072,44596,7744,6576,1360,44644,284,126,219,1389807104.513815
3,171,0,58435,-218,-53,194,58722,8224,1344,736,58059,381,-74,202,1389807104.513830
2,172,0,46745,663,208,-2208,46474,7312,5904,0,44644,284,126,219,1389807104.526193
3,172,0,60434,-269,-50,204,60600,8160,1312,1008,60636,379,-74,202,1389807104.526217
2,173,0,48734,462,282,-2287,48352,6784,5632,-848,47204,284,102,217,1389807104.526497
3,173,0,62434,-287,-53,207,62477,8112,1328,1296,60636,379,-74,202,1389807104.526502
2,174,0,49729,262,304,-2309,50230,6752,5648,-992,49765,296,86,213,1389807104.543593
3,174,0,64433,-333,-54,225,64355,8240,1392,1200,63215,379,-67,202,1389807104.543601
2,175,0,51719,-178,344,-2348,52108,7200,5744,-672,52327,296,74,212,1389807104.555619
3,175,0,896,-336,-29,259,696,8288,1472,1072,256,380,-65,200,1389807104.555628
2,176,0,53708,-525,378,-2396,53986,7824,5728,-96,52327,296,74,212,1389807104.555921
3,176,0,1896,-314,-29,261,2574,8288,1440,1168,2834,380,-63,205,1389807104.555928
2,177,0,55697,-786,395,-2443,55864,8144,5888,320,54887,305,57,205,1389807104.573974
3,177,0,3895,-281,-20,259,4451,8272,1632,1152,2834,380,-63,205,1389807104.573983
2,178,0,57687,-921,383,-2505,57742,7984,5872,576,57448,309,41,196,1389807104.585208
3,178,0,5895,-231,-15,266,6329,8304,1552,1024,5411,378,-61,204,1389807104.585216
2,179,0,59676,-1012,368,-2535,59621,7408,5776,592,60008,320,31,191,1389807104.585401
3,179,0,7894,-211,5,279,8205,8384,1520,848,7989,378,-54,200,1389807104.585406
2,180,0,61665,-1141,371,-2563,61499,6928,5648,224,60008,320,31,191,1389807104.602658
3,180,0,9894,-247,4,293,10083,8448,1328,656,7989,378,-54,200,1389807104.602673
2,181,0,63655,-1286,394,-2596,63377,6880,5568,-64,62566,327,14,185,1389807104.614864
3,181,0,11893,-274,-5,318,11960,8400,1280,768,10567,377,-51,205,1389807104.614878
2,182,0,108,-1419,427,-2646,65254,7136,5376,-112,65127,334,254,182,1389807104.615191
3,182,0,13892,-267,-19,324,13837,8240,1104,976,13145,377,-47,204,1389807104.615502
2,183,0,1103,-1463,439,-2679,1596,7344,5472,128,65127,334,254,182,1389807104.633296
3,183,0,15892,-218,-3,371,15714,8128,992,1024,15724,379,-43,204,1389807104.633311
2,184,0,3092,-1502,451,-2741,3474,7488,5824,320,2152,335,-17,173,1389807104.645318
3,184,0,16891,-217,0,370,17591,8160,912,768,15724,379,-43,204,1389807104.645333
2,185,0,5082,-1408,444,-2798,5352,7616,5776,752,4713,344,-33,165,1389807104.645647
3,185,0,18891,-244,5,415,19468,8160,960,704,18302,379,-41,204,1389807104.645657
2,186,0,7071,-1218,437,-2878,7229,7744,5552,1056,7273,347,-52,160,1389807104.663731
3,186,0,20890,-215,10,473,21346,8160,1040,1120,20879,377,-33,202,1389807104.663746
2,187,0,9060,-994,444,-2942,9106,7856,5280,1136,7273,347,-52,160,1389807104.676004
3,187,0,22889,-166,5,489,23223,8128,1312,1456,23455,377,-27,203,1389807104.676013
2,188,0,11050,-691,454,-3018,10985,7808,5184,880,9834,347,-73,156,1389807104.676278
3,188,0,24889,-87,11,520,25100,8224,1264,1440,23455,377,-27,203,1389807104.676284
2,189,0,13039,-412,479,-3066,12863,7760,4896,768,12395,357,-98,153,1389807104.694297
3,189,0,26888,-80,29,562,26978,8224,1344,1136,26033,377,-28,199,1389807104.694312
2,190,0,15028,-208,511,-3095,14741,7808,4496,656,14955,357,-120,145,1389807104.700655
3,190,0,28888,-92,20,585,28855,8128,1536,1136,28611,378,-19,203,1389807104.700969
2,191,0,16023,-121,528,-3103,16619,7856,4128,640,14955,357,-120,145,1389807104.712494
3,191,0,30887,4,3,610,30732,8064,1824,1584,28611,378,-19,203,1389807104.712509
2,192,0,18012,81,568,-3110,18497,7936,3920,640,17515,351,-145,140,1389807104.724755
3,192,0,31887,65,6,618,32609,8112,1824,1664,31189,375,-12,203,1389807104.724764
2,193,0,20002,262,631,-3077,20375,7968,3472,544,20076,355,-170,134,1389807104.725009
3,193,0,33886,106,21,639,34487,8208,2096,912,33766,378,-10,204,1389807104.725257
2,194,0,21991,475,680,-3014,22253,8064,2736,496,20076,355,-170,134,1389807104.743034
3,194,0,35885,86,28,666,36364,8208,2592,224,36343,373,-5,202,1389807104.743044
2,195,0,23981,629,721,-2938,24131,8048,2928,272,22637,350,-195,130,1389807104.755036
3,195,0,37885,-28,39,667,38241,8288,2384,-416,36343,373,-5,202,1389807104.755045
3,196,0,39884,-231,14,696,40119,8368,2368,-624,38920,370,-255,202,1389807104.755255
2,197,0,27959,671,768,-2670,27888,8256,2608,-640,27759,345,-241,112,1389807104.773396
3,197,0,41883,-282,-10,717,41997,8224,2288,256,41498,374,8,199,1389807104.773446
2,198,0,29949,633,740,-2541,29766,8448,2432,-1136,27759,345,-241,112,1389807104.785750
3,198,0,43883,-296,-4,717,43874,7968,2128,1024,44075,371,11,199,1389807104.785765
2,199,0,31938,578,654,-2405,31644,8688,1472,-1152,30321,344,-4,104,1389807104.786076
3,199,0,45882,-292,24,761,45751,8128,2320,1008,44075,371,11,199,1389807104.786087
2,200,0,32933,517,590,-2328,33522,8640,1072,-848,32881,332,-280,94,1389807104.804326
3,200,0,46882,-237,41,784,47629,8192,2256,960,46654,367,21,197,1389807104.804335
2,201,0,34922,393,479,-2166,35400,8272,944,-384,35441,325,-297,89,1389807104.810439
3,201,0,48881,-149,68,831,49507,8192,2112,816,49231,369,32,198,1389807104.810696
2,202,0,36911,330,409,-1972,37278,7728,944,384,35441,325,-297,89,1389807104.822651
3,202,0,50881,-131,67,850,51384,8080,2432,896,49231,369,32,198,1389807104.822660
2,203,0,38901,312,394,-1756,39156,6864,928,912,38002,325,-314,83,1389807104.834211
3,203,0,52880,-68,65,880,53262,8112,2592,1360,51809,371,36,197,1389807104.834226
2,204,0,40890,537,423,-1500,41034,6192,704,1152,40564,315,-323,81,1389807104.840504
3,204,0,54879,-75,58,903,55141,8160,3056,1264,54387,366,46,198,1389807104.840810
2,205,0,42880,839,464,-1182,42913,5600,640,1072,43124,313,-329,72,1389807104.853141
3,205,0,56879,-83,69,929,57020,8192,3136,784,56965,366,53,197,1389807104.853156
2,206,0,44869,1077,487,-819,44790,5408,656,288,43124,313,-329,72,1389807104.864737
3,206,0,58878,-170,78,970,58898,8192,3088,320,56965,366,53,197,1389807104.864751
2,207,0,46858,1344,472,-427,46669,5792,96,-688,45685,311,-340,59,1389807104.865061
3,207,0,60878,-219,87,1018,60776,8352,3264,496,59541,366,63,195,1389807104.865373
2,208,0,48848,1296,427,-46,48547,6480,-528,-1728,48244,306,-338,50,1389807104.883251
3,208,0,61877,-215,82,1034,62654,8352,3472,1200,62120,362,69,192,1389807104.883265
2,209,0,49842,1092,381,120,50425,6992,-960,-2400,48244,306,-338,50,1389807104.895486
3,209,0,63877,-187,67,1027,64532,8464,3744,1264,64698,358,79,193,1389807104.895501
2,210,0,51832,460,252,406,52304,7008,-464,-1936,50805,307,-334,44,1389807104.895813
3,210,0,340,-109,102,1011,874,8448,3920,800,64698,358,79,193,1389807104.895824
2,211,0,53821,-191,148,650,54182,6544,528,-912,53366,313,-331,42,1389807104.913882
3,211,0,2339,-80,155,1013,2752,8592,3936,-96,1741,358,82,194,1389807104.913891
2,212,0,55810,-525,88,907,56060,6272,1136,112,55926,316,-320,44,1389807104.926158
3,212,0,4339,-115,158,1004,4629,8496,4032,-672,4319,356,93,191,1389807104.926167
2,213,0,57800,-438,53,1191,57938,6432,1680,800,55926,316,-320,44,1389807104.926435
3,213,0,6338,-122,143,976,6507,8304,4016,-496,4319,356,93,191,1389807104.926441
2,214,0,59789,-228,2,1449,59817,6912,2496,640,58488,316,-312,45,1389807104.944445
3,214,0,8337,-207,159,981,8384,8240,3696,-272,6898,352,104,190,1389807104.944460
2,215,0,61779,-45,-74,1666,61695,7280,3008,512,61049,327,-297,44,1389807104.950739
3,215,0,10337,-336,166,1007,10262,8320,3488,-432,9476,354,109,189,1389807104.951060
2,216,0,63768,-149,-191,1844,63574,7744,2400,528,63610,336,-284,46,1389807104.963369
3,216,0,11336,-363,169,1017,12140,8336,3264,-256,12054,346,119,189,1389807104.963384
2,217,0,64763,-229,-240,1893,65452,8336,912,720,63610,336,-284,46,1389807104.975660
3,217,0,13336,-390,184,1049,14018,8528,2928,128,12054,346,119,189,1389807104.975669
2,218,0,1216,-227,-354,1930,1794,10496,-3152,1040,634,336,-268,55,1389807104.975967
3,218,0,15335,-417,200,1095,15895,8768,2784,384,14632,344,129,180,1389807104.975996
2,219,0,3205,-14,-438,1742,3671,14784,-9568,464,3194,342,-508,56,1389807104.993723
3,219,0,17335,-400,225,1161,17773,8992,2448,544,17210,345,139,177,1389807104.993738
2,220,0,5195,205,-345,1114,5551,18944,-13504,-1792,5754,348,-249,60,1389807105.5838
3,220,0,19334,-401,262,1243,19650,9584,2016,800,19788,342,147,174,1389807105.5847
2,221,0,7184,-971,-69,262,7429,17136,-8480,-5088,5754,348,-249,60,1389807105.6111
3,221,0,21333,-371,304,1345,21529,10704,1952,1232,19788,342,147,174,1389807105.6118
2,222,0,9173,-3453,20,-237,9308,10576,416,-5952,8316,345,-248,69,1389807105.23829
3,222,0,23333,-288,350,1460,23406,11872,2144,1168,22367,336,158,170,1389807105.23838
2,223,0,11163,-4998,-186,-34,11187,5808,4608,16,10876,349,-235,80,1389807105.36167
3,223,0,25332,-200,381,1520,25284,12384,1712,16,24945,333,173,167,1389807105.36182
2,224,0,13152,-5420,-448,690,13065,3664,6880,8176,10876,349,-235,80,1389807105.36506
3,224,0,26332,-281,379,1530,27161,12512,-208,-1552,24945,333,173,167,1389807105.36517
2,225,0,15142,-3482,-400,1322,14943,5600,7376,11648,13438,348,-216,97,1389807105.54701
3,225,0,28331,-880,320,1578,29039,12560,-1744,-2752,27524,325,184,165,1389807105.54717
2,226,0,16136,-1617,-256,1554,16820,10304,5552,9936,16000,349,-195,105,1389807105.54936
3,226,0,30331,-1617,272,1724,30917,12512,-2384,-1648,30101,320,201,157,1389807105.55128
2,227,0,18126,1939,89,1706,18698,11888,3280,5248,18561,351,-189,101,1389807105.72717
3,227,0,32330,-2125,345,1932,32795,12192,-2272,1104,32679,311,227,139,1389807105.72726
2,228,0,20115,3491,307,1477,20576,9984,4544,-2944,18561,351,-189,101,1389807105.84979
3,228,0,34329,-1997,439,2093,34673,11360,128,3712,32679,311,227,139,1389807105.84994
2,229,0,22104,4106,413,1128,22455,7312,3376,-8192,21123,359,-188,90,1389807105.85295
3,229,0,36329,-1041,535,2169,36551,10464,2496,5296,35256,306,243,129,1389807105.85519
2,230,0,24094,3363,174,988,24333,5808,192,-10656,23684,358,-189,76,1389807105.103711
3,230,0,38328,128,554,2249,38428,9920,3920,5120,37834,297,253,125,1389807105.103726
2,231,0,26083,1464,-56,995,26211,5952,-1328,-10880,26245,367,-182,77,1389807105.116015
3,231,0,40327,894,523,2390,40306,10208,4560,3840,40412,286,17,126,1389807105.116029
2,232,0,28072,-954,-138,998,28089,7456,-656,-7760,26245,367,-182,77,1389807105.116348
3,232,0,42327,1132,488,2570,42182,11056,4480,2432,40412,286,17,126,1389807105.116359
2,233,0,30062,-2629,-241,888,29967,8400,2144,-2448,28807,367,-168,79,1389807105.134377
3,233,0,43326,1127,493,2621,44059,11648,3856,1424,42990,275,278,133,1389807105.134392
2,234,0,32051,-2878,-371,763,31844,8800,4320,3280,31368,364,-155,91,1389807105.140533
3,234,0,45326,982,544,2616,45937,11344,3840,1360,45570,259,292,134,1389807105.140772
2,235,0,33046,-2479,-371,727,33722,8800,4336,6896,33928,363,-148,93,1389807105.152991
3,235,0,47325,847,560,2389,47814,10112,5152,1904,45570,259,292,134,1389807105.153006
2,236,0,35035,-1141,-155,691,35600,8736,3792,5392,33928,363,-148,93,1389807105.165018
3,236,0,49325,885,569,2008,49692,8432,7888,2192,48148,245,303,138,1389807105.165027
2,237,0,37025,153,97,697,37478,8800,2720,1968,36490,368,-140,94,1389807105.165298
3,237,0,51324,1238,645,1759,51569,7456,8352,2464,50726,235,304,143,1389807105.165304
2,238,0,39014,830,118,737,39357,9024,1472,-112,39050,366,-136,92,1389807105.183129
3,238,0,53323,1265,611,1828,53447,7584,7440,2032,53304,224,308,148,1389807105.183138
2,239,0,41003,820,62,739,41234,8976,704,-1792,39050,366,-136,92,1389807105.195241
3,239,0,55323,1389,522,1710,55326,7328,8080,2128,53304,224,308,148,1389807105.195256
2,240,0,42993,475,28,662,43112,8528,608,-3296,41611,365,-134,92,1389807105.195630
3,240,0,57322,1243,520,1401,57204,6880,7152,1440,55881,216,313,151,1389807105.195641
2,241,0,44982,20,-18,598,44989,7968,1136,-4016,44172,373,-128,91,1389807105.213754
3,241,0,58322,1070,503,1291,59082,6368,5808,-64,58459,206,316,158,1389807105.213768
2,242,0,46972,-374,-73,581,46867,7488,1472,-3648,46733,370,-124,93,1389807105.225974
3,242,0,60321,765,503,996,60959,5744,5824,-640,61036,205,312,160,1389807105.225983
2,243,0,48961,-648,-119,580,48745,7344,1520,-2320,46733,370,-124,93,1389807105.226250
3,243,0,62320,432,547,673,62837,5136,6448,-48,61036,205,312,160,1389807105.226256
2,244,0,49956,-696,-122,580,50622,7840,1728,-1168,49293,367,-114,94,1389807105.243267
3,244,0,64320,218,585,393,64714,4800,6176,800,63615,199,310,163,1389807105.243276
2,245,0,51945,-610,-122,568,52500,8432,1728,-272,51854,369,-109,96,1389807105.254823
3,245,0,783,96,588,116,1056,4608,5712,1632,658,197,319,159,1389807105.254833
2,246,0,53934,-443,-122,512,54377,8640,1888,96,54415,369,-107,97,1389807105.255123
3,246,0,2783,55,588,-164,2934,4464,5600,2160,658,197,319,159,1389807105.255339
2,247,0,55924,-296,-67,440,56256,8448,2272,208,54415,369,-107,97,1389807105.272648
3,247,0,4782,261,609,-506,4812,4096,6160,2128,3236,199,312,159,1389807105.272658
2,248,0,57913,-268,-28,392,58134,8432,2720,64,56977,369,-100,99,1389807105.284785
3,248,0,6781,708,645,-887,6690,3696,6816,1792,5815,205,308,155,1389807105.284800
2,249,0,59902,-267,-29,317,60012,8496,2528,336,59538,370,-95,96,1389807105.285153
3,249,0,7781,901,668,-1039,8569,3504,6896,1328,8393,210,300,157,1389807105.285373
2,250,0,61892,-238,-11,287,61890,8528,2448,608,59538,370,-95,96,1389807105.303300
3,250,0,9780,1108,712,-1247,10447,3696,6912,1040,8393,210,300,157,1389807105.303315
2,251,0,63881,-19,-1,275,63769,8528,2160,736,62100,370,-93,99,1389807105.314875
3,251,0,11780,1007,705,-1437,12325,4048,6512,688,10972,218,289,163,1389807105.314885
2,252,0,64876,165,-4,276,110,8416,2032,96,64660,369,-91,98,1389807105.315135
3,252,0,13779,724,686,-1639,14202,4416,5632,64,13549,231,274,165,1389807105.315399
2,253,0,1329,518,17,272,1989,8160,1120,-1456,1684,371,-89,96,1389807105.332949
3,253,0,15779,488,650,-1872,16080,4704,5136,-416,16127,2,265,158,1389807105.332964
2,254,0,3319,641,22,258,3866,7968,1072,-2640,1684,371,-89,96,1389807105.345166
3,254,0,17778,357,652,-2198,17958,4512,5776,-656,16127,2,265,158,1389807105.345182
2,255,0,5308,578,-11,251,5743,7888,992,-2848,4245,369,-92,97,1389807105.345516
3,255,0,19777,365,666,-2524,19836,4000,6880,-320,18704,258,502,160,1389807105.345527
2,0,0,7297,290,-26,244,7620,7936,800,-2272,6807,371,-91,100,1389807105.361900
3,0,0,21777,306,650,-2780,21714,3728,6368,176,21282,290,230,157,1389807105.361909
2,1,0,9287,-33,-56,240,9498,8272,1024,-1488,9368,370,-86,97,1389807105.374033
3,1,0,22776,210,609,-2850,23592,3904,5552,192,21282,290,230,157,1389807105.374043
2,2,0,11276,-137,-87,259,11377,8400,1184,-416,9368,370,-86,97,1389807105.386368
3,2,0,24776,89,507,-2992,25469,4304,5824,80,23860,290,213,156,1389807105.386383
2,3,0,13265,-61,-103,287,13254,8304,1040,192,11928,372,-88,99,1389807105.386641
3,3,0,26775,222,437,-3194,27346,4640,6080,336,26437,325,192,151,1389807105.386648
2,4,0,15255,181,-68,308,15132,8016,1024,160,14489,367,-81,101,1389807105.404656
3,4,0,28774,347,396,-3447,29224,4736,6400,544,29016,325,163,151,1389807105.404665
2,5,0,16249,293,-49,337,17010,7888,928,-560,17050,368,-77,98,1389807105.404850
3,5,0,30774,379,360,-3685,31103,4688,6864,496,29016,325,163,151,1389807105.410985
2,6,0,18239,417,-36,369,18889,7968,480,-1200,17050,368,-77,98,1389807105.423260
3,6,0,32773,324,299,-3879,32980,4800,6560,96,31593,353,134,147,1389807105.423270
2,7,0,20228,413,-42,416,20766,8208,256,-1584,19611,368,-79,99,1389807105.435581
3,7,0,34773,215,244,-4028,34858,5216,6384,-512,34172,353,109,144,1389807105.435596
2,8,0,22218,267,-57,461,22644,8224,624,-1792,22171,369,-73,99,1389807105.435921
3,8,0,36772,158,197,-4175,36735,5904,6400,-704,34172,353,109,144,1389807105.435931
2,9,0,24207,143,-86,479,24522,8112,848,-1280,22171,369,-73,99,1389807105.453950
3,9,0,37772,130,178,-4240,38613,6656,6288,-480,36749,377,69,146,1389807105.453965
2,10,0,26196,71,-87,515,26401,8128,1136,-608,24732,367,-67,102,1389807105.466230
3,10,0,39771,40,131,-4402,40491,7232,6624,-192,39328,377,36,141,1389807105.466245
2,11,0,28186,142,-89,553,28279,8160,1152,-304,27293,371,-64,100,1389807105.466571
3,11,0,41770,65,76,-4584,42368,7808,7392,144,41907,400,3,145,1389807105.466581
2,12,0,30175,274,-97,603,30158,8112,1056,-320,29854,368,-63,103,1389807105.484649
3,12,0,43770,135,49,-4739,44246,8368,7536,464,41907,400,3,145,1389807105.484664
2,13,0,32164,382,-86,657,32037,8032,800,-608,29854,368,-63,103,1389807105.484969
3,13,0,45769,120,29,-4837,46123,9456,6720,336,44486,400,217,142,1389807105.491196
2,14,0,33159,414,-78,681,33915,7984,480,-928,32416,366,-52,106,1389807105.503510
3,14,0,47768,23,-12,-4934,48001,10624,5776,-16,47063,403,-80,141,1389807105.503525
2,15,0,35148,433,-82,729,35793,8016,336,-1152,34978,368,-49,107,1389807105.515912
3,15,0,49768,-74,-59,-5010,49879,11520,5264,128,49642,403,-118,143,1389807105.516107
2,16,0,37138,387,-83,785,37671,8144,448,-1312,37540,368,-44,106,1389807105.516415
3,16,0,51767,-1,-139,-4997,51757,12016,4592,1008,49642,403,-118,143,1389807105.516435
2,17,0,39127,283,-80,834,39550,8256,688,-1104,37540,368,-44,106,1389807105.534446
3,17,0,52767,106,-168,-4985,53636,11984,4640,2272,52220,403,-162,145,1389807105.534461
2,18,0,41117,208,-77,875,41428,8192,816,-640,40100,367,-36,113,1389807105.540678
3,18,0,54766,380,-186,-4904,55512,11712,5376,3200,54798,396,-201,145,1389807105.540927
2,19,0,43106,221,-95,946,43306,8048,720,-288,42659,365,-27,106,1389807105.553227
3,19,0,56766,761,-90,-4672,56920,11776,4896,2960,57375,386,-238,145,1389807105.553237
2,20,0,45095,249,-93,1017,45184,7856,848,-416,45220,363,-22,110,1389807105.565318
3,20,0,58765,1103,171,-4240,59267,12256,3136,1216,57375,386,-238,145,1389807105.565326
2,21,0,47085,222,-93,1080,47061,7808,992,-624,45220,363,-22,110,1389807105.565593
3,21,0,60764,1486,326,-3873,61144,10944,5680,-128,59953,376,-12,141,1389807105.565598
2,22,0,48079,191,-93,1105,48940,7904,1424,-592,47781,363,-14,114,1389807105.583625
3,22,0,62764,2112,274,-3639,63022,7904,3264,1440,62531,367,-301,127,1389807105.583639
2,23,0,50069,144,-117,1163,50817,8000,1504,-480,50343,363,-2,111,1389807105.595863
3,23,0,64763,1226,244,-3236,64899,4992,1408,-608,62531,367,-301,127,1389807105.595879
2,24,0,52058,123,-156,1223,52695,8064,1568,-208,50343,363,-2,111,1389807105.596200
3,24,0,1227,261,163,-2452,1241,688,-3536,-4464,65109,353,-325,122,1389807105.596210
2,25,0,54048,117,-178,1290,54574,8144,1680,-112,52905,360,-250,112,1389807105.614345
3,25,0,2226,-283,42,-1847,3119,-1648,-4816,-4400,2150,345,-334,119,1389807105.614359
2,26,0,56037,87,-173,1343,56452,8192,2112,-720,55466,355,19,115,1389807105.620678
3,26,0,4226,-911,-274,-187,4996,1456,128,2496,4729,341,-325,129,1389807105.620954
2,27,0,58026,-17,-168,1384,58330,8608,2528,-1104,58027,355,32,119,1389807105.633308
3,27,0,6225,-933,-416,1052,6405,4576,4592,7056,4729,341,-325,129,1389807105.633323
2,28,0,60016,-151,-199,1426,60209,9152,2576,-688,58027,355,32,119,1389807105.645253
3,28,0,8224,-586,-282,1569,8283,7552,8032,8032,7306,339,-311,132,1389807105.645269
2,29,0,62005,-174,-216,1477,62087,9632,2816,-112,60589,356,42,120,1389807105.645611
3,29,0,10224,516,-65,2065,10160,8848,7168,6144,9885,348,-293,134,1389807105.645622
2,30,0,63994,-89,-179,1526,63964,9616,3312,144,63149,347,56,120,1389807105.663720
3,30,0,12223,1250,-39,2312,12038,8448,4656,2992,12463,358,-282,133,1389807105.663735
2,31,0,64989,-8,-169,1551,305,9392,3168,384,174,343,69,122,1389807105.676006
3,31,0,14222,1243,-260,2328,13915,8048,2352,-400,12463,358,-282,133,1389807105.676015
2,32,0,1442,162,-178,1599,2183,9008,2992,240,174,343,69,122,1389807105.676283
3,32,0,16222,613,-473,2429,15794,9152,880,-2144,15042,363,-267,127,1389807105.676289
2,33,0,3432,304,-202,1638,4062,8976,2704,-496,2734,344,78,125,1389807105.693385
3,33,0,17221,287,-517,2487,17671,12048,-704,-1872,17622,372,-507,131,1389807105.693393
2,34,0,5421,354,-212,1685,5939,9376,2448,-992,5294,338,91,130,1389807105.705189
3,34,0,19221,14,-505,2390,19549,15408,-3552,-1392,17622,372,-507,131,1389807105.705198
2,35,0,7411,259,-236,1724,7817,10048,2096,-1184,7855,327,106,132,1389807105.705464
3,35,0,21220,398,-254,1893,21427,16672,-3392,-864,20200,379,-236,135,1389807105.705470
2,36,0,9400,109,-261,1780,9695,10848,1808,-912,7855,327,106,132,1389807105.723234
3,36,0,23220,1807,15,1222,23304,13824,-752,1536,22780,378,-229,131,1389807105.723243
2,37,0,11389,-11,-263,1855,11573,11616,1600,-96,10416,327,120,137,1389807105.735560
3,37,0,25219,3481,150,672,25182,8304,5408,4320,25357,384,-235,121,1389807105.735575
2,38,0,13379,-9,-217,1952,13450,12048,1696,1232,12976,319,131,138,1389807105.735911
3,38,0,27218,4452,225,401,27059,3312,10176,5248,25357,384,-235,121,1389807105.735922
2,39,0,15368,224,-117,2042,15329,12192,3152,2608,12976,319,131,138,1389807105.754155
3,39,0,29218,3938,-33,592,28936,2368,9264,2176,27935,385,-246,105,1389807105.754166
2,40,0,16363,446,-56,2081,17206,12512,3584,3008,15537,312,149,144,1389807105.760365
3,40,0,31217,2891,-541,1473,30814,6576,6928,-3472,30514,387,-240,96,1389807105.760614
2,41,0,18352,1449,32,2157,19084,13776,1632,4528,18097,304,161,148,1389807105.772159
3,41,0,32217,2573,-650,1872,32691,12464,4640,-6464,33092,389,-232,98,1389807105.772168
2,42,0,20341,2738,38,2416,20962,15600,-816,6304,20658,293,168,160,1389807105.784431
3,42,0,34216,1708,-558,1885,34570,15984,3536,-6816,33092,389,-232,98,1389807105.784446
2,43,0,22331,4220,-77,2675,22841,15136,-224,5664,20658,293,168,160,1389807105.790668
3,43,0,36216,156,-452,1436,36448,13904,2624,-5648,35669,395,-225,100,1389807105.790915
2,44,0,24320,5064,-130,2816,24719,12864,2096,-48,23218,282,171,184,1389807105.803231
3,44,0,38215,-1029,-668,1105,38325,8560,3936,-1824,38247,396,-214,106,1389807105.803246
2,45,0,26310,5264,-95,2684,26598,10928,4080,-5088,25778,269,173,206,1389807105.815627
3,45,0,40214,-1394,-698,985,40202,5280,4064,1792,38247,396,-214,106,1389807105.815642
2,46,0,28299,4643,-194,2532,28476,9600,3936,-8112,28338,259,166,226,1389807105.815956
3,46,0,42214,-1420,-380,935,42081,5552,2192,2528,40825,396,-199,116,1389807105.815967
2,47,0,30288,3134,-439,2493,30354,9088,3104,-7920,28338,259,166,226,1389807105.833516
3,47,0,44213,-1349,-416,939,43959,6944,2112,960,43401,401,-186,121,1389807105.833530
2,48,0,31283,2242,-543,2484,32232,8736,3536,-5120,30900,247,173,248,1389807105.845643
3,48,0,46212,-778,-543,1031,45836,8112,3120,1456,45980,399,-176,127,1389807105.845658
2,49,0,33272,201,-597,2407,34109,8112,4448,-2976,33462,234,184,254,1389807105.845944
3,49,0,47212,-568,-501,1075,47714,9408,3920,1904,45980,399,-176,127,1389807105.845955
2,50,0,35262,-1805,-497,2138,35987,7360,6384,-2736,33462,234,184,254,1389807105.863380
3,50,0,49211,-223,-338,1029,49591,10144,4448,880,48558,396,-168,134,1389807105.863389
2,51,0,37251,-2800,-307,1805,37865,6768,8256,-2144,36023,210,203,248,1389807105.875473
3,51,0,51211,468,-313,935,51469,9536,4080,1232,51135,401,-159,133,1389807105.875482
2,52,0,39240,-2844,-140,1684,39744,6304,8640,320,38583,210,226,229,1389807105.875752
3,52,0,53210,989,-368,761,53347,8192,3056,2336,53713,400,-159,137,1389807105.875758
2,53,0,41230,-2473,-41,1523,41621,5936,7856,3696,41143,204,248,219,1389807105.893990
3,53,0,55210,981,-332,630,55224,7600,1488,1568,53713,400,-159,137,1389807105.894004
2,54,0,43219,-1192,49,1307,43499,5424,5040,5472,41143,204,248,219,1389807105.906264
3,54,0,57209,575,-267,648,57102,8224,1408,-848,56290,396,-157,136,1389807105.906273
2,55,0,45209,328,183,994,45377,4992,3744,4608,43704,193,251,212,1389807105.906543
3,55,0,59208,-151,-261,774,58980,9232,1952,-2336,58868,399,-149,138,1389807105.906549
2,56,0,47198,1111,272,625,47256,4720,4064,1920,46264,185,256,217,1389807105.924160
3,56,0,61208,-1076,-307,710,60858,9184,2304,-2384,58868,399,-149,138,1389807105.924168
2,57,0,48193,1223,287,423,49134,4144,5232,-80,48825,185,255,218,1389807105.930349
3,57,0,62207,-1417,-318,577,62735,8048,2176,-896,61447,398,-142,142,1389807105.930608
2,58,0,50182,1117,275,37,50543,3712,5840,-1104,48825,185,255,218,1389807105.942845
3,58,0,64207,-1370,-352,391,64612,7424,2752,2368,64025,395,-133,149,1389807105.942854
2,59,0,52171,854,278,-240,52421,3232,5168,-1216,51387,187,245,225,1389807105.954894
3,59,0,670,-663,-368,518,954,7680,3312,4832,1066,396,-125,153,1389807105.954904
2,60,0,54161,599,281,-459,54301,3008,3936,-336,53946,190,236,225,1389807105.955115
3,60,0,2669,144,-299,632,2832,8368,3280,4160,1066,396,-125,153,1389807105.955347
2,61,0,56150,163,284,-744,56179,3136,3776,-48,56507,191,236,225,1389807105.972741
3,61,0,4669,574,-175,566,4709,9008,2592,1040,3645,399,-122,154,1389807105.972751
2,62,0,58139,-232,302,-1115,58057,3344,4800,-768,56507,191,236,225,1389807105.984916
3,62,0,6668,540,-161,453,6587,8976,2016,-1680,6223,397,-121,153,1389807105.984931
2,63,0,60129,-499,346,-1427,59935,3456,5200,-1056,59068,199,223,221,1389807105.985229
3,63,0,8668,227,-228,450,8464,8752,2240,-2224,8801,395,-117,157,1389807105.985445
2,64,0,62118,-674,362,-1692,61813,3616,4784,-272,61629,204,219,215,1389807106.3576
3,64,0,10667,-235,-282,434,10342,8416,2912,-896,8801,395,-117,157,1389807106.3592
2,65,0,64108,-702,388,-1970,63691,3984,4448,464,61629,204,219,215,1389807106.15792
3,65,0,11667,-459,-297,409,12220,8192,2832,192,11378,397,-113,160,1389807106.15807
2,66,0,65102,-676,421,-2138,32,4400,4544,368,64190,229,212,208,1389807106.16146
3,66,0,13666,-823,-304,389,14098,8320,2672,496,13956,397,-106,161,1389807106.16156
3,67,0,15665,-876,-292,416,15976,8496,3024,1280,13956,397,-106,161,1389807106.33843
2,68,0,3545,-1664,614,-2792,3788,4272,5776,-2112,3775,242,185,183,1389807106.45717
3,68,0,17665,-624,-249,401,17854,8400,3264,2560,16533,391,-100,168,1389807106.45726
2,69,0,5534,-2326,588,-3026,5665,3856,6048,-960,3775,242,185,183,1389807106.45995
3,69,0,19664,-320,-218,371,19731,8320,2992,3056,19112,396,-95,168,1389807106.46001
2,70,0,7524,-2526,418,-3158,7544,3968,6640,1648,6334,258,178,169,1389807106.63388
3,70,0,21664,-122,-192,350,21609,8352,2736,2064,21690,398,-90,169,1389807106.63397
2,71,0,9513,-1974,218,-3259,9423,4640,6928,4224,8894,272,165,154,1389807106.75352
3,71,0,23663,-69,-154,326,23487,8336,2624,512,21690,398,-90,169,1389807106.75360
2,72,0,11503,-747,180,-3366,11301,5808,7792,5168,11455,289,137,151,1389807106.75628
3,72,0,25662,-205,-150,327,25365,8240,2368,-464,24268,388,-89,169,1389807106.75634
2,73,0,13492,347,356,-3529,13180,6720,8704,2976,11455,289,137,151,1389807106.93733
3,73,0,26662,-302,-165,337,27242,8144,2352,-256,26845,390,-84,172,1389807106.93748
2,74,0,14487,728,450,-3613,15058,7008,8592,416,14015,298,111,152,1389807106.106058
3,74,0,28661,-426,-199,341,29120,8032,2544,768,29423,392,-82,172,1389807106.106067
2,75,0,16476,1261,521,-3738,16938,6480,7984,240,16575,315,81,141,1389807106.106335
3,75,0,30661,-462,-211,367,30997,8128,1936,1264,29423,392,-82,172,1389807106.106341
2,76,0,18465,1449,518,-3854,18817,5808,6960,720,19136,330,45,143,1389807106.123801
3,76,0,32660,-499,-202,397,32874,8240,1936,1040,32000,389,-76,177,1389807106.123819
2,77,0,20455,1308,638,-3954,20696,5792,6304,48,19136,330,45,143,1389807106.134947
3,77,0,34659,-391,-191,403,34751,8192,2240,1168,34577,393,-73,177,1389807106.134953
2,78,0,22444,932,820,-4028,22574,6272,6224,-1008,21696,336,12,140,1389807106.135107
3,78,0,36659,-226,-157,428,36629,8208,2128,1440,34577,393,-73,177,1389807106.135112
2,79,0,24433,481,917,-4091,24453,6896,6256,-1328,24256,352,230,127,1389807106.152651
3,79,0,38658,-147,-158,479,38506,8288,2064,1472,37156,388,-68,179,1389807106.152656
2,80,0,26423,77,927,-4133,26331,7552,6080,-944,24256,352,230,127,1389807106.164040
3,80,0,40658,-77,-164,503,40384,8192,2208,912,39734,389,-60,179,1389807106.164047
2,81,0,28412,-245,912,-4170,28209,8160,6000,-96,26817,361,-60,118,1389807106.175614
3,81,0,41657,-76,-158,515,42262,8112,2000,416,42311,390,-54,181,1389807106.175622
2,82,0,30402,-407,891,-4231,30087,8576,6512,544,29378,361,-90,113,1389807106.175830
3,82,0,43657,-201,-166,563,44140,8176,2224,304,42311,390,-54,181,1389807106.175835
2,83,0,31396,-380,891,-4248,31965,8688,6368,1104,31940,362,-124,101,1389807106.193899
3,83,0,45656,-306,-178,607,46017,8240,2496,592,44889,390,-49,182,1389807106.193914
2,84,0,33386,-170,890,-4250,33843,8560,5760,1632,31940,362,-124,101,1389807106.206167
3,84,0,47655,-322,-193,637,47895,8320,2624,1200,47467,386,-45,182,1389807106.206176
2,85,0,35375,69,901,-4201,35721,8592,5888,992,34502,364,-159,93,1389807106.206441
3,85,0,49655,-326,-199,650,49773,8352,2848,1440,50044,386,-36,184,1389807106.206447
2,86,0,37364,495,960,-4141,37600,8768,5360,0,37063,361,-193,83,1389807106.224539
3,86,0,51654,-323,-182,659,51651,8256,2688,976,50044,386,-36,184,1389807106.224547
2,87,0,39354,830,1060,-4025,39479,9136,4160,-384,39624,358,-228,69,1389807106.224789
3,87,0,53653,-387,-173,678,53529,8176,2624,336,52623,383,-31,187,1389807106.231176
2,88,0,41343,904,1087,-3868,41358,9744,3600,-624,39624,358,-228,69,1389807106.243164
3,88,0,55653,-451,-175,701,55407,8144,2528,288,55201,383,-24,189,1389807106.243173
2,89,0,43332,768,1063,-3700,43237,9760,4240,-960,42186,351,-4,59,1389807106.255126
3,89,0,56653,-479,-178,724,57285,8192,2464,576,55201,383,-24,189,1389807106.255139
2,90,0,45322,397,918,-3481,45116,9936,3888,-1392,44748,344,-285,48,1389807106.255394
3,90,0,58652,-480,-169,765,59162,8160,2256,832,57780,381,-14,189,1389807106.255402
2,91,0,47311,231,670,-3262,46993,10128,3728,-1152,47309,334,-308,41,1389807106.272092
3,91,0,60651,-478,-136,811,61040,8080,1984,656,60358,381,-4,187,1389807106.272101
2,92,0,48306,293,560,-3164,48873,10160,1152,-624,47309,334,-308,41,1389807106.284183
3,92,0,62651,-466,-114,863,62918,7952,1936,496,62936,376,2,191,1389807106.284192
2,93,0,50295,416,403,-2903,50751,9392,240,784,49869,322,-331,35,1389807106.289701
3,93,0,64650,-426,-105,928,64796,8032,2096,656,62936,376,2,191,1389807106.289952
2,94,0,52285,35,361,-2624,52629,6960,224,1056,52430,314,-350,32,1389807106.302256
3,94,0,1113,-284,-99,993,1138,8192,2464,1184,65512,376,13,192,1389807106.302270
2,95,0,54274,-194,396,-2223,54508,4112,-16,96,52430,314,-350,32,1389807106.314451
3,95,0,3113,-195,-102,1044,3016,8304,3008,1328,2554,375,24,190,1389807106.314466
2,96,0,56263,47,462,-1617,56387,1968,-496,-384,54992,296,-363,33,1389807106.314775
3,96,0,5112,-142,-93,1081,4895,8400,3360,896,5130,375,30,190,1389807106.321167
2,97,0,58253,243,398,-793,58265,1520,-1712,-96,57553,296,-367,26,1389807106.333516
3,97,0,6112,-126,-90,1100,6773,8288,3152,224,5130,375,30,190,1389807106.333531
2,98,0,60242,93,229,105,60143,2896,-1216,-720,60114,292,-365,23,1389807106.345750
3,98,0,8111,-191,-89,1130,8651,8176,3264,-80,7707,366,40,191,1389807106.345765
2,99,0,62231,-371,61,828,62022,4480,1120,-1792,60114,292,-365,23,1389807106.346145
3,99,0,10111,-296,-87,1167,10530,8096,3344,-48,10284,366,54,194,1389807106.346156
2,100,0,63226,-622,-18,1112,63900,5440,3360,-1584,62676,292,-352,27,1389807106.363555
3,100,0,12110,-290,-77,1214,12408,8000,3408,512,10284,366,54,194,1389807106.363564
2,101,0,65216,-937,-99,1619,242,6128,3888,-176,65237,300,-340,31,1389807106.375776
3,101,0,14109,-269,-69,1265,14288,8016,3392,640,12862,366,61,192,1389807106.375786
2,102,0,1669,-918,-134,2095,2121,7440,2528,512,2262,311,-321,38,1389807106.376192
3,102,0,16109,-281,-44,1324,16166,8224,3296,80,15440,363,71,192,1389807106.376202
2,103,0,3658,-679,-187,2374,4000,9440,16,528,2262,311,-321,38,1389807106.393848
3,103,0,18108,-416,-39,1407,18044,8512,2960,-592,18018,358,85,193,1389807106.393863
2,104,0,5648,-664,-342,2450,5877,13072,-3936,1648,4823,316,-302,42,1389807106.405449
3,104,0,20107,-624,-48,1496,19923,9168,2528,-832,18018,358,85,193,1389807106.405458
2,105,0,7637,-1050,-503,2195,7755,18576,-9856,992,7384,329,-284,49,1389807106.405718
3,105,0,21107,-731,-58,1545,21801,10112,2304,-592,20596,356,100,190,1389807106.405724
2,106,0,9626,-1563,-372,1568,9634,22352,-11504,-1344,7384,329,-284,49,1389807106.423737
3,106,0,23107,-945,-55,1643,23678,11520,2608,-400,23175,350,115,187,1389807106.423746
2,107,0,11616,-3501,-171,782,11513,17312,-3584,-4352,9947,332,-274,54,1389807106.435580
3,107,0,25106,-1183,-43,1745,25555,13744,1504,-784,25752,345,132,185,1389807106.435595
2,108,0,13605,-5471,-167,509,13391,8576,6320,-4512,12509,336,-261,74,1389807106.435919
3,108,0,27105,-1662,-62,1894,27432,16528,-608,-2800,25752,345,132,185,1389807106.435930
2,109,0,14600,-5923,-224,649,15269,2560,8816,368,15070,334,-497,93,1389807106.454143
3,109,0,29105,-2310,-60,2058,29311,17232,-2560,-5488,28330,342,152,177,1389807106.454153
2,110,0,16589,-5373,-433,1261,17148,1376,7344,7712,15070,334,-497,93,1389807106.466279
3,110,0,31104,-3095,93,2035,31189,14224,-2896,-4960,30907,330,180,164,1389807106.466293
2,111,0,18579,-3273,-419,1721,19027,4064,6144,6944,17631,340,-216,112,1389807106.466621
3,111,0,33103,-3603,112,1986,33067,11296,-1168,-576,30907,330,180,164,1389807106.466631
2,112,0,20568,-1160,69,1678,20906,7904,6464,1888,20191,340,-199,116,1389807106.484246
3,112,0,35103,-2824,47,2128,34944,9552,2768,6368,33486,321,206,149,1389807106.484261
2,113,0,22557,652,443,1447,22785,9840,5392,1776,22753,345,-187,112,1389807106.490164
3,113,0,36102,-2141,43,2187,36822,8976,5184,11760,36063,314,229,137,1389807106.490456
2,114,0,24547,1864,419,1316,24663,9680,6336,32,22753,345,-187,112,1389807106.502658
3,114,0,38102,-711,165,2376,38700,9600,6256,11376,38641,305,243,132,1389807106.502667
2,115,0,26536,2915,416,1239,26542,9600,4992,-3104,25314,353,-184,102,1389807106.514750
3,115,0,40101,832,380,2548,40578,10864,6640,6992,38641,305,243,132,1389807106.514776
2,116,0,28525,2762,185,1339,28420,9440,2304,-5120,27874,353,-179,97,1389807106.514972
3,116,0,42101,2015,485,2449,42455,11184,7888,2416,41218,289,1,138,1389807106.515163
2,117,0,30515,1475,-40,1301,30298,9408,352,-6112,30436,356,-172,94,1389807106.533015
3,117,0,44100,2646,403,2267,44333,10608,8592,-224,43795,277,261,151,1389807106.533044
2,118,0,31509,629,-88,1231,32177,9344,-272,-4832,30436,356,-172,94,1389807106.544623
3,118,0,46099,2266,272,2146,46211,9840,8736,-1024,46372,267,265,161,1389807106.544637
2,119,0,33499,-988,-119,1043,34056,8480,752,-2416,32997,360,-165,96,1389807106.544947
3,119,0,48099,1401,182,2081,48088,9120,8656,-320,46372,267,265,161,1389807106.550483
2,120,0,35488,-1743,-169,869,35935,7360,1792,608,35557,358,-153,97,1389807106.562059
3,120,0,50098,221,183,1917,49966,8400,7104,-544,48950,258,265,167,1389807106.562067
2,121,0,37478,-1636,-157,823,37815,6880,2912,2704,35557,358,-153,97,1389807106.574208
3,121,0,51098,-330,154,1838,51843,7344,5008,-1424,51528,245,280,163,1389807106.574223
2,122,0,39467,-1274,1,819,39693,7536,3072,2160,38118,361,-142,99,1389807106.580406
3,122,0,53097,-1062,69,1546,53719,6304,4384,-1264,51528,245,280,163,1389807106.580682
2,123,0,41456,-873,146,839,41572,8672,2192,832,40679,364,-131,102,1389807106.592980
3,123,0,55096,-1359,104,1236,55597,5568,5024,160,54105,236,290,159,1389807106.592990
2,124,0,43446,-707,126,824,43451,9392,1520,-496,43240,364,-127,103,1389807106.604909
3,124,0,57096,-1408,191,915,57475,5024,6176,1520,56683,227,297,148,1389807106.604918
2,125,0,45435,-670,65,755,45329,9296,1072,-1168,43240,364,-127,103,1389807106.605121
3,125,0,59095,-1187,194,591,59352,4480,6976,2336,59259,221,308,138,1389807106.605364
2,126,0,47424,-648,75,659,47210,8464,1616,-1504,45801,363,-113,103,1389807106.623139
3,126,0,61095,-824,185,331,61230,4160,7152,2448,59259,221,308,138,1389807106.623148
2,127,0,48419,-553,102,620,49089,7520,3552,-1696,48361,363,-110,99,1389807106.635416
3,127,0,63094,-615,171,111,63107,4080,6080,2048,61836,221,310,130,1389807106.635430
2,128,0,50409,-56,117,577,50968,7200,3856,-512,50922,365,-106,97,1389807106.635750
3,128,0,65093,-446,147,-102,64984,4080,5456,1264,64413,222,310,131,1389807106.635761
2,129,0,52398,482,74,595,52848,7568,2944,688,50922,365,-106,97,1389807106.654158
3,129,0,557,-304,150,-225,1326,3952,5408,512,1455,222,311,127,1389807106.654168
2,130,0,54387,876,58,642,54727,8240,1904,256,53482,364,-101,98,1389807106.660322
3,130,0,2556,50,187,-523,3204,3920,6016,208,1455,222,311,127,1389807106.660639
2,131,0,56377,1004,91,599,56605,8768,928,-576,56044,364,-98,100,1389807106.672603
3,131,0,4556,411,269,-815,5082,3856,6512,608,4033,222,301,127,1389807106.672612
2,132,0,58366,579,147,509,58484,8960,624,-1520,58605,368,-96,95,1389807106.684681
3,132,0,6555,566,347,-1078,6960,3904,6432,864,6611,230,293,129,1389807106.684696
2,133,0,60355,-133,173,440,60362,8704,656,-1520,58605,368,-96,95,1389807106.684999
3,133,0,8555,489,352,-1308,8837,3856,6368,560,6611,230,293,129,1389807106.685308
2,134,0,62345,-731,130,395,62241,8496,1344,-1152,61166,364,-95,97,1389807106.703431
3,134,0,10554,312,333,-1507,10715,3776,6160,-48,9188,239,285,127,1389807106.703446
2,135,0,63339,-896,122,372,64121,8272,2176,-736,63727,363,-84,94,1389807106.715771
3,135,0,12553,226,312,-1710,12593,3648,6144,32,11765,248,278,128,1389807106.715786
2,136,0,65329,-740,98,356,463,8016,2560,112,63727,363,-84,94,1389807106.716166
3,136,0,14553,359,285,-1969,14471,3568,6080,1312,14342,260,265,128,1389807106.716178
2,137,0,1782,-132,58,381,2342,7760,2336,688,751,369,-83,90,1389807106.734447
3,137,0,15552,512,261,-2102,16349,3344,6400,2416,14342,260,265,128,1389807106.734462
2,138,0,3772,522,101,438,4220,7568,1760,-464,3311,365,-77,89,1389807106.740775
3,138,0,17552,1016,209,-2304,18227,3376,7408,3312,16919,270,505,130,1389807106.741175
2,139,0,5761,841,167,457,6099,7856,1280,-2080,5872,365,-75,92,1389807106.753379
3,139,0,19551,1494,225,-2462,20105,3664,6816,3088,19497,284,230,137,1389807106.753394
2,140,0,7750,748,154,440,7977,8096,896,-2464,5872,365,-75,92,1389807106.765660
3,140,0,21550,1678,254,-2580,21982,4016,5584,2160,22073,296,203,145,1389807106.765675
2,141,0,9740,325,136,432,9856,8272,1088,-2064,8433,368,-73,89,1389807106.765999
3,141,0,23550,1752,305,-2731,23861,4528,5440,800,22073,296,203,145,1389807106.766010
2,142,0,11729,-95,102,425,11734,8528,1440,-1296,10995,369,-71,87,1389807106.783788
3,142,0,25549,2067,359,-2934,25739,4960,6464,288,24651,313,178,152,1389807106.783797
2,143,0,13718,-244,52,438,13611,8464,1296,-240,13558,367,-65,87,1389807106.796076
3,143,0,27549,2189,427,-3181,27617,4848,7472,512,27229,321,153,158,1389807106.796086
2,144,0,14713,-251,36,448,15490,8288,1488,-112,13558,367,-65,87,1389807106.796354
3,144,0,29548,1796,547,-3389,29495,4144,6768,336,27229,321,153,158,1389807106.796361
2,145,0,16702,-176,63,451,17368,7856,1696,-352,16119,374,-62,88,1389807106.814412
3,145,0,30548,1437,625,-3453,31373,4192,5856,-976,29808,339,120,159,1389807106.814426
2,146,0,18692,31,93,479,19246,7664,1968,-224,18681,371,-60,90,1389807106.814732
3,146,0,32547,639,734,-3464,33250,5920,6240,-1856,32385,355,91,157,1389807106.821070
2,147,0,20681,297,109,521,21125,7728,1888,-176,21242,367,-54,87,1389807106.833077
3,147,0,34546,-55,681,-3461,35127,7600,7280,-1008,34963,365,67,149,1389807106.833086
2,148,0,22671,595,118,557,23003,7792,2016,-400,21242,367,-54,87,1389807106.845158
3,148,0,36546,-623,588,-3619,37004,8064,7472,1264,34963,365,67,149,1389807106.845168
2,149,0,24660,765,110,550,24881,7664,2080,112,23804,372,-49,87,1389807106.845436
3,149,0,38545,-988,470,-3835,38882,7440,6832,3168,37541,377,38,146,1389807106.845442
2,150,0,26649,755,77,601,26759,8016,1152,-272,26364,372,-49,86,1389807106.863553
3,150,0,40544,-996,366,-3978,40759,6864,6880,3712,40119,386,7,138,1389807106.863562
2,151,0,28639,1045,57,670,28637,8352,1328,-464,26364,372,-49,86,1389807106.875770
3,151,0,42544,-589,212,-3972,42637,6912,6832,3264,42698,389,239,135,1389807106.875779
2,152,0,30628,1006,76,702,30515,8224,1696,-944,28925,370,-42,84,1389807106.876153
3,152,0,44543,-30,-5,-3924,44515,7296,6400,2608,42698,389,239,135,1389807106.876162
2,153,0,31623,869,82,718,32393,7952,1648,-1472,31486,372,-36,83,1389807106.893901
3,153,0,45543,227,-111,-3904,46394,7632,6336,2112,45275,397,-58,138,1389807106.893910
2,154,0,33612,807,91,752,34271,7776,1616,-672,34047,372,-35,85,1389807106.906065
3,154,0,47542,710,-284,-3894,48272,8112,5600,1776,47853,398,-86,140,1389807106.906075
2,155,0,35601,705,68,801,36149,7840,1760,-512,34047,372,-35,85,1389807106.906312
3,155,0,49542,911,-337,-3834,50150,8912,5200,1264,47853,398,-86,140,1389807106.906318
2,156,0,37591,716,62,844,38028,8048,1760,-848,36608,364,-32,84,1389807106.924274
3,156,0,51541,834,-321,-3771,52027,9584,6080,448,50431,398,-119,142,1389807106.924282
2,157,0,39580,696,84,885,39907,8176,1824,-992,39169,367,-19,85,1389807106.930324
3,157,0,53540,659,-241,-3742,53905,10048,5808,288,53008,393,-150,143,1389807106.930577
2,158,0,41570,656,99,910,41786,8176,2208,-1040,41729,367,-17,86,1389807106.942569
3,158,0,55540,257,-198,-3730,55783,10240,5232,80,55587,393,-182,143,1389807106.942578
2,159,0,43559,727,107,920,43665,8096,2736,-832,41729,367,-17,86,1389807106.954724
3,159,0,57539,-54,-183,-3706,57662,10208,5040,-160,55587,393,-182,143,1389807106.954733
2,160,0,45548,653,108,937,45543,7968,2960,-736,44290,363,-13,83,1389807106.954984
3,160,0,59539,-305,-154,-3641,59540,10256,3696,224,58165,374,-208,148,1389807106.955188
2,161,0,46543,666,89,954,47421,8032,2976,-512,46849,363,-3,86,1389807106.972933
3,161,0,60538,-377,-138,-3587,61418,10208,3200,944,60744,374,-234,148,1389807106.972942
2,162,0,48532,690,75,973,49299,8064,2416,-816,46849,363,-3,86,1389807106.985170
3,162,0,62538,-205,-107,-3461,63296,9952,3808,1616,63321,358,-260,153,1389807106.985248
2,163,0,50522,595,84,979,51178,8064,2640,-1168,49411,363,-255,84,1389807106.985569
3,163,0,64537,198,-9,-3308,65174,9888,3488,1152,63321,358,-260,153,1389807106.985589
2,164,0,52511,415,64,949,53056,7792,3984,-2048,51972,360,9,86,1389807107.3563
3,164,0,1000,421,115,-3088,1517,9808,2096,-672,363,358,-288,148,1389807107.3572
2,165,0,54501,560,101,967,54935,7696,2752,-1344,54533,360,19,85,1389807107.15636
3,165,0,3000,324,-18,-2785,3395,8336,1440,-2192,2941,341,-306,147,1389807107.15677
2,166,0,56490,483,111,1021,56814,7680,2992,-1648,54533,360,19,85,1389807107.15997
3,166,0,4999,254,-298,-2395,5274,6192,176,-1344,2941,341,-306,147,1389807107.16004
2,167,0,58479,595,130,1035,58692,7792,2992,-2096,57094,361,25,85,1389807107.33650
3,167,0,6998,221,-340,-1784,7152,4640,560,496,5520,341,-316,149,1389807107.33665
2,168,0,60469,557,126,1074,60571,8192,2880,-2016,59655,356,33,86,1389807107.45841
3,168,0,8998,448,-134,-1096,9030,3744,512,864,8097,323,-325,153,1389807107.45856
2,169,0,62458,468,138,1065,62450,8416,3344,-2000,62217,356,42,88,1389807107.46181
3,169,0,9997,586,-19,-719,10907,4368,-144,-656,10675,323,-331,149,1389807107.46191
2,170,0,63453,459,143,1067,64329,8624,3104,-1120,62217,356,42,88,1389807107.63807
3,170,0,11997,680,17,98,12784,5872,1952,-928,10675,323,-331,149,1389807107.63817
2,171,0,65442,520,156,1142,672,8608,3056,-48,64778,354,49,89,1389807107.76067
3,171,0,13996,835,-149,770,14662,7040,3520,768,13252,327,-326,145,1389807107.76076
2,172,0,1895,531,123,1192,2550,8464,2736,736,1803,355,58,86,1389807107.76346
3,172,0,15996,897,-238,1204,16540,7552,4208,2256,15830,330,-318,142,1389807107.76352
2,173,0,3885,733,81,1260,4428,8368,2496,1216,4363,352,68,87,1389807107.94137
3,173,0,17995,1017,-227,1514,17949,7936,3712,2816,18410,330,-311,140,1389807107.94151
2,174,0,5874,945,102,1331,6307,8736,2128,960,4363,352,68,87,1389807107.100433
3,174,0,19994,1359,-170,1746,20297,9136,2384,2128,18410,330,-311,140,1389807107.100752
2,175,0,7864,1114,117,1449,8186,9392,1312,480,6925,350,77,96,1389807107.112361
3,175,0,21994,1669,-63,1824,22176,12096,-1632,176,20988,338,-307,132,1389807107.112375
2,176,0,9853,1133,49,1551,10064,10160,1664,-400,9486,346,84,97,1389807107.124620
3,176,0,23993,1457,-49,1683,24055,17552,-7296,-3264,23566,345,-296,126,1389807107.124628
2,177,0,11842,1114,-25,1625,11943,11136,1664,-1664,9486,346,84,97,1389807107.124876
3,177,0,24993,1295,-91,1431,25933,19728,-384,-7264,23566,345,-296,126,1389807107.131136
2,178,0,13832,978,-74,1746,13821,12656,1472,-1792,12047,339,98,96,1389807107.143518
3,178,0,26992,2307,-143,831,27812,13648,3808,-3760,26144,346,-294,125,1389807107.143533
2,179,0,14826,832,-95,1810,15699,14464,1584,-768,14608,333,112,100,1389807107.155731
3,179,0,28992,2990,-182,644,29689,5088,5536,-624,28723,353,-299,110,1389807107.155739
2,180,0,16816,768,-111,1911,17577,15728,464,1584,17169,327,121,104,1389807107.155956
3,180,0,30991,2155,-158,658,31567,2208,3248,-4880,31300,358,-298,104,1389807107.155962
2,181,0,18805,1226,-64,2121,19455,15840,-2896,3168,17169,327,121,104,1389807107.174013
3,181,0,32990,360,-187,1300,33444,5808,-256,-10704,31300,358,-298,104,1389807107.174022
2,182,0,20794,2514,13,2419,21333,13984,-3824,2944,19730,320,137,110,1389807107.185785
3,182,0,34990,-1387,-377,1785,35321,10224,2192,-8816,33877,357,-284,108,1389807107.185795
2,183,0,22784,3581,38,2575,23211,11264,1104,544,22290,303,146,129,1389807107.186104
3,183,0,36989,-2485,-719,1655,37198,11888,4736,1136,36455,363,-264,119,1389807107.186110
2,184,0,24773,3231,22,2520,25089,8688,4080,-3360,24851,303,149,140,1389807107.204233
3,184,0,38988,-2834,-852,1362,38606,10624,6784,9392,39034,367,-500,135,1389807107.204248
2,185,0,26763,2637,47,2451,26968,6640,5392,-3360,24851,303,149,140,1389807107.210522
3,185,0,39988,-2585,-831,1235,40952,7824,4832,14208,39034,367,-500,135,1389807107.210828
2,186,0,28752,1295,-56,2448,28377,6048,5840,-2512,27411,296,165,149,1389807107.223150
3,186,0,41987,-1286,-492,1026,42829,5808,4384,9776,41611,366,-236,144,1389807107.223165
2,187,0,29747,705,-102,2436,30255,6368,7792,-2912,29972,285,179,159,1389807107.235562
3,187,0,43987,988,122,875,44237,6096,3280,5744,44189,367,-225,139,1389807107.235576
2,188,0,31736,98,-87,2338,32133,6784,7488,-3808,32532,277,191,156,1389807107.235899
3,188,0,45986,1435,131,1070,46114,8976,48,-2304,44189,367,-225,139,1389807107.235909
2,189,0,33725,-237,1,2150,34012,7024,5856,-3200,32532,277,191,156,1389807107.254233
3,189,0,47986,-277,-142,1273,47991,11120,784,-12368,46766,375,-222,139,1389807107.254248
2,190,0,35715,-670,146,1839,35891,6816,5328,-2064,35093,263,205,154,1389807107.259707
3,190,0,49985,-1364,-347,1008,49868,10064,1552,-10496,49345,375,-208,143,1389807107.259830
2,191,0,37704,-966,332,1458,37770,6288,5856,-528,37654,255,219,147,1389807107.271314
3,191,0,51984,-2231,-411,919,51744,8512,1856,-1088,51922,375,-197,151,1389807107.271323
2,192,0,39693,-630,521,1125,39649,5232,6592,2496,37654,255,219,147,1389807107.283455
3,192,0,53984,-2488,-259,892,53622,7280,3168,4736,51922,375,-197,151,1389807107.283470
2,193,0,41683,380,547,847,41528,4672,5024,5968,40215,250,222,139,1389807107.295059
3,193,0,54983,-1979,-214,926,55499,7328,3232,7472,54499,375,-180,154,1389807107.295068
2,194,0,43672,1780,541,535,43406,4688,5744,5760,42776,248,222,142,1389807107.295307
3,194,0,56983,-340,-226,1016,57377,8272,1136,7920,57077,373,-171,162,1389807107.295312
2,195,0,45662,2655,635,252,45285,4976,5216,3216,45337,246,219,153,1389807107.312617
3,195,0,58982,275,-103,994,59255,9024,1728,3376,59654,377,-163,159,1389807107.312632
2,196,0,46656,2812,657,106,47163,5040,4672,1360,45337,246,219,153,1389807107.324887
3,196,0,60981,189,67,825,61133,8928,1760,-688,59654,377,-163,159,1389807107.324896
2,197,0,48646,2907,653,-220,49042,4976,4256,720,47897,246,205,164,1389807107.325161
3,197,0,62981,-172,24,802,63011,8256,1712,-576,62231,376,-161,161,1389807107.325167
2,198,0,50635,2476,610,-466,50919,5056,3456,224,50458,253,193,168,1389807107.343503
3,198,0,64980,-528,-139,771,64889,7520,1840,1392,64808,382,-151,160,1389807107.343518
2,199,0,52624,1859,649,-692,52798,5184,2656,-272,53019,253,185,176,1389807107.355758
3,199,0,1444,-594,-140,753,1230,7392,2160,2496,64808,382,-151,160,1389807107.355767
2,200,0,54614,1193,780,-953,54676,5088,2992,-208,53019,253,185,176,1389807107.356068
3,200,0,3443,-372,-24,760,3108,7712,3008,2624,1851,379,-143,164,1389807107.356074
2,201,0,56603,285,996,-1252,56554,5088,3792,-576,55581,262,172,172,1389807107.374275
3,201,0,4443,-248,19,732,4986,7920,3248,2112,4429,383,-133,163,1389807107.374283
2,202,0,58593,-683,1160,-1505,58432,4976,4336,-528,58141,269,163,161,1389807107.380508
3,202,0,6442,-18,60,688,6863,8032,2880,1216,7007,385,-131,163,1389807107.380823
2,203,0,60582,-1518,1195,-1740,60310,5104,3712,496,60701,280,157,148,1389807107.393103
3,203,0,8441,128,34,654,8741,8224,2320,880,7007,385,-131,163,1389807107.393118
2,204,0,62571,-2158,1201,-1948,62189,5520,4432,2480,60701,280,157,148,1389807107.405105
3,204,0,10441,123,-2,648,10619,8496,3136,816,9585,382,-124,163,1389807107.405115
2,205,0,63566,-2360,1184,-2070,64068,6016,6256,4128,63262,291,151,125,1389807107.405345
3,205,0,12440,146,25,619,12497,8544,2928,496,12163,384,-120,160,1389807107.405351
2,206,0,19,-1998,1077,-2275,411,6496,7520,6528,288,303,134,108,1389807107.423427
3,206,0,14440,44,68,593,14375,8448,2784,-400,14740,386,-117,162,1389807107.423436
2,207,0,2009,-756,943,-2383,2289,7472,8240,8640,288,303,134,108,1389807107.435739
3,207,0,16439,-108,74,533,16253,8336,2944,-736,14740,386,-117,162,1389807107.435754
2,208,0,3998,938,906,-2435,4168,8112,8832,8160,2849,313,122,99,1389807107.436127
3,208,0,18438,-196,40,506,18131,8304,2656,384,17319,382,-115,160,1389807107.436137
2,209,0,5987,2575,986,-2526,6046,7712,8192,5856,5409,323,95,99,1389807107.454209
3,209,0,19438,-211,34,520,20008,8272,3248,1648,19896,385,-103,163,1389807107.454218
2,210,0,7977,3489,1147,-2622,7924,6608,7088,3632,7970,343,67,95,1389807107.460319
3,210,0,21437,-57,46,490,21886,8128,3184,2240,19896,385,-103,163,1389807107.460571
2,211,0,9966,3496,1336,-2696,9802,5536,5824,1328,7970,343,67,95,1389807107.472606
3,211,0,23437,120,67,456,23763,8144,3088,1584,22474,388,-104,161,1389807107.472659
2,212,0,11956,2840,1511,-2723,11679,5280,5104,-272,10531,343,33,94,1389807107.484441
3,212,0,25436,172,84,420,25641,8112,3152,736,25052,385,-102,161,1389807107.484455
2,213,0,12950,2399,1584,-2718,13558,6080,4816,-544,13092,360,11,82,1389807107.484748
3,213,0,27435,152,97,417,27519,8256,3088,544,27629,388,-98,160,1389807107.490941
2,214,0,14940,1498,1625,-2727,15436,7552,4688,448,15653,360,243,68,1389807107.503109
3,214,0,29435,29,101,381,29398,8384,2800,576,27629,388,-98,160,1389807107.503119
2,215,0,16929,828,1573,-2778,17314,8496,4880,1840,15653,360,243,68,1389807107.515189
3,215,0,31434,-163,90,362,31276,8480,2896,-256,30207,388,-96,156,1389807107.515215
2,216,0,18918,489,1454,-2860,19192,8672,5200,2608,18214,367,-45,51,1389807107.515455
3,216,0,33434,-267,126,357,33155,8576,3056,-240,32784,387,-91,154,1389807107.515461
2,217,0,20908,361,1335,-2926,21071,8320,5440,2512,20774,375,-61,40,1389807107.533488
3,217,0,34433,-303,137,354,35033,8560,3088,656,35362,387,-86,154,1389807107.533503
2,218,0,22897,357,1250,-3006,22949,7792,5184,2080,20774,375,-61,40,1389807107.545647
3,218,0,36433,-290,141,337,36910,8368,2752,1104,35362,387,-86,154,1389807107.545661
2,219,0,24886,308,1174,-3090,24828,7680,5152,1520,23334,375,-94,30,1389807107.545972
3,219,0,38432,-213,137,310,38788,8272,2272,1104,37940,390,-88,153,1389807107.545983
2,220,0,26876,195,1115,-3204,26706,7872,5200,848,25895,377,-119,16,1389807107.563271
3,220,0,40431,-138,142,327,40666,8192,2528,1056,40517,390,-79,154,1389807107.563280
2,221,0,28865,116,1052,-3305,28584,8064,5072,736,28456,378,-144,4,1389807107.575501
3,221,0,42431,-111,173,318,42543,7984,2336,1040,40517,390,-79,154,1389807107.575510
2,222,0,29860,74,1013,-3349,30461,8176,5072,1136,28456,378,-144,4,1389807107.575779
3,222,0,44430,-113,199,312,44421,8096,2592,1136,43094,390,-78,154,1389807107.575785
2,223,0,31849,62,906,-3428,32339,8096,5200,1520,31017,377,-173,-3,1389807107.594168
3,223,0,46430,32,210,321,46300,8144,2656,1616,45672,392,-73,151,1389807107.594183
2,224,0,33839,236,828,-3473,34217,8048,5136,1968,33578,370,-203,-10,1389807107.599820
3,224,0,48429,115,203,330,48178,8144,2640,1504,48250,393,-72,147,1389807107.600068
2,225,0,35828,565,761,-3492,36095,8144,4832,2240,36140,359,-229,-19,1389807107.611776
3,225,0,49429,124,201,331,50055,8224,2496,896,48250,393,-72,147,1389807107.611790
2,226,0,37817,1021,731,-3502,37973,8320,4576,2176,36140,359,-229,-19,1389807107.623437
3,226,0,51428,94,218,333,51933,8256,2784,608,50827,392,-69,145,1389807107.623446
2,227,0,39807,1476,752,-3482,39852,8512,4000,1744,38701,359,-4,-26,1389807107.635753
3,227,0,53427,63,230,313,53810,8112,2464,608,53405,394,-66,145,1389807107.635767
2,228,0,41796,1748,772,-3449,41731,8784,2704,1136,41261,341,-288,-42,1389807107.636125
3,228,0,55427,-8,222,326,55687,8032,2416,464,55983,394,-66,141,1389807107.636135
2,229,0,43786,1756,793,-3425,43609,8656,1680,48,43822,341,-313,-57,1389807107.654232
3,229,0,57426,49,217,361,57565,8096,2016,320,55983,394,-66,141,1389807107.654247
2,230,0,45775,1525,820,-3332,45488,8288,992,-1104,43822,341,-313,-57,1389807107.660500
3,230,0,59425,37,232,397,59443,8128,2208,-96,58561,396,-64,141,1389807107.660816
2,231,0,46770,1282,831,-3253,47365,7744,2960,-2832,46382,328,-337,-67,1389807107.672747
3,231,0,61425,94,245,423,61321,8160,2208,-336,61139,394,-55,138,1389807107.672756
2,232,0,48759,808,825,-3035,49244,7280,3680,-4112,48944,313,-360,-80,1389807107.685076
3,232,0,63424,70,251,456,63198,8064,2448,-384,61139,394,-55,138,1389807107.685086
2,233,0,50748,508,666,-2804,51122,7728,1216,-2224,48944,313,-360,-80,1389807107.685352
3,233,0,64424,60,248,485,65075,7984,2528,-224,63717,394,-52,137,1389807107.685359
2,234,0,52738,248,375,-2450,53000,8912,-400,-176,51506,294,-375,-86,1389807107.703197
3,234,0,887,163,261,543,1417,7920,2240,224,759,394,-51,136,1389807107.703206
2,235,0,54727,324,84,-2231,54878,8800,704,816,54067,287,-392,-89,1389807107.715338
3,235,0,2887,227,282,622,3294,7792,2320,384,3337,401,-40,130,1389807107.715416
2,236,0,56716,504,-39,-2029,56756,7056,1648,1920,56629,277,-404,-93,1389807107.715768
3,236,0,4886,211,310,683,5171,7856,2384,64,3337,401,-40,130,1389807107.715774
2,237,0,58706,1083,-21,-1696,58634,4800,2032,4224,56629,277,-404,-93,1389807107.733550
3,237,0,6885,263,327,744,7049,8096,2624,416,5915,401,-36,127,1389807107.733565
2,238,0,60695,2121,97,-1197,60513,3568,1488,5392,59189,263,-412,-99,1389807107.745411
3,238,0,8885,296,323,777,8927,8160,3104,1008,8493,397,-31,129,1389807107.745426
2,239,0,61690,2855,182,-922,62391,3968,960,2944,61751,256,-414,-117,1389807107.745738
3,239,0,10884,340,333,804,10805,8208,3120,944,11071,397,-24,127,1389807107.745749
2,240,0,63679,4298,396,-373,64270,5696,16,-864,64312,252,-411,-150,1389807107.763557
3,240,0,12883,366,348,825,12682,8304,2880,400,11071,397,-24,127,1389807107.763566
2,241,0,133,4709,476,122,613,6992,-224,-3408,64312,252,-411,-150,1389807107.775778
3,241,0,13883,369,354,846,14561,8288,2992,-352,13648,400,-23,123,1389807107.775787
2,242,0,2122,3727,356,460,2491,7456,32,-5152,1336,252,-400,-176,1389807107.776065
3,242,0,15883,257,382,884,16439,8368,2560,-1040,16225,400,-13,118,1389807107.776072
2,243,0,4111,2292,102,710,4370,7264,-720,-5056,3898,255,-390,-190,1389807107.794135
3,243,0,17882,26,391,926,18318,8400,2208,-1104,16225,400,-13,118,1389807107.794149
2,244,0,6101,961,-136,923,6248,6896,-768,-3088,6460,261,-380,-195,1389807107.800418
3,244,0,19881,-46,395,972,20195,8496,2176,16,18804,397,-7,117,1389807107.800734
2,245,0,8090,-60,-220,1067,8127,6848,1136,-1712,6460,261,-380,-195,1389807107.812363
3,245,0,21881,71,440,1038,22073,8720,2576,1376,21381,397,-250,112,1389807107.812372
2,246,0,10080,-680,-235,1136,10005,7200,2704,-672,9021,262,-374,-192,1389807107.824597
3,246,0,23880,335,526,1105,23950,8832,2816,1952,23959,397,11,107,1389807107.824606
2,247,0,12069,-790,-295,1219,11884,7792,2864,880,11583,267,-365,-185,1389807107.824845
3,247,0,25879,517,584,1166,25827,9136,2256,1120,23959,397,11,107,1389807107.831096
2,248,0,13064,-771,-336,1267,13763,8224,3136,1792,11583,267,-365,-185,1389807107.843485
3,248,0,27879,570,657,1238,27705,9504,1776,-656,26535,397,19,105,1389807107.843500
2,249,0,15053,-633,-409,1337,15641,8352,3168,1456,14146,277,-357,-179,1389807107.855731
3,249,0,28878,661,690,1266,29582,9712,2304,-1168,29114,400,33,100,1389807107.855740
2,250,0,17042,-248,-393,1328,17519,9040,1408,1536,16707,285,-349,-171,1389807107.856156
3,250,0,30878,736,742,1294,31460,9728,3072,-176,31692,400,38,91,1389807107.856165
2,251,0,19032,414,-326,1211,19397,11312,-2368,1712,19268,289,-341,-172,1389807107.874452
3,251,0,32877,600,683,1325,33337,9680,2448,-176,31692,400,38,91,1389807107.874461
2,252,0,21021,1402,-157,889,21276,15728,-8928,2384,19268,289,-341,-172,1389807107.874707
3,252,0,34877,421,687,1413,35215,10576,1120,-1280,34269,395,47,92,1389807107.880941
2,253,0,23010,2021,17,207,23155,18880,-8352,4448,21828,301,-333,-183,1389807107.893184
3,253,0,36876,193,712,1596,37092,11888,1184,-1504,36846,393,65,83,1389807107.893193
2,254,0,25000,758,37,-440,25033,14560,-1296,912,24388,298,-335,-187,1389807107.905105
3,254,0,38875,-78,728,1711,38971,12992,1296,-944,36846,393,65,83,1389807107.905115
2,255,0,26989,-158,-94,-386,26912,8640,3040,-2240,26949,299,-337,-186,1389807107.905304
3,255,0,40875,-373,745,1787,40849,13712,464,-784,39424,396,77,79,1389807107.905311
2,0,0,28979,-114,-237,209,28790,4976,3616,-2560,26949,299,-337,-186,1389807107.922838
3,0,0,42874,-587,768,1859,42726,13568,-496,-864,42002,391,92,71,1389807107.922847
2,1,0,29973,3,-257,537,30668,4928,1952,-3008,29510,299,-330,-186,1389807107.935067
3,1,0,43874,-617,797,1859,44604,12672,-336,-80,44579,387,111,59,1389807107.935076
2,2,0,31963,173,-229,1035,32547,7680,-1920,-3808,32071,302,-322,-184,1389807107.935343
3,2,0,45873,-594,875,1837,46481,12064,1040,1040,44579,387,111,59,1389807107.935349
2,3,0,33952,-293,-210,1043,34424,10192,-1376,-4720,34632,302,-318,-178,1389807107.953515
3,3,0,47872,-685,955,1928,48359,12112,1568,1248,47158,385,127,53,1389807107.953529
2,4,0,35941,-1411,-40,663,36303,9424,2304,-4816,34632,302,-318,-178,1389807107.965738
3,4,0,49872,-829,1074,2083,50237,12432,2064,1552,49736,378,143,39,1389807107.965747
2,5,0,37931,-2040,-62,461,38182,8064,3088,-3792,37193,309,-318,-172,1389807107.966150
3,5,0,51871,-852,1279,2146,52115,12048,3760,3392,52314,374,164,29,1389807107.966159
2,6,0,39920,-1669,-223,481,40059,6768,1856,-1776,39754,311,-316,-164,1389807107.984183
3,6,0,53871,-586,1512,2101,53993,11440,4992,5840,52314,374,164,29,1389807107.984192
2,7,0,41909,-1491,-255,532,41938,6560,1040,-1696,39754,311,-316,-164,1389807107.990350
3,7,0,55870,78,1722,2090,55871,10848,5888,8016,54892,367,178,13,1389807107.990599
2,8,0,43899,-1133,-110,520,43818,7456,1296,-1376,42316,313,-317,-153,1389807108.2955
3,8,0,57869,960,1915,1979,57748,9456,6960,8688,57469,361,192,3,1389807108.2970
2,9,0,44894,-813,-53,514,45696,8464,1552,176,44877,316,-316,-150,1389807108.14661
3,9,0,59869,2010,2098,1765,59625,7792,7984,8112,57469,361,192,3,1389807108.14702
2,10,0,46883,-175,-43,492,47575,8912,1472,1152,47438,320,-304,-148,1389807108.15043
3,10,0,60868,2523,2140,1654,61503,6240,8432,6704,60046,352,205,0,1389807108.15299
2,11,0,48872,273,-61,490,49453,8560,1120,832,47438,320,-304,-148,1389807108.33326
3,11,0,62868,3421,2123,1401,63380,5104,8416,4912,62623,350,212,0,1389807108.33341
2,12,0,50862,517,-52,512,51331,8320,832,240,49999,317,-308,-151,1389807108.45572
3,12,0,64867,4082,2009,1191,65258,4480,7808,3440,65201,345,213,5,1389807108.45587
2,13,0,52851,627,-10,529,53210,8544,496,-96,52559,320,-300,-156,1389807108.45898
3,13,0,1331,4420,1867,1105,1600,4432,7648,2528,65201,345,213,5,1389807108.45909
2,14,0,54840,652,41,535,55089,8880,400,-656,55119,322,-291,-157,1389807108.63414
3,14,0,3330,4440,1826,1030,3479,4656,7488,2832,2242,345,215,15,1389807108.63423
2,15,0,56830,464,50,484,56967,8608,64,-1808,55119,322,-291,-157,1389807108.75530
3,15,0,5329,3933,1902,788,5357,4896,8064,2496,4820,342,219,21,1389807108.75539
2,16,0,58819,104,28,430,58845,8192,64,-3136,57680,322,-293,-158,1389807108.75804
3,16,0,7329,3155,1953,450,7235,4384,8112,1168,7399,343,211,24,1389807108.75810
2,17,0,60809,-295,23,387,60724,7696,400,-3632,60242,327,-284,-156,1389807108.94007
3,17,0,9328,2436,2042,235,9113,3856,7776,-352,7399,343,211,24,1389807108.94022
2,18,0,61803,-521,6,376,62602,7600,768,-3152,60242,327,-284,-156,1389807108.105679
3,18,0,10328,2099,2102,204,10991,3840,7408,144,9976,341,205,18,1389807108.105688
2,19,0,63793,-794,-32,358,64480,7872,1328,-2368,62803,331,-285,-154,1389807108.105956
3,19,0,12327,1408,2160,225,12869,4096,7744,2384,12554,343,210,11,1389807108.105962
2,20,0,246,-695,-59,355,822,8016,1648,-1824,65364,328,-282,-149,1389807108.123078
3,20,0,14326,1030,2156,139,14746,4144,8336,4656,12554,343,210,11,1389807108.123087
2,21,0,2235,-386,-54,339,2700,8128,1488,-1344,2390,329,-281,-150,1389807108.135379
3,21,0,16326,1149,2179,-56,16623,4128,8528,5984,15132,347,208,-2,1389807108.135394
2,22,0,4225,-1,-45,336,4578,8224,1664,-1408,2390,329,-281,-150,1389807108.135718
3,22,0,18325,1535,2212,-173,18501,4176,7936,5888,17709,349,204,-16,1389807108.135728
2,23,0,6214,328,-49,340,6456,8240,1168,-976,4950,334,-278,-148,1389807108.154155
3,23,0,20325,1860,2268,-257,20378,4272,7680,4912,20288,352,207,-23,1389807108.154169
2,24,0,8203,471,-42,342,8334,8208,528,-1104,7512,331,-273,-150,1389807108.160447
3,24,0,22324,1933,2303,-416,22255,4288,7664,3728,20288,352,207,-23,1389807108.160763
2,25,0,10193,510,-43,336,10212,8160,16,-1440,10075,334,-271,-150,1389807108.172786
3,25,0,24323,1936,2246,-600,24133,4352,7952,2864,22866,354,201,-31,1389807108.172795
2,26,0,12182,282,-40,306,12090,7968,-208,-2080,10075,334,-271,-150,1389807108.185080
3,26,0,25323,1923,2196,-650,26009,4432,8736,2704,25444,356,194,-40,1389807108.185095
2,27,0,13177,62,-35,286,13968,7808,-64,-1904,12635,340,-267,-147,1389807108.185422
3,27,0,27322,1654,2077,-685,27887,4528,8704,2656,28023,360,190,-46,1389807108.185432
2,28,0,15166,-357,-43,258,15845,8192,400,-1200,15197,339,-266,-151,1389807108.203635
3,28,0,29322,1270,1953,-701,29764,4656,8288,2624,28023,360,190,-46,1389807108.203650
2,29,0,17156,-440,-70,285,17723,8528,768,-464,17758,340,-266,-148,1389807108.216097
3,29,0,31321,944,1844,-762,31641,4512,8640,2944,30603,366,182,-58,1389807108.216111
2,30,0,19145,-201,-66,309,19601,8128,1056,-800,17758,340,-266,-148,1389807108.216431
3,30,0,33321,697,1765,-875,33519,4352,8416,3536,33181,368,174,-68,1389807108.216441
2,31,0,21134,223,-36,329,21479,7792,832,-1504,20320,340,-263,-146,1389807108.234082
3,31,0,35320,386,1722,-902,35397,4496,7408,3504,33181,368,174,-68,1389807108.234097
2,32,0,23124,528,-26,340,23356,7744,448,-1712,22881,338,-257,-148,1389807108.240065
3,32,0,37319,314,1672,-940,37275,4768,7232,3344,35760,369,172,-81,1389807108.240314
2,33,0,25113,607,-27,344,25233,7920,256,-1856,22881,338,-257,-148,1389807108.252470
3,33,0,39319,338,1639,-1044,39153,5024,7424,3200,38339,372,165,-92,1389807108.252479
2,34,0,27102,599,-32,384,27111,8080,-112,-2048,25443,341,-510,-152,1389807108.263914
3,34,0,40318,374,1634,-1106,41031,5136,7056,3600,40918,377,154,-104,1389807108.263923
2,35,0,29092,513,-64,420,28990,8176,-480,-2256,28003,344,-249,-152,1389807108.275674
3,35,0,42318,564,1566,-1255,42909,4992,7312,4208,40918,377,154,-104,1389807108.275683
2,36,0,30087,440,-71,418,30867,8160,-512,-2160,30564,346,-247,-155,1389807108.275946
3,36,0,44317,1024,1418,-1411,44788,4640,7888,4704,43495,379,146,-115,1389807108.275953
2,37,0,32076,221,-80,428,32746,8048,-64,-2016,30564,346,-247,-155,1389807108.294235
3,37,0,46316,1638,1288,-1533,46666,4208,7520,4256,46074,381,136,-118,1389807108.294250
2,38,0,34065,35,-98,446,34625,7840,368,-1920,33125,342,-240,-150,1389807108.300514
3,38,0,48316,2139,1161,-1633,48545,3824,7456,3184,48652,387,125,-119,1389807108.300830
2,39,0,36055,107,-98,479,36502,7808,608,-1184,35687,345,-238,-150,1389807108.312508
3,39,0,50315,2355,1045,-1709,50423,3520,6768,1840,48652,387,125,-119,1389807108.312523
2,40,0,38044,310,-87,559,38380,8000,464,-992,38248,349,-232,-152,1389807108.324767
3,40,0,52315,2396,920,-1759,52300,3552,6480,736,51229,390,109,-119,1389807108.324776
2,41,0,40033,484,-80,622,40259,8080,64,-1600,38248,349,-232,-152,1389807108.325048
3,41,0,54314,2385,782,-1835,54177,3872,6080,224,53807,392,103,-117,1389807108.325302
2,42,0,42023,585,-60,658,42137,7984,-48,-1600,40809,348,-224,-152,1389807108.343382
3,42,0,55314,2358,725,-1878,56054,4176,6128,336,53807,392,103,-117,1389807108.343392
2,43,0,44012,521,-49,706,44016,7744,192,-1424,43370,355,-219,-156,1389807108.355444
3,43,0,57313,2293,629,-2057,57931,4208,5600,560,56385,404,92,-114,1389807108.355454
2,44,0,45007,469,-50,736,45894,7776,224,-1232,45932,357,-211,-152,1389807108.355667
3,44,0,59312,2153,547,-2238,59808,3984,5568,288,58962,405,77,-112,1389807108.355674
2,45,0,46996,368,-59,783,47774,7968,432,-1312,45932,357,-211,-152,1389807108.372717
3,45,0,61312,2078,458,-2414,61684,3664,6016,112,61540,412,61,-108,1389807108.372727
2,46,0,48986,224,-49,808,49652,8080,880,-1360,48494,357,-204,-153,1389807108.385167
3,46,0,63311,1951,372,-2595,63561,3440,5952,-112,61540,412,61,-108,1389807108.385181
2,47,0,50975,104,-29,813,51530,8064,1568,-1024,51056,356,-199,-155,1389807108.385463
3,47,0,65310,1750,292,-2764,65439,3440,5776,-544,64118,419,34,-106,1389807108.385474
2,48,0,52964,96,-16,819,53408,8080,1888,-800,51056,356,-199,-155,1389807108.403602
3,48,0,1774,1512,184,-2947,1780,3680,5456,-944,1160,428,8,-100,1389807108.403616
2,49,0,54954,177,10,818,55287,8128,2096,-880,53617,361,-191,-156,1389807108.415865
3,49,0,3773,1245,97,-3115,3657,3936,5968,-1264,3738,430,241,-96,1389807108.415880
2,50,0,56943,266,29,837,57165,8000,2272,-1104,56179,358,-185,-156,1389807108.416203
3,50,0,4773,1117,65,-3221,5534,4208,6048,-1328,3738,430,241,-96,1389807108.416213
2,51,0,58932,286,46,843,59043,7856,2208,-1024,58741,359,-176,-155,1389807108.433944
3,51,0,6772,825,22,-3448,7411,4496,6192,-1152,6315,439,-48,-93,1389807108.433960
2,52,0,60922,366,65,846,60920,7792,2288,-1008,58741,359,-176,-155,1389807108.446132
3,52,0,8772,448,-7,-3664,9288,4816,6960,-1008,8893,444,-81,-90,1389807108.446147
2,53,0,61917,391,78,851,62799,7712,2272,-1216,61301,365,-166,-156,1389807108.446528
3,53,0,10771,119,-22,-3854,11166,5408,6640,-1040,8893,444,-81,-90,1389807108.446547
2,54,0,63906,401,98,848,64678,7824,2528,-1488,63862,364,-159,-160,1389807108.464716
3,54,0,12770,-181,-28,-3984,13042,6176,6416,-1280,11472,443,-120,-87,1389807108.464731
2,55,0,359,363,121,835,1020,8048,2688,-1408,886,363,-149,-161,1389807108.465076
3,55,0,14770,-457,-27,-4090,14919,7088,6176,-1472,14050,445,-163,-85,1389807108.465386
2,56,0,2349,333,134,821,2899,8080,2864,-1488,886,363,-149,-161,1389807108.483195
3,56,0,16769,-719,-2,-4205,16796,7984,5456,-1152,16628,443,-202,-79,1389807108.483210
2,57,0,4338,321,154,804,4778,8112,3248,-1424,3447,369,-146,-163,1389807108.495438
3,57,0,18769,-898,31,-4320,18673,8992,5216,96,16628,443,-202,-79,1389807108.495453
2,58,0,6327,367,169,789,6656,8144,3552,-1088,6008,368,-138,-163,1389807108.495765
3,58,0,19768,-911,59,-4362,20551,10112,5536,1728,19205,437,-246,-75,1389807108.495775
2,59,0,8317,406,194,780,8535,8240,3696,-752,6008,368,-138,-163,1389807108.514046
3,59,0,21768,-620,111,-4367,22429,11360,5296,3280,21782,424,-28,-72,1389807108.514072
2,60,0,10306,534,242,765,10414,8128,3232,-752,8568,368,-132,-165,1389807108.525758
3,60,0,23767,25,191,-4250,24306,12544,4688,4368,24360,413,-324,-78,1389807108.525767
2,61,0,12296,728,292,759,12293,8016,3088,-848,11130,368,-119,-167,1389807108.526066
3,61,0,25766,803,393,-4080,26185,13472,4544,4448,24360,413,-324,-78,1389807108.526072
2,62,0,13290,799,304,763,14171,7792,2752,-800,13690,368,-116,-172,1389807108.544125
3,62,0,27766,1676,715,-3892,28063,13936,3456,3184,26937,396,-358,-87,1389807108.544135
2,63,0,15280,927,292,793,16050,7872,2288,-800,13690,368,-116,-172,1389807108.549787
3,63,0,29765,2499,880,-3666,29941,13184,3008,704,29514,359,-381,-110,1389807108.549996
2,64,0,17269,989,299,838,17928,8128,2256,-1024,16250,367,-108,-174,1389807108.561330
3,64,0,31764,3396,741,-3393,31818,10864,6576,-2112,29514,359,-381,-110,1389807108.561339
2,65,0,19258,893,329,860,19338,8160,2224,-1104,18812,367,-95,-179,1389807108.573408
3,65,0,33764,3630,590,-3105,33695,8224,2352,-3392,32092,359,-402,-139,1389807108.573417
2,66,0,21248,785,304,904,21217,8208,2160,-992,21372,369,-87,-179,1389807108.585723
3,66,0,34763,3125,451,-2846,35572,5904,-576,-6400,34669,320,-418,-160,1389807108.585738
2,67,0,23237,685,258,937,23096,7952,2384,-1136,21372,369,-87,-179,1389807108.586091
3,67,0,36763,1440,154,-2194,37450,4304,-3312,-8688,37247,320,-425,-168,1389807108.586102
2,68,0,25226,525,208,965,24976,7840,2336,-1344,23934,366,-81,-184,1389807108.604313
3,68,0,38762,-702,-120,-1229,39326,4016,-3168,-6640,37247,320,-425,-168,1389807108.604328
2,69,0,27216,364,160,1000,26854,8144,2464,-1232,26497,365,-66,-186,1389807108.610617
3,69,0,40762,-2204,-348,-244,41204,4560,-1792,-384,39824,310,-431,-162,1389807108.610933
2,70,0,28211,294,142,1023,28732,8544,2704,-960,29058,368,-58,-186,1389807108.622774
3,70,0,42761,-2469,-371,634,43081,5344,0,6704,42402,310,-427,-146,1389807108.622784
2,71,0,30200,150,132,1054,30612,8896,2912,-688,29058,368,-58,-186,1389807108.635006
3,71,0,44760,-1462,-148,1274,44959,6272,2224,10544,44979,320,-417,-138,1389807108.635021
2,72,0,32189,73,116,1102,32490,8864,3360,-480,31621,363,-52,-186,1389807108.635350
3,72,0,46760,525,44,1803,46836,7600,3168,10352,44979,320,-417,-138,1389807108.635361
2,73,0,34179,19,92,1117,34369,8832,3664,-144,34182,362,-40,-188,1389807108.653507
3,73,0,48759,2288,59,2224,48713,8992,1808,7248,47556,320,-404,-145,1389807108.653521
2,74,0,36168,76,60,1138,36247,8688,3408,256,34182,362,-40,-188,1389807108.665885
3,74,0,49759,2694,43,2320,50591,11600,-2896,2400,50134,340,-380,-163,1389807108.665900
2,75,0,38157,289,42,1161,38126,8912,3456,48,36742,362,-28,-186,1389807108.666209
3,75,0,51758,2400,-46,2231,52469,16640,-10144,-3856,50134,340,-380,-163,1389807108.666220
2,76,0,40147,494,63,1195,40004,9360,2592,-848,39303,362,-19,-184,1389807108.683931
3,76,0,53758,1381,-150,1626,54347,20528,-8736,-9024,52711,340,-364,-173,1389807108.683946
2,77,0,42136,609,96,1273,41882,10256,2736,-2304,41863,359,-6,-183,1389807108.695533
3,77,0,55757,1391,-234,627,56224,13376,1328,-4704,55290,351,-359,-184,1389807108.695549
2,78,0,44125,387,87,1302,43761,10912,3072,-2480,41863,359,-6,-183,1389807108.695874
3,78,0,57756,1573,-197,98,58101,4144,2400,1456,57867,351,-352,-188,1389807108.695886
2,79,0,45120,206,92,1296,45638,10752,2912,-1184,44424,358,-251,-188,1389807108.714032
3,79,0,59756,778,16,-152,59979,1424,2784,2032,57867,351,-352,-188,1389807108.714047
2,80,0,47110,246,145,1339,47517,10048,3328,144,46985,358,16,-185,1389807108.720037
3,80,0,61755,410,-211,534,61857,3648,6048,1632,60446,350,-348,-194,1389807108.720347
2,81,0,49099,735,216,1401,49395,10080,3440,1008,49546,354,29,-183,1389807108.731859
3,81,0,63754,1087,-358,1228,63735,6976,4384,2512,63022,352,-333,-194,1389807108.731874
2,82,0,51088,1463,326,1509,51274,11120,2272,1824,49546,354,29,-183,1389807108.744107
3,82,0,64754,1102,-421,1399,65144,9552,3456,1856,64,358,-321,-197,1389807108.744116
2,83,0,53078,2351,409,1671,53153,12048,1168,2240,52108,352,46,-183,1389807108.750388
3,83,0,1217,737,-367,1595,1956,11984,2944,-2176,64,358,-321,-197,1389807108.750702
