nodeID,seqNumber,status,gyroTick,gyroX,gyroY,gyroZ,accelTick,accelX,accelY,accelZ,magTick,magX,magY,magZ,currentTime
2,43,0,16751,67,-13,-45,17583,8128,1312,-336,15366,324,37,-294,1389807483.71668
3,43,0,62010,24,8,7,62637,8384,1920,-112,62658,387,84,-233,1389807483.71679
2,44,0,18741,68,-20,-32,19461,8112,1424,-288,17927,324,32,-292,1389807483.74973
3,44,0,64010,9,-8,8,64514,8416,1856,-96,62658,387,84,-233,1389807483.74982
2,45,0,20730,42,-22,-10,21339,8128,1472,-432,20487,326,33,-295,1389807483.74984
3,45,0,473,-2,-1,8,856,8368,1776,-80,65237,387,85,-235,1389807483.74986
2,46,0,22720,44,-15,1,23217,8176,1584,-560,23048,328,38,-293,1389807483.74999
3,46,0,2472,-14,3,-4,2734,8336,1696,-80,2278,385,88,-235,1389807483.75000
2,47,0,24709,37,0,18,25096,8192,1392,-576,23048,328,38,-293,1389807483.75002
3,47,0,4472,-34,-2,-5,4612,8288,1536,-112,2278,385,88,-235,1389807483.75004
2,48,0,26699,17,6,30,26974,8224,1360,-672,25608,328,39,-293,1389807483.75006
3,48,0,6471,-43,-12,8,6490,8400,1392,-112,4856,385,89,-235,1389807483.75007
2,49,0,28688,-8,8,37,28852,8320,1168,-592,28168,328,36,-291,1389807483.75009
3,49,0,7471,-60,-14,5,8368,8400,1360,-80,7433,388,85,-235,1389807483.75011
2,50,0,30678,-9,7,27,30260,8336,1088,-592,30729,326,36,-291,1389807483.75012
3,50,0,9470,-93,-17,18,10245,8400,1440,-96,10012,388,89,-234,1389807483.75014
2,51,0,31672,-6,10,16,32608,8480,912,-480,30729,326,36,-291,1389807483.75016
3,51,0,11470,-109,-10,14,12122,8416,1504,-32,10012,388,89,-234,1389807483.75017
2,52,0,33662,-9,5,-5,34486,8512,768,-432,33290,323,38,-292,1389807483.75019
3,52,0,13469,-107,-3,12,14000,8416,1600,-32,12589,385,88,-233,1389807483.75021
2,53,0,35651,-25,-3,-29,36365,8480,768,-400,35851,324,33,-293,1389807483.75022
3,53,0,15469,-77,1,3,15877,8464,1696,-16,15167,386,86,-237,1389807483.75024
2,54,0,37641,-17,-6,-48,37774,8384,848,-416,35851,324,33,-293,1389807483.75026
3,54,0,17468,-24,3,-9,17754,8432,1824,48,17745,387,88,-237,1389807483.75027
2,55,0,39630,-15,-6,-57,39653,8256,976,-432,38412,329,36,-292,1389807483.75029
3,55,0,19467,9,-7,-29,19632,8272,1936,112,17745,387,88,-237,1389807483.75031
2,56,0,41620,-15,-1,-69,41532,8144,1072,-368,40972,324,37,-295,1389807483.75032
3,56,0,21467,36,-7,-54,21510,8288,2016,192,20322,385,86,-235,1389807483.75034
2,57,0,43609,-20,-6,-65,43410,8064,1184,-368,43534,322,32,-293,1389807483.75036
3,57,0,22466,40,-4,-57,23388,8240,1968,192,22900,389,86,-233,1389807483.75037
2,58,0,45599,-21,-2,-40,45288,8000,1376,-384,43534,322,32,-293,1389807483.75039
3,58,0,24466,31,-10,-45,25265,8272,1968,144,22900,389,86,-233,1389807483.75040
2,59,0,47588,-43,2,-8,47167,8048,1648,-416,46094,329,32,-293,1389807483.75042
3,59,0,26465,-9,-10,-31,27143,8256,2000,32,25477,388,91,-236,1389807483.75044
2,60,0,48583,-54,3,7,49046,8128,1904,-448,48655,328,34,-292,1389807483.75045
3,60,0,28465,-78,-4,-5,29021,8224,2048,-48,28053,385,89,-235,1389807483.75047
2,61,0,50573,-41,9,19,50925,8144,2032,-512,51216,326,34,-291,1389807483.75049
3,61,0,30464,-127,11,1,30899,8176,2080,-64,30631,385,86,-235,1389807483.75050
2,62,0,52562,-31,7,27,52803,8192,2160,-464,51216,326,34,-291,1389807483.75052
3,62,0,32463,-139,-2,-9,32776,8192,2048,-64,30631,385,86,-235,1389807483.75054
2,63,0,54552,-13,6,21,54681,8256,2272,-416,53776,324,32,-296,1389807483.75055
3,63,0,34463,-124,-3,0,34653,8224,2080,-32,33209,387,85,-237,1389807483.75057
2,64,0,56541,10,10,11,56560,8336,1984,-352,56339,324,36,-293,1389807483.75058
3,64,0,36462,-96,-4,13,36530,8272,2096,-96,35787,389,86,-237,1389807483.75060
2,65,0,58531,57,0,-5,58439,8272,2016,-352,56339,324,36,-293,1389807483.75062
3,65,0,37462,-76,-2,12,38408,8288,2064,-16,38365,385,81,-237,1389807483.75063
2,66,0,60520,81,-5,-33,60318,8128,1904,-320,58901,323,38,-295,1389807483.75065
3,66,0,39461,-18,-4,-5,40286,8288,1920,96,38365,385,81,-237,1389807483.75067
2,67,0,62510,66,-11,-46,62196,8096,1760,-272,61463,327,37,-294,1389807483.75068
3,67,0,41461,0,-18,-24,42163,8224,1888,176,40942,389,87,-238,1389807483.75070
2,68,0,63505,45,-11,-53,64075,8032,1504,-288,64024,329,39,-293,1389807483.75072
3,68,0,43460,0,-16,-29,44040,8240,1712,112,43519,388,86,-236,1389807483.75073
2,69,0,65494,16,-18,-52,418,7984,1520,-288,64024,329,39,-293,1389807483.75114
3,69,0,45460,-18,-10,-15,45917,8288,1616,0,43519,388,86,-236,1389807483.75116
2,70,0,1948,16,-14,-38,2296,8096,1456,-448,1048,324,37,-294,1389807483.75118
3,70,0,47459,-57,-4,12,47794,8400,1552,-112,46095,387,85,-235,1389807483.75119
2,71,0,3937,8,-24,-23,4175,8192,1392,-544,3609,325,36,-293,1389807483.75121
3,71,0,49458,-99,5,32,49671,8400,1520,-160,48672,389,85,-237,1389807483.75123
2,72,0,5927,-4,-16,-9,6052,8256,1360,-608,6169,326,39,-293,1389807483.75125
3,72,0,51458,-121,9,25,51548,8384,1584,-112,51249,389,89,-239,1389807483.75126
2,73,0,7916,13,-12,1,7930,8304,1376,-640,6169,326,39,-293,1389807483.75128
3,73,0,52457,-112,11,25,53424,8464,1632,-32,51249,389,89,-239,1389807483.75130
2,74,0,9906,28,3,-3,9809,8368,1360,-624,8729,324,37,-287,1389807483.75131
3,74,0,54457,-60,2,15,55301,8432,1552,-32,53826,385,85,-238,1389807483.75133
2,75,0,11895,53,12,-11,11687,8320,1280,-592,11289,328,38,-294,1389807483.75135
3,75,0,56456,14,-8,11,57178,8496,1568,-32,56404,387,83,-238,1389807483.75136
2,76,0,13885,101,14,-17,13565,8304,1168,-512,13851,325,40,-294,1389807483.75138
3,76,0,58456,70,1,-1,59055,8464,1712,-48,58982,389,87,-234,1389807483.75140
2,77,0,14879,117,19,-12,15444,8208,1152,-480,13851,325,40,-294,1389807483.75141
3,77,0,60455,90,-2,-29,60932,8400,1744,-128,58982,389,87,-234,1389807483.75143
2,78,0,16869,151,29,-11,17324,8160,1152,-480,16413,324,40,-290,1389807483.75145
3,78,0,62454,84,3,-55,62810,8336,1792,-80,61558,384,87,-236,1389807483.75146
2,79,0,18858,152,27,0,19203,8096,1200,-512,18974,324,39,-296,1389807483.75148
3,79,0,64454,68,4,-55,64687,8224,1920,-16,64135,387,88,-237,1389807483.75149
2,80,0,20848,127,28,8,21081,8064,1328,-576,18974,324,39,-296,1389807483.75151
3,80,0,917,52,3,-45,1028,8224,1968,48,64135,387,88,-237,1389807483.75153
2,81,0,22837,82,15,11,22960,8096,1520,-704,21535,329,43,-295,1389807483.75154
3,81,0,2917,14,0,-33,2905,8224,2080,96,1176,387,87,-235,1389807483.75156
2,82,0,24827,34,6,-4,24838,8208,1536,-672,24096,324,41,-292,1389807483.75158
3,82,0,3916,-9,-12,-22,4782,8288,2064,-48,3754,385,87,-237,1389807483.75159
2,83,0,26816,-30,-3,-6,26716,8352,1616,-576,26656,326,40,-295,1389807483.75161
3,83,0,5916,-52,-11,13,6659,8336,2096,-176,6330,385,85,-241,1389807483.75163
2,84,0,28806,-72,-4,-12,28594,8368,1664,-432,26656,326,40,-295,1389807483.75164
3,84,0,7915,-80,11,-3,8536,8368,2272,-192,6330,385,85,-241,1389807483.75166
2,85,0,30795,-70,-22,-30,30473,8384,1632,-400,29217,326,41,-294,1389807483.75168
3,85,0,9915,-76,11,-22,10412,8336,2272,-64,8907,391,87,-237,1389807483.75169
2,86,0,31790,-75,-16,-37,32351,8224,1696,-368,31778,324,40,-294,1389807483.75171
3,86,0,11914,-50,9,-46,11820,8240,2208,-16,11485,386,87,-235,1389807483.75173
2,87,0,33780,-70,-26,-61,34229,8064,1664,-336,34338,320,39,-295,1389807483.75174
3,87,0,13913,-26,9,-78,13696,8288,2144,128,14063,387,81,-238,1389807483.75176
2,88,0,35769,-52,-20,-71,36107,7904,1696,-304,34338,320,39,-295,1389807483.75178
3,88,0,15913,-14,12,-93,15573,8208,2064,176,14063,387,81,-238,1389807483.75179
2,89,0,37759,-35,-22,-77,37987,7824,1680,-288,36898,326,41,-293,1389807483.75181
3,89,0,17912,-24,14,-82,17450,8304,2080,64,16640,388,86,-237,1389807483.75183
2,90,0,39748,-5,-20,-53,39865,7904,1680,-288,39458,323,38,-295,1389807483.75184
3,90,0,18912,-22,10,-77,19328,8256,1872,32,19218,390,85,-237,1389807483.75186
2,91,0,41738,6,-17,-28,41744,7968,1696,-384,42018,322,36,-292,1389807483.75188
3,91,0,20911,-35,5,-50,21205,8240,1872,32,19218,390,85,-237,1389807483.75189
2,92,0,43727,2,-5,11,43623,8128,1664,-432,42018,322,36,-292,1389807483.75191
3,92,0,22911,-45,2,-38,23081,8192,1824,16,21795,385,82,-239,1389807483.75193
2,93,0,45717,5,-2,34,45501,8288,1520,-448,44578,324,41,-291,1389807483.75218
3,93,0,24910,-61,-3,-26,24958,8304,2000,-48,24372,385,84,-236,1389807483.75220
2,94,0,46711,5,11,43,47380,8384,1568,-496,47139,324,43,-294,1389807483.75222
3,94,0,26909,-77,-7,-9,26835,8336,2032,-48,26949,391,83,-238,1389807483.75224
2,95,0,48701,17,16,49,49258,8512,1600,-352,47139,324,43,-294,1389807483.75239
3,95,0,28909,-59,-11,-27,28712,8320,2176,32,26949,391,83,-238,1389807483.75241
2,96,0,50690,11,9,29,51136,8560,1568,-320,49699,322,44,-295,1389807483.75243
3,96,0,30908,-59,-16,-42,30589,8272,2208,256,29527,386,83,-239,1389807483.75244
2,97,0,52680,16,5,-21,53015,8480,1616,-384,52259,327,41,-292,1389807483.75246
3,97,0,32908,-55,3,-56,32466,8272,2240,240,32104,387,81,-236,1389807483.75248
2,98,0,54670,12,-1,-68,54893,8240,1584,-448,54820,325,43,-293,1389807483.75249
3,98,0,33907,-38,4,-69,34344,8272,2240,160,34682,387,86,-239,1389807483.75251
2,99,0,56659,-9,-15,-109,56772,8064,1680,-496,54820,325,43,-293,1389807483.75253
3,99,0,35907,-11,20,-76,36221,8256,2208,128,34682,387,86,-239,1389807483.75255
2,100,0,58649,-48,-14,-140,58649,7888,1648,-592,57380,322,41,-295,1389807483.75257
3,100,0,37906,-22,30,-81,38097,8240,2112,80,37258,386,81,-236,1389807483.75258
2,101,0,60638,-81,-15,-119,60529,7792,1728,-544,59940,325,39,-294,1389807483.75260
3,101,0,39906,-45,18,-67,39974,8176,1984,64,39836,387,79,-236,1389807483.75262
2,102,0,62628,-97,-28,-83,62407,7872,1712,-576,62499,328,39,-294,1389807483.75263
3,102,0,41905,-46,8,-38,41852,8224,1920,0,39836,387,79,-236,1389807483.75265
2,103,0,63622,-93,-34,-69,64286,8064,1712,-592,62499,328,39,-294,1389807483.75267
3,103,0,43904,-70,14,-31,43730,8320,1824,-80,42413,391,80,-239,1389807483.75268
2,104,0,76,-92,-30,-22,629,8192,1664,-608,65058,321,36,-295,1389807483.75270
3,104,0,45904,-83,10,-32,45607,8416,1664,-192,44991,387,81,-238,1389807483.75272
2,105,0,2065,-79,-32,24,2508,8304,1600,-624,2081,330,38,-295,1389807483.75274
3,105,0,47903,-98,10,-33,47484,8432,1696,-240,47568,387,79,-241,1389807483.75275
2,106,0,4055,-71,-27,36,4386,8384,1568,-608,4641,330,41,-294,1389807483.75277
3,106,0,48903,-94,0,-37,49362,8448,1632,-304,47568,387,79,-241,1389807483.75279
2,107,0,6044,-75,-4,22,6264,8416,1536,-480,4641,330,41,-294,1389807483.75280
3,107,0,50902,-86,6,-48,51239,8416,1568,-336,50145,388,80,-239,1389807483.75282
2,141,0,15984,-138,-79,148,16174,8448,1312,-1216,15073,367,-153,80,1389807483.75537
3,141,0,61345,-35,42,104,61445,8336,2416,-496,60599,417,-23,96,1389807483.75545
2,142,0,17974,-170,-69,180,18053,8448,1088,-1056,17634,368,-152,82,1389807483.93603
3,142,0,63344,-96,8,98,63321,8224,2384,-464,63176,418,-18,93,1389807483.93611
2,143,0,19963,-172,-82,206,19931,8272,1152,-992,17634,368,-152,82,1389807483.99797
3,143,0,64344,-149,-6,110,65198,8352,2496,-720,63176,418,-18,93,1389807483.99994
2,144,0,21953,-154,-94,223,21809,8112,1056,-1136,20196,368,-153,79,1389807483.111402
3,144,0,807,-193,-25,146,1539,8448,2400,-1072,216,417,-25,94,1389807483.111410
2,145,0,22947,-135,-97,227,23689,8000,1072,-1328,22757,366,-149,83,1389807483.122919
3,145,0,2807,-175,-38,175,3416,8480,2288,-1264,2793,415,-14,95,1389807483.122928
2,146,0,24937,-107,-103,190,25568,8048,1104,-1424,25319,366,-147,83,1389807483.134817
3,146,0,4806,-133,-40,168,5293,8368,2304,-1296,2793,415,-14,95,1389807483.134826
2,147,0,26926,-112,-110,157,27447,8160,1008,-1120,25319,366,-147,83,1389807483.135041
3,147,0,6806,-108,-48,155,7170,8256,2160,-1216,5372,417,-15,96,1389807483.135047
2,148,0,28916,-159,-126,121,29325,8224,1184,-768,27880,367,-148,85,1389807483.152958
3,148,0,8805,-152,-56,145,9046,8064,2064,-1136,7948,420,-16,98,1389807483.152966
2,149,0,30905,-183,-131,111,31203,8128,1200,-512,30441,365,-143,86,1389807483.164668
3,149,0,10804,-277,-65,136,10923,7856,2144,-1408,10525,413,-15,98,1389807483.164677
2,150,0,32895,-153,-124,127,33081,8080,1296,-528,33004,372,-141,87,1389807483.164940
3,150,0,12804,-351,-52,132,12800,7952,2256,-1776,10525,413,-15,98,1389807483.164946
2,151,0,34884,-117,-115,153,34959,8096,1456,-576,33004,372,-141,87,1389807483.182943
3,151,0,13803,-356,-41,134,14677,8160,2096,-2016,13102,416,-7,95,1389807483.182951
2,152,0,36874,-5,-124,166,36838,8208,1456,-736,35565,367,-142,90,1389807483.195017
3,152,0,15803,-382,-37,112,16554,8256,2160,-1984,15679,419,-8,96,1389807483.195025
2,153,0,38863,83,-120,207,38717,8256,1360,-848,38126,364,-140,89,1389807483.195292
3,153,0,17802,-463,-39,89,18431,8368,2288,-1760,18257,415,-8,96,1389807483.195333
2,154,0,39858,106,-122,227,40595,8304,1344,-944,40687,368,-136,95,1389807483.212993
3,154,0,19802,-580,-43,84,20307,8432,2496,-1472,18257,415,-8,96,1389807483.213006
2,155,0,41848,151,-134,263,42474,8208,1392,-1104,40687,368,-136,95,1389807483.224307
3,155,0,21801,-665,-71,91,22184,8384,2704,-1264,20834,416,-5,94,1389807483.224322
2,156,0,43837,183,-148,286,44353,8112,1504,-1296,43248,371,-138,94,1389807483.224640
3,156,0,23801,-679,-95,102,24061,8304,2784,-1040,23413,416,0,97,1389807483.224651
2,157,0,45827,116,-146,309,46231,8048,1616,-1648,45810,366,-134,93,1389807483.242413
3,157,0,25800,-664,-111,112,25938,8208,2800,-896,23413,416,0,97,1389807483.242422
2,158,0,47816,33,-149,316,48110,7952,1856,-1888,45810,366,-134,93,1389807483.253782
3,158,0,27799,-631,-119,112,27815,8176,2800,-704,25991,413,1,96,1389807483.253791
2,159,0,49806,-58,-157,307,49989,8016,1792,-1632,48371,366,-128,95,1389807483.254017
3,159,0,28799,-622,-121,109,29691,8192,2864,-560,28569,416,7,100,1389807483.259892
2,160,0,51795,-233,-170,286,51868,8160,1680,-1216,50933,365,-129,97,1389807483.271549
3,160,0,30798,-589,-112,101,31569,8176,2992,-448,31147,413,6,98,1389807483.271558
2,161,0,53785,-311,-185,276,53747,8208,1712,-720,53494,365,-123,99,1389807483.283591
3,161,0,32798,-523,-105,121,33445,8208,2960,-496,31147,413,6,98,1389807483.283600
2,162,0,54780,-315,-191,281,55626,8160,1856,-224,53494,365,-123,99,1389807483.289775
3,162,0,34797,-414,-103,119,35322,8256,2752,-624,33725,413,9,99,1389807483.289998
2,163,0,56769,-335,-199,291,57504,8064,1936,-32,56054,364,-118,102,1389807483.302097
3,163,0,36797,-341,-106,83,37199,8272,2704,-864,36303,411,18,98,1389807483.302106
2,164,0,58759,-291,-202,312,59384,8032,2160,-80,58615,369,-119,100,1389807483.314291
3,164,0,38796,-315,-102,77,39076,8208,2592,-1088,38881,411,14,99,1389807483.314305
2,165,0,60748,-208,-209,332,61263,8080,2272,-288,61177,363,-112,105,1389807483.314629
3,165,0,40795,-309,-109,64,40953,8160,2432,-1280,38881,411,14,99,1389807483.314639
2,166,0,62738,-149,-205,349,63142,8096,2352,-368,61177,363,-112,105,1389807483.332707
3,166,0,42795,-334,-88,50,42831,8096,2384,-1456,41459,411,8,102,1389807483.332717
2,167,0,64727,-121,-198,345,65021,8064,2448,-352,63738,364,-108,104,1389807483.344295
3,167,0,43795,-362,-79,62,44709,8048,2416,-1376,44038,411,18,97,1389807483.344300
2,168,0,1181,-154,-194,342,1364,8096,2336,-432,763,369,-109,108,1389807483.344483
3,168,0,45794,-401,-67,88,46586,7984,2432,-1088,44038,411,18,97,1389807483.344487
2,169,0,3170,-199,-198,322,3244,8144,2256,-368,3324,364,-105,112,1389807483.361633
3,169,0,47793,-456,-70,110,48464,7984,2592,-704,46616,415,18,96,1389807483.361638
2,170,0,5160,-197,-198,303,5122,8272,2176,-256,3324,364,-105,112,1389807483.372183
3,170,0,49793,-468,-56,139,50340,8096,2752,-352,49194,415,18,105,1389807483.372189
2,171,0,6154,-197,-199,292,7001,8176,2144,-64,5885,362,-94,113,1389807483.383808
3,171,0,51792,-396,-52,163,52218,8240,2816,-192,51771,410,26,99,1389807483.383812
2,172,0,8144,-177,-196,294,8879,8176,2240,32,8446,366,-95,113,1389807483.384003
3,172,0,53792,-314,-48,146,54095,8272,2800,-192,51771,410,26,99,1389807483.389754
2,173,0,10134,-138,-181,292,10758,8176,2208,64,8446,366,-95,113,1389807483.400339
3,173,0,55791,-231,-48,114,55971,8160,2672,-304,54349,410,26,95,1389807483.400344
2,174,0,12123,-112,-172,270,12636,8144,2240,144,11007,366,-95,116,1389807483.412005
3,174,0,57790,-185,-31,91,57849,8064,2624,-480,56927,408,24,99,1389807483.412010
2,175,0,14113,-56,-160,253,14514,8080,2368,176,13567,362,-89,115,1389807483.423329
3,175,0,58790,-188,-10,96,59726,8144,2784,-592,59505,408,26,97,1389807483.423332
2,176,0,16102,5,-144,248,16392,7984,2448,208,16129,365,-87,118,1389807483.434978
3,176,0,60789,-186,8,115,61603,8176,2944,-688,59505,408,26,97,1389807483.434982
2,177,0,18092,36,-146,229,18271,8032,2400,208,16129,365,-87,118,1389807483.435164
3,177,0,62789,-127,17,148,63480,8192,2992,-704,62082,410,30,96,1389807483.435168
2,178,0,20081,69,-149,214,20150,8080,2160,192,18689,363,-94,120,1389807483.452148
3,178,0,64788,-108,32,165,65357,7968,2992,-544,64660,410,35,99,1389807483.452154
2,179,0,22071,111,-141,203,22029,8064,2224,128,21251,359,-86,122,1389807483.463664
3,179,0,1252,-155,40,190,1698,7904,3184,-464,64660,410,35,99,1389807483.463679
2,180,0,23065,141,-138,210,23908,8112,2064,-176,23812,363,-86,121,1389807483.469828
3,180,0,3251,-151,52,267,3576,8064,3088,-528,1702,407,36,96,1389807483.470015
2,181,0,25055,179,-133,229,25788,8144,1872,-496,23812,363,-86,121,1389807483.482044
3,181,0,5251,-103,51,291,5452,8176,3056,-640,4279,407,42,99,1389807483.482059
2,182,0,27044,152,-124,232,27666,8096,1920,-656,26374,364,-89,125,1389807483.494403
3,182,0,7250,-85,54,265,7330,8144,2928,-672,6857,412,42,96,1389807483.494412
2,183,0,29034,135,-119,235,29544,8016,2032,-400,28935,359,-78,122,1389807483.494687
3,183,0,8250,-70,76,268,9206,8176,2832,-688,6857,412,42,96,1389807483.494693
2,184,0,31023,73,-113,255,31423,7968,2112,-192,28935,359,-78,122,1389807483.512741
3,184,0,10249,-48,79,274,10615,8240,2640,-624,9436,407,40,97,1389807483.512755
2,185,0,33013,31,-135,269,33303,7904,2208,-208,31497,366,-77,125,1389807483.524501
3,185,0,12248,-105,84,243,12492,8160,2688,-704,12015,405,47,96,1389807483.524515
2,186,0,35002,75,-181,296,35182,7744,2352,-576,34058,365,-79,125,1389807483.524841
3,186,0,14248,-194,66,230,14369,8208,2752,-864,14592,409,50,90,1389807483.524852
2,187,0,36992,67,-212,344,37061,7872,2176,-1152,36619,359,-74,129,1389807483.543054
3,187,0,16247,-205,58,269,16246,8144,2784,-864,14592,409,50,90,1389807483.543069
2,188,0,37987,49,-219,366,38940,8080,2112,-1488,36619,359,-74,129,1389807483.555382
3,188,0,18247,-182,64,289,18124,8064,2736,-704,17170,408,48,92,1389807483.555391
2,189,0,39976,-14,-201,386,40818,8208,2256,-1280,39180,359,-67,132,1389807483.555656
3,189,0,20246,-224,55,269,20002,8080,2736,-672,19750,406,58,89,1389807483.555662
2,190,0,41966,-74,-184,371,42697,8112,2240,-800,41742,360,-68,132,1389807483.573245
3,190,0,22245,-307,26,275,21879,8096,2928,-768,19750,406,58,89,1389807483.573254
2,191,0,43955,-210,-176,356,44576,8000,1920,-240,44303,355,-65,134,1389807483.585257
3,191,0,23245,-358,27,286,23756,8128,3024,-1136,22329,407,55,88,1389807483.585266
2,192,0,45945,-343,-186,331,46454,8128,1824,-16,44303,355,-65,134,1389807483.585530
3,192,0,25245,-428,17,275,25634,8272,3008,-1600,24909,405,57,92,1389807483.585537
2,193,0,47934,-371,-171,301,48333,8240,1600,128,46863,359,-57,142,1389807483.603590
3,193,0,27244,-420,13,211,27511,8288,2800,-1920,27487,402,65,90,1389807483.603598
2,194,0,49924,-320,-147,267,49743,8304,1456,96,49423,362,-57,137,1389807483.609769
3,194,0,29243,-396,30,128,29388,8272,2688,-1936,27487,402,65,90,1389807483.610022
2,195,0,51913,-242,-120,228,51622,8432,1504,32,51985,357,-55,137,1389807483.622222
3,195,0,31243,-409,37,62,31266,8208,2544,-1584,30065,403,68,87,1389807483.622231
2,196,0,53903,-206,-98,183,53501,8416,1584,80,51985,357,-55,137,1389807483.633967
3,196,0,33242,-440,31,7,33145,8272,2512,-1328,32644,405,66,81,1389807483.633977
2,197,0,54898,-219,-88,158,55380,8368,1696,256,54546,358,-48,141,1389807483.634225
3,197,0,35242,-489,15,-26,35023,8384,2656,-1088,35222,401,66,84,1389807483.634467
2,198,0,56887,-213,-78,132,57260,8352,1904,304,57107,357,-50,138,1389807483.651894
3,198,0,37241,-493,-6,-68,36901,8416,2736,-944,35222,401,66,84,1389807483.651903
2,199,0,58877,-123,-53,89,59139,8256,2096,352,57107,357,-50,138,1389807483.663931
3,199,0,38241,-441,-7,-98,38779,8208,2832,-816,37799,401,69,82,1389807483.663946
2,200,0,60866,-46,-66,53,61018,8112,2288,48,59669,355,-52,140,1389807483.664230
3,200,0,40240,-322,13,-116,40656,8176,3008,-464,40377,405,66,82,1389807483.664487
2,201,0,62856,75,-59,52,62897,7984,2512,-336,62229,354,-44,141,1389807483.682469
3,201,0,42240,-257,32,-85,42534,8224,3328,-160,40377,405,66,82,1389807483.682483
2,202,0,64845,106,-54,64,64777,7904,2864,-688,64791,357,-48,140,1389807483.694668
3,202,0,44239,-232,36,-92,44411,8272,3616,-48,42955,404,66,83,1389807483.694677
2,203,0,1299,-5,-44,79,1120,7888,3008,-784,64791,357,-48,140,1389807483.694986
3,203,0,46238,-174,17,-107,46288,8240,3856,-64,45533,403,71,83,1389807483.694992
2,204,0,3288,-239,-45,113,2999,7872,3360,-512,1816,357,-48,138,1389807483.713071
3,204,0,48238,-86,2,-103,48165,8176,3808,-288,48111,406,68,82,1389807483.713085
2,205,0,5278,-308,-50,115,4878,7776,3456,0,4378,353,-45,140,1389807483.725305
3,205,0,50237,-1,-3,-88,50043,8048,3456,-560,48111,406,68,82,1389807483.725314
2,206,0,6272,-311,-57,112,6757,7760,3328,320,6940,355,-42,143,1389807483.725577
3,206,0,52237,20,16,-97,51920,8016,3168,-848,50689,402,65,83,1389807483.725583
2,207,0,8262,-343,-74,124,8635,7840,2976,544,6940,355,-42,143,1389807483.743724
3,207,0,53236,4,19,-98,53798,8064,2976,-1184,53267,403,69,80,1389807483.743732
2,208,0,10252,-285,-82,161,10514,7856,2976,624,9501,356,-43,143,1389807483.743979
3,208,0,55236,-34,27,-82,55675,8112,2880,-1232,55845,407,66,81,1389807483.749734
2,209,0,12241,-200,-77,151,12393,7824,3136,656,12061,351,-39,142,1389807483.761872
3,209,0,57235,-77,35,-57,57552,8160,2768,-1152,55845,407,66,81,1389807483.761880
2,210,0,14231,-206,-74,167,14272,7712,3184,592,14621,354,-35,142,1389807483.773911
3,210,0,59234,-84,42,-36,59429,8160,2720,-1088,58423,404,60,81,1389807483.773918
2,211,0,16220,-204,-67,188,16151,7744,3168,464,14621,354,-35,142,1389807483.774196
3,211,0,61234,-92,43,-29,61306,8192,2752,-1024,61002,403,69,78,1389807483.780366
2,212,0,18210,-146,-63,173,18029,7840,3104,448,17181,356,-39,139,1389807483.792203
3,212,0,63233,-97,55,-25,63183,8160,2816,-928,61002,403,69,78,1389807483.792208
2,213,0,20199,-118,-48,164,19907,7984,3008,384,19742,352,-33,142,1389807483.803858
3,213,0,65233,-100,60,-25,65060,8192,2848,-848,63581,408,68,76,1389807483.803866
2,214,0,21194,-112,-43,172,21787,8128,2896,192,19742,352,-33,142,1389807483.804046
3,214,0,1696,-96,62,-23,1401,8256,2848,-896,623,406,68,83,1389807483.810230
2,215,0,23183,-125,-38,171,23666,8128,2800,192,22302,357,-28,142,1389807483.821678
3,215,0,2696,-93,59,-27,3278,8208,2816,-800,3201,406,68,76,1389807483.821684
2,216,0,25173,-184,-21,153,25544,8160,2688,112,24862,357,-32,142,1389807483.833621
3,216,0,4695,-119,59,-36,5155,8176,2720,-768,3201,406,68,76,1389807483.833635
2,217,0,27162,-228,-7,116,27424,8080,2688,224,27423,353,-27,146,1389807483.839621
3,217,0,6695,-159,74,-11,7033,8320,2832,-656,5779,404,71,74,1389807483.839874
2,218,0,29152,-207,21,98,29302,8016,2624,272,27423,353,-27,146,1389807483.852106
3,218,0,8694,-157,78,-15,8910,8432,2832,-576,8358,410,67,73,1389807483.852115
2,219,0,31141,-141,45,90,31181,7952,2496,256,29984,352,-23,144,1389807483.864080
3,219,0,10693,-95,73,-44,10787,8576,2688,-432,10936,403,67,72,1389807483.864089
2,220,0,33131,-89,57,84,33061,7856,2496,192,32545,353,-27,143,1389807483.864357
3,220,0,12693,-15,66,-94,12663,8512,2576,-256,10936,403,67,72,1389807483.864608
2,221,0,35120,-77,55,69,34941,7968,2656,112,35104,352,-23,142,1389807483.882354
3,221,0,14692,49,51,-135,14541,8624,2304,-128,13512,404,66,70,1389807483.882362
2,222,0,37110,-112,57,65,36821,8048,2832,80,35104,352,-23,142,1389807483.894576
3,222,0,16692,117,30,-167,16419,8608,2176,-64,16090,409,65,76,1389807483.894585
2,223,0,38105,-119,66,52,38700,8128,2832,32,37664,352,-20,138,1389807483.894853
3,223,0,17691,155,17,-186,18295,8624,1984,-48,16090,409,65,76,1389807483.894859
2,224,0,40094,-110,85,25,40579,8048,2864,-32,40226,356,-23,139,1389807483.912287
3,224,0,19691,185,-10,-219,20173,8752,1840,-192,18666,405,62,73,1389807483.912301
2,225,0,42084,-149,95,15,42457,8048,3040,-96,42787,354,-22,140,1389807483.924380
3,225,0,21690,202,-39,-248,22051,8768,1664,-208,21244,406,63,75,1389807483.924388
2,226,0,44073,-165,100,23,44336,8064,3232,-96,42787,354,-22,140,1389807483.924635
3,226,0,23690,251,-49,-300,23928,8768,1360,-208,23821,408,58,73,1389807483.924642
2,227,0,46063,-134,114,30,46215,7984,3584,-96,45349,353,-18,141,1389807483.942697
3,227,0,25689,343,-71,-397,25806,8768,1056,-144,23821,408,58,73,1389807483.942706
2,228,0,48052,-89,125,14,48092,7856,3744,0,47910,354,-20,134,1389807483.954717
3,228,0,27688,456,-97,-525,27682,8752,752,16,26400,406,50,72,1389807483.954762
2,229,0,50042,-58,129,28,49971,7632,3728,16,47910,354,-20,134,1389807483.954999
3,229,0,29688,552,-127,-651,29559,8784,544,144,28979,407,49,77,1389807483.955004
2,230,0,52031,-49,126,32,51850,7504,3616,112,50471,354,-23,135,1389807483.971590
3,230,0,31687,597,-145,-743,31437,8944,368,320,31558,410,39,83,1389807483.971599
2,231,0,54021,-4,128,37,53729,7648,3536,48,53033,354,-16,135,1389807483.983746
3,231,0,32687,606,-151,-795,33315,9152,336,384,31558,410,39,83,1389807483.983755
2,232,0,55016,20,114,30,55608,7808,3472,0,55593,355,-19,133,1389807483.983941
3,232,0,34686,641,-180,-914,35192,9408,272,496,34137,414,24,86,1389807483.995540
2,233,0,57005,56,101,11,57486,8016,3328,64,55593,355,-19,133,1389807483.995805
3,233,0,36686,649,-211,-1014,37071,9664,304,624,36716,410,20,86,1389807483.995812
2,234,0,58995,99,104,-21,59365,8160,3120,64,58155,356,-26,132,1389807484.13658
3,234,0,38685,635,-240,-1100,38949,10000,384,800,36716,410,20,86,1389807484.13667
2,235,0,60984,131,107,-57,61244,8016,3008,-128,60715,352,-17,130,1389807484.13912
3,235,0,40684,627,-269,-1174,40827,10384,672,880,39294,415,10,89,1389807484.25980
2,236,0,62974,202,127,-70,63123,7776,2912,-368,63275,357,-18,130,1389807484.26250
3,236,0,42684,668,-316,-1247,42705,10624,912,1120,41873,418,248,98,1389807484.26256
2,237,0,64963,261,156,-34,65003,7616,3136,-672,63275,357,-18,130,1389807484.43903
3,237,0,44683,759,-373,-1324,44583,10784,1312,1440,44450,414,-17,95,1389807484.43910
2,238,0,1417,323,179,-24,1346,7616,3280,-848,301,357,-27,128,1389807484.44175
3,238,0,46683,928,-431,-1357,46461,10912,1872,1568,44450,414,-17,95,1389807484.50016
2,239,0,3406,296,175,-4,3225,7744,3392,-864,2862,354,-18,128,1389807484.61498
3,239,0,47682,1080,-447,-1333,48339,11088,2080,1632,47029,415,-29,102,1389807484.61507
2,240,0,4401,275,171,-7,5104,7968,3344,-640,2862,354,-18,128,1389807484.73403
3,240,0,49682,1542,-499,-1306,50217,11328,1008,1904,49609,419,-52,106,1389807484.73410
2,241,0,6390,293,168,-33,6983,8000,3104,-304,5422,359,-19,124,1389807484.84904
3,241,0,51681,2106,-576,-1718,52094,10928,-208,2048,52188,413,-72,112,1389807484.84918
2,242,0,8380,282,142,-87,8862,8096,2768,-64,7984,359,-25,126,1389807484.85242
3,242,0,53681,2417,-566,-2388,53972,9936,176,1280,52188,413,-72,112,1389807484.85252
2,243,0,10369,303,98,-130,10741,8160,2320,112,10545,358,-26,123,1389807484.102753
3,243,0,55680,2439,-376,-2560,55849,9504,944,-880,54766,412,-99,116,1389807484.102762
2,244,0,12359,411,56,-189,12621,8208,1904,128,10545,358,-26,123,1389807484.114918
3,244,0,57679,2721,-146,-2344,57727,9536,304,-3232,57344,416,-126,114,1389807484.114933
2,245,0,14349,525,33,-219,14500,8240,1616,-288,13106,362,-25,125,1389807484.115256
3,245,0,59679,2995,14,-2458,59605,9632,-1152,-4336,57344,416,-126,114,1389807484.115266
2,246,0,16338,575,29,-241,16379,8160,1488,-1008,15668,362,-36,124,1389807484.133351
3,246,0,61678,2857,35,-2869,61483,9296,-1472,-4160,59921,410,-158,113,1389807484.133360
2,247,0,18328,532,69,-230,18258,8144,1776,-1552,18228,356,-35,125,1389807484.145474
3,247,0,62678,2670,30,-2954,63359,8432,-608,-3584,62499,405,-186,109,1389807484.145482
2,248,0,20317,347,118,-163,20137,8048,2192,-1808,18228,356,-35,125,1389807484.145746
3,248,0,64677,2232,30,-2695,65237,7808,592,-3376,65078,404,-213,100,1389807484.145752
2,249,0,21312,218,150,-124,22016,8000,2688,-1616,20790,360,-34,124,1389807484.163539
3,249,0,1141,1654,46,-2230,1578,7488,2976,-3664,65078,404,-213,100,1389807484.163554
2,250,0,23301,85,223,-73,23894,8000,3136,-1104,23350,362,-37,121,1389807484.169850
3,250,0,3140,1042,32,-1951,3455,7488,3360,-3616,2121,398,-233,101,1389807484.170150
2,251,0,25291,170,264,-54,25773,7968,3120,-448,25910,359,-36,119,1389807484.182381
3,251,0,5140,348,-42,-1779,5333,7840,2144,-3136,4700,391,-247,97,1389807484.182390
2,252,0,27280,266,231,-13,27653,7936,3040,-176,25910,359,-36,119,1389807484.194478
3,252,0,7139,-518,-179,-1610,7210,8208,704,-2368,7280,391,-4,99,1389807484.194487
2,253,0,29270,408,157,-9,29532,7840,2816,-192,28472,360,-32,121,1389807484.194754
3,253,0,9138,-1036,-338,-1594,9088,8304,-320,-1568,7280,391,-4,99,1389807484.194800
2,254,0,31259,571,95,-43,31410,7776,2672,-448,31033,362,-40,116,1389807484.212961
3,254,0,11138,-779,-463,-1521,10965,8208,-832,-432,9857,384,-272,109,1389807484.212975
2,255,0,33249,627,50,-80,33289,7648,2752,-752,31033,362,-40,116,1389807484.224824
3,255,0,12137,-517,-489,-1465,12841,7744,-1072,992,12436,376,-273,113,1389807484.224839
2,0,0,35238,503,30,-48,35168,7728,2688,-1008,33594,361,-41,116,1389807484.225169
3,0,0,14137,-128,-496,-1303,14718,7152,-848,1904,12436,376,-273,113,1389807484.225181
2,1,0,37228,316,22,26,37046,7792,2656,-1216,36154,364,-39,118,1389807484.243240
3,1,0,16136,16,-419,-1084,16595,6832,-48,1840,15014,377,-282,115,1389807484.243249
2,2,0,38223,277,31,59,38925,7920,2752,-1296,38715,364,-41,116,1389807484.254635
3,2,0,18136,189,-299,-924,18473,6528,592,1264,17592,371,-293,123,1389807484.254643
2,3,0,40212,264,62,91,40804,7984,2704,-1136,38715,364,-41,116,1389807484.254909
3,3,0,20135,510,-210,-900,20350,6048,816,768,20170,361,-299,119,1389807484.254915
2,4,0,42202,253,84,163,42683,7984,2768,-768,41276,361,-43,116,1389807484.272903
3,4,0,22134,843,-159,-893,22227,5568,672,464,20170,361,-299,119,1389807484.272917
2,5,0,44191,283,88,229,44562,8064,2704,-480,43836,361,-38,115,1389807484.284978
3,5,0,24134,1006,-89,-788,24104,5248,496,64,22749,358,-306,117,1389807484.284987
2,6,0,46181,324,58,238,46441,8000,2624,-224,46398,363,-39,118,1389807484.285252
3,6,0,26133,993,-38,-572,25981,5216,576,-448,25327,358,-315,110,1389807484.285258
2,7,0,48170,344,26,220,48320,7888,2416,-192,46398,363,-39,118,1389807484.302918
3,7,0,27133,956,-19,-459,27858,5264,576,-944,27906,351,-318,109,1389807484.302926
2,8,0,50160,387,6,196,50199,7776,2288,-128,48960,363,-38,115,1389807484.315019
3,8,0,29132,846,-51,-262,29736,5280,528,-1360,27906,351,-318,109,1389807484.315027
2,9,0,52149,449,-3,189,52077,7744,2256,-80,51520,361,-34,113,1389807484.315299
3,9,0,31132,718,-110,-101,31613,5264,400,-1520,30484,351,-319,107,1389807484.315305
2,10,0,53144,485,-14,201,53956,7904,2320,0,54079,361,-34,115,1389807484.332680
3,10,0,33131,553,-132,54,33490,5232,176,-1616,33062,351,-322,106,1389807484.332689
2,11,0,55134,539,-23,213,55834,8096,2368,-160,54079,361,-34,115,1389807484.344790
3,11,0,35131,387,-122,204,35367,5136,-192,-1680,33062,351,-322,106,1389807484.344798
2,12,0,57123,571,-36,222,57713,8192,2432,-240,56639,362,-37,116,1389807484.345067
3,12,0,37130,242,-94,342,37244,5104,-432,-1648,35639,351,-320,101,1389807484.345073
2,13,0,59113,606,-39,214,59592,8192,2400,-288,59201,359,-33,118,1389807484.362617
3,13,0,39129,123,-95,509,39121,5120,-848,-1488,38217,359,-317,103,1389807484.362625
2,14,0,61102,646,-43,192,61471,8128,2384,-240,59201,359,-33,118,1389807484.374384
3,14,0,41129,38,-121,663,40998,5168,-1168,-1296,40795,359,-313,105,1389807484.374393
2,15,0,63092,646,-42,202,63349,8016,2256,-224,61763,363,-32,115,1389807484.374671
3,15,0,42129,0,-140,737,42875,5168,-1584,-1152,40795,359,-313,105,1389807484.374677
2,16,0,65081,599,-53,228,65228,7872,2304,-336,64323,360,-39,117,1389807484.392680
3,16,0,44128,-97,-151,836,44752,5152,-1776,-1232,43373,359,-306,105,1389807484.392695
2,17,0,1535,548,-58,285,1570,7872,2368,-320,1348,360,-32,120,1389807484.404868
3,17,0,46127,-286,-141,898,46629,5264,-1824,-1520,45950,359,-294,106,1389807484.404877
2,18,0,3524,528,-63,346,3449,7936,2592,-368,1348,360,-32,120,1389807484.405073
3,18,0,48127,-480,-105,957,48507,5536,-1760,-1840,48528,368,-288,111,1389807484.405079
2,19,0,4519,554,-58,371,5328,8000,2704,-320,3909,358,-29,122,1389807484.422292
3,19,0,50126,-569,-53,1020,50385,5888,-1808,-1920,48528,368,-288,111,1389807484.422301
2,20,0,6508,675,-47,383,7206,8224,2624,-288,6470,363,-30,120,1389807484.434075
3,20,0,52126,-480,-22,1057,52262,6448,-2048,-1616,51107,368,-279,114,1389807484.434084
2,21,0,8498,780,-42,386,9085,8368,2560,-352,9031,359,-31,123,1389807484.434320
3,21,0,54125,-260,-10,1066,54139,7184,-2464,-1248,53686,376,-269,112,1389807484.434572
2,22,0,10487,871,-41,371,10963,8512,2496,-480,9031,359,-31,123,1389807484.452580
3,22,0,56124,25,-50,1045,56016,7872,-2752,-992,53686,376,-269,112,1389807484.452589
2,23,0,12477,981,-37,337,12842,8608,2416,-624,11591,357,-25,124,1389807484.464019
3,23,0,57124,162,-60,1023,57893,8496,-3248,-480,56264,376,-262,115,1389807484.464028
2,24,0,14467,1035,-38,311,14721,8480,2256,-720,14151,358,-30,126,1389807484.464407
3,24,0,59123,364,-79,1002,59770,9200,-3840,-80,58841,376,-255,113,1389807484.464669
2,25,0,16456,992,-52,304,16600,8288,1968,-1040,16710,355,-29,129,1389807484.482858
3,25,0,61123,443,-80,1041,61647,9760,-4688,352,61419,376,-244,113,1389807484.482872
2,26,0,18446,892,-58,320,18479,8288,1792,-1248,16710,355,-29,129,1389807484.495057
3,26,0,63122,402,-85,962,63524,10272,-5472,704,61419,376,-244,113,1389807484.495072
2,27,0,20435,829,-49,329,20358,8336,1568,-1424,19271,357,-23,127,1389807484.495394
3,27,0,65122,340,-75,727,65401,10560,-6272,752,63997,384,-241,111,1389807484.495405
2,28,0,21430,813,-41,324,22236,8464,1456,-1648,21832,358,-29,128,1389807484.513469
3,28,0,1585,423,-40,477,1741,10880,-6688,768,1039,384,-240,110,1389807484.513483
2,29,0,23419,792,-47,270,24115,8544,1600,-1792,21832,358,-29,128,1389807484.519702
3,29,0,3584,693,46,287,3618,11232,-6720,944,3616,381,-238,109,1389807484.519946
2,30,0,25409,791,-52,208,25993,8656,1968,-1856,24392,356,-29,130,1389807484.532134
3,30,0,5584,936,178,178,5495,11776,-5872,848,3616,381,-238,109,1389807484.532142
2,31,0,27398,778,-63,133,27872,8864,2560,-1904,26953,359,-27,131,1389807484.543644
3,31,0,6584,1000,257,162,7373,12144,-4624,176,6194,387,-236,105,1389807484.543652
2,32,0,29388,760,-88,72,29750,9056,2816,-1744,29514,359,-28,134,1389807484.543894
3,32,0,8583,967,378,118,9250,11952,-3696,-912,8772,389,-244,98,1389807484.556158
2,33,0,31377,642,-104,-1,31629,9136,2672,-1440,29514,359,-28,134,1389807484.556488
3,33,0,10582,751,379,21,11127,11072,-3440,-2224,8772,389,-244,98,1389807484.556499
2,34,0,33367,437,-127,-35,33508,9264,2320,-1216,32075,356,-38,133,1389807484.574041
3,34,0,12582,386,195,-102,13005,9488,-3584,-3360,11349,390,-245,94,1389807484.574056
2,35,0,35356,237,-141,-24,35386,9232,2048,-1296,34636,353,-28,135,1389807484.574380
3,35,0,14581,-144,-101,-116,14882,7776,-3424,-4080,13926,389,-245,93,1389807484.574688
2,36,0,36351,191,-150,-5,37264,9344,1840,-1488,37196,359,-30,137,1389807484.592966
3,36,0,16581,-783,-359,-11,16759,6544,-2784,-4576,16504,392,-242,96,1389807484.592981
2,37,0,38341,270,-162,22,39142,9664,1680,-1840,37196,359,-30,137,1389807484.605181
3,37,0,18580,-1316,-499,178,18637,6560,-1712,-4928,16504,392,-242,96,1389807484.605190
2,38,0,40330,385,-161,13,41021,10192,1728,-2256,39758,354,-40,135,1389807484.605455
3,38,0,20579,-1612,-445,405,20514,7840,-496,-5136,19083,390,-236,107,1389807484.605461
2,39,0,42320,493,-158,-22,42898,10752,1744,-2576,42319,354,-35,141,1389807484.623242
3,39,0,22579,-1480,-288,754,22392,9904,896,-5200,21660,385,-223,113,1389807484.623257
2,40,0,44309,530,-115,-68,44778,10656,1568,-2528,42319,354,-35,141,1389807484.634953
3,40,0,23579,-1234,-190,962,24269,12480,2384,-4704,24237,392,-211,116,1389807484.634962
2,41,0,46299,469,-69,-116,46656,10160,944,-2016,44881,355,-36,143,1389807484.635163
3,41,0,25578,-393,-78,1255,26146,13808,3024,-2544,24237,392,-211,116,1389807484.635170
2,42,0,48288,337,-49,-156,48537,9696,16,-1008,47441,354,-42,138,1389807484.653350
3,42,0,27577,950,-125,964,28023,12272,2624,1648,26814,391,-206,119,1389807484.653359
2,43,0,50278,206,-11,-203,50415,9712,-384,-16,50002,353,-40,142,1389807484.665667
3,43,0,29577,2838,-201,21,29900,9136,544,6752,29393,392,-213,112,1389807484.665682
2,44,0,52267,139,20,-351,52294,9984,-672,768,50002,353,-40,142,1389807484.666044
3,44,0,31576,4070,-192,-807,31778,6464,-2624,9344,29393,392,-213,112,1389807484.666054
2,45,0,53262,127,33,-446,54172,10080,-1024,1296,52563,354,-41,145,1389807484.683759
3,45,0,33576,3252,-272,-899,33655,4816,-2960,7904,31970,398,-233,104,1389807484.683768
2,46,0,55252,31,21,-649,56051,10000,-1248,1792,55123,350,-55,142,1389807484.684029
3,46,0,35575,1473,-260,-558,35531,4192,-1872,3824,34549,391,-247,97,1389807484.690187
2,47,0,57241,-205,-45,-870,57929,9888,-1344,1920,57685,350,-59,142,1389807484.701961
2,48,0,59231,-172,-61,-1134,59808,9472,-1024,1456,57685,350,-59,142,1389807484.714173
3,48,0,38574,-726,-94,300,39285,3024,3888,-3776,37127,384,-243,100,1389807484.714188
2,49,0,61220,434,9,-1613,61687,8496,-640,1424,60248,353,-65,148,1389807484.714492
3,49,0,40573,-1573,-40,920,41162,2848,5920,-8128,39704,388,-229,102,1389807484.714758
2,50,0,63210,1062,50,-2009,63566,8304,320,1664,62809,356,-89,139,1389807484.732309
3,50,0,42573,-1653,202,1284,43039,5376,6048,-12208,42282,391,-217,109,1389807484.732318
2,51,0,65199,1698,138,-2044,65445,8720,1552,1312,65371,351,-110,136,1389807484.744444
3,51,0,44572,-856,409,1392,44916,9376,3968,-11904,44860,391,-205,103,1389807484.744459
2,52,0,1653,2213,337,-1986,1788,9232,3104,480,65371,351,-110,136,1389807484.744785
3,52,0,46572,494,53,1150,46793,12016,1152,-5968,44860,391,-205,103,1389807484.744795
2,53,0,3642,2285,596,-1976,3667,9520,4096,-816,2395,353,-130,137,1389807484.763024
3,53,0,48571,697,-660,602,48670,12304,960,1776,47438,399,-199,103,1389807484.763038
2,54,0,4637,2137,719,-1965,5546,9760,4384,-2352,4955,353,-152,122,1389807484.775462
3,54,0,50570,-347,-1035,629,50548,11616,2048,7312,50015,399,-196,115,1389807484.775477
2,55,0,6626,1583,923,-1911,6954,9952,4528,-3312,4955,353,-152,122,1389807484.775820
3,55,0,52570,-878,-865,770,52425,10976,1648,8368,50015,399,-196,115,1389807484.775832
2,56,0,8616,806,1055,-1753,8833,10096,4464,-4176,7517,348,-168,111,1389807484.793019
3,56,0,53570,-744,-698,668,54303,9680,1216,6368,52593,393,-191,125,1389807484.793033
2,57,0,10605,-21,1114,-1579,10712,10192,3936,-4448,10078,350,-182,102,1389807484.805377
3,57,0,55569,-237,-366,248,56180,8064,1888,2688,55171,395,-182,125,1389807484.805386
2,58,0,12595,-730,1076,-1524,12591,10160,2816,-3664,12638,352,-192,94,1389807484.805683
3,58,0,57568,165,-158,1,58057,6576,2640,-688,57748,395,-183,129,1389807484.805712
2,59,0,14585,-1374,976,-1565,14470,10096,1872,-2176,12638,352,-192,94,1389807484.823692
3,59,0,59568,186,-83,201,59935,5392,2512,-2864,57748,395,-183,129,1389807484.823700
2,60,0,16574,-2076,836,-1670,16349,10000,1440,-560,15199,352,-202,82,1389807484.823940
3,60,0,61567,-327,-93,634,61812,5008,2048,-3280,60326,394,-180,126,1389807484.830217
2,61,0,18564,-2772,725,-1809,18227,9776,1568,288,17761,350,-208,87,1389807484.842344
3,61,0,63567,-946,-75,1057,63690,5552,1920,-2096,62904,394,-167,131,1389807484.842353
2,62,0,19558,-2995,694,-1858,20106,9440,2032,672,20322,350,-217,86,1389807484.854428
3,62,0,30,-1258,-45,1293,32,7088,2416,-352,65482,399,-154,130,1389807484.854436
2,63,0,21548,-3058,664,-1888,21985,9040,2224,816,20322,350,-217,86,1389807484.854704
3,63,0,2029,-1166,-67,1323,1909,8560,2880,736,65482,399,-154,130,1389807484.854710
2,64,0,23537,-2731,665,-1835,23864,8704,2176,960,22883,349,-228,88,1389807484.872810
3,64,0,3029,-972,-103,1267,3786,9840,3120,1520,2524,398,-139,133,1389807484.872818
2,65,0,25527,-2266,664,-1790,25744,8448,1984,1040,25445,340,-235,86,1389807484.885006
3,65,0,5029,-494,-155,1138,5664,10304,3152,1904,5100,398,-124,135,1389807484.885016
2,66,0,27516,-1868,648,-1790,27623,8400,1856,720,28006,343,-246,90,1389807484.885357
3,66,0,7028,-166,-154,996,7541,9872,2864,1344,5100,398,-124,135,1389807484.885376
2,67,0,29506,-1598,655,-1800,29502,8496,1632,176,28006,343,-246,90,1389807484.903496
3,67,0,9027,-113,-107,881,9418,8736,2240,16,7678,404,-120,136,1389807484.903505
2,68,0,31495,-1470,667,-1769,31380,8736,1456,-144,30567,339,-1,88,1389807484.909779
3,68,0,11027,-205,-87,844,11296,7744,1568,-1232,10256,402,-114,142,1389807484.910095
2,69,0,33485,-1429,680,-1709,33258,8928,1360,-144,33128,333,-264,85,1389807484.921758
3,69,0,13026,-396,-76,850,13173,6880,1168,-1952,12834,397,-102,140,1389807484.921784
2,70,0,35474,-1391,666,-1643,35136,8736,1408,64,33128,333,-264,85,1389807484.933314
3,70,0,15026,-684,-48,906,15049,6448,1248,-2064,12834,397,-102,140,1389807484.933339
2,71,0,36469,-1359,646,-1615,37015,8400,1424,544,35689,331,-274,86,1389807484.939539
3,71,0,17025,-955,-36,1036,16927,6688,1712,-1232,15412,404,-94,141,1389807484.939791
2,72,0,38459,-1271,579,-1575,38894,7824,1456,784,38249,332,-287,87,1389807484.951317
3,72,0,18025,-1074,-26,1119,18804,7408,2240,32,17990,401,-81,141,1389807484.951324
2,73,0,40448,-1158,508,-1559,40773,7216,1376,720,40810,321,-292,89,1389807484.963394
3,73,0,20024,-1252,-19,1262,20682,8032,2688,1184,20568,403,-65,143,1389807484.963403
2,74,0,42438,-1036,500,-1555,42653,6720,1312,400,40810,321,-292,89,1389807484.968946
3,74,0,22023,-1339,-47,1305,22560,8480,2832,1840,20568,403,-65,143,1389807484.969101
2,75,0,44427,-883,527,-1502,44533,6496,1344,288,43370,321,-302,83,1389807484.981177
3,75,0,24023,-1337,-61,1266,24438,8832,2640,1776,23146,403,-50,141,1389807484.981186
2,76,0,46417,-725,528,-1394,46412,6400,1488,272,45930,314,-312,80,1389807484.993126
3,76,0,26022,-1258,-65,1176,26315,9024,2352,1312,25724,402,-38,142,1389807484.993135
2,77,0,48406,-573,476,-1278,48290,6320,1792,608,48490,308,-314,78,1389807485.4727
3,77,0,28022,-1144,-48,1055,28192,8944,2064,592,25724,402,-38,142,1389807485.4736
2,78,0,50396,-363,394,-1171,50169,6128,1952,1120,48490,308,-314,78,1389807485.5052
3,78,0,30021,-1074,-61,941,30069,8512,1904,48,28302,397,-20,140,1389807485.5059
2,79,0,52385,-67,325,-1082,52048,5936,1888,1680,51051,313,-320,82,1389807485.23143
3,79,0,32020,-1054,-70,891,31946,8160,1920,-160,30881,399,-9,141,1389807485.23152
2,80,0,53380,95,317,-1033,53927,5808,1520,1776,53611,306,-333,79,1389807485.34605
3,80,0,33020,-1046,-70,877,33823,7984,2064,-304,33460,398,-1,141,1389807485.34613
2,81,0,55370,423,331,-937,55805,5680,1232,1424,53611,306,-333,79,1389807485.34837
3,81,0,35020,-1027,-73,864,35700,7872,2208,-256,33460,398,-1,141,1389807485.34842
2,82,0,57359,700,356,-843,57684,5632,736,736,56172,299,-339,74,1389807485.52397
3,82,0,37019,-944,-54,782,37577,8064,2256,-32,36037,395,-250,140,1389807485.52406
2,83,0,59349,859,378,-740,59562,5616,432,-96,58733,298,-344,65,1389807485.64235
3,83,0,39018,-774,-7,632,39454,8160,2400,272,38615,394,20,137,1389807485.64244
2,84,0,61338,814,376,-613,61440,5616,176,-944,61294,296,-348,59,1389807485.64504
3,84,0,41018,-598,44,481,41331,8144,2848,624,41193,395,21,135,1389807485.64510
2,85,0,63328,568,361,-475,63318,5568,16,-1536,61294,296,-348,59,1389807485.82569
3,85,0,43017,-517,74,372,43207,8128,3472,912,41193,395,21,135,1389807485.82578
2,86,0,65317,230,336,-312,65197,5472,0,-2064,63856,290,-354,55,1389807485.94289
3,86,0,45017,-521,70,307,45084,8048,3712,912,43771,391,24,134,1389807485.94298
2,87,0,1771,-55,303,-114,1540,5360,-128,-2304,880,295,-352,49,1389807485.94566
3,87,0,47016,-532,50,300,46961,7920,3728,784,46349,392,29,131,1389807485.94572
2,88,0,2765,-162,298,-6,3419,5360,-208,-2384,3440,295,-352,49,1389807485.112016
3,88,0,48016,-516,42,312,48838,8064,3600,400,46349,392,29,131,1389807485.112031
2,89,0,4755,-360,280,230,5298,5456,-208,-2256,3440,295,-352,49,1389807485.123712
3,89,0,50015,-413,54,350,50715,8192,3232,-128,48928,395,36,132,1389807485.123721
2,90,0,6744,-556,231,481,7177,5584,-112,-1904,6001,295,-351,47,1389807485.123963
3,90,0,52015,-255,63,387,52592,8464,2800,-528,51506,396,36,134,1389807485.129473
2,91,0,8734,-685,138,712,9056,5616,-208,-1312,8562,297,-338,49,1389807485.141492
3,91,0,54014,-108,50,409,54469,8512,2176,-544,54082,387,46,130,1389807485.141501
2,92,0,10723,-703,-6,888,10935,5616,-304,-720,11123,300,-332,56,1389807485.153706
3,92,0,56013,-106,10,414,56346,8368,1664,-464,54082,387,46,130,1389807485.153715
2,93,0,12713,-629,-106,1011,12815,5616,-592,-192,11123,300,-332,56,1389807485.153959
3,93,0,58013,-278,-26,440,58222,8208,1424,-512,56660,389,48,132,1389807485.160158
2,94,0,14702,-525,-160,1095,14695,5712,-992,-176,13684,307,-327,59,1389807485.172216
3,94,0,60012,-526,-41,474,60099,8192,1472,-528,59238,392,49,131,1389807485.172224
2,95,0,16692,-414,-164,1126,16574,5856,-1328,-432,16244,310,-313,61,1389807485.184412
3,95,0,62012,-784,-51,500,61976,8176,1792,-624,61816,387,57,129,1389807485.184421
2,96,0,18682,-296,-170,1130,18454,6000,-1616,-768,16244,310,-313,61,1389807485.184677
3,96,0,63011,-893,-50,493,63853,8192,1840,-768,61816,387,57,129,1389807485.184683
2,97,0,19676,-260,-170,1118,20333,6288,-1824,-896,18804,318,-305,64,1389807485.202217
3,97,0,65011,-1040,-44,486,194,8144,1680,-752,64394,387,71,126,1389807485.202227
2,98,0,21666,-228,-168,1115,22212,6992,-2256,-944,21366,322,-296,64,1389807485.214474
3,98,0,1474,-1133,-20,457,2071,8224,1520,-832,1436,387,71,125,1389807485.214488
2,99,0,23655,-234,-147,1127,24092,8064,-2800,-1152,23927,319,-284,68,1389807485.214811
3,99,0,3473,-1208,7,461,3948,8480,1616,-976,1436,387,71,125,1389807485.214822
2,100,0,25645,-274,-93,1102,25971,9680,-3696,-1600,23927,319,-284,68,1389807485.232179
3,100,0,5473,-1220,48,419,5824,8624,1952,-864,4013,383,82,122,1389807485.232186
2,101,0,27634,-415,-56,1091,27850,11648,-5056,-2224,26487,334,-277,71,1389807485.244401
3,101,0,7472,-1214,73,339,7702,8576,2576,-464,6591,386,91,114,1389807485.244415
2,102,0,29624,-625,-19,1048,29729,13440,-6704,-2960,29047,334,-269,75,1389807485.244671
3,102,0,9472,-1246,90,283,9580,8480,3152,320,9169,385,94,113,1389807485.244678
2,103,0,31613,-789,41,845,31607,14688,-8224,-3600,31609,340,-259,72,1389807485.261361
3,103,0,11471,-1238,98,270,11457,8656,3488,1360,9169,385,94,113,1389807485.261368
2,104,0,33603,-859,107,453,33485,15024,-8912,-3760,31609,340,-259,72,1389807485.272862
3,104,0,12471,-1191,103,265,13334,8624,3744,2192,11746,379,98,109,1389807485.272868
2,105,0,35592,-945,111,-60,35364,14224,-8464,-2720,34169,340,-257,82,1389807485.284052
3,105,0,14470,-1007,95,254,15210,8592,3760,2464,14324,385,106,105,1389807485.284058
2,106,0,36587,-1030,99,-280,37242,12336,-7120,-832,36729,339,-260,78,1389807485.284208
3,106,0,16470,-745,103,219,17087,8640,3488,2192,16901,385,110,104,1389807485.284344
2,107,0,38577,-1092,97,-500,39122,9824,-5568,960,39291,335,-258,81,1389807485.302030
3,107,0,18469,-476,107,184,18965,8768,2960,1712,16901,385,110,104,1389807485.302039
2,108,0,40566,-926,114,-366,41001,7344,-3712,2576,39291,335,-258,81,1389807485.313677
3,108,0,20468,-247,108,154,20843,8768,2176,1152,19477,376,107,101,1389807485.313686
2,109,0,42556,-654,137,-88,42879,5440,-1648,3840,41853,335,-511,88,1389807485.313928
3,109,0,22468,-76,112,137,22721,8992,1136,768,22055,376,114,99,1389807485.319569
2,110,0,44545,-460,174,189,44758,4592,64,4784,44411,335,-254,85,1389807485.331010
3,110,0,24467,-38,125,144,24599,9616,560,592,22055,376,114,99,1389807485.331019
2,111,0,46535,-284,257,429,46636,5104,1328,5920,44411,335,-254,85,1389807485.343203
3,111,0,26467,-154,149,145,26476,11072,640,880,24633,380,111,99,1389807485.343211
2,112,0,48524,69,332,800,48515,7504,3456,7504,46972,333,-252,83,1389807485.355377
3,112,0,27466,-250,147,119,28353,13072,1280,1520,27211,380,114,97,1389807485.355386
2,113,0,50514,816,276,1405,50393,9936,6944,7632,49532,337,-237,78,1389807485.355650
3,113,0,29466,-406,57,23,30231,13328,1296,1744,29787,381,118,93,1389807485.355656
2,114,0,51509,1226,179,1724,52272,10208,9616,1968,52092,349,-227,75,1389807485.373079
3,114,0,31465,-319,-23,-188,32108,12352,-160,912,29787,381,118,93,1389807485.373088
2,115,0,53498,1268,-117,2193,54150,11792,9536,-5536,52092,349,-227,75,1389807485.385056
3,115,0,33465,-22,-53,-392,33985,11728,-1488,-144,32365,381,117,93,1389807485.385066
2,116,0,55488,-82,-268,2176,56029,14544,6896,-9200,54652,350,-210,73,1389807485.385335
3,116,0,35464,284,-64,-556,35863,11216,-1776,-624,34943,380,108,95,1389807485.385342
2,117,0,57477,-1366,-4,1556,57908,16144,2000,-7040,57213,350,-192,75,1389807485.402761
3,117,0,37463,108,-45,-864,37740,11424,-1504,-1024,37520,380,100,92,1389807485.402770
2,118,0,59467,-2124,223,776,59787,14848,-5488,-3040,59773,359,-189,79,1389807485.414959
3,118,0,39463,-362,-71,-1456,39617,10576,-752,-1840,37520,380,100,92,1389807485.414972
2,119,0,61456,-2822,310,11,61666,11680,-9632,-1552,59773,359,-189,79,1389807485.415408
3,119,0,41462,-605,15,-2227,41494,9136,-416,-3056,40098,393,80,95,1389807485.415423
2,120,0,63446,-2173,302,-1072,63545,6016,-6000,1216,62334,358,-192,81,1389807485.432751
3,120,0,42462,-653,100,-2431,42903,8608,-160,-3328,42675,393,65,91,1389807485.432816
2,121,0,65435,217,203,-1364,65424,-1344,1664,6384,64895,356,-195,80,1389807485.444928
3,121,0,44461,-1239,61,-2336,44781,8560,1808,-2784,42675,393,65,91,1389807485.444937
2,122,0,1889,3320,-87,-391,1766,-5408,7056,11056,1919,357,-203,73,1389807485.445167
3,122,0,46461,-1864,-189,-1960,46658,9056,4192,-1920,45253,400,57,87,1389807485.445174
2,123,0,2883,4230,-399,428,3644,-2800,8448,7040,1919,357,-203,73,1389807485.462042
3,123,0,48460,-1881,-527,-1748,48536,10240,6608,64,47830,400,48,87,1389807485.462051
2,124,0,4873,4270,-903,1686,5522,1200,8816,-912,4479,355,-196,74,1389807485.473606
3,124,0,50459,-1634,-845,-1437,50413,11376,7600,2592,50408,404,39,91,1389807485.473614
2,125,0,6862,2742,-658,2332,7401,7184,8448,-7664,7039,354,-180,70,1389807485.473859
3,125,0,52459,-1081,-1051,-1391,52290,11568,7040,4096,50408,404,39,91,1389807485.485959
2,126,0,8852,895,346,2408,9280,15008,5888,-10992,7039,354,-180,70,1389807485.486247
3,126,0,54458,-185,-1083,-1614,54168,11328,6336,4048,52985,403,32,99,1389807485.486252
2,127,0,10841,-570,1146,1807,11158,19968,2400,-10240,9600,364,-168,64,1389807485.503909
3,127,0,56458,885,-942,-1813,56046,10512,5824,2576,55563,405,14,110,1389807485.503917
2,128,0,12831,-1525,890,956,13037,17344,160,-7360,12161,365,-159,56,1389807485.504154
3,128,0,57457,1423,-831,-1894,57923,9680,5152,624,58140,410,248,119,1389807485.504354
2,129,0,14820,-1641,184,302,14915,11424,-640,-4192,14722,367,-149,57,1389807485.522393
3,129,0,59457,2295,-623,-1967,59800,9088,4640,-608,58140,410,248,119,1389807485.522402
2,130,0,16810,-1114,-360,-61,16793,6656,-128,-1264,14722,367,-149,57,1389807485.533731
3,130,0,61456,2772,-427,-1918,61677,8736,4176,-992,60717,405,-35,123,1389807485.533741
2,131,0,18800,-406,-687,-17,18672,3184,1008,1472,17283,372,-150,62,1389807485.533988
3,131,0,63456,2881,-326,-1865,63554,8512,3440,-1040,63295,405,-51,127,1389807485.540215
2,132,0,19794,-88,-770,132,20551,1680,2064,3136,19843,372,-144,66,1389807485.552491
3,132,0,65455,2708,-285,-1865,65431,8256,2640,-1008,63295,405,-51,127,1389807485.552500
2,133,0,21784,325,-767,545,22429,2672,2704,3120,22403,364,-142,72,1389807485.564573
3,133,0,1918,2276,-249,-1854,1772,8080,2064,-1152,338,408,-78,128,1389807485.564582
2,134,0,23773,616,-526,878,24308,5136,3584,2144,22403,364,-142,72,1389807485.564845
3,134,0,3918,1827,-198,-1850,3648,8048,1744,-1392,2917,407,-95,135,1389807485.564851
2,135,0,25763,854,-156,1081,26186,7872,3792,1296,24962,366,-130,76,1389807485.582663
3,135,0,5917,1484,-209,-1841,5525,8128,1296,-1440,5495,400,-116,130,1389807485.582671
2,136,0,27752,863,249,1254,28064,9968,3104,736,27522,370,-126,73,1389807485.594351
3,136,0,6917,1340,-250,-1823,7402,8208,1040,-1104,5495,400,-116,130,1389807485.594361
2,137,0,29742,756,502,1305,29943,10976,1904,96,30083,366,-115,72,1389807485.594630
3,137,0,8916,1090,-347,-1739,9279,8272,1296,-704,8072,407,-136,136,1389807485.594637
2,138,0,31731,859,441,1201,31822,10544,1248,-624,30083,366,-115,72,1389807485.612208
3,138,0,10916,951,-447,-1634,11156,8320,1856,-560,10650,403,-154,135,1389807485.612216
2,139,0,33721,1254,189,1048,33701,9344,960,-1136,32644,369,-105,64,1389807485.623682
3,139,0,12915,1011,-495,-1551,13034,8192,2240,-512,13227,397,-166,139,1389807485.623697
2,140,0,35710,1614,-66,874,35580,8192,1072,-1744,35204,372,-102,63,1389807485.623999
3,140,0,14915,1175,-482,-1474,14912,7920,2608,-512,13227,397,-166,139,1389807485.630156
2,141,0,36705,1704,-159,792,37459,7456,1648,-2416,35204,372,-102,63,1389807485.642193
3,141,0,16914,1280,-441,-1381,16790,7488,2688,-480,15805,397,-189,139,1389807485.642209
2,142,0,38695,1811,-232,651,39339,7200,2336,-2960,37765,371,-104,67,1389807485.654149
3,142,0,18913,1266,-379,-1274,18667,7152,2544,-304,18382,392,-197,140,1389807485.654158
2,143,0,40684,1851,-187,530,41218,7152,2752,-3120,40326,372,-94,69,1389807485.654425
3,143,0,20913,1153,-328,-1168,20546,6944,2592,-80,18382,392,-197,140,1389807485.654431
2,144,0,42674,1765,-52,430,43096,7392,2768,-2848,42887,372,-99,67,1389807485.671753
3,144,0,21912,1092,-316,-1131,22422,6896,2528,128,20959,386,-212,143,1389807485.671804
2,145,0,44663,1558,72,425,44975,7776,2160,-2240,42887,372,-99,67,1389807485.683744
3,145,0,23912,962,-327,-1064,24299,6880,2608,288,23538,383,-218,147,1389807485.683753
2,146,0,46653,1332,152,505,46854,8112,1712,-1648,45449,371,-101,65,1389807485.683934
3,146,0,25911,884,-363,-988,26177,7072,2624,128,26116,385,-232,142,1389807485.690019
2,147,0,48642,1260,166,578,48732,8304,1440,-1344,48010,371,-90,61,1389807485.702330
3,147,0,27911,887,-379,-880,28054,7120,2656,-112,26116,385,-232,142,1389807485.702338
2,148,0,50632,1310,136,586,50610,8304,1488,-1184,50570,373,-90,60,1389807485.714426
3,148,0,29910,910,-370,-776,29932,6928,2592,-560,28694,377,-235,143,1389807485.714434
2,149,0,51627,1346,105,560,52489,8160,1680,-1200,50570,373,-90,60,1389807485.714698
3,149,0,31909,900,-380,-676,31809,6560,2240,-1072,31272,376,-246,143,1389807485.714704
2,150,0,53616,1335,39,486,54367,8000,1984,-976,53130,373,-95,57,1389807485.732862
3,150,0,33909,802,-411,-546,33687,6096,1680,-1376,33850,374,-253,145,1389807485.732877
2,151,0,55606,1191,-24,429,56245,7712,2368,-832,55690,373,-86,64,1389807485.745144
3,151,0,35908,618,-423,-395,35564,5824,1200,-1312,33850,374,-253,145,1389807485.745153
2,152,0,57595,1030,-67,394,58122,7472,2720,-608,55690,373,-86,64,1389807485.745418
3,152,0,36908,512,-401,-319,37441,6000,752,-1024,36427,368,-6,148,1389807485.745424
2,153,0,59585,989,-99,412,60000,7344,2880,-480,58251,372,-88,60,1389807485.763538
3,153,0,38907,329,-319,-194,39318,6160,512,-768,39006,364,-260,146,1389807485.763547
2,154,0,61574,1068,-125,455,61878,7376,2800,-560,60811,371,-86,61,1389807485.769711
3,154,0,40907,252,-209,-78,41195,6256,480,-464,39006,364,-260,146,1389807485.769979
2,155,0,63564,1185,-140,474,63756,7568,2624,-992,63372,369,-79,67,1389807485.782401
3,155,0,42906,286,-99,58,43072,6416,624,-288,41585,366,-264,149,1389807485.782416
2,156,0,17,1259,-147,452,99,7904,2560,-1424,63372,369,-79,67,1389807485.794766
3,156,0,44906,421,-6,162,44949,6448,528,-320,44163,366,-262,155,1389807485.794781
2,157,0,2007,1221,-138,417,1976,8144,2448,-1632,396,374,-80,64,1389807485.795094
3,157,0,46905,567,25,220,46826,6336,400,-656,46741,365,-259,147,1389807485.795105
2,158,0,3001,1167,-142,402,3855,8224,2240,-1280,2956,370,-80,66,1389807485.812938
3,158,0,48904,656,-2,257,48703,6160,304,-1104,46741,365,-259,147,1389807485.812952
2,159,0,4991,989,-147,381,5733,8096,2064,-704,5516,370,-80,65,1389807485.824134
3,159,0,50904,645,-53,340,50580,6048,192,-1312,49319,366,-261,144,1389807485.824148
2,160,0,6980,770,-156,371,7611,7920,1920,-64,5516,370,-80,65,1389807485.824453
3,160,0,51904,599,-74,403,52457,6016,160,-1456,51896,367,-257,144,1389807485.824673
2,161,0,8970,594,-150,354,9489,7680,1984,512,8076,371,-77,75,1389807485.842855
3,161,0,53903,383,-99,552,54334,6064,0,-1552,54473,362,-256,143,1389807485.842869
2,162,0,10959,546,-159,361,11369,7632,2160,864,10636,373,-77,71,1389807485.855140
3,162,0,55902,38,-88,678,56211,6176,-144,-1712,54473,362,-256,143,1389807485.855149
2,163,0,12949,541,-174,334,13247,7520,2160,896,13196,372,-72,74,1389807485.855470
3,163,0,57902,-332,-52,730,58088,6304,-400,-1696,57050,369,-508,143,1389807485.855476
2,164,0,14938,572,-210,296,15126,7616,2112,528,13196,372,-72,74,1389807485.872975
3,164,0,59901,-588,-28,707,59966,6576,-880,-1632,59627,374,-243,146,1389807485.872984
2,165,0,16928,682,-256,288,17004,7744,2272,-112,15756,373,-69,81,1389807485.884987
3,165,0,61901,-626,-34,640,61842,6752,-1440,-1200,59627,374,-243,146,1389807485.884996
2,166,0,18918,845,-287,278,18882,7872,2432,-816,18317,373,-71,77,1389807485.885272
3,166,0,63900,-533,-81,595,63720,7168,-1840,-624,62205,373,-234,147,1389807485.885277
2,167,0,19912,928,-288,273,20760,8000,2608,-1184,18317,373,-71,77,1389807485.903146
3,167,0,363,-330,-158,625,61,7904,-2176,64,64783,374,-226,152,1389807485.903155
2,168,0,21902,1016,-276,257,22639,8128,2496,-1200,20879,368,-69,77,1389807485.914802
3,168,0,1363,-165,-196,636,1938,9008,-2448,992,1825,378,-223,147,1389807485.914817
2,169,0,23891,935,-242,253,24518,8256,2336,-960,23438,368,-67,85,1389807485.915219
3,169,0,3362,288,-270,630,3815,10736,-2992,2208,1825,378,-223,147,1389807485.915230
2,170,0,25881,780,-210,263,26396,8304,2096,-656,25998,371,-68,86,1389807485.933000
3,170,0,5362,974,-380,583,5692,12528,-5040,3648,4403,374,-221,148,1389807485.933027
2,171,0,27870,662,-182,286,28275,8352,2000,-592,25998,371,-68,86,1389807485.945200
3,171,0,7361,1515,-505,359,7570,14064,-7696,5136,6981,379,-220,155,1389807485.945214
2,172,0,29860,672,-185,304,30153,8336,2240,-752,28558,367,-68,84,1389807485.945540
3,172,0,9361,1395,-559,-55,9447,14368,-8944,5568,9559,377,-230,153,1389807485.945550
2,173,0,31849,752,-221,280,32032,8384,2576,-1120,31118,370,-63,90,1389807485.963676
3,173,0,11360,1044,-415,-498,11324,13088,-7616,3904,9559,377,-230,153,1389807485.963690
2,174,0,33839,783,-252,240,33910,8400,2672,-1488,33679,370,-69,91,1389807485.963999
3,174,0,13359,907,-66,-713,13201,11408,-5392,1168,12136,375,-243,154,1389807485.970272
2,175,0,34834,743,-263,222,35789,8416,2656,-1584,33679,370,-69,91,1389807485.982480
3,175,0,15359,766,254,-684,15078,9744,-4320,-864,14714,367,-244,148,1389807485.982495
2,176,0,36823,511,-267,199,37667,8352,2112,-1456,36239,367,-65,92,1389807485.994693
3,176,0,16359,624,351,-657,16956,8304,-3888,-2080,14714,367,-244,148,1389807485.994703
2,177,0,38813,203,-252,203,39545,8464,1504,-1392,38799,365,-62,97,1389807485.994972
3,177,0,18358,178,382,-543,18834,6592,-3248,-2752,17292,369,-249,141,1389807485.994978
2,178,0,40802,-11,-233,197,40954,8496,912,-1408,41360,367,-64,100,1389807486.12704
3,178,0,20357,-309,174,-429,20710,4688,-2784,-2944,19870,368,-255,147,1389807486.12714
2,179,0,42792,-79,-230,186,42832,8800,272,-1648,41360,367,-64,100,1389807486.24010
3,179,0,22357,-699,-120,-300,22587,3152,-2288,-3264,22448,366,-250,144,1389807486.24025
2,180,0,44781,-55,-222,162,44711,9200,-320,-1920,43921,367,-61,100,1389807486.24297
3,180,0,24356,-934,-383,20,24465,2496,-1296,-3744,22448,366,-250,144,1389807486.24545
2,181,0,46771,-14,-201,142,46590,9568,-992,-2064,46483,363,-59,102,1389807486.42233
3,181,0,26356,-942,-516,489,26344,2832,736,-3712,25026,368,-244,149,1389807486.42243
2,182,0,48760,29,-171,74,48468,9696,-1632,-1856,46483,363,-59,102,1389807486.54364
3,182,0,28355,-549,-484,931,28222,3552,3392,-2496,27604,369,-233,159,1389807486.54373
2,183,0,50750,63,-144,-52,50347,10256,-2416,-1392,49044,365,-59,101,1389807486.54572
3,183,0,30354,269,-238,1240,30100,4704,5776,-288,30181,368,-225,161,1389807486.54578
2,184,0,51744,67,-131,-143,52226,11392,-2960,-928,51606,364,-63,103,1389807486.72545
3,184,0,31354,856,-29,1473,31977,8064,7568,1904,30181,368,-225,161,1389807486.72554
2,185,0,53734,110,-64,-413,54105,12640,-3408,-1088,54166,360,-66,108,1389807486.84120
3,185,0,33354,2118,356,2148,33855,13600,7520,4160,32759,373,-215,153,1389807486.84129
2,186,0,55724,211,7,-787,55983,12368,-3632,-1536,54166,360,-66,108,1389807486.84396
3,186,0,35353,1723,481,2397,35732,18432,7808,5248,35337,382,-203,146,1389807486.84402
2,187,0,57713,405,82,-1169,57861,11456,-4448,-1824,56726,364,-77,103,1389807486.102559
3,187,0,37352,469,433,1721,37610,20512,5088,4608,35337,382,-203,146,1389807486.102567
2,188,0,59703,885,151,-1646,59739,10480,-2336,-1024,59287,362,-94,103,1389807486.114766
3,188,0,39352,414,0,1003,39488,20960,-240,3248,37915,383,-196,143,1389807486.114775
2,189,0,61692,1496,172,-2149,61618,10016,-464,256,61848,362,-111,101,1389807486.115057
3,189,0,41351,958,-408,243,41365,20384,-3856,-768,40493,386,-195,148,1389807486.115064
2,190,0,63682,1636,195,-2403,63496,10144,1360,1424,61848,362,-111,101,1389807486.132555
3,190,0,43351,2314,-481,-1235,43242,14688,-4544,-4096,43070,388,-216,140,1389807486.132564
2,191,0,135,1662,358,-2391,65374,9872,2848,1424,64409,362,-136,98,1389807486.144008
3,191,0,45350,3264,-384,-2292,45119,5408,-3104,-5040,43070,388,-216,140,1389807486.144017
2,192,0,2125,1412,638,-2220,1717,9472,4304,320,1433,361,-159,87,1389807486.144294
3,192,0,46350,2747,-262,-2476,46996,-4608,368,-6944,45648,380,-243,137,1389807486.144500
2,193,0,3119,1206,786,-2113,3595,9760,5888,-1680,3994,359,-177,79,1389807486.161900
3,193,0,48349,-179,-107,-1498,48874,-12432,6432,-10640,48226,372,-249,139,1389807486.161908
2,194,0,5109,666,1083,-1877,5474,10880,7008,-3712,3994,359,-177,79,1389807486.173984
3,194,0,50348,-3109,439,1089,50752,-8976,12848,-10240,50804,382,-217,140,1389807486.173992
2,195,0,7098,81,1353,-1661,7352,12112,6256,-5328,6555,361,-189,67,1389807486.174298
3,195,0,52348,-2999,1162,3107,52629,-192,12080,-3424,50804,382,-217,140,1389807486.174544
2,196,0,9088,-440,1459,-1647,9231,12960,3904,-5424,9116,358,-203,52,1389807486.192609
3,196,0,54347,-1461,426,3579,54507,9392,3616,4368,53381,382,-183,138,1389807486.192623
2,197,0,11077,-1335,1255,-1847,11109,13152,2128,-4080,9116,358,-203,52,1389807486.204867
3,197,0,56347,-1189,-732,2831,56384,19376,416,7488,55960,397,-157,142,1389807486.204875
2,198,0,13067,-2332,909,-2015,12988,12368,1648,-2464,11677,356,-218,45,1389807486.205142
3,198,0,58346,-1132,-1033,1614,58262,23872,3504,7488,58537,397,-143,154,1389807486.205148
2,199,0,15056,-2803,637,-2060,14867,11296,1984,-1008,14239,353,-228,45,1389807486.223095
3,199,0,60346,-579,-459,1059,60140,19008,5552,7008,58537,397,-143,154,1389807486.223110
2,200,0,17046,-2827,551,-1918,16746,10128,2416,-160,16801,353,-236,51,1389807486.235004
3,200,0,61345,-242,-168,752,62018,11536,4672,6352,61113,390,-140,160,1389807486.235010
2,201,0,18041,-2788,557,-1828,18625,9072,2560,464,16801,353,-236,51,1389807486.235248
3,201,0,63345,277,178,431,63895,6608,4080,4272,63690,390,-133,153,1389807486.235253
2,202,0,20030,-2659,592,-1721,20502,8224,2528,976,19362,343,-251,53,1389807486.252522
3,202,0,65344,581,425,577,237,3744,3392,944,63690,390,-133,153,1389807486.252529
2,203,0,22020,-2399,621,-1699,22381,7568,2496,1120,21921,342,-254,59,1389807486.264795
3,203,0,1807,681,349,537,2114,1808,2016,-2688,731,394,-133,152,1389807486.264809
2,204,0,24009,-1989,602,-1698,24259,7152,2448,1072,24482,342,-10,56,1389807486.265133
3,204,0,3807,395,162,507,3993,2272,656,-4912,3309,394,-131,146,1389807486.265144
2,205,0,25999,-1581,558,-1685,26138,6896,2336,816,24482,342,-10,56,1389807486.282710
3,205,0,5806,-99,129,892,5870,4752,96,-4928,5886,397,-120,147,1389807486.282724
2,206,0,27988,-1294,557,-1657,28017,7072,2272,608,27043,335,-282,61,1389807486.294537
3,206,0,7806,-739,84,1348,7748,7312,432,-3952,5886,397,-120,147,1389807486.294546
2,207,0,29978,-1142,595,-1599,29896,7520,2016,304,29601,331,-288,57,1389807486.294813
3,207,0,9805,-1260,-29,1622,9626,9024,880,-2560,8464,397,-106,148,1389807486.294820
2,208,0,31967,-1087,646,-1535,31775,7968,1760,-16,29601,331,-288,57,1389807486.312352
3,208,0,10805,-1426,-79,1714,11505,10112,1200,-1104,11041,397,-84,148,1389807486.312361
2,209,0,33957,-1063,678,-1468,33653,8048,1600,-304,32161,327,-299,57,1389807486.324262
3,209,0,12804,-1663,-167,1768,13382,10224,1392,176,13619,397,-64,152,1389807486.324269
2,210,0,34952,-1053,694,-1451,35533,7808,1632,-624,34722,322,-307,54,1389807486.324466
3,210,0,14804,-1897,-160,1685,15260,9728,1680,880,13619,397,-64,152,1389807486.324471
2,211,0,36941,-1074,696,-1411,37411,7504,1760,-1040,37284,317,-314,53,1389807486.341735
3,211,0,16803,-2083,-128,1520,17137,8960,2176,1136,16197,398,-41,155,1389807486.341743
2,212,0,38931,-1164,670,-1363,39290,7200,1824,-1488,37284,317,-314,53,1389807486.353851
3,212,0,18802,-2173,-136,1209,19014,8304,2512,1200,18775,397,-29,153,1389807486.353865
2,213,0,40920,-1286,663,-1279,41168,7024,1936,-1936,39846,317,-319,56,1389807486.354145
3,213,0,20802,-2218,-178,802,20892,7920,2752,1264,18775,397,-29,153,1389807486.360457
2,214,0,42910,-1375,648,-1162,43047,6864,1872,-2176,42408,313,-329,51,1389807486.372593
3,214,0,22801,-2175,-201,497,22769,7648,2960,1056,21353,394,-14,153,1389807486.372602
2,215,0,44899,-1447,650,-1028,44926,6800,1936,-2096,44970,305,-330,55,1389807486.384764
3,215,0,24801,-1974,-180,382,24647,7664,2832,704,23931,394,-5,150,1389807486.384773
2,216,0,46889,-1531,621,-922,46804,6752,2112,-1808,44970,305,-330,55,1389807486.385042
3,216,0,25800,-1841,-147,369,26524,7952,2832,304,26509,393,-253,149,1389807486.385090
2,217,0,48878,-1617,578,-825,48683,6752,2368,-1376,47533,305,-336,62,1389807486.401872
3,217,0,27800,-1569,-63,373,28402,8144,3184,128,26509,393,-253,149,1389807486.401880
2,218,0,50868,-1627,528,-721,50562,6848,2592,-880,50095,298,-337,63,1389807486.413972
3,218,0,29799,-1281,-9,356,30280,8096,3632,384,29087,389,6,149,1389807486.413981
2,219,0,51862,-1580,492,-662,52441,6880,2560,-384,52658,298,-339,68,1389807486.414305
3,219,0,31798,-1000,27,367,32156,8176,3984,880,31665,389,21,144,1389807486.414555
2,220,0,53852,-1431,420,-531,54320,6704,2256,16,52658,298,-339,68,1389807486.431920
3,220,0,33798,-678,25,406,34033,8448,4080,1456,34243,393,26,147,1389807486.431940
2,221,0,55842,-1244,369,-405,56199,6224,1984,400,55219,296,-336,72,1389807486.443896
3,221,0,35797,-405,-6,442,35911,8608,3728,1792,34243,393,26,147,1389807486.443904
2,222,0,57831,-1038,332,-263,58078,5856,1568,672,57779,301,-339,72,1389807486.444154
3,222,0,37797,-237,-24,469,37789,8448,3360,1856,36819,394,29,146,1389807486.444406
2,223,0,59821,-760,313,-131,59956,5440,912,960,57779,301,-339,72,1389807486.462067
3,223,0,39796,-220,-15,436,39666,8192,2960,1488,39397,386,36,145,1389807486.462075
2,224,0,61810,-465,285,17,61836,5280,368,1024,60340,296,-334,73,1389807486.473432
3,224,0,40796,-248,-13,409,41543,7984,2736,768,39397,386,36,145,1389807486.473446
2,225,0,63800,-245,219,179,63715,5344,32,864,62900,294,-331,72,1389807486.479764
3,225,0,42795,-319,13,374,43420,7856,2736,-48,41975,390,39,144,1389807486.480077
2,226,0,253,-159,124,362,59,5344,-224,816,65461,302,-330,72,1389807486.492197
3,226,0,44795,-370,40,368,45298,7872,2688,-816,44552,388,41,143,1389807486.492206
2,227,0,1248,-157,72,453,1938,5472,-560,912,65461,302,-330,72,1389807486.504291
3,227,0,46794,-378,65,406,47175,7904,2544,-1216,47130,386,48,140,1389807486.504299
2,228,0,3237,-227,-32,624,3817,5792,-896,1136,2487,300,-326,72,1389807486.504565
3,228,0,48793,-398,80,477,49053,7920,2240,-1440,47130,386,48,140,1389807486.504571
2,229,0,5227,-317,-92,749,5697,6208,-1168,1520,5047,301,-320,75,1389807486.522549
3,229,0,50793,-445,73,525,50929,7984,2016,-1440,49708,387,50,141,1389807486.522574
2,230,0,7216,-374,-100,815,7577,6848,-1232,1776,7607,311,-312,77,1389807486.534180
3,230,0,52792,-486,65,562,52806,7840,1856,-1392,52285,389,58,139,1389807486.534189
2,231,0,9206,-372,-89,856,9456,7152,-1120,1840,7607,311,-312,77,1389807486.534394
3,231,0,54792,-514,78,589,54683,7824,1952,-1200,54863,385,66,136,1389807486.534401
2,232,0,11195,-218,-94,820,11335,7296,-1168,1712,10168,311,-306,82,1389807486.551770
3,232,0,55791,-530,87,604,56560,7968,1984,-1024,54863,385,66,136,1389807486.551779
2,233,0,13185,66,-114,774,13213,7008,-1456,1456,12729,310,-300,77,1389807486.563901
3,233,0,57791,-577,79,579,58436,8160,1904,-784,57441,384,74,136,1389807486.563910
2,234,0,15174,401,-133,705,15093,6592,-1776,1120,15290,319,-294,78,1389807486.564073
3,234,0,59790,-676,63,532,60313,8176,1728,-288,60018,387,81,133,1389807486.564228
2,235,0,17164,699,-109,604,16973,6016,-2560,928,15290,319,-294,78,1389807486.581538
3,235,0,61790,-818,54,454,62190,8064,1536,416,60018,387,81,133,1389807486.581545
2,236,0,18159,832,-80,569,18851,5664,-2816,496,17851,320,-291,78,1389807486.593579
3,236,0,63789,-1020,56,385,64067,8112,1664,1072,62595,379,81,131,1389807486.593587
2,237,0,20148,1044,30,574,20731,5856,-2816,-288,20412,318,-289,77,1389807486.599840
3,237,0,252,-1209,73,340,408,8432,2176,1440,65171,377,94,125,1389807486.600135
2,238,0,22138,1117,139,651,22610,6896,-2752,-1360,20412,318,-289,77,1389807486.612045
3,238,0,2252,-1300,65,316,2284,8704,2848,1440,2212,380,99,121,1389807486.612060
2,239,0,24127,934,205,774,24489,8368,-3216,-2784,22973,324,-285,65,1389807486.624190
3,239,0,4251,-1250,38,279,4161,8720,3312,1040,2212,380,99,121,1389807486.624198
2,240,0,26117,594,285,848,26368,9968,-3856,-4256,25533,329,-279,61,1389807486.624464
3,240,0,5251,-1169,29,254,6038,8432,3056,496,4790,378,99,119,1389807486.624470
2,241,0,28106,349,414,833,28247,11536,-5008,-5648,28094,328,-273,56,1389807486.642362
3,241,0,7250,-937,22,233,7915,8192,2736,32,7366,375,106,111,1389807486.642441
2,242,0,30096,282,549,755,30126,13168,-6576,-6576,28094,328,-273,56,1389807486.654715
3,242,0,9250,-750,33,252,9792,8032,2464,-192,9943,379,110,110,1389807486.654723
2,243,0,32085,216,513,595,32005,14144,-7856,-6864,30655,336,-269,51,1389807486.654992
3,243,0,11249,-637,65,262,11669,8000,2448,0,9943,379,110,110,1389807486.654998
2,244,0,34075,-4,290,169,33884,13552,-7776,-6480,33215,336,-268,46,1389807486.672846
3,244,0,13249,-618,99,222,13546,8096,2656,464,12521,378,116,113,1389807486.672861
2,245,0,35070,-223,143,-95,35764,11680,-6368,-5008,35776,336,-269,50,1389807486.685166
3,245,0,15248,-646,116,165,15423,8208,2864,880,15098,372,122,102,1389807486.685175
2,246,0,37059,-853,-42,-441,37643,9504,-4752,-3248,35776,336,-269,50,1389807486.685406
3,246,0,17247,-653,106,121,17300,8464,2880,992,15098,372,122,102,1389807486.685411
2,247,0,39049,-1462,-68,-402,39522,7760,-3024,-1648,38336,336,-270,53,1389807486.703388
3,247,0,19247,-596,78,92,19176,8656,2592,880,17676,375,122,102,1389807486.703397
2,248,0,41038,-1769,-77,-214,41401,5936,-1696,-288,40897,336,-270,61,1389807486.709665
3,248,0,20246,-539,67,81,21054,8688,2000,688,20253,376,123,100,1389807486.709979
2,249,0,43028,-1795,-106,-18,43279,4832,32,816,43457,338,-261,69,1389807486.722299
3,249,0,22246,-420,70,103,22932,8816,1712,768,22830,372,125,96,1389807486.722308
2,250,0,45017,-1641,-169,254,45158,5520,2320,2112,43457,338,-261,69,1389807486.734361
3,250,0,24245,-378,123,128,24809,9552,1744,1328,22830,372,125,96,1389807486.734370
2,251,0,47007,-1141,-255,720,47037,8480,4144,3936,46019,335,-256,75,1389807486.734608
3,251,0,26245,-393,155,134,26687,11520,2192,2560,25408,375,127,95,1389807486.734615
2,252,0,48996,-141,-349,1410,48916,12128,6528,6000,48579,338,-498,78,1389807486.752521
3,252,0,28244,-349,89,116,28564,13552,2368,3744,27986,375,127,97,1389807486.752529
2,253,0,49991,509,-374,1746,50795,14224,7360,6192,48579,338,-498,78,1389807486.764792
3,253,0,30243,-102,-30,62,30441,13088,1376,4064,30563,372,129,95,1389807486.764806
2,254,0,51980,1374,-266,2266,52673,14944,6288,3264,51139,338,-225,82,1389807486.765142
3,254,0,32243,228,-87,-148,32318,11856,-128,2592,30563,372,129,95,1389807486.765153
2,255,0,53970,1056,-121,2389,54552,15184,3104,-368,53700,346,-208,76,1389807486.783435
3,255,0,34242,571,-128,-312,34196,11456,-944,144,33141,372,131,98,1389807486.783444
2,0,0,55960,-329,-63,1906,56431,14352,-896,-3296,56261,354,-196,80,1389807486.789630
3,0,0,35242,708,-138,-409,36072,11296,-1216,-1552,35719,373,120,100,1389807486.789946
2,1,0,57949,-2269,3,1113,58311,12544,-5904,-4752,56261,354,-196,80,1389807486.801846
3,1,0,37241,565,-152,-731,37950,11344,-1520,-2352,35719,373,120,100,1389807486.801855
2,2,0,59939,-4285,28,226,60190,9760,-9376,-5168,58822,353,-192,83,1389807486.814089
3,2,0,39241,258,-102,-1295,39827,10048,-1056,-3280,38298,373,109,103,1389807486.814104
2,3,0,61928,-4439,77,-967,62069,5472,-5712,-2880,61382,353,-187,91,1389807486.814400
3,3,0,41240,53,54,-1885,41704,8896,-1024,-4224,40875,380,99,99,1389807486.814620
2,4,0,63918,-1825,305,-1646,63947,-1824,2800,3376,63942,353,-195,95,1389807486.831638
2,5,0,371,2399,819,-929,290,-6032,9248,10848,63942,353,-195,95,1389807486.843085
3,5,0,45239,-1377,75,-1866,45460,7760,2336,-3824,43452,386,84,101,1389807486.843100
2,6,0,1366,4021,777,55,2169,-2592,9648,11488,967,351,-199,82,1389807486.855308
3,6,0,47238,-1968,-81,-1848,47337,8128,4560,-3088,46030,391,70,96,1389807486.855316
2,7,0,3355,4664,78,1870,4048,944,5760,5888,3527,353,-185,70,1389807486.855582
3,7,0,49238,-1974,-373,-1825,49214,9248,5664,-1184,48607,392,66,93,1389807486.855588
2,8,0,5345,2428,-384,2357,5926,5264,2752,-1200,3527,353,-185,70,1389807486.873334
3,8,0,50237,-1888,-526,-1778,51092,10272,6224,1264,51184,400,55,93,1389807486.873343
2,9,0,7334,39,-168,2019,7805,11264,4032,-8960,6089,357,-174,71,1389807486.879613
3,9,0,52237,-1566,-750,-1729,52970,11072,6896,3504,51184,400,55,93,1389807486.879918
2,10,0,9324,224,425,1751,9683,18640,4272,-14112,8649,360,-158,68,1389807486.892096
3,10,0,54236,-986,-909,-1692,54848,11440,7216,4800,53761,400,41,101,1389807486.892105
2,11,0,11313,1150,663,1428,11561,21296,2288,-13184,11209,361,-147,65,1389807486.903628
3,11,0,56236,6,-972,-1713,56725,11472,6736,5104,56338,402,31,104,1389807486.903637
2,12,0,13303,283,243,904,13441,15600,336,-9584,11209,361,-147,65,1389807486.903890
3,12,0,58235,1253,-853,-1751,58602,10912,5808,4656,56338,402,31,104,1389807486.910039
2,13,0,15292,-998,-150,115,15319,9968,80,-5520,13771,368,-147,61,1389807486.922343
3,13,0,60235,2271,-604,-1859,60478,10272,4832,3936,58916,402,11,115,1389807486.922352
2,14,0,17282,-1740,-428,-257,17197,5648,2080,-1792,16331,368,-146,65,1389807486.934264
3,14,0,62234,2751,-380,-1899,62356,9712,4544,2832,61495,402,244,123,1389807486.934273
2,15,0,18277,-1805,-481,-248,19075,2208,4096,1632,18891,367,-140,70,1389807486.934496
3,15,0,64233,2948,-227,-1900,64233,9312,4176,1424,64072,399,-35,127,1389807486.934503
2,16,0,20266,-1347,-360,57,20955,848,4176,4080,18891,367,-140,70,1389807486.951909
3,16,0,65233,3021,-169,-1897,574,9008,3408,32,64072,399,-35,127,1389807486.951918
2,17,0,22256,-693,-119,564,22834,1968,2880,4448,21453,366,-135,80,1389807486.964188
3,17,0,1696,3033,-101,-1880,2451,8752,2688,-1104,1114,406,-61,128,1389807486.964203
2,18,0,24245,-249,74,1016,24712,4640,1904,3280,24013,366,-128,75,1389807486.964526
3,18,0,3696,2790,-60,-1822,4328,8608,1856,-2000,3692,405,-84,135,1389807486.964537
2,19,0,26235,157,187,1284,26591,7632,1440,1904,26574,366,-114,70,1389807486.982493
3,19,0,5695,2391,-87,-1747,6206,8656,1264,-2640,6270,404,-105,131,1389807486.982503
2,20,0,28224,566,280,1338,28469,10384,1344,720,26574,366,-114,70,1389807486.994647
3,20,0,7695,1970,-186,-1688,8083,8720,768,-2944,6270,404,-105,131,1389807486.994661
2,21,0,30214,952,308,1225,30346,11616,1472,-400,29134,368,-102,72,1389807486.994975
3,21,0,9694,1597,-327,-1669,9960,8576,400,-2640,8849,404,-123,132,1389807486.994986
2,22,0,32203,1371,249,1031,32224,10720,1872,-1376,31696,372,-100,68,1389807487.13179
3,22,0,11693,1222,-464,-1630,11837,8240,464,-1984,11425,404,-139,133,1389807487.13193
2,23,0,33198,1580,222,913,34103,8992,1984,-1616,31696,372,-100,68,1389807487.25248
3,23,0,13693,890,-562,-1521,13715,7984,1024,-1264,11425,404,-139,133,1389807487.25263
2,24,0,35188,1877,198,758,35983,7712,1952,-1280,34258,368,-95,65,1389807487.25575
3,24,0,14693,781,-596,-1474,15592,7744,1648,-496,14003,397,-155,140,1389807487.25586
2,25,0,37177,2035,210,712,37862,7136,2000,-976,36820,370,-90,62,1389807487.43309
3,25,0,16692,759,-617,-1393,17469,7632,1968,256,16581,393,-165,145,1389807487.43317
2,26,0,39167,2148,222,645,39740,6864,2544,-896,39380,371,-95,59,1389807487.55565
3,26,0,18691,920,-609,-1320,19346,7520,2240,944,19160,393,-182,149,1389807487.55574
2,27,0,41156,2284,242,553,41619,6896,3152,-768,39380,371,-95,59,1389807487.55840
3,27,0,20691,1109,-580,-1228,21222,7440,2416,1440,19160,393,-182,149,1389807487.55846
2,28,0,43146,2404,272,514,43497,7120,3216,-624,41941,373,-91,56,1389807487.73523
3,28,0,22690,1232,-528,-1167,23099,7248,2512,1472,21738,384,-198,150,1389807487.73538
2,29,0,45135,2347,229,561,45375,7504,2896,-832,44502,372,-90,54,1389807487.79820
3,29,0,24690,1281,-505,-1131,24976,6880,2384,1296,24316,384,-205,154,1389807487.80138
2,30,0,47125,2064,160,628,47253,7824,2672,-1440,47063,375,-88,51,1389807487.92394
3,30,0,26689,1293,-480,-1085,26854,6512,2144,960,24316,384,-205,154,1389807487.92408
2,31,0,49114,1735,113,648,49132,8048,2800,-2048,47063,375,-88,51,1389807487.104609
3,31,0,28688,1310,-465,-1023,28730,6224,1968,608,26894,376,-221,155,1389807487.104617
2,32,0,50109,1603,98,645,51011,7984,3120,-2544,49624,372,-87,48,1389807487.104883
3,32,0,29688,1329,-443,-982,30607,6032,2000,112,29472,376,-231,159,1389807487.104889
2,33,0,52098,1388,81,622,52889,7840,3296,-2592,52185,372,-82,49,1389807487.123080
3,33,0,31687,1366,-400,-852,32485,5968,2064,-272,32050,372,-240,155,1389807487.123089
2,34,0,54088,1173,52,599,54298,7728,3072,-2496,54746,375,-82,48,1389807487.134949
3,34,0,33687,1354,-338,-708,34362,6048,2064,-608,32050,372,-240,155,1389807487.134997
2,35,0,56077,899,-6,570,56647,7792,2592,-2048,54746,375,-82,48,1389807487.135281
3,35,0,35686,1280,-319,-549,36239,6064,1904,-832,34629,372,-250,151,1389807487.135287
2,36,0,58067,653,-60,529,58525,8000,2304,-1440,57306,373,-77,50,1389807487.153288
3,36,0,37686,1150,-323,-381,38116,5920,1680,-1008,37206,364,-260,153,1389807487.153297
2,37,0,60057,495,-93,490,60404,8032,2048,-848,59866,373,-71,50,1389807487.165459
3,37,0,39685,991,-324,-199,39994,5792,1568,-1024,39785,364,-262,154,1389807487.165468
2,38,0,62046,437,-89,443,62283,8080,1936,-368,59866,373,-71,50,1389807487.165740
3,38,0,41685,802,-317,-13,41871,5632,1536,-1040,39785,364,-262,154,1389807487.165747
2,39,0,64036,468,-61,390,64161,8016,1888,-176,62425,375,-72,50,1389807487.183516
3,39,0,43684,599,-309,159,43747,5392,1600,-848,42363,362,-266,155,1389807487.183529
2,40,0,489,563,-22,347,502,7888,1712,-176,64985,372,-70,51,1389807487.189810
3,40,0,44684,491,-293,246,45625,5216,1856,-816,44942,362,-262,151,1389807487.190073
2,41,0,1484,643,-8,331,2381,7824,1632,-192,2011,372,-64,54,1389807487.201499
3,41,0,46683,302,-272,450,47503,4976,1952,-832,44942,362,-262,151,1389807487.201507
2,42,0,3473,791,21,309,3790,7872,1680,-128,2011,372,-64,54,1389807487.213642
3,42,0,48682,183,-221,644,49381,4608,2224,-608,47520,365,-258,155,1389807487.213656
2,43,0,5463,908,47,312,5668,7872,1712,-64,4571,376,-59,52,1389807487.213962
3,43,0,50682,141,-128,865,51259,4352,2432,-512,50099,365,-508,158,1389807487.220279
2,44,0,7452,920,60,329,7547,7936,1712,0,7133,376,-64,51,1389807487.232557
3,44,0,52681,110,-1,1097,53136,4240,2688,-480,52677,366,-241,156,1389807487.232566
2,45,0,9442,956,99,371,9425,8064,1824,-48,9694,374,-60,51,1389807487.244361
3,45,0,54681,131,104,1271,55013,4352,2688,-704,52677,366,-241,156,1389807487.244371
2,46,0,11431,1069,108,410,11305,8032,1552,-32,9694,374,-60,51,1389807487.244586
3,46,0,56680,224,166,1386,56891,4864,2528,-1008,55254,366,-235,154,1389807487.244591
2,47,0,13421,1163,105,395,13184,8064,1120,112,12255,376,-58,51,1389807487.261278
3,47,0,58679,355,197,1525,58768,5664,2064,-1408,57832,379,-221,150,1389807487.261287
2,48,0,15410,1305,96,325,15062,8048,832,192,14817,376,-60,49,1389807487.272840
3,48,0,59679,402,199,1570,60645,6976,944,-2096,60409,379,-210,148,1389807487.272848
2,49,0,16405,1391,75,292,16941,7920,656,160,17377,374,-61,50,1389807487.284498
3,49,0,61679,487,186,1640,62522,8896,-1520,-2192,60409,379,-210,148,1389807487.284507
2,50,0,18395,1549,43,225,18819,7568,752,-176,17377,374,-61,50,1389807487.284782
3,50,0,63678,704,164,1723,64399,11488,-5120,-784,62988,380,-204,149,1389807487.284788
2,51,0,20384,1623,-8,151,20698,7344,1040,-1216,19937,375,-58,50,1389807487.302447
3,51,0,141,1190,136,1665,740,15520,-10976,2800,30,385,-191,143,1389807487.302456
2,52,0,22374,1673,-72,97,22577,7584,1568,-2656,22499,377,-64,51,1389807487.314775
3,52,0,2141,1206,184,904,2148,20192,-15696,5200,2608,391,-197,138,1389807487.314790
2,53,0,24363,1625,-85,27,24456,8064,2080,-3904,22499,377,-64,51,1389807487.315111
3,53,0,4140,1474,29,-729,4494,23728,-13632,5472,2608,391,-197,138,1389807487.315122
2,54,0,26353,1408,-43,-8,26335,8416,2416,-4720,25060,375,-63,53,1389807487.333299
3,54,0,6140,2618,-320,-1668,6371,18704,-7216,3152,5187,386,-220,137,1389807487.333307
2,55,0,28342,1081,39,-33,28214,8736,2992,-4592,27620,373,-65,53,1389807487.345396
3,55,0,8139,2330,-445,-1348,8248,13280,-3440,800,7765,381,-234,132,1389807487.345405
2,56,0,30332,685,125,-61,30093,8800,3456,-3648,30182,379,-71,52,1389807487.345672
3,56,0,9139,1647,-371,-1188,10125,9840,-2272,-944,7765,381,-234,132,1389807487.345678
2,57,0,32321,236,170,-75,31972,8704,3072,-2256,30182,379,-71,52,1389807487.363673
3,57,0,11138,376,-161,-970,11533,7616,-2032,-1424,10342,385,-247,135,1389807487.363682
2,58,0,33316,13,167,-54,33851,8432,2176,-832,32743,374,-75,50,1389807487.363927
3,58,0,13138,-214,-104,-928,13411,4288,-1968,-1280,12920,375,-254,133,1389807487.370040
2,59,0,35306,-269,155,1,35729,8384,1328,304,35303,374,-67,48,1389807487.382056
3,59,0,15137,-298,-107,-1029,15288,880,-1440,-848,15496,373,-2,134,1389807487.382134
2,60,0,37295,-235,114,36,37608,8592,688,768,37862,374,-68,45,1389807487.394423
3,60,0,17136,-67,-131,-1066,17165,-1744,-464,-240,15496,373,-2,134,1389807487.394438
2,61,0,39285,26,32,96,39486,8928,336,432,37862,374,-68,45,1389807487.394799
3,61,0,19136,146,-242,-824,19042,-2256,1296,32,18074,376,-269,135,1389807487.394810
2,62,0,41274,384,-48,127,41365,9376,240,-336,40422,375,-69,47,1389807487.412754
3,62,0,21135,88,-306,67,20920,832,4640,-768,20651,368,-264,139,1389807487.412763
2,63,0,43264,643,-77,100,43244,10080,336,-1264,42983,371,-66,49,1389807487.423730
3,63,0,23135,-369,-287,1434,22798,7232,9488,-1696,23228,365,-508,141,1389807487.423737
2,64,0,45253,718,-52,5,45124,11280,112,-2016,42983,371,-66,49,1389807487.423889
3,64,0,24134,-543,-296,1901,24674,15872,14384,-1456,23228,365,-508,141,1389807487.429819
2,65,0,47243,581,34,-185,47003,12384,-912,-2128,45545,377,-68,51,1389807487.441706
3,65,0,26134,64,-264,2288,26551,22128,13408,1136,25806,375,-230,146,1389807487.441713
2,66,0,49232,389,147,-431,48883,12352,-2240,-1888,48108,377,-74,50,1389807487.453348
3,66,0,28133,2100,52,1981,28428,21904,4736,5728,28383,381,-231,139,1389807487.453358
2,67,0,50227,380,204,-589,50762,11520,-2832,-1664,50670,374,-80,45,1389807487.459068
3,67,0,30132,3483,531,343,30304,18928,-4544,6992,28383,381,-231,139,1389807487.459387
2,68,0,52216,831,314,-1042,52641,10768,-4080,-480,50670,374,-80,45,1389807487.471076
3,68,0,32132,3448,539,-1042,32181,14560,-6624,2368,30961,382,-248,122,1389807487.471085
2,69,0,54206,862,290,-1562,54521,10352,-2576,976,53231,374,-96,41,1389807487.483349
3,69,0,34131,3353,330,-1379,34058,8768,-4160,-3152,33539,382,-12,108,1389807487.483364
2,70,0,56195,1008,186,-1976,56400,10512,-1712,2224,55792,376,-114,39,1389807487.489612
3,70,0,36131,2563,268,-1199,35935,2800,-752,-7936,36116,378,-284,95,1389807487.489862
2,71,0,58185,1170,185,-2137,58280,10640,-896,3248,58354,374,-132,37,1389807487.501882
3,71,0,38130,1216,149,-491,37812,-2352,1984,-11056,36116,378,-284,95,1389807487.501891
2,72,0,60175,1397,318,-2242,60159,10640,896,3344,58354,374,-132,37,1389807487.513921
3,72,0,39130,556,131,211,39689,-4224,4320,-11056,38694,376,-283,91,1389807487.513935
2,73,0,62164,1849,531,-2395,62037,10576,3392,2784,60915,374,-156,37,1389807487.514298
3,73,0,41129,-724,343,1821,41566,-1968,6784,-7968,41272,378,-257,89,1389807487.514607
2,74,0,64154,2181,731,-2431,63916,10704,5344,2032,63477,363,-179,18,1389807487.532253
3,74,0,43129,-1991,482,2813,43443,2848,9248,-2848,43850,388,-487,95,1389807487.532262
2,75,0,65148,2197,819,-2375,259,11120,7040,608,502,363,-196,7,1389807487.544287
3,75,0,45128,-2544,82,2885,45320,7888,8672,1056,43850,388,-487,95,1389807487.544302
2,76,0,1602,1945,944,-2190,2138,11520,7488,-1504,502,363,-196,7,1389807487.544631
3,76,0,47127,-1576,-563,2238,47197,12720,5248,3520,46428,395,-206,104,1389807487.544641
2,77,0,3591,1630,1091,-2022,4016,11712,5920,-3728,3063,366,-216,-3,1389807487.562381
3,77,0,49127,-4,-777,1389,49074,15920,2128,5504,49006,399,-196,109,1389807487.562395
2,78,0,5581,1188,1198,-1953,5894,12304,3424,-4896,5624,363,-234,-21,1389807487.574596
3,78,0,51126,559,-321,831,50952,16144,1440,5776,49006,399,-196,109,1389807487.574610
2,79,0,7570,395,1148,-1954,7772,12656,1296,-5168,5624,363,-234,-21,1389807487.574937
3,79,0,53126,487,253,552,52829,13680,2080,4976,51583,401,-193,110,1389807487.574948
2,80,0,9560,-715,914,-2050,9650,12480,592,-4336,8186,356,-248,-33,1389807487.592579
3,80,0,54125,459,388,495,54707,10224,2528,4128,54160,405,-194,105,1389807487.592594
2,81,0,11549,-1707,678,-2099,11529,11472,1056,-2832,10748,354,-9,-34,1389807487.604620
3,81,0,56125,532,418,452,56585,7360,2272,2992,56737,404,-188,103,1389807487.604630
2,82,0,13539,-2267,552,-2034,13408,10080,1776,-976,13308,346,-283,-35,1389807487.604836
3,82,0,58124,641,310,461,58462,5296,1584,1504,56737,404,-188,103,1389807487.604841
2,83,0,15528,-2466,532,-1944,15286,8800,2128,416,13308,346,-283,-35,1389807487.622929
3,83,0,60124,632,164,491,60340,4160,816,304,59315,407,-185,96,1389807487.623007
2,84,0,16523,-2462,525,-1908,17166,7680,2416,1136,15870,337,-296,-31,1389807487.635198
3,84,0,62123,401,73,641,62218,4208,384,-480,61893,409,-182,96,1389807487.635207
2,85,0,18513,-2281,488,-1835,19044,6880,2704,1440,18432,334,-308,-22,1389807487.635477
3,85,0,64122,-34,92,942,64096,5360,448,-1152,64469,407,-173,92,1389807487.635484
2,86,0,20502,-1935,417,-1774,20923,6576,2720,1440,20994,332,-319,-17,1389807487.653442
3,86,0,586,-432,142,1265,437,7248,912,-1632,64469,407,-173,92,1389807487.653451
2,87,0,22492,-1552,362,-1726,22801,6752,2496,1376,20994,332,-319,-17,1389807487.659622
3,87,0,2585,-599,139,1454,2314,9008,1632,-1840,1512,413,-159,98,1389807487.659829
2,88,0,24481,-1189,324,-1700,24680,7248,2080,1280,23555,322,-332,-14,1389807487.671931
2,89,0,26471,-859,303,-1681,26559,7728,1712,1184,26116,310,-344,-13,1389807487.683616
3,89,0,5584,-504,43,1284,6069,10448,1824,-1344,4089,416,-148,91,1389807487.683625
2,90,0,28460,-538,281,-1641,28437,7840,1296,1120,28678,310,-354,-14,1389807487.683871
3,90,0,7584,-470,-30,1059,7947,9568,1936,-1072,6667,411,-140,98,1389807487.689960
2,91,0,30450,-246,298,-1565,30315,7632,1104,912,28678,310,-354,-14,1389807487.701776
3,91,0,9583,-545,-60,861,9824,8448,2288,-1184,9245,416,-126,95,1389807487.701784
2,92,0,32439,-26,326,-1460,32194,7200,1040,608,31239,300,-367,-16,1389807487.713874
3,92,0,11582,-620,-36,760,11701,7680,2624,-1152,11823,420,-121,97,1389807487.713883
2,93,0,33434,26,346,-1399,34072,6768,1024,256,33801,293,-373,-15,1389807487.714094
3,93,0,13582,-618,-15,682,13579,7424,2656,-1088,11823,420,-121,97,1389807487.714336
2,94,0,35424,42,364,-1253,35951,6432,1168,-48,33801,293,-373,-15,1389807487.732385
3,94,0,15581,-640,-11,628,15457,7296,2288,-576,14400,419,-112,95,1389807487.732399
2,95,0,37413,-5,338,-1073,37829,6160,1520,-304,36363,290,-386,-21,1389807487.743962
3,95,0,17581,-834,-26,589,17334,7216,1968,-224,16978,418,-106,95,1389807487.743971
2,96,0,39403,-12,232,-895,39708,5840,1760,-368,38925,285,-387,-21,1389807487.744239
3,96,0,19580,-1097,-6,663,19212,7248,1712,112,19555,420,-98,101,1389807487.744492
2,97,0,41392,-3,99,-767,41587,5536,2064,-192,41485,274,-393,-21,1389807487.762144
3,97,0,20580,-1211,21,729,21089,7568,1728,400,19555,420,-98,101,1389807487.762152
2,98,0,43382,-31,-41,-664,43465,5344,2272,176,41485,274,-393,-21,1389807487.774229
3,98,0,22579,-1299,105,844,22966,8096,1920,656,22133,419,-88,93,1389807487.774239
2,99,0,45371,-61,-156,-560,45344,5168,2528,576,44048,279,-397,-22,1389807487.774558
3,99,0,24579,-1182,157,898,24844,8464,2272,1040,24711,418,-76,95,1389807487.774564
2,100,0,47361,-9,-230,-450,47222,5008,2736,1040,46609,272,-396,-21,1389807487.792674
3,100,0,26578,-926,185,843,26722,8656,2736,1328,24711,418,-76,95,1389807487.792689
2,101,0,48355,44,-251,-394,49101,4784,2784,1280,49172,265,-397,-19,1389807487.804513
3,101,0,28577,-617,195,687,28600,8752,3120,1456,27288,420,-68,95,1389807487.804522
2,102,0,50345,207,-281,-259,50980,4480,2688,1392,49172,265,-397,-19,1389807487.804779
3,102,0,30577,-276,210,475,30478,8624,3568,1280,29866,422,-63,94,1389807487.804785
2,103,0,52334,457,-278,-92,52858,4240,2496,1360,51733,271,-404,-17,1389807487.822264
3,103,0,32576,95,224,280,32355,8272,3888,880,32443,419,-58,91,1389807487.822273
2,104,0,54324,751,-263,120,54738,4176,2304,1056,54295,268,-403,-22,1389807487.833965
3,104,0,34576,437,230,145,34232,7824,3984,352,32443,419,-58,91,1389807487.833974
2,105,0,56313,1023,-250,357,56616,4064,2160,784,54295,268,-403,-22,1389807487.834241
3,105,0,35575,564,227,113,36109,7440,3904,160,35021,423,-60,84,1389807487.834485
2,106,0,58303,1178,-262,614,58495,4240,1920,352,56857,268,-398,-25,1389807487.852314
3,106,0,37575,614,224,126,37987,7392,3888,-112,37599,422,-62,85,1389807487.852322
2,107,0,60293,1172,-312,889,60373,4848,1664,112,59419,271,-391,-32,1389807487.864438
3,107,0,39574,514,198,225,39865,7696,3760,-448,40177,421,-60,83,1389807487.864447
2,108,0,62282,1016,-414,1195,62253,5520,1248,-176,61981,277,-381,-35,1389807487.864714
3,108,0,41574,467,174,351,41743,8160,3280,-736,40177,421,-60,83,1389807487.864762
2,109,0,64272,820,-512,1477,64131,6432,432,-464,61981,277,-381,-35,1389807487.882886
3,109,0,43573,459,123,448,43620,8544,2384,-976,42754,424,-54,81,1389807487.882895
2,110,0,65266,787,-554,1585,473,7200,-480,-704,64542,281,-371,-35,1389807487.895011
3,110,0,45572,344,69,553,45497,8640,1600,-1168,45331,424,-51,82,1389807487.895026
2,111,0,1720,922,-578,1698,2351,7760,-1712,-896,1567,290,-361,-31,1389807487.895348
3,111,0,47572,123,31,653,47374,8384,848,-1360,45331,424,-51,82,1389807487.895359
2,112,0,3709,1210,-528,1651,4229,8192,-3728,-1216,4129,303,-351,-39,1389807487.912088
3,112,0,49571,-155,17,723,49252,7936,416,-1568,47909,422,-42,80,1389807487.912102
2,113,0,5699,1357,-417,1479,6107,8608,-5760,-2208,4129,303,-351,-39,1389807487.923717
3,113,0,50571,-282,29,737,51130,7520,64,-1584,50486,424,-40,82,1389807487.923725
2,114,0,7688,1277,-292,1211,7985,9104,-7104,-3744,6691,306,-338,-41,1389807487.923966
3,114,0,52570,-470,92,729,53008,7488,0,-1440,53064,423,-31,81,1389807487.930226
2,115,0,9678,984,-131,809,9863,9936,-7936,-5568,9253,311,-335,-44,1389807487.942307
3,115,0,54570,-606,184,651,54886,7728,496,-1312,53064,423,-31,81,1389807487.942331
2,116,0,11667,664,123,248,11741,10960,-8416,-7152,11813,317,-335,-48,1389807487.954422
3,116,0,56569,-751,266,533,56764,8336,1440,-1360,55641,423,-24,76,1389807487.954430
2,117,0,13657,644,383,-203,13619,12304,-8448,-7792,11813,317,-335,-48,1389807487.954693
3,117,0,58568,-912,290,349,58641,8736,2480,-1472,58219,424,-20,70,1389807487.954699
2,118,0,15646,893,582,-234,15498,14640,-8688,-7456,14373,315,-337,-55,1389807487.971581
3,118,0,60568,-1047,237,138,60518,8736,3232,-1504,60797,424,-18,69,1389807487.971585
2,119,0,16641,934,610,-155,17376,17648,-8656,-6080,16936,318,-339,-67,1389807487.982999
3,119,0,62567,-1087,190,3,62397,8416,3600,-1168,60797,424,-18,69,1389807487.983013
2,120,0,18631,356,423,-68,19254,19184,-7744,-3712,16936,318,-339,-67,1389807487.995313
3,120,0,64567,-1006,179,-20,64275,8416,4048,-464,63375,420,-18,64,1389807487.995327
2,121,0,20620,-950,4,-529,21132,16512,-5744,-1504,19498,318,-341,-67,1389807487.995649
3,121,0,30,-939,199,-24,616,8784,4688,592,418,420,-13,64,1389807487.995660
2,122,0,22610,-2022,-295,-1298,23011,11808,-4064,64,22058,311,-354,-56,1389807488.13738
3,122,0,2030,-739,202,-18,2493,9168,5392,1632,418,420,-13,64,1389807488.13753
2,123,0,24599,-2308,-393,-1607,24889,7168,-2320,2224,24619,303,-360,-42,1389807488.14064
3,123,0,4029,-448,180,-20,4370,9376,5488,2240,2996,423,-13,60,1389807488.20310
3,124,0,6029,-17,143,5,6248,9200,4416,2496,5574,423,-12,60,1389807488.31816
3,125,0,8028,415,124,72,8126,9056,2880,2576,8152,426,-9,56,1389807488.43943
2,126,0,30568,2533,-497,-656,30526,-2016,288,9216,29742,293,-376,-35,1389807488.44266
3,126,0,10027,619,139,160,10004,9216,1904,2640,8152,426,-9,56,1389807488.44575
2,127,0,31563,3639,-593,-503,32405,-480,1792,6976,32302,288,-377,-57,1389807488.61554
3,127,0,12027,539,174,184,11881,9376,1440,2464,10731,426,-10,57,1389807488.61564
2,128,0,33552,5309,-696,-443,34284,1824,2592,4000,32302,288,-377,-57,1389807488.73330
3,128,0,14026,367,207,141,13757,9440,1344,1984,13310,422,-10,56,1389807488.73339
2,129,0,35542,5244,-612,-222,36164,3984,2656,1776,34863,290,-378,-82,1389807488.79520
3,129,0,15026,294,218,109,15635,9472,976,1424,15887,422,-8,56,1389807488.79769
2,130,0,37531,3476,-433,322,38043,6832,3472,-656,37424,287,-373,-96,1389807488.91321
3,130,0,17025,282,240,34,17512,9904,384,944,15887,422,-8,56,1389807488.91337
2,131,0,39521,613,-219,1169,39922,10704,5520,-3984,39986,289,-358,-96,1389807488.103190
3,131,0,19025,333,269,-34,19389,10880,-352,832,18466,426,-11,51,1389807488.103199
2,132,0,41510,-2352,-53,2110,41801,15088,6624,-6944,39986,289,-358,-96,1389807488.115143
3,132,0,21024,320,268,-124,21266,12032,-576,768,21045,426,-15,49,1389807488.115158
2,133,0,43500,-4268,-64,2622,43679,19776,4976,-8192,42547,302,-340,-82,1389807488.115481
3,133,0,23024,320,218,-296,23143,11968,-832,768,21045,426,-15,49,1389807488.115492
2,134,0,45489,-4268,11,2506,45559,22944,-1280,-7008,45108,320,-323,-58,1389807488.132561
3,134,0,25023,449,145,-569,25021,11120,-1088,864,23624,425,-17,48,1389807488.132567
2,135,0,47479,-3221,303,1463,47437,22000,-8896,-5984,45108,320,-323,-58,1389807488.144478
3,135,0,27022,362,106,-823,26898,10768,-1024,400,26201,425,-25,46,1389807488.144487
2,136,0,48473,-2666,459,671,49318,17248,-10784,-5568,47669,320,-320,-48,1389807488.144787
3,136,0,29022,16,77,-1073,28775,10688,-160,-992,28779,426,-39,43,1389807488.144814
2,137,0,50463,-1826,669,-814,51196,11216,-6640,-3936,50229,323,-325,-46,1389807488.163013
3,137,0,30021,-85,78,-1287,30653,10144,720,-2528,28779,426,-39,43,1389807488.163023
2,138,0,52452,-1399,768,-1312,53075,4176,1248,-1056,52790,321,-335,-47,1389807488.174737
3,138,0,32021,-81,131,-1816,32530,9264,432,-3520,31356,426,-54,45,1389807488.174751
2,139,0,54442,-764,788,-864,54954,-4848,10240,4624,52790,321,-335,-47,1389807488.175073
3,139,0,34020,-27,199,-2091,34408,8288,-32,-3376,33934,425,-67,45,1389807488.175085
2,140,0,56431,1129,582,256,56832,-6752,10304,11120,55351,310,-332,-52,1389807488.193305
3,140,0,36020,-384,190,-2170,36285,7856,1008,-2512,36511,429,-89,41,1389807488.193320
2,141,0,58421,2188,-633,1336,58711,-2352,7744,9424,57912,317,-321,-62,1389807488.199610
3,141,0,38019,-902,22,-2238,38162,8064,2736,-1520,36511,429,-89,41,1389807488.199942
2,142,0,60410,1974,-1294,1005,60589,1264,4704,4560,60474,322,-315,-56,1389807488.212264
3,142,0,40018,-1138,-360,-2203,40039,9024,4336,384,39089,429,-105,41,1389807488.212272
2,143,0,62400,500,-784,692,62468,4624,1040,816,60474,322,-315,-56,1389807488.223585
3,143,0,42018,-1138,-799,-1917,41916,10288,6272,2944,41668,427,-118,50,1389807488.223594
2,144,0,64390,-972,272,1068,64345,9600,-1312,-2384,63035,323,-311,-54,1389807488.223842
3,144,0,44017,-850,-1136,-1595,43793,11520,7936,5248,41668,427,-118,50,1389807488.229918
2,145,0,65384,-1042,729,1319,687,15152,-992,-4064,61,330,-297,-51,1389807488.241519
3,145,0,45017,-517,-1261,-1468,45670,12320,8512,6800,44246,428,-127,59,1389807488.241534
2,146,0,1838,-110,1044,1447,2566,18816,1584,-4928,2622,335,-287,-64,1389807488.253139
3,146,0,47016,535,-1310,-1323,47546,12224,7808,6592,46824,425,-143,70,1389807488.253147
2,147,0,3827,955,573,1144,4445,17232,4688,-6064,2622,335,-287,-64,1389807488.265463
3,147,0,49016,1901,-1113,-1336,49423,11328,6528,5264,49403,421,-155,80,1389807488.265478
2,148,0,5817,1345,233,793,6323,12000,4304,-6960,5183,335,-282,-73,1389807488.265792
3,148,0,51015,3196,-762,-1427,51299,10336,5648,3472,49403,421,-155,80,1389807488.265803
2,149,0,7806,447,187,517,8202,7520,2368,-6576,7743,341,-276,-75,1389807488.283865
3,149,0,53015,4042,-409,-1470,53176,9488,4832,1280,51981,417,-176,74,1389807488.283873
2,150,0,9796,-595,47,266,10082,4352,2016,-4256,7743,341,-276,-75,1389807488.284111
3,150,0,55014,4394,-158,-1577,55052,8672,4000,-544,54558,411,-201,69,1389807488.284267
2,151,0,11785,-721,-38,135,11960,2896,2144,-704,10304,341,-280,-73,1389807488.302280
3,151,0,57013,4342,-71,-1735,56929,7872,2784,-1776,57135,408,-220,64,1389807488.302289
2,152,0,13775,-450,-6,348,13838,3360,2128,2000,12864,342,-276,-73,1389807488.314572
3,152,0,59013,3999,-147,-1815,58805,7296,1696,-2112,57135,408,-220,64,1389807488.314587
2,153,0,14770,-312,12,507,15716,4944,2048,3024,15425,341,-268,-72,1389807488.314911
3,153,0,60013,3727,-201,-1796,60683,7152,1168,-1840,59714,404,-244,50,1389807488.314921
2,154,0,16759,-10,49,775,17595,6928,2080,2624,15425,341,-268,-72,1389807488.331898
3,154,0,62012,3079,-329,-1691,62560,7456,848,-1232,62292,403,-9,47,1389807488.331907
2,155,0,18749,350,58,913,19473,8416,2064,1504,17986,352,-269,-76,1389807488.343959
3,155,0,64011,2411,-446,-1561,64437,7952,624,-704,62292,403,-9,47,1389807488.343967
2,156,0,20738,922,104,1027,21351,9296,2048,320,20548,349,-507,-76,1389807488.344238
3,156,0,475,1843,-578,-1404,778,8320,688,-432,64870,391,-279,41,1389807488.344490
2,157,0,22728,1597,186,1162,23229,9568,2304,-640,23109,350,-238,-84,1389807488.362634
3,157,0,2474,1462,-696,-1235,2655,8544,1152,-256,1912,390,-290,41,1389807488.362648
2,158,0,24717,2028,265,1281,25108,9456,2752,-1376,23109,350,-238,-84,1389807488.374931
3,158,0,4474,1291,-779,-1083,4532,8640,1616,-80,4490,385,-304,40,1389807488.374946
3,159,0,6473,1306,-811,-987,6410,8480,2128,160,4490,385,-304,40,1389807488.375237
2,160,0,28696,2014,334,1129,28865,8176,3440,-2128,28231,357,-222,-99,1389807488.393286
3,160,0,8472,1436,-813,-911,8287,8256,2464,336,7068,379,-311,44,1389807488.393300
2,161,0,30686,1892,320,900,30744,7504,3008,-2016,28231,357,-222,-99,1389807488.399639
3,161,0,9472,1499,-808,-878,10165,8160,2592,384,9646,372,-319,44,1389807488.399958
2,162,0,31681,1877,299,811,32623,7216,2400,-1712,30793,362,-212,-106,1389807488.412222
3,163,0,13471,1675,-750,-718,13920,8000,2720,592,12224,367,-328,42,1389807488.424271
3,164,0,15470,1824,-707,-680,15797,7696,2864,880,14802,361,-335,42,1389807488.424520
3,165,0,17470,2045,-667,-683,17675,7376,2976,1072,17379,360,-343,37,1389807488.442473
3,166,0,19469,2304,-613,-713,19552,7104,2896,1056,17379,360,-343,37,1389807488.454755
3,167,0,21469,2562,-567,-718,21430,7040,2752,800,19958,355,-352,29,1389807488.455003
2,168,0,43618,2299,303,514,43426,8688,1456,-2672,43599,370,-173,-137,1389807488.472556
3,168,0,23468,2745,-523,-699,23308,7072,2480,320,22536,351,-361,20,1389807488.472565
2,169,0,45607,2170,352,407,45304,8464,1712,-2528,43599,370,-173,-137,1389807488.484230
3,169,0,24468,2810,-515,-695,25185,7120,2224,-48,25115,346,-368,11,1389807488.484239
2,170,0,47597,2020,352,369,47184,8160,2096,-2112,46159,365,-167,-142,1389807488.484495
3,170,0,26467,2836,-491,-674,27062,6976,1952,-448,25115,346,-368,11,1389807488.484503
2,171,0,48591,1956,331,359,49062,7744,2272,-1664,48719,370,-160,-153,1389807488.502394
3,171,0,28466,2707,-494,-591,28940,6832,1664,-720,27692,347,-380,2,1389807488.502403
2,172,0,50581,1792,271,356,50941,7520,2272,-1296,51280,369,-154,-157,1389807488.514653
3,172,0,30466,2426,-504,-419,30817,6928,1392,-944,30268,340,-381,-12,1389807488.514668
2,173,0,52570,1585,205,344,52820,7408,2352,-1088,51280,369,-154,-157,1389807488.514995
3,173,0,32465,2080,-535,-217,32694,6928,1216,-928,32847,334,-383,-16,1389807488.515006
2,174,0,54560,1440,146,374,54698,7632,2320,-1168,53841,365,-148,-158,1389807488.532269
3,174,0,34465,1710,-565,-31,34571,6944,1136,-656,32847,334,-383,-16,1389807488.532277
2,175,0,56549,1405,100,396,56578,7952,2128,-1344,56403,366,-142,-163,1389807488.544456
3,175,0,36464,1374,-562,137,36448,6944,1104,-416,35426,340,-386,-18,1389807488.544470
2,176,0,58539,1439,95,389,58456,8144,1776,-1456,56403,366,-142,-163,1389807488.544799
3,176,0,38463,1158,-525,281,38325,6832,1072,-400,38004,335,-383,-25,1389807488.544810
2,177,0,60528,1511,118,361,60334,8112,1920,-1680,58966,370,-132,-168,1389807488.562465
3,177,0,39463,1094,-498,361,40202,6752,1104,-720,38004,335,-383,-25,1389807488.562474
2,178,0,62518,1610,166,312,62213,7888,2512,-1888,61528,370,-132,-168,1389807488.574584
3,178,0,41463,1058,-422,502,42080,6704,1168,-1088,40582,334,-383,-27,1389807488.574599
2,179,0,63513,1667,171,299,64091,7648,3072,-1760,64089,371,-128,-171,1389807488.574923
3,179,0,43462,1122,-351,606,43956,6864,1168,-1296,43160,340,-378,-33,1389807488.574933
2,180,0,65502,1698,154,279,434,7792,3104,-1408,64089,371,-128,-171,1389807488.593117
3,180,0,45461,1259,-282,669,45833,6960,1088,-1376,45739,344,-375,-36,1389807488.593126
2,181,0,1956,1569,101,289,2312,8112,2448,-832,1114,370,-120,-175,1389807488.605397
3,181,0,47461,1444,-192,693,47710,7120,768,-1264,45739,344,-375,-36,1389807488.605406
2,182,0,3945,1326,57,265,4191,8400,1616,-512,3675,369,-114,-176,1389807488.605670
3,182,0,49460,1644,-132,633,49587,7200,432,-1424,48319,345,-372,-42,1389807488.605676
2,183,0,5935,1078,46,221,6071,8560,1040,-544,6237,369,-112,-179,1389807488.623369
3,183,0,51460,1758,-118,537,51465,7088,48,-1968,50896,349,-364,-54,1389807488.623377
2,184,0,7924,950,66,174,7950,8528,816,-912,6237,369,-112,-179,1389807488.629463
3,184,0,53459,1693,-125,441,53343,6976,-208,-2464,53475,353,-363,-58,1389807488.629721
2,185,0,9914,954,133,126,9829,8448,784,-1376,8799,371,-109,-179,1389807488.641800
3,185,0,54459,1603,-110,433,55219,7088,-400,-2464,53475,353,-363,-58,1389807488.641877
2,186,0,11903,1043,206,84,11707,8272,928,-1760,11360,369,-109,-181,1389807488.654314
3,186,0,56458,1328,-43,527,57096,7568,-416,-1904,56052,353,-358,-64,1389807488.654323
2,187,0,13893,1199,260,14,13586,8144,1152,-1968,13920,370,-103,-186,1389807488.654603
3,187,0,58457,1115,38,718,58974,8176,-928,-912,58631,356,-352,-69,1389807488.654609
2,188,0,14888,1296,265,-15,15465,7856,1152,-2096,13920,370,-103,-186,1389807488.672246
3,188,0,60457,1120,82,848,60852,8576,-1728,416,58631,356,-352,-69,1389807488.672255
2,189,0,16877,1438,280,-76,17345,7664,1120,-2176,16480,373,-101,-186,1389807488.684309
3,189,0,62456,1256,51,716,62729,9120,-2832,1472,61209,362,-350,-77,1389807488.684319
2,190,0,18867,1474,258,-121,19224,7792,1360,-2096,19043,370,-102,-190,1389807488.684587
3,190,0,64456,1305,34,342,64607,10208,-3952,1568,63788,365,-342,-87,1389807488.684594
2,191,0,20856,1399,244,-146,21103,8176,1632,-1920,19043,370,-102,-190,1389807488.702012
3,191,0,919,1497,-14,-21,948,11376,-4576,1168,831,363,-346,-89,1389807488.702020
2,192,0,22846,1269,255,-178,22983,8336,2064,-1712,21605,366,-99,-193,1389807488.714281
3,192,0,2919,1771,-146,-213,2826,12336,-4640,1072,831,363,-346,-89,1389807488.714290
2,193,0,24835,1154,250,-207,24861,8464,2368,-1680,24167,366,-99,-196,1389807488.714501
3,193,0,3918,1802,-232,-239,4703,13008,-4256,1344,3408,364,-349,-100,1389807488.714507
2,194,0,26825,1040,235,-227,26740,8544,2688,-1664,26728,366,-97,-201,1389807488.731970
3,194,0,5918,1483,-374,-257,6581,12880,-3136,1648,5986,359,-345,-103,1389807488.731986
2,195,0,28814,988,226,-257,28619,8608,2896,-1728,26728,366,-97,-201,1389807488.743919
3,195,0,7917,911,-370,-232,8459,11952,-1968,1408,8563,362,-347,-104,1389807488.743927
2,196,0,30804,934,208,-263,30498,8576,2816,-1616,29290,364,-100,-199,1389807488.744206
3,196,0,9916,796,-257,-376,10336,10096,-1088,976,8563,362,-347,-104,1389807488.744452
2,197,0,31799,897,208,-249,32376,8544,2336,-1376,31851,367,-97,-204,1389807488.762678
3,197,0,11916,1197,-188,-680,12213,7968,-448,688,11142,359,-352,-103,1389807488.762693
2,198,0,33788,817,199,-209,34255,8384,1728,-1088,34411,365,-100,-206,1389807488.774373
3,198,0,13915,1677,-219,-844,14091,5792,16,384,13721,359,-358,-114,1389807488.774388
2,199,0,35778,731,186,-153,36133,8416,1056,-784,34411,365,-100,-206,1389807488.774716
3,199,0,15915,1859,-350,-764,15969,4240,432,-176,13721,359,-358,-114,1389807488.774727
2,200,0,37767,659,153,-125,38012,8608,592,-432,36973,363,-96,-204,1389807488.792598
3,200,0,17914,1713,-482,-413,17846,3680,848,-528,16299,353,-361,-118,1389807488.792613
2,201,0,39757,657,119,-114,39891,8672,352,-176,39533,364,-97,-209,1389807488.804875
3,201,0,18914,1557,-534,-182,19723,3984,1504,-288,18878,352,-359,-124,1389807488.804884
2,202,0,41746,700,64,-125,41770,8640,272,-112,39533,364,-97,-209,1389807488.805152
3,202,0,20913,1195,-541,254,21600,4592,2240,496,21455,351,-354,-125,1389807488.805158
2,203,0,43736,767,12,-136,43649,8448,208,-128,42096,366,-96,-209,1389807488.823356
3,203,0,22913,952,-453,581,23478,5504,2864,1376,21455,351,-354,-125,1389807488.823366
2,204,0,45725,880,-14,-162,45528,8400,0,-256,44657,361,-93,-210,1389807488.829525
3,204,0,24912,977,-294,874,25356,7088,3360,1792,24033,352,-348,-129,1389807488.829775
2,205,0,46720,958,-10,-186,47407,8736,-336,-304,47219,362,-93,-210,1389807488.841852
3,205,0,26911,1042,-53,1151,27233,10480,3664,832,26611,358,-336,-129,1389807488.841862
2,206,0,48709,1098,18,-296,49285,10192,-208,-480,47219,362,-93,-210,1389807488.854075
3,206,0,28911,683,317,1410,29111,16288,4848,-1968,29190,363,-323,-138,1389807488.854084
2,207,0,50699,1210,126,-478,51163,11872,112,-1440,49779,361,-100,-211,1389807488.854355
3,207,0,30910,66,590,1741,30989,19584,6800,-4656,29190,363,-323,-138,1389807488.854361
2,208,0,52688,1263,292,-701,53041,12112,-880,-3168,52340,361,-100,-214,1389807488.872587
3,208,0,32910,1090,437,1362,32866,16880,3664,-3200,31767,366,-312,-141,1389807488.872596
2,209,0,54678,1163,445,-956,54921,11392,64,-4640,54901,362,-103,-218,1389807488.884724
3,209,0,33909,2018,278,936,34744,13312,-912,-1728,34346,374,-307,-152,1389807488.884747
2,210,0,56667,1197,610,-1248,56799,11136,-1392,-3600,54901,362,-103,-218,1389807488.885069
3,210,0,35909,3188,97,15,36621,10064,-4032,-2688,34346,374,-307,-152,1389807488.885075
2,211,0,58657,613,556,-1748,58678,10688,-1312,-784,57462,361,-118,-228,1389807488.902654
3,211,0,37908,2943,138,-940,38498,6416,-3568,-5104,36923,377,-308,-168,1389807488.902663
2,212,0,60646,-13,359,-2017,60558,10432,-800,1648,60023,356,-133,-233,1389807488.914786
3,212,0,39908,1666,233,-1373,40375,2592,-976,-7600,39501,369,-316,-180,1389807488.914801
2,213,0,62636,-78,212,-2110,62437,10320,736,3984,62583,351,-151,-232,1389807488.915114
3,213,0,41907,-331,204,-1063,42253,-944,736,-9968,42079,366,-321,-179,1389807488.915125
2,214,0,63631,161,166,-2169,64316,9984,2704,5840,62583,351,-151,-232,1389807488.932810
3,214,0,43906,-1543,280,-193,44130,-1888,2016,-9904,42079,366,-321,-179,1389807488.932818
2,215,0,84,913,118,-2223,658,9648,4208,6560,65144,351,-171,-235,1389807488.944610
3,215,0,45906,-1731,561,756,46007,1152,4032,-6256,44657,365,-320,-175,1389807488.944618
2,216,0,2074,1651,101,-2172,2537,9680,5152,5152,2169,346,-177,-239,1389807488.944886
3,216,0,47905,-1492,413,1358,47885,5776,6192,-368,47236,365,-308,-169,1389807488.944892
2,217,0,4063,2184,156,-2060,4415,10288,5536,2080,2169,346,-177,-239,1389807488.962529
3,217,0,48905,-1501,77,1624,49762,10832,8176,5248,49813,379,-296,-163,1389807488.962544
2,218,0,6053,2418,304,-1891,6295,10784,5200,-688,4730,342,-186,-246,1389807488.974667
3,218,0,50904,-1761,-897,2403,51640,15264,8080,9664,49813,379,-296,-163,1389807488.974676
2,219,0,8042,2352,490,-1759,8173,11184,4048,-2688,7291,340,-196,-256,1389807488.974941
3,219,0,52904,-1463,-1463,2797,53517,16960,5008,11488,52392,379,-276,-141,1389807488.974947
2,220,0,10032,2034,619,-1699,10052,11408,2848,-3728,9853,337,-203,-265,1389807488.992929
3,220,0,54903,-387,-1052,1733,55394,14608,2160,9920,54969,392,-268,-134,1389807488.992938
2,221,0,12021,1501,633,-1728,11931,11264,1792,-3488,9853,337,-203,-265,1389807489.5113
3,221,0,56902,547,-301,631,57272,10352,1616,6704,54969,392,-268,-134,1389807489.5122
3,222,0,58902,990,242,226,59149,7120,1856,3312,57548,392,-261,-134,1389807489.5372
2,223,0,15006,373,464,-1787,15689,9984,1456,-1136,14976,322,-222,-279,1389807489.22957
3,223,0,60901,1064,569,100,61025,4816,2000,256,60127,397,-264,-141,1389807489.22965
2,224,0,16995,-284,329,-1790,17567,9024,1824,0,17537,316,-238,-280,1389807489.34587
3,224,0,62901,879,646,207,62902,3552,2032,-2384,62704,397,-258,-152,1389807489.34596
2,225,0,18985,-666,237,-1754,19446,8272,2064,736,17537,316,-238,-280,1389807489.34866
3,225,0,63900,716,616,341,64780,3808,2000,-4064,62704,397,-258,-152,1389807489.34873
2,226,0,20974,-807,150,-1686,21323,7776,2368,1200,20098,307,-251,-274,1389807489.52630
3,226,0,364,381,542,671,1121,5408,1648,-4272,65283,396,-256,-162,1389807489.52639
2,227,0,22964,-739,55,-1598,23201,7408,2432,1328,22659,305,-9,-276,1389807489.64781
3,227,0,2363,173,424,960,2998,7616,1216,-3408,2326,396,-500,-165,1389807489.64795
2,228,0,24953,-519,6,-1562,25080,7264,2304,1248,25219,306,-279,-275,1389807489.65118
3,228,0,4363,132,202,1163,4875,9184,848,-2224,2326,396,-500,-165,1389807489.65129
2,229,0,26943,-224,16,-1563,26958,7152,2096,1088,25219,306,-279,-275,1389807489.82684
3,229,0,6362,237,-38,1245,6752,10032,528,-1232,4904,401,-232,-168,1389807489.82693
2,230,0,28932,73,100,-1534,28838,7232,1968,800,27781,294,-290,-272,1389807489.94776
3,230,0,8361,301,-169,1206,8629,10176,240,-640,7482,401,-222,-164,1389807489.94785
2,231,0,30922,378,209,-1460,30717,7424,1920,368,30341,290,-301,-278,1389807489.95053
3,231,0,10361,152,-169,1111,10506,9664,272,-448,10061,411,-209,-162,1389807489.95060
2,232,0,31916,508,248,-1417,32595,7504,1696,-16,30341,290,-301,-278,1389807489.112623
3,232,0,12360,-220,-120,964,12383,8880,816,-704,10061,411,-209,-162,1389807489.112637
2,233,0,33906,644,308,-1345,34473,7504,1296,-544,32901,285,-309,-281,1389807489.124431
3,233,0,13360,-418,-94,882,14260,8192,1504,-928,12639,411,-205,-161,1389807489.124480
2,234,0,35896,607,317,-1305,36351,7328,960,-1136,35462,272,-316,-286,1389807489.124749
3,234,0,15359,-701,-33,750,16138,7776,2048,-720,15217,409,-197,-162,1389807489.124755
2,235,0,37885,469,287,-1262,38229,7104,960,-1584,38023,272,-321,-289,1389807489.142840
3,235,0,17359,-750,18,668,18014,7408,2288,-240,17795,409,-195,-159,1389807489.142849
2,236,0,39875,317,184,-1199,40108,6944,880,-1840,38023,272,-321,-289,1389807489.154810
2,237,0,41864,144,32,-1101,41986,6960,928,-1744,40583,259,-324,-293,1389807489.155084
3,237,0,21358,-717,12,443,21768,7344,2752,672,20374,412,-194,-160,1389807489.155090
2,238,0,43854,-66,-131,-1030,43865,6960,976,-1408,43145,259,-331,-294,1389807489.173284
3,238,0,23357,-804,24,410,23645,7728,3232,912,22953,412,-189,-155,1389807489.173299
2,239,0,45843,-271,-262,-971,45744,6864,1040,-848,45707,257,-340,-289,1389807489.179642
3,239,0,25356,-860,51,473,25523,8240,3680,976,22953,412,-189,-155,1389807489.179890
2,240,0,46838,-370,-307,-962,47623,6640,1136,-144,45707,257,-340,-289,1389807489.191924
3,240,0,27356,-745,71,543,27401,8752,4016,896,25531,418,-187,-152,1389807489.191939
2,241,0,48827,-521,-355,-908,49503,6352,1264,448,48266,257,-346,-285,1389807489.204305
3,241,0,28355,-599,75,556,29278,8768,4080,1024,28110,418,-178,-153,1389807489.204314
2,242,0,50817,-552,-365,-851,51381,6112,1232,832,50828,252,-350,-278,1389807489.204594
3,242,0,30355,-175,92,543,31156,8368,3904,1040,30688,418,-179,-160,1389807489.204600
2,243,0,52806,-412,-370,-759,53259,6032,1104,976,53389,246,-361,-271,1389807489.222821
3,243,0,32354,301,111,488,33034,8016,3632,1056,30688,418,-179,-160,1389807489.222835
2,244,0,54796,-140,-381,-659,55138,6144,752,912,53389,246,-361,-271,1389807489.234652
3,244,0,34354,712,155,434,34911,7904,3216,848,33267,418,-172,-155,1389807489.234661
2,245,0,56785,153,-414,-551,57016,6160,544,816,55950,247,-365,-272,1389807489.234889
3,245,0,36353,1034,200,365,36788,8064,2848,560,35845,420,-170,-159,1389807489.234895
2,246,0,58775,393,-420,-424,58894,6080,464,800,58511,248,-364,-273,1389807489.251664
3,246,0,38352,1225,233,279,38665,8256,2752,272,38422,417,-163,-163,1389807489.251672
2,247,0,60764,626,-418,-289,60772,5904,416,928,58511,248,-364,-273,1389807489.263878
3,247,0,40352,1282,248,189,40073,8368,2608,160,38422,417,-163,-163,1389807489.263893
2,248,0,62754,931,-384,-137,62651,5680,288,1104,61072,242,-364,-269,1389807489.264239
3,248,0,42351,1225,219,98,41950,8448,2608,48,41001,418,-167,-168,1389807489.264460
2,249,0,63749,1122,-363,-43,64529,5472,192,912,63634,246,-361,-273,1389807489.282239
3,249,0,43351,1162,202,38,43828,8320,2736,-80,43579,421,-161,-171,1389807489.282253
2,250,0,202,1490,-302,160,873,5424,0,544,660,246,-353,-281,1389807489.294431
3,250,0,45350,959,142,-64,45706,8208,2624,-384,46157,420,-160,-175,1389807489.294445
2,251,0,2192,1770,-245,390,2751,5568,-128,16,660,246,-353,-281,1389807489.294765
3,251,0,47350,732,87,-92,47583,8128,2512,-704,46157,420,-160,-175,1389807489.294777
2,252,0,4181,1939,-257,591,4629,5696,-352,-496,3222,252,-341,-285,1389807489.312745
3,252,0,49349,539,63,-9,49461,7984,2544,-928,48734,418,-156,-176,1389807489.312759
2,253,0,6171,2012,-317,746,6508,5648,-672,-720,5782,252,-328,-294,1389807489.324675
3,253,0,51349,369,40,146,51339,7904,2384,-1024,51312,416,-154,-178,1389807489.324689
2,254,0,8160,2020,-404,846,8387,5696,-992,-800,8343,257,-314,-300,1389807489.325016
3,254,0,53348,159,1,295,53216,8016,2208,-1088,51312,416,-154,-178,1389807489.325027
2,255,0,10150,1960,-454,903,10266,5680,-1456,-1072,8343,257,-314,-300,1389807489.342741
3,255,0,55347,-90,-15,434,55093,8128,2176,-1216,53890,418,-152,-177,1389807489.342750
2,0,0,12139,1836,-458,918,12145,5920,-1904,-1648,10904,259,-306,-307,1389807489.354848
3,0,0,57347,-346,-12,570,56971,8160,2336,-1504,56467,416,-148,-176,1389807489.354857
2,1,0,14129,1660,-410,936,14024,6336,-2320,-2672,13466,268,-291,-306,1389807489.355123
3,1,0,58347,-428,1,614,58849,8096,2320,-1872,59044,420,-144,-176,1389807489.355129
2,2,0,15124,1574,-378,933,15903,6880,-2672,-3696,13466,268,-291,-306,1389807489.373254
3,2,0,60346,-494,31,650,60726,7984,2160,-2080,59044,420,-144,-176,1389807489.373263
2,3,0,17113,1453,-287,886,17781,7536,-3008,-4592,16027,273,-278,-311,1389807489.385385
3,3,0,62345,-494,93,620,62604,7920,1984,-2032,61622,418,-141,-178,1389807489.385394
2,4,0,19103,1405,-151,804,19659,8416,-3424,-5344,18588,277,-266,-314,1389807489.385625
3,4,0,64345,-529,162,546,64482,7952,2048,-1664,64199,418,-135,-178,1389807489.385631
2,5,0,21092,1364,29,724,21538,10256,-3728,-6624,21150,280,-257,-320,1389807489.403242
3,5,0,808,-631,234,446,824,8096,2416,-1168,1241,423,-135,-177,1389807489.403251
2,6,0,23082,1250,265,698,23416,11936,-3360,-8144,21150,280,-257,-320,1389807489.414969
3,6,0,2808,-779,271,378,2700,8352,3136,-704,1241,423,-135,-177,1389807489.414983
2,7,0,25071,929,501,670,25295,12944,-3360,-8240,23711,284,-503,-328,1389807489.415308
3,7,0,4807,-858,264,308,4578,8752,3600,-592,3818,421,-130,-176,1389807489.415319
2,8,0,27061,285,564,429,27173,12816,-3952,-6592,26272,281,-244,-334,1389807489.433064
2,9,0,29050,-447,418,30,29052,11760,-4368,-4912,28833,281,-245,-334,1389807489.445274
3,9,0,7806,-652,219,241,8334,8448,3232,-560,6396,421,-130,-183,1389807489.445284
2,10,0,30045,-729,294,-133,30930,10672,-4880,-4144,28833,281,-245,-334,1389807489.445549
3,10,0,9805,-332,228,258,10212,8416,2816,80,8973,419,-128,-181,1389807489.445556
2,11,0,32034,-1169,-84,-291,32809,10032,-6464,-2464,31393,280,-250,-331,1389807489.462822
3,11,0,11805,-77,281,304,12090,8592,2752,1216,11552,422,-126,-184,1389807489.462830
2,12,0,34024,-1762,-568,-496,34688,9520,-7392,-112,33955,278,-7,-323,1389807489.474889
3,12,0,13804,54,311,302,13968,8944,3248,2240,14130,419,-122,-187,1389807489.474904
2,13,0,36014,-2266,-905,-926,36567,8736,-6176,2784,36517,272,-278,-309,1389807489.475249
3,13,0,15804,194,289,237,15846,9264,3696,2688,14130,419,-122,-187,1389807489.475260
2,14,0,38003,-1740,-963,-1075,38446,7568,-4128,5856,36517,272,-278,-309,1389807489.493414
3,14,0,17803,431,233,119,17724,9136,3232,2352,16708,417,-126,-189,1389807489.493423
2,15,0,39993,-122,-866,-886,40325,5616,-2368,8224,39077,282,-288,-295,1389807489.499704
3,15,0,19802,709,166,28,19601,8944,2192,1888,19286,419,-121,-189,1389807489.500019
2,16,0,41982,1839,-721,-587,42203,3952,-864,8608,41638,278,-285,-296,1389807489.511708
3,16,0,21802,840,157,19,21479,8992,1216,1616,21865,422,-120,-194,1389807489.511723
2,17,0,43972,3402,-594,-205,44082,3488,368,6352,41638,278,-285,-296,1389807489.522673
3,17,0,22802,839,155,21,23357,9200,576,1584,21865,422,-120,-194,1389807489.522682
2,18,0,45961,4121,-449,312,45962,3904,1248,3552,44198,277,-273,-306,1389807489.534716
3,18,0,24801,744,169,-3,25234,9536,352,1456,24442,416,-116,-192,1389807489.534725
2,19,0,46956,4035,-399,623,47841,5216,912,1808,46759,279,-508,-313,1389807489.534943
3,19,0,26800,619,187,-40,27112,10352,256,1360,27020,418,-116,-198,1389807489.534948
2,20,0,48945,2892,-387,1289,49720,7776,1680,1456,49320,287,-227,-325,1389807489.552894
3,20,0,28800,557,220,-92,28990,11808,32,1168,27020,418,-116,-198,1389807489.552903
2,21,0,50935,952,-460,1858,51599,11264,3840,2016,49320,287,-227,-325,1389807489.565253
3,21,0,30799,511,206,-190,30868,12656,-160,896,29598,421,-117,-201,1389807489.565267
2,22,0,52924,-881,-513,2210,53479,15696,6496,2528,51882,291,-213,-318,1389807489.565594
3,22,0,32799,533,149,-377,32746,12208,-576,496,32177,414,-120,-202,1389807489.565604
2,23,0,54914,-1816,-491,2354,55357,19168,7712,2192,54443,307,-203,-309,1389807489.583892
3,23,0,34798,660,98,-642,34624,11632,-1184,224,34756,415,-123,-202,1389807489.583901
2,24,0,56903,-1529,-246,2174,57235,17536,6528,80,57004,307,-192,-307,1389807489.584190
3,24,0,36797,603,76,-832,36501,11728,-1216,-384,34756,415,-123,-202,1389807489.584446
2,25,0,58893,-464,304,1646,59114,13552,3424,-2320,57004,307,-192,-307,1389807489.602109
3,25,0,37797,449,59,-984,38379,11520,-880,-1792,37334,414,-137,-202,1389807489.602119
2,26,0,60882,325,780,1094,60993,9760,-640,-4512,59565,310,-186,-306,1389807489.614227
3,26,0,39797,59,53,-1492,40256,10304,-144,-3248,39914,414,-150,-207,1389807489.614277
2,27,0,62872,507,993,593,62872,6080,-2432,-7056,62127,310,-181,-319,1389807489.614499
3,27,0,41796,-79,133,-2011,42134,9280,-528,-4048,42491,412,-166,-204,1389807489.614505
2,28,0,63867,731,1051,369,64281,3520,-1488,-7312,64688,310,-173,-327,1389807489.632441
3,28,0,43795,-292,190,-2159,44012,8384,-448,-3360,42491,412,-166,-204,1389807489.632455
2,29,0,320,1781,972,169,622,1088,-976,-4880,64688,310,-173,-327,1389807489.644825
3,29,0,45795,-825,176,-2070,45890,8000,1120,-2032,45069,410,-185,-204,1389807489.644840
2,30,0,2310,2270,583,280,2502,288,-1712,-2432,1712,301,-164,-337,1389807489.645103
3,30,0,47794,-1167,57,-2151,47767,8000,3152,-384,47648,403,-205,-203,1389807489.645124
2,31,0,4299,1743,-15,540,4381,1232,-976,-1408,4273,305,-150,-338,1389807489.663285
3,31,0,49794,-1193,-223,-2155,49645,8224,4544,1808,47648,403,-205,-203,1389807489.663300
2,32,0,6289,1307,-527,950,6260,3920,1200,-928,4273,305,-150,-338,1389807489.668952
3,32,0,51793,-1079,-579,-1969,51523,8672,6400,4528,50226,400,-223,-199,1389807489.669199
