nodeID,seqNumber,status,gyroTick,gyroX,gyroY,gyroZ,accelTick,accelX,accelY,accelZ,magTick,magX,magY,magZ,currentTime
2,87,0,29603,2,-8,-36,30245,8192,672,-208,29222,339,15,-268,1389807384.581249
3,87,0,9847,13,-20,-9,9976,8272,1152,-736,9291,382,50,-272,1389807384.581261
2,88,0,31592,10,-10,-25,32123,8240,656,-288,31783,341,17,-268,1389807384.584588
3,88,0,11846,6,-15,-11,11853,8320,1040,-720,11868,382,45,-274,1389807384.584597
2,89,0,33582,21,-3,-19,34002,8224,640,-368,34344,339,21,-265,1389807384.584599
3,89,0,13845,-7,-6,-2,13731,8288,1056,-672,11868,382,45,-274,1389807384.584601
2,90,0,35571,9,-13,-22,35882,8336,688,-320,34344,339,21,-265,1389807384.584614
3,90,0,14845,-7,-12,-3,15610,8288,1120,-656,14444,382,49,-272,1389807384.584615
2,91,0,37561,19,-4,-17,37760,8336,640,-336,36905,334,18,-268,1389807384.584617
3,91,0,16844,-19,1,-9,17487,8320,1184,-624,17022,379,50,-274,1389807384.584619
2,92,0,39550,0,-3,-24,39639,8304,576,-320,39466,339,16,-267,1389807384.584620
3,92,0,18844,-22,4,-12,19365,8336,1184,-720,17022,379,50,-274,1389807384.584622
2,93,0,41540,-16,-1,-22,41517,8272,608,-288,39466,339,16,-267,1389807384.584624
3,93,0,20843,-17,5,-16,21243,8336,1120,-752,19600,379,45,-274,1389807384.584625
2,94,0,43529,-24,-4,-29,43396,8208,608,-240,42027,335,18,-264,1389807384.584627
3,94,0,22843,-22,9,-26,23122,8304,1136,-784,22177,386,49,-273,1389807384.584629
2,95,0,45519,-24,-12,-38,45275,8160,624,-320,44587,335,17,-268,1389807384.584630
3,95,0,24842,-9,1,-38,25000,8304,1200,-720,24753,383,48,-273,1389807384.584632
2,96,0,46514,-18,-9,-35,47154,8128,720,-272,47147,338,17,-266,1389807384.584634
3,96,0,26841,2,-6,-28,26878,8256,1248,-720,24753,383,48,-273,1389807384.584635
2,97,0,48503,-22,-10,-40,49031,8192,720,-240,47147,338,17,-266,1389807384.584637
3,97,0,28841,5,-5,-14,28755,8240,1200,-720,27332,379,48,-272,1389807384.584639
2,98,0,50493,-13,-7,-23,50910,8256,704,-224,49708,343,16,-270,1389807384.584640
3,98,0,29840,10,-17,-9,30633,8240,1232,-688,29909,381,48,-269,1389807384.584642
2,99,0,52482,8,-3,-8,52789,8304,656,-160,52268,338,20,-266,1389807384.584644
3,99,0,31840,14,-8,-10,32510,8272,1248,-704,32487,384,50,-271,1389807384.584645
2,100,0,54471,26,-7,-9,54668,8272,736,-208,54829,340,17,-269,1389807384.584647
3,100,0,33839,15,-5,-12,34387,8288,1168,-624,32487,384,50,-271,1389807384.584649
2,101,0,56461,42,-2,-16,56546,8224,704,-240,54829,340,17,-269,1389807384.584650
3,101,0,35839,14,-13,-9,36265,8304,1152,-672,35064,377,48,-271,1389807384.584652
2,102,0,58450,48,-5,-26,58425,8176,608,-288,57390,340,15,-267,1389807384.584654
3,102,0,37838,13,-9,-6,38142,8368,1136,-768,37642,386,49,-273,1389807384.584655
2,103,0,60440,19,-1,-25,60303,8160,640,-288,59952,338,22,-266,1389807384.584657
3,103,0,39837,0,-14,-10,40020,8368,1104,-784,37642,386,49,-273,1389807384.584659
2,104,0,62429,-6,-1,-21,62181,8176,592,-336,59952,338,22,-266,1389807384.584660
3,104,0,41837,-15,-3,-20,41898,8320,1088,-800,40219,384,50,-274,1389807384.584662
2,105,0,63424,-26,-5,-16,64060,8240,512,-288,62514,339,18,-269,1389807384.584664
3,105,0,43836,-39,2,-19,43776,8336,1072,-800,42796,380,48,-274,1389807384.584665
2,106,0,65414,-35,-16,-25,402,8272,576,-288,65075,342,17,-268,1389807384.584667
3,106,0,44836,-45,2,-24,45654,8336,1056,-768,45373,382,46,-274,1389807384.584669
2,107,0,1867,-36,-12,-29,2280,8288,640,-240,2100,339,21,-267,1389807384.584670
3,107,0,46835,-28,-4,-19,47531,8288,1136,-672,45373,382,46,-274,1389807384.584672
2,108,0,3857,-15,-13,-29,4158,8288,576,-288,2100,339,21,-267,1389807384.584674
3,108,0,48835,-9,0,-26,49408,8256,1152,-608,47949,382,49,-271,1389807384.584675
2,109,0,5846,9,-6,-34,6037,8304,592,-272,4661,343,16,-269,1389807384.584677
3,109,0,50834,6,-9,-15,51286,8320,1152,-640,50526,381,48,-272,1389807384.584679
2,110,0,7836,29,-6,-30,7915,8208,672,-304,7223,343,19,-266,1389807384.584680
3,110,0,52833,26,3,-16,53163,8352,1184,-720,53102,383,48,-273,1389807384.584682
2,111,0,9825,32,1,-41,9794,8128,656,-320,9784,336,18,-266,1389807384.584684
3,111,0,54833,31,2,-5,55041,8336,1200,-784,53102,383,48,-273,1389807384.584685
2,112,0,11815,15,3,-37,11673,8144,736,-256,9784,336,18,-266,1389807384.584687
3,112,0,56832,21,-3,-17,56919,8320,1184,-704,55680,385,51,-272,1389807384.584729
2,113,0,13804,12,0,-23,13551,8128,656,-272,12344,336,21,-265,1389807384.584731
3,113,0,58832,14,-6,-22,58796,8336,1152,-720,58256,379,48,-272,1389807384.584733
2,114,0,14799,8,5,-27,15430,8160,752,-272,14905,343,20,-267,1389807384.584734
3,114,0,59831,8,-13,-27,60673,8240,1184,-688,58256,379,48,-272,1389807384.584736
2,115,0,16788,0,-8,-5,17309,8256,688,-288,17465,341,19,-266,1389807384.584738
3,115,0,61831,-25,5,-17,62551,8256,1232,-688,60834,382,49,-276,1389807384.584739
2,116,0,18778,-12,-8,-10,19187,8320,672,-320,17465,341,19,-266,1389807384.584741
3,116,0,63830,-25,0,-25,64428,8240,1072,-720,63412,384,48,-272,1389807384.584743
2,117,0,20767,-4,-6,-12,21065,8304,672,-320,20025,336,20,-264,1389807384.584744
3,117,0,294,-24,7,-21,769,8320,1056,-800,453,382,50,-276,1389807384.584746
2,118,0,22757,-13,-7,-20,22942,8304,608,-304,22587,342,20,-267,1389807384.584748
3,118,0,2293,-28,5,-19,2646,8320,1008,-768,453,382,50,-276,1389807384.584749
2,119,0,24746,-20,-11,-40,24820,8320,544,-288,22587,342,20,-267,1389807384.584751
3,119,0,4292,-30,8,-9,4524,8352,1040,-736,3030,381,45,-273,1389807384.584753
2,120,0,26736,-27,-3,-45,26700,8256,544,-272,25148,338,20,-265,1389807384.584754
3,120,0,6292,-12,6,4,6402,8320,1088,-688,5607,383,51,-273,1389807384.584756
2,121,0,28725,-10,-2,-54,28578,8144,576,-256,27710,334,19,-268,1389807384.584758
3,121,0,8291,5,-8,4,8279,8352,1136,-720,8184,379,49,-276,1389807384.584759
2,122,0,29720,-5,0,-40,30456,8128,640,-288,30270,341,18,-271,1389807384.584761
3,122,0,9291,14,-13,-5,10157,8352,1184,-672,8184,379,49,-276,1389807384.584763
2,123,0,31709,6,7,-41,32335,8160,656,-320,30270,341,18,-271,1389807384.584764
3,123,0,11290,23,-9,-20,12036,8320,1136,-736,10762,382,44,-273,1389807384.584766
2,124,0,33699,5,2,-28,34214,8176,704,-240,32831,337,19,-268,1389807384.584768
3,124,0,13290,31,9,-30,13913,8320,1216,-720,13340,383,47,-273,1389807384.584770
2,125,0,35688,11,2,-4,36093,8224,736,-240,35392,337,20,-266,1389807384.584771
3,125,0,15289,22,7,-28,15791,8304,1200,-688,13340,383,47,-273,1389807384.584773
2,126,0,37678,20,-5,-6,37971,8304,768,-224,37953,341,20,-266,1389807384.584775
3,126,0,17288,10,-15,-25,17669,8272,1200,-672,15917,381,50,-276,1389807384.584776
2,127,0,39667,26,-2,-13,39851,8352,784,-208,37953,341,20,-266,1389807384.584778
3,127,0,19288,-4,-3,-12,19547,8304,1216,-688,18494,379,50,-270,1389807384.584780
2,128,0,41657,30,-1,-20,41729,8288,752,-224,40513,342,23,-268,1389807384.584781
3,128,0,21287,-10,7,-10,21425,8288,1136,-688,21071,384,50,-274,1389807384.584783
2,129,0,43646,27,-4,-35,43608,8256,784,-320,43073,336,18,-268,1389807384.584785
3,129,0,23287,0,-1,-9,23303,8336,1152,-736,21071,384,50,-274,1389807384.584786
2,130,0,45636,7,-5,-46,45487,8224,720,-272,45633,337,17,-270,1389807384.584788
3,130,0,24286,0,2,-10,25180,8336,1056,-704,23647,383,50,-271,1389807384.584790
2,131,0,46631,3,-7,-48,47367,8144,688,-240,45633,337,17,-270,1389807384.584791
3,131,0,26286,17,-7,-2,27058,8384,1040,-816,26224,381,50,-273,1389807384.584793
2,132,0,48620,7,-5,-47,49247,8160,640,-208,48194,341,21,-267,1389807384.584795
3,132,0,28285,4,-6,-12,28936,8352,1024,-832,28801,382,43,-275,1389807384.584796
2,133,0,50610,27,-3,-44,51126,8176,720,-240,50756,333,18,-267,1389807384.584798
3,133,0,30284,7,-4,-20,30814,8352,1136,-720,28801,382,43,-275,1389807384.584799
2,134,0,52599,40,-5,-30,53005,8224,688,-208,50756,333,18,-267,1389807384.584801
3,134,0,32284,15,-4,-14,32692,8288,1152,-736,31378,383,52,-271,1389807384.584803
2,135,0,54589,38,-8,-19,54884,8240,656,-272,53317,336,18,-270,1389807384.584804
3,135,0,34283,15,-8,-20,34570,8304,1232,-688,33956,380,48,-273,1389807384.584806
2,136,0,56578,37,-11,-24,56763,8336,608,-288,55878,342,17,-263,1389807384.584807
3,136,0,36283,14,5,-20,36448,8256,1200,-672,33956,380,48,-273,1389807384.584809
2,137,0,58567,26,-11,-13,58642,8288,608,-336,58439,338,21,-264,1389807384.584835
3,137,0,38282,12,8,-23,38325,8240,1312,-624,36532,380,48,-272,1389807384.584837
2,138,0,60557,22,-1,-21,60521,8320,560,-368,58439,338,21,-264,1389807384.584854
3,138,0,39282,21,5,-29,40204,8288,1296,-608,39110,383,50,-271,1389807384.584856
2,139,0,62546,2,0,-31,62399,8272,608,-352,61000,342,17,-266,1389807384.584858
3,139,0,41281,24,14,-21,42082,8272,1248,-688,41688,381,49,-277,1389807384.584859
2,140,0,63541,-5,-1,-33,64278,8304,640,-352,63560,342,22,-267,1389807384.584861
3,140,0,43280,4,2,-22,43960,8288,1184,-720,41688,381,49,-277,1389807384.584863
2,141,0,65531,-3,-3,-47,621,8272,656,-304,585,339,19,-269,1389807384.584864
3,141,0,45280,-12,-2,5,45837,8272,1216,-768,44265,379,45,-273,1389807384.584866
2,142,0,1984,-3,4,-46,2501,8256,768,-224,585,339,19,-269,1389807384.584868
3,142,0,47279,-17,0,0,47715,8304,1296,-736,46843,385,49,-273,1389807384.584869
2,143,0,3974,-5,1,-52,4381,8272,752,-144,3145,339,16,-270,1389807384.584871
3,143,0,49279,-10,-6,-12,49123,8368,1248,-704,49421,385,51,-274,1389807384.584873
2,144,0,5963,-16,2,-48,6260,8192,768,-256,5706,341,20,-268,1389807384.584875
3,144,0,51278,-8,7,-12,51001,8336,1232,-688,49421,385,51,-274,1389807384.584876
2,145,0,7953,-19,-9,-53,8138,8112,736,-336,5706,341,20,-268,1389807384.584878
3,145,0,53277,3,5,-11,52879,8384,1184,-608,51999,380,48,-274,1389807384.584880
2,146,0,9942,-33,-7,-47,10018,8048,704,-320,8266,340,21,-269,1389807384.584881
3,146,0,54277,3,-1,-17,54756,8336,1168,-688,54577,383,48,-273,1389807384.584883
2,147,0,11932,-30,-3,-29,11896,8112,752,-336,10828,336,18,-268,1389807384.584885
3,147,0,56276,12,-4,-22,56633,8352,1168,-768,54577,383,48,-273,1389807384.584887
2,148,0,12926,-22,-12,-16,13775,8128,752,-224,13389,339,16,-270,1389807384.584888
3,148,0,58276,18,1,-30,58510,8368,1088,-880,57154,379,52,-272,1389807384.584890
2,149,0,14916,20,0,-11,15655,8192,736,-192,13389,339,16,-270,1389807384.584892
3,149,0,60275,6,-2,-18,60388,8368,1072,-928,59732,379,51,-273,1389807384.584893
2,150,0,16905,47,1,-14,17534,8320,736,-256,15950,341,20,-265,1389807384.584895
3,150,0,62275,5,-11,-7,62265,8320,1056,-896,62308,384,49,-272,1389807384.584897
2,151,0,18895,78,4,-4,19414,8368,688,-256,18511,338,17,-267,1389807384.584898
3,151,0,64274,-9,-8,-4,64142,8272,1120,-880,62308,384,49,-272,1389807384.584900
2,20,0,31537,301,22,-1,32158,8032,1776,-992,29880,355,4,132,1389807384.596608
3,20,0,11497,201,16,9,11706,8240,2176,96,9529,396,-70,174,1389807384.596616
2,21,0,33527,330,26,29,34037,8064,1680,-880,32441,358,1,133,1389807384.596864
3,21,0,13497,183,26,24,13582,8288,2096,144,12106,396,-73,178,1389807384.603091
2,22,0,35516,328,24,48,35915,8128,1728,-784,35002,354,0,135,1389807384.615338
3,22,0,15496,148,31,27,15460,8240,2176,112,14684,394,-76,176,1389807384.615346
2,23,0,37506,332,23,54,37794,8048,1792,-736,37562,354,-253,132,1389807384.627233
3,23,0,16496,145,27,34,17337,8208,2144,128,17262,392,-73,175,1389807384.627242
2,24,0,39495,380,26,76,39673,8080,1824,-608,37562,354,-253,132,1389807384.627508
3,24,0,18495,142,28,57,19215,8224,2240,192,17262,392,-73,175,1389807384.627514
2,25,0,41485,468,29,94,41552,8112,1808,-416,40123,354,1,139,1389807384.645578
3,25,0,20495,147,24,76,21093,8272,2128,240,19839,397,-75,175,1389807384.645588
2,26,0,43474,580,38,100,43431,8192,1744,-288,42683,352,255,134,1389807384.657632
3,26,0,22494,149,21,91,22970,8256,2080,384,22415,392,-74,174,1389807384.657640
2,27,0,44469,627,37,90,45311,8272,1776,-160,45242,354,-255,132,1389807384.657909
3,27,0,24493,163,14,95,24849,8288,2032,384,22415,392,-74,174,1389807384.657916
2,28,0,46458,704,30,77,47190,8288,1872,-32,45242,354,-255,132,1389807384.676004
3,28,0,26493,209,22,101,26727,8352,1952,464,24992,397,-71,175,1389807384.676013
3,29,0,28492,277,30,113,28604,8432,2048,432,27569,395,-71,176,1389807384.687794
2,30,0,50437,783,35,23,50949,8304,1664,-80,50364,352,-7,135,1389807384.688029
3,30,0,30492,327,46,110,30481,8496,2144,352,30147,399,-73,174,1389807384.688036
2,31,0,52427,784,47,-32,52827,8224,1760,-480,50364,352,-7,135,1389807384.706157
3,31,0,31491,330,39,113,32357,8288,2112,96,30147,399,-73,174,1389807384.706166
2,32,0,54416,741,46,-39,54706,8080,1856,-1024,52924,354,-6,136,1389807384.717916
3,32,0,33491,329,23,79,34234,8112,2016,-144,32725,396,-72,174,1389807384.717993
2,33,0,56406,681,55,-15,56585,8160,2160,-1488,55484,356,-7,136,1389807384.718345
3,33,0,35490,307,26,59,36110,7856,2032,-304,35302,399,-74,170,1389807384.718352
2,34,0,58395,637,69,-14,58463,8336,2192,-1680,58044,351,-10,139,1389807384.736470
3,34,0,37489,282,35,84,37988,7904,1888,-304,37880,397,-77,171,1389807384.736479
2,35,0,59390,619,86,-18,60341,8464,2272,-1536,58044,351,-10,139,1389807384.736732
3,35,0,39489,234,50,143,39865,8192,1808,144,37880,397,-77,171,1389807384.748784
2,36,0,61380,571,106,-55,62220,8480,2208,-1088,60604,351,-10,135,1389807384.749060
3,36,0,41488,207,65,179,41742,8560,1888,640,40457,394,-72,170,1389807384.749067
2,37,0,63369,513,102,-100,64098,8272,2032,-512,63165,357,-10,138,1389807384.766878
3,37,0,43488,204,65,192,43619,8672,2208,1024,43035,398,-68,170,1389807384.766887
2,38,0,65359,472,98,-138,65506,8112,1840,-160,190,357,-19,135,1389807384.767169
3,38,0,45487,269,67,152,45497,8528,2480,1024,43035,398,-68,170,1389807384.767420
2,39,0,1812,397,92,-143,1849,7776,1840,-112,190,357,-19,135,1389807384.785243
3,39,0,46487,305,56,111,47374,8272,2560,544,45613,399,-75,171,1389807384.785258
2,40,0,3802,365,87,-114,3728,7728,1616,-352,2750,354,-19,134,1389807384.797421
3,40,0,48486,387,46,73,49251,8256,2496,-64,48189,397,-73,172,1389807384.797430
2,41,0,5791,375,75,-96,5606,8016,1424,-864,5310,357,-19,131,1389807384.797699
3,41,0,50486,414,44,53,51128,8176,2544,-320,50766,395,-70,169,1389807384.797705
2,42,0,7781,407,65,-74,7484,8192,1488,-1456,7872,362,-24,134,1389807384.815933
3,42,0,52485,390,33,39,53005,8144,2576,-384,50766,395,-70,169,1389807384.815947
2,43,0,9770,437,66,-53,9363,8320,1440,-1744,7872,362,-24,134,1389807384.827604
3,43,0,54484,341,30,33,54881,8016,2720,-272,53343,398,-75,170,1389807384.827613
2,44,0,10765,436,66,-49,11241,8336,1632,-1776,10433,355,-23,137,1389807384.827808
3,44,0,56484,284,30,39,56758,8048,2944,-96,55920,394,-74,170,1389807384.827814
2,45,0,12754,393,63,-45,13120,8144,1696,-1680,12994,357,-23,130,1389807384.845479
3,45,0,58483,225,39,62,58635,8112,3088,-32,58497,394,-69,171,1389807384.845487
2,46,0,14744,303,47,-25,14999,7920,1712,-1488,12994,357,-23,130,1389807384.857751
3,46,0,60482,168,29,82,60512,8272,3216,-32,58497,394,-69,171,1389807384.857760
2,47,0,16733,185,38,-8,16878,7760,1760,-1280,15554,359,-27,135,1389807384.858028
3,47,0,61482,144,28,81,62388,8272,3264,-144,61074,397,-72,171,1389807384.858034
2,48,0,18723,90,24,23,18757,7824,1824,-1264,18115,358,-26,131,1389807384.876239
3,48,0,63482,84,22,55,64264,8208,3232,-272,63652,396,-72,166,1389807384.876246
2,49,0,20712,4,9,57,20637,8064,1760,-1280,20678,359,-24,133,1389807384.882239
3,49,0,65481,15,-2,44,605,8144,3088,-528,63652,396,-72,166,1389807384.882421
2,50,0,22702,-75,9,54,22515,8224,1776,-1296,20678,359,-24,133,1389807384.894149
3,50,0,1944,-69,-6,51,2482,8048,2928,-688,694,397,-67,169,1389807384.894152
2,51,0,24691,-145,11,65,24395,8272,1728,-1328,23238,359,-26,133,1389807384.905500
3,51,0,3944,-179,-9,77,4359,8032,2944,-496,3272,399,-71,167,1389807384.905506
2,52,0,26681,-186,21,64,26274,8176,1664,-1296,25798,357,-23,133,1389807384.917213
3,52,0,5943,-290,-6,106,5766,8032,3088,-240,5848,395,-68,169,1389807384.917217
2,53,0,27675,-200,19,59,28153,7920,1696,-1200,28358,354,-20,133,1389807384.917399
3,53,0,7943,-353,-6,118,7643,8144,3200,176,5848,395,-68,169,1389807384.917403
2,54,0,29665,-237,20,65,30031,7792,1760,-1024,28358,354,-20,133,1389807384.934573
3,54,0,9942,-375,-11,117,9520,8256,3408,528,8425,395,-62,168,1389807384.934577
2,55,0,31654,-281,-11,95,31910,7872,1792,-848,30919,360,-21,131,1389807384.946275
3,55,0,10942,-367,-24,108,11397,8400,3520,512,11002,396,-65,169,1389807384.946293
2,56,0,33644,-328,-38,116,33789,8016,1840,-816,33479,357,-21,131,1389807384.951735
3,56,0,12941,-327,-30,55,13274,8400,3504,272,13578,397,-61,170,1389807384.951909
2,57,0,35633,-340,-50,148,35669,8080,1856,-752,36039,358,-9,131,1389807384.963538
3,57,0,14940,-241,-36,10,15150,8304,3136,-16,13578,397,-61,170,1389807384.963542
2,58,0,37623,-331,-64,156,37547,8160,1904,-848,36039,358,-9,131,1389807384.975005
3,58,0,16940,-192,-30,-19,17026,8240,2832,-192,16154,393,-56,171,1389807384.975009
2,59,0,39612,-313,-65,167,39426,8256,2112,-768,38599,360,-14,133,1389807384.986663
3,59,0,18939,-198,-31,-8,18903,8128,2672,-192,18730,397,-58,169,1389807384.986669
2,60,0,41602,-273,-46,162,41305,8208,2352,-544,41160,355,-14,131,1389807384.986828
3,60,0,20939,-226,-14,32,20780,8096,2544,-32,18730,397,-58,169,1389807384.992196
2,61,0,42597,-256,-40,159,43184,8160,2192,-352,41160,355,-14,131,1389807385.4482
3,61,0,22938,-263,5,83,22658,8112,2544,272,21306,398,-60,173,1389807385.4490
2,62,0,44586,-216,-17,135,45063,8032,2128,-96,43721,355,-6,134,1389807385.16566
3,62,0,24937,-265,16,105,24535,8208,2576,624,23882,395,-57,170,1389807385.16574
2,63,0,46576,-164,-7,98,46942,8032,2080,96,46283,358,-9,134,1389807385.16842
3,63,0,25937,-251,10,121,26413,8256,2640,960,26459,397,-53,169,1389807385.22854
2,64,0,48565,-91,1,79,48821,8080,2096,48,48845,355,-9,130,1389807385.34958
3,64,0,27936,-199,14,159,28290,8448,2608,1264,26459,397,-53,169,1389807385.34973
2,65,0,50555,-18,-3,48,50699,8144,2176,-48,48845,355,-9,130,1389807385.47171
3,65,0,29936,-151,16,156,30167,8496,2656,1312,29037,397,-54,168,1389807385.47180
2,66,0,52544,47,2,43,52578,8176,2224,-224,51406,355,-9,133,1389807385.47446
3,66,0,31935,-96,13,131,32043,8560,2720,992,31613,394,-50,167,1389807385.47452
2,67,0,54534,84,-3,49,54457,8192,2176,-496,53967,358,-4,134,1389807385.65439
3,67,0,33935,1,5,92,33920,8416,2688,624,34190,394,-44,170,1389807385.65453
2,68,0,56523,106,-5,25,56336,8112,2144,-752,56527,354,-8,133,1389807385.77466
3,68,0,35934,100,3,36,35797,8240,2416,352,34190,394,-44,170,1389807385.77475
2,69,0,58513,79,-2,31,58215,8096,2224,-928,56527,354,-8,133,1389807385.77745
3,69,0,37933,130,9,16,37675,8128,2304,192,36768,396,-50,169,1389807385.77751
2,70,0,59507,80,1,43,60094,8112,2192,-1120,59088,356,-9,132,1389807385.95764
3,70,0,39933,107,11,29,39552,8144,2208,64,39345,396,-50,169,1389807385.95778
2,71,0,61497,60,10,70,61973,8112,2240,-1232,61647,356,-1,132,1389807385.107734
3,71,0,40933,92,19,29,41430,8208,2352,96,39345,396,-50,169,1389807385.107742
2,72,0,63486,14,12,65,63851,8176,2368,-1168,61647,356,-1,132,1389807385.108012
3,72,0,42932,18,31,15,43306,8320,2528,64,41921,397,-46,169,1389807385.108019
2,73,0,65476,-29,25,47,194,8112,2368,-976,64206,357,-6,131,1389807385.126260
3,73,0,44931,-71,37,5,45184,8272,2544,112,44498,397,-47,171,1389807385.126269
2,74,0,1929,-86,23,48,2073,8048,2256,-736,1231,354,0,131,1389807385.132583
3,74,0,46931,-147,25,-6,47061,8240,2608,48,47075,394,-50,169,1389807385.132900
2,75,0,3919,-154,15,28,3951,8032,2192,-576,3791,356,0,130,1389807385.144547
3,75,0,48930,-159,12,-16,48937,8144,2752,32,47075,394,-50,169,1389807385.144562
2,76,0,5908,-207,4,31,5830,8064,2080,-640,3791,356,0,130,1389807385.156262
3,76,0,50930,-186,16,-16,50815,8064,2864,16,49653,394,-42,169,1389807385.156272
2,77,0,7898,-239,14,44,7709,8080,2000,-864,6353,359,-2,132,1389807385.162419
3,77,0,52929,-203,24,17,52692,8048,2944,-16,52231,397,-46,169,1389807385.162744
2,78,0,9887,-269,21,71,9588,8080,1920,-1040,8915,353,-253,132,1389807385.174646
3,78,0,54928,-212,41,25,54569,8080,3040,-48,54808,397,-44,168,1389807385.174655
2,79,0,10882,-281,22,86,11467,8048,1904,-1072,11476,358,5,127,1389807385.186875
3,79,0,55928,-211,45,27,56446,8112,3104,128,54808,397,-44,168,1389807385.186890
2,80,0,12871,-313,41,113,13346,8096,2032,-928,11476,358,5,127,1389807385.187189
3,80,0,57927,-223,44,25,58323,8176,3120,304,57385,398,-41,168,1389807385.187409
2,81,0,14861,-338,38,118,15225,8160,1920,-704,14038,358,1,132,1389807385.204731
3,81,0,59927,-210,40,32,60201,8208,3136,448,59962,398,-38,169,1389807385.204740
2,82,0,16850,-333,24,104,17104,8176,1856,-544,16599,354,6,129,1389807385.216718
3,82,0,61926,-179,29,35,62077,8224,2960,512,59962,398,-38,169,1389807385.216731
2,83,0,18840,-321,4,102,18983,8128,1904,-560,19160,355,10,128,1389807385.217037
3,83,0,63926,-148,25,32,63955,8208,2848,304,62539,395,-41,168,1389807385.217346
2,84,0,20829,-301,0,101,20862,8112,2112,-656,19160,355,10,128,1389807385.235390
3,84,0,389,-151,25,25,296,8160,2784,112,65116,394,-40,167,1389807385.235399
2,85,0,22819,-283,4,86,22742,8112,2256,-768,21722,358,6,129,1389807385.247495
3,85,0,2388,-190,35,10,2173,8144,2768,-112,2158,395,-33,164,1389807385.247504
2,86,0,24808,-321,33,76,24621,8160,2240,-880,24282,352,8,126,1389807385.247708
3,86,0,4388,-228,31,18,4051,8128,2624,-240,2158,395,-33,164,1389807385.247712
2,87,0,25803,-352,39,82,26499,8192,2240,-912,24282,352,8,126,1389807385.265692
3,87,0,5387,-250,23,30,5928,8192,2336,-128,4734,398,-37,165,1389807385.265701
2,88,0,27793,-418,55,67,28378,8112,2128,-832,26843,355,17,122,1389807385.277333
3,88,0,7387,-281,37,60,7805,8400,2080,-16,7312,394,-34,167,1389807385.277341
2,89,0,29782,-453,62,40,30258,8000,2272,-768,29403,356,14,124,1389807385.277610
3,89,0,9386,-283,39,61,9682,8464,1968,112,9889,395,-33,168,1389807385.277616
2,90,0,31772,-455,59,30,32137,7920,2448,-688,31965,355,16,122,1389807385.294931
3,90,0,11386,-237,45,33,11558,8432,1936,160,9889,395,-33,168,1389807385.294940
2,91,0,33761,-439,47,42,34016,7888,2448,-464,31965,355,16,122,1389807385.306547
3,91,0,13385,-156,34,-24,13435,8384,1776,80,12467,398,-33,166,1389807385.306555
2,92,0,35751,-382,47,52,35896,7952,2528,-464,34527,357,18,122,1389807385.306696
3,92,0,15384,-93,41,-61,15312,8480,1648,-64,15043,395,-33,163,1389807385.318778
2,93,0,37740,-305,53,41,37774,7920,2528,-512,37091,357,21,119,1389807385.319115
3,93,0,17384,-57,56,-116,17190,8672,1424,-272,15043,395,-33,163,1389807385.319126
2,94,0,39730,-264,66,46,39654,7920,2384,-624,39652,356,19,118,1389807385.337081
3,94,0,19383,-9,81,-176,19067,8992,1184,-256,17621,396,-29,164,1389807385.337090
2,95,0,41719,-251,63,78,41533,8016,2432,-672,39652,356,19,118,1389807385.337360
3,95,0,20383,25,83,-206,20945,9200,768,-32,20198,396,-35,160,1389807385.337366
2,96,0,42714,-237,64,85,43412,8000,2640,-736,42213,352,25,115,1389807385.354863
3,96,0,22382,150,93,-295,22822,9392,160,304,22774,397,-38,163,1389807385.354872
2,97,0,44703,-210,63,80,45291,8000,2688,-704,44775,355,23,114,1389807385.366617
3,97,0,24382,272,88,-422,24699,9568,-384,704,22774,397,-38,163,1389807385.366631
2,98,0,46693,-162,53,69,47170,8048,2704,-624,47337,357,24,116,1389807385.366934
3,98,0,26381,393,61,-580,26576,9504,-880,1024,25351,398,-38,158,1389807385.373129
2,99,0,48682,-124,41,35,49049,8064,2688,-480,47337,357,24,116,1389807385.385299
3,99,0,28380,498,42,-744,28454,9488,-1392,1280,27928,401,-48,161,1389807385.385314
2,100,0,50672,-80,24,-8,50928,8032,2688,-560,49897,353,26,112,1389807385.397452
3,100,0,30380,613,29,-879,30331,9584,-1744,1408,30506,399,-61,160,1389807385.397460
2,101,0,52661,-36,53,-34,52808,7904,2624,-784,52459,357,26,109,1389807385.397723
3,101,0,32379,755,29,-1001,32208,9792,-1984,1600,30506,399,-61,160,1389807385.397729
2,102,0,54651,-27,74,-29,54688,7792,2624,-1056,52459,357,26,109,1389807385.415264
3,102,0,34379,947,47,-1133,34085,10144,-2144,1776,33084,396,-65,161,1389807385.415273
2,103,0,56640,-29,87,-4,56566,7792,2672,-1392,55021,356,25,113,1389807385.426978
3,103,0,35378,1059,65,-1224,35962,10480,-2096,1872,35661,401,-79,158,1389807385.426987
2,104,0,58630,1,81,-1,58446,7824,2816,-1584,57582,353,26,109,1389807385.427212
3,104,0,37378,1282,103,-1425,37839,10656,-1728,1856,35661,401,-79,158,1389807385.427417
2,105,0,59624,20,83,-4,60323,7984,2960,-1488,60143,357,28,109,1389807385.445280
3,105,0,39377,1459,148,-1647,39716,10768,-1168,1808,38239,400,-103,158,1389807385.445306
2,106,0,61614,28,55,-12,62202,8096,3024,-1328,60143,357,28,109,1389807385.457400
3,106,0,41377,1527,226,-1848,41593,10800,-544,1616,40816,397,-118,152,1389807385.457408
2,107,0,63603,30,25,-22,64081,7936,3088,-1072,62704,355,26,111,1389807385.457611
3,107,0,43376,1647,333,-2097,43470,10832,-240,1120,43393,399,-139,147,1389807385.457616
2,108,0,57,52,10,-53,424,7728,2800,-912,65265,355,26,111,1389807385.475015
3,108,0,45375,2008,469,-2401,45347,10160,912,64,43393,399,-139,147,1389807385.475024
2,109,0,2046,41,-5,-75,2302,7664,2608,-1008,2292,358,24,110,1389807385.486436
3,109,0,47375,2556,716,-2584,47224,9600,2064,-1424,45971,401,-167,141,1389807385.486450
2,110,0,4036,-6,-26,-50,4180,7872,2416,-1232,2292,358,24,110,1389807385.492320
3,110,0,49374,3287,1052,-2818,49101,9088,3184,-3328,48549,392,-199,129,1389807385.492470
2,111,0,6025,-59,-18,30,6059,7952,2368,-1696,4853,358,23,112,1389807385.504436
3,111,0,50374,3519,1187,-2973,50979,8736,2400,-4944,51127,393,-232,109,1389807385.504445
2,112,0,8015,-87,19,84,7937,7872,2640,-2032,7414,354,29,109,1389807385.516518
3,112,0,52373,3028,1217,-3006,52856,8768,1104,-6496,51127,393,-232,109,1389807385.516526
2,113,0,9010,-93,41,109,9816,7808,2736,-1904,9975,355,31,110,1389807385.516761
3,113,0,54373,1632,1002,-2782,54733,9232,-96,-7248,53704,393,-4,96,1389807385.528898
2,114,0,10999,-119,79,179,11695,7904,2432,-1552,9975,355,31,110,1389807385.529132
3,114,0,56372,51,682,-2474,56610,9856,-1744,-6256,56281,388,-279,83,1389807385.529140
2,115,0,12989,-130,81,242,13574,7872,2400,-1264,12536,360,31,108,1389807385.547108
3,115,0,58371,-1589,354,-2300,58488,9760,208,-4064,56281,388,-279,83,1389807385.547117
2,116,0,14978,-21,60,262,15452,7776,2160,-1104,15097,356,32,110,1389807385.547380
3,116,0,60371,-2263,157,-2211,60365,9104,2560,-800,58859,380,-288,93,1389807385.547386
2,117,0,16968,139,60,291,17330,7744,1952,-1088,15097,356,32,110,1389807385.565216
3,117,0,62370,-1791,94,-1838,62242,8848,2384,2272,61436,379,-300,98,1389807385.565225
2,118,0,18957,295,57,333,19209,7920,1696,-1088,17658,355,39,106,1389807385.577286
3,118,0,64370,-1049,113,-1493,64120,8960,1392,3872,64014,366,-305,104,1389807385.577295
2,119,0,20947,449,74,351,21087,8032,1488,-1008,20219,358,39,110,1389807385.577562
3,119,0,65369,-642,144,-1406,461,8640,784,3920,64014,366,-305,104,1389807385.577568
2,120,0,22936,535,85,322,22966,8192,1232,-864,22780,356,37,107,1389807385.595471
3,120,0,1833,153,257,-1318,2338,8256,656,2736,1055,362,-312,101,1389807385.595480
2,121,0,24926,560,97,290,24845,8384,800,-928,22780,356,37,107,1389807385.607014
3,121,0,3832,730,384,-1284,4214,7760,448,1296,3632,363,-325,95,1389807385.607023
2,122,0,25920,555,103,255,26723,8496,592,-1248,25342,355,38,110,1389807385.607292
3,122,0,5831,1069,447,-1283,6091,7088,208,512,6211,356,-338,87,1389807385.607298
2,123,0,27910,526,91,178,28602,8672,768,-1616,27902,355,40,108,1389807385.625382
3,123,0,7831,1229,467,-1275,7969,6368,128,400,6211,356,-338,87,1389807385.625408
2,124,0,29899,508,85,112,30481,8912,848,-2032,30463,352,37,109,1389807385.637584
3,124,0,9830,1280,444,-1210,9846,5664,-112,528,8788,351,-350,79,1389807385.637599
2,125,0,31889,420,89,82,32360,8944,832,-2208,30463,352,37,109,1389807385.637930
3,125,0,11830,1245,385,-1080,11723,5296,-272,624,11365,352,-361,65,1389807385.637940
2,126,0,33878,311,106,79,34238,8768,848,-2032,33023,351,37,109,1389807385.656053
3,126,0,13829,1145,332,-899,13601,5184,-496,480,11365,352,-361,65,1389807385.656063
2,127,0,35868,235,126,63,36117,8384,816,-1664,35584,352,42,106,1389807385.668245
3,127,0,14829,1067,296,-802,15478,5328,-560,144,13942,348,-368,61,1389807385.668259
2,128,0,37857,167,131,26,37996,7936,704,-1216,35584,352,42,106,1389807385.668591
3,128,0,16828,856,196,-628,17355,5520,-640,-256,16519,337,-370,56,1389807385.668602
2,129,0,39847,170,127,18,39875,7632,880,-912,38145,351,36,108,1389807385.686202
3,129,0,18828,623,97,-454,19232,5744,-656,-640,19097,339,-376,51,1389807385.686216
2,130,0,41836,273,108,31,41754,7648,1296,-720,40707,352,39,105,1389807385.692440
3,130,0,20827,415,37,-289,21110,5840,-704,-960,19097,339,-376,51,1389807385.692690
2,131,0,42831,329,97,34,43632,7840,1824,-592,43270,350,39,104,1389807385.704756
3,131,0,22826,240,-12,-137,22987,5792,-800,-1040,21675,342,-380,46,1389807385.704766
2,132,0,44820,429,93,21,45510,7984,2256,-720,43270,350,39,104,1389807385.716412
3,132,0,24826,136,-42,4,24863,5664,-832,-1184,24252,334,-376,50,1389807385.716427
2,133,0,46810,474,95,-9,47389,8016,2288,-880,45832,354,35,105,1389807385.722235
3,133,0,26825,106,-65,156,26740,5536,-1008,-1328,26828,338,-375,48,1389807385.722436
2,134,0,48799,438,97,-18,49268,8016,2112,-1136,48394,350,40,100,1389807385.734500
3,134,0,28824,135,-95,297,28617,5488,-1200,-1440,26828,338,-375,48,1389807385.734515
2,135,0,50789,375,99,-6,51147,8032,1792,-1200,50954,354,37,103,1389807385.746054
3,135,0,29824,157,-97,364,30494,5440,-1312,-1568,29406,343,-375,50,1389807385.746064
2,136,0,52778,311,103,-3,53026,8064,1536,-1232,50954,354,37,103,1389807385.758276
3,136,0,31824,204,-110,468,32371,5504,-1392,-1840,31983,339,-368,49,1389807385.758285
2,137,0,54768,274,109,-4,54904,7968,1408,-1248,53516,355,37,107,1389807385.758552
3,137,0,33823,234,-105,530,34248,5424,-1584,-2144,31983,339,-368,49,1389807385.758558
2,138,0,56757,289,146,18,56783,7808,1424,-1248,56077,355,35,101,1389807385.776781
3,138,0,35822,199,-130,570,36125,5392,-1760,-2480,34559,342,-363,47,1389807385.776790
2,139,0,57752,315,152,29,58661,7808,1440,-1040,58639,355,37,99,1389807385.777049
3,139,0,37822,55,-176,584,38002,5312,-1968,-2736,37135,349,-358,46,1389807385.777289
2,140,0,59742,401,178,63,60540,7920,1568,-784,58639,355,37,99,1389807385.795466
3,140,0,39821,-208,-233,603,39879,5472,-2240,-3040,39713,345,-353,46,1389807385.795481
2,141,0,61731,515,182,97,62420,8032,1600,-480,61199,357,37,106,1389807385.807749
3,141,0,41821,-436,-284,675,41756,5792,-2544,-3296,39713,345,-353,46,1389807385.807758
2,142,0,63721,589,156,117,64299,8048,1744,-336,63762,352,33,99,1389807385.808033
3,142,0,43820,-484,-325,745,43633,6352,-2928,-3328,42291,351,-346,54,1389807385.808039
2,143,0,174,614,145,127,642,8000,1760,-400,63762,352,33,99,1389807385.826026
3,143,0,44820,-456,-356,760,45510,6992,-3360,-3104,44868,359,-338,56,1389807385.826035
2,144,0,2164,654,131,114,2521,8032,1680,-464,788,354,39,98,1389807385.837812
3,144,0,46819,-412,-379,780,47388,7680,-3696,-2560,47445,357,-335,65,1389807385.837820
2,145,0,4153,697,150,89,4400,8000,1520,-544,3349,357,34,98,1389807385.838222
3,145,0,48818,-446,-385,832,49265,8192,-3984,-1984,47445,357,-335,65,1389807385.838230
2,146,0,6143,746,149,73,6280,7840,1552,-816,5910,351,33,97,1389807385.856153
3,146,0,50818,-466,-335,872,51142,8496,-4048,-1552,50021,357,-323,70,1389807385.856162
2,147,0,8132,823,142,59,8159,7680,1776,-1168,5910,351,33,97,1389807385.867899
3,147,0,52817,-361,-207,834,53020,8656,-4096,-1520,52598,366,-317,72,1389807385.867909
2,148,0,9127,850,124,67,10039,7648,2384,-1552,8471,354,39,96,1389807385.868124
3,148,0,54817,-97,-41,779,54896,8864,-4256,-1760,52598,366,-317,72,1389807385.868129
2,149,0,11116,896,82,88,11918,7744,2960,-1728,11031,356,31,102,1389807385.886276
3,149,0,56816,236,100,577,56773,8960,-4416,-1984,55175,366,-314,74,1389807385.886311
2,150,0,13106,914,47,113,13797,7856,3296,-1712,13592,356,29,101,1389807385.892447
3,150,0,58815,598,147,394,58651,9440,-4448,-1904,57753,371,-311,73,1389807385.892694
2,151,0,15095,845,26,135,15676,8016,3440,-1456,13592,356,29,101,1389807385.904968
3,151,0,59815,747,124,363,60527,10400,-4512,-1376,60331,371,-308,63,1389807385.904983
2,152,0,17085,737,24,167,17555,8208,3264,-1088,16153,357,31,101,1389807385.917285
3,152,0,61814,898,17,350,62404,11648,-4352,-752,60331,371,-308,63,1389807385.917300
2,153,0,19074,608,28,194,19434,8528,2928,-912,18713,357,32,102,1389807385.917623
3,153,0,63814,804,-98,222,64281,12448,-3936,-272,62908,368,-313,64,1389807385.917634
2,154,0,21064,503,24,215,20844,8720,2800,-960,21274,355,30,104,1389807385.935080
3,154,0,277,482,-185,-20,621,12288,-3040,-544,65486,368,-310,60,1389807385.935094
2,155,0,23053,507,6,197,22723,8976,2704,-1392,21274,355,30,104,1389807385.946895
3,155,0,2277,133,-215,-222,2498,10800,-2400,-1280,2528,371,-310,63,1389807385.946920
2,156,0,25043,565,-5,172,24602,9120,2400,-1744,23836,351,34,103,1389807385.947121
3,156,0,4276,-25,-215,-356,4375,8576,-2336,-1792,2528,371,-310,63,1389807385.947306
2,157,0,26038,584,-15,172,26481,9296,2256,-1680,26398,357,33,105,1389807385.965422
3,157,0,6275,-119,-186,-548,6252,6272,-2368,-1872,5106,371,-315,66,1389807385.965431
2,158,0,28027,593,-28,185,28361,9472,2080,-1504,26398,357,33,105,1389807385.977636
3,158,0,8275,-161,-163,-638,8130,4256,-1920,-1824,7683,365,-320,68,1389807385.977687
2,159,0,30017,613,-54,212,30240,9632,1904,-1056,28959,356,33,108,1389807385.977908
3,159,0,9275,-96,-145,-569,10007,2896,-1888,-2256,7683,365,-320,68,1389807385.977915
2,160,0,32006,676,-66,231,32120,9648,1616,-576,31520,351,36,109,1389807385.995913
3,160,0,11274,237,-55,-481,11885,2720,-848,-2368,10260,365,-322,64,1389807385.995923
2,161,0,33995,751,-61,235,33999,9440,1072,-416,34080,350,41,107,1389807386.7990
3,161,0,13273,474,11,-346,13762,4048,1488,-1424,12837,360,-325,65,1389807386.7999
2,162,0,35985,840,-75,245,35878,9488,544,-736,34080,350,41,107,1389807386.8270
3,162,0,15273,207,-112,379,15640,6416,3632,-96,15414,360,-317,63,1389807386.8276
2,163,0,37974,902,-96,228,37756,10096,336,-1536,36642,353,32,114,1389807386.25642
3,163,0,17272,-428,-335,1508,17517,9712,5216,784,15414,360,-317,63,1389807386.25650
2,164,0,39964,918,-126,177,39634,10672,320,-2464,39204,348,35,117,1389807386.37780
3,164,0,19272,-880,-499,2412,19393,13472,5600,1152,17991,378,-298,68,1389807386.37794
2,165,0,40959,894,-137,143,41513,10512,176,-3056,41765,348,35,119,1389807386.38184
3,165,0,21271,-753,-567,2431,21270,16112,3520,880,20568,378,-277,76,1389807386.38195
2,166,0,42948,768,-136,44,43391,10080,80,-3120,41765,348,35,119,1389807386.56124
3,166,0,23270,-10,-561,1652,23147,16176,368,-288,23145,384,-269,82,1389807386.56133
2,167,0,44938,598,-119,-60,45269,9552,0,-2592,44326,353,27,121,1389807386.68322
3,167,0,24270,512,-554,1217,25023,14864,-2944,-992,23145,384,-269,82,1389807386.68337
2,168,0,46927,394,-120,-132,47149,9248,80,-1904,46888,348,29,122,1389807386.68664
3,168,0,26269,1639,-536,587,26900,13120,-5984,-256,25724,384,-268,82,1389807386.68675
2,169,0,48917,254,-168,-199,49029,9248,240,-1440,46888,348,29,122,1389807386.86660
3,169,0,28269,2470,-407,155,28777,11504,-7296,320,28301,389,-272,76,1389807386.86669
2,170,0,50906,220,-236,-264,50909,9616,480,-1152,49449,349,27,121,1389807386.86913
3,170,0,30268,2869,-140,-341,30653,9168,-6592,-192,28301,389,-272,76,1389807386.93127
2,171,0,52896,222,-279,-350,52788,9648,784,-848,52010,354,21,124,1389807386.104805
3,171,0,32268,3044,29,-679,32530,6320,-4592,-1360,30878,385,-286,69,1389807386.104815
2,172,0,54885,151,-285,-429,54667,9504,1008,-240,54571,349,18,127,1389807386.117036
3,172,0,34267,2681,33,-586,34408,3760,-2560,-2512,33456,378,-296,57,1389807386.117044
2,173,0,56875,-34,-287,-503,56546,9360,1232,624,54571,349,18,127,1389807386.117312
3,173,0,36266,1548,-68,8,36285,1936,-368,-4016,36033,381,-295,48,1389807386.117319
2,174,0,57869,-133,-279,-536,58425,9296,768,1408,57132,346,17,133,1389807386.134199
3,174,0,38266,-152,-303,877,38162,880,2624,-5872,36033,381,-295,48,1389807386.134213
2,175,0,59859,-241,-260,-662,60304,9168,-1104,1488,59693,353,9,134,1389807386.146087
3,175,0,39265,-995,-471,1303,40040,656,5520,-6880,38610,382,-286,54,1389807386.146101
2,176,0,61848,-317,-266,-987,62183,8608,-2448,1184,62255,352,255,132,1389807386.158296
3,176,0,41265,-2139,-742,1895,41917,2256,6832,-5600,41188,383,-263,68,1389807386.158304
2,177,0,63838,-318,-328,-1398,64062,7968,-2624,1152,62255,352,255,132,1389807386.158567
3,177,0,43264,-2261,-715,2047,43794,5952,6272,-3696,43766,389,-495,76,1389807386.158574
2,178,0,291,-131,-422,-1712,406,7520,-2048,1232,64816,350,-10,137,1389807386.176837
3,178,0,45264,-1703,-531,1729,45672,10464,4000,-1664,43766,389,-495,76,1389807386.176850
2,179,0,2281,266,-471,-1932,2285,7552,-656,992,1841,355,-29,138,1389807386.177086
3,179,0,47263,-821,-337,1021,47550,13888,576,1184,46343,397,-234,83,1389807386.177265
2,180,0,4270,746,-453,-2056,4164,8240,1024,240,4401,355,-49,143,1389807386.195226
3,180,0,49262,-173,-236,134,49426,14640,-1840,4160,48920,396,-231,92,1389807386.195241
2,181,0,6260,1023,-375,-2179,6043,9552,2320,-656,4401,355,-49,143,1389807386.207427
3,181,0,51262,-40,-280,-439,51303,13136,-1760,6160,48920,396,-231,92,1389807386.207436
2,182,0,8249,963,-239,-2339,7922,10960,2736,-1696,6963,352,-65,146,1389807386.207620
3,182,0,53261,-6,-372,-428,53181,11072,-320,6416,51497,397,-234,93,1389807386.207626
2,183,0,9244,859,-165,-2409,9801,11520,2912,-2864,9524,353,-84,147,1389807386.224924
3,183,0,54261,65,-442,-254,55058,9024,1040,5040,54074,398,-235,96,1389807386.224930
2,184,0,11234,632,20,-2456,11680,11536,2768,-3520,9524,353,-84,147,1389807386.235856
3,184,0,56260,214,-554,110,56935,7536,1600,3072,56651,392,-236,99,1389807386.235861
2,185,0,13223,276,144,-2386,13559,11200,2816,-3520,12086,352,-112,146,1389807386.247799
3,185,0,58260,228,-566,377,58812,6288,1328,1104,56651,392,-236,99,1389807386.247813
2,186,0,15213,-357,159,-2271,15437,10880,2816,-2928,14647,347,-128,144,1389807386.248112
3,186,0,60259,69,-475,568,60689,5360,1232,-368,59229,391,-228,103,1389807386.248118
2,187,0,17202,-1153,111,-2212,17316,10704,2816,-2240,17207,350,-141,144,1389807386.265323
3,187,0,62258,-167,-286,659,62565,5280,1792,-1088,61805,394,-224,105,1389807386.265337
2,188,0,19192,-1885,48,-2226,19195,10320,2560,-1872,17207,350,-141,144,1389807386.277545
3,188,0,64258,-469,-99,640,64442,6016,2336,-1056,64382,394,-222,109,1389807386.277554
2,189,0,21181,-2364,-9,-2274,21074,9856,2144,-1520,19769,350,-156,145,1389807386.277820
3,189,0,721,-774,-40,614,783,7440,2736,-624,64382,394,-222,109,1389807386.277826
2,190,0,23170,-2488,-40,-2301,22953,9360,1600,-1152,22330,343,-164,149,1389807386.295854
3,190,0,2721,-873,-139,591,2660,8784,2592,-336,1424,393,-213,113,1389807386.295868
2,191,0,24165,-2434,-63,-2300,24832,8944,1168,-592,24891,344,-174,152,1389807386.306967
3,191,0,3720,-794,-235,570,4536,9616,1808,-224,4001,399,-200,113,1389807386.306976
2,192,0,26155,-2148,-95,-2266,26710,8640,592,32,24891,344,-174,152,1389807386.307179
3,192,0,5720,-507,-403,510,6414,9792,784,-240,4001,399,-200,113,1389807386.307383
2,193,0,28144,-1828,-127,-2224,28589,8480,128,416,27453,341,-187,156,1389807386.325566
3,193,0,7719,-278,-503,505,8290,9360,368,-192,6578,397,-200,120,1389807386.325575
2,194,0,30134,-1584,-139,-2216,30468,8352,48,624,30016,325,-195,162,1389807386.337532
3,194,0,9719,-323,-528,558,10167,8512,880,-240,9155,392,-190,127,1389807386.337541
2,195,0,32123,-1403,-136,-2197,32347,8432,288,640,32578,325,-209,166,1389807386.337811
3,195,0,11718,-628,-517,613,12043,7680,1536,-512,11732,396,-182,130,1389807386.337818
2,196,0,34113,-1237,-126,-2153,34226,8480,432,544,32578,325,-209,166,1389807386.355810
3,196,0,13717,-1026,-495,680,13920,6832,1920,-880,11732,396,-182,130,1389807386.355819
2,197,0,36102,-1058,-126,-2070,36105,8496,816,496,35141,327,-221,172,1389807386.368129
3,197,0,15717,-1359,-413,775,15797,6576,2032,-1232,14311,395,-177,136,1389807386.368138
2,198,0,38092,-886,-131,-1953,37984,8432,1024,624,37702,321,-233,173,1389807386.368409
3,198,0,17716,-1493,-290,865,17674,6832,1872,-1216,16887,397,-164,143,1389807386.368416
2,199,0,40081,-760,-155,-1869,39863,8144,992,752,37702,321,-233,173,1389807386.385955
3,199,0,18716,-1480,-235,892,19551,7504,1696,-496,19465,395,-148,147,1389807386.385969
2,200,0,41076,-704,-165,-1850,41742,7712,832,544,40263,313,-241,176,1389807386.398148
3,200,0,20715,-1371,-136,848,21428,8048,1488,688,19465,395,-148,147,1389807386.398156
2,201,0,43065,-537,-194,-1833,43621,7216,544,368,42826,313,-253,179,1389807386.398423
3,201,0,22715,-1204,-123,760,23305,8320,1584,2080,22042,399,-147,151,1389807386.398430
2,202,0,45055,-342,-203,-1816,45500,6688,256,160,45387,303,-10,180,1389807386.416595
3,202,0,24714,-1054,-182,705,25183,8624,1600,2912,24619,395,-132,151,1389807386.416610
2,203,0,47044,-166,-198,-1763,47379,6240,112,-80,45387,303,-10,180,1389807386.416919
3,203,0,26713,-928,-258,720,27060,8816,1872,3072,24619,395,-132,151,1389807386.422896
2,204,0,49034,-25,-165,-1669,49257,5920,-16,-112,47948,298,-277,183,1389807386.433789
3,204,0,28713,-744,-323,750,28936,8720,2320,2832,27196,397,-120,153,1389807386.433799
2,205,0,51023,26,-118,-1492,51137,5728,144,0,50508,296,-286,187,1389807386.445836
3,205,0,30712,-467,-354,746,30813,8384,2624,2224,29774,400,-115,166,1389807386.445877
2,206,0,53013,-44,-62,-1281,53016,5712,448,144,53069,289,-298,187,1389807386.457810
3,206,0,32712,-141,-317,724,32690,8064,2656,1728,32351,397,-107,162,1389807386.457861
2,207,0,55002,-148,-18,-1076,54894,5824,944,112,53069,289,-298,187,1389807386.458133
3,207,0,33711,2,-292,715,34568,7744,2496,1312,32351,397,-107,162,1389807386.458140
2,208,0,56992,-205,1,-903,56774,6000,1264,-176,55631,282,-301,185,1389807386.475067
3,208,0,35711,185,-231,666,36445,7616,2128,848,34928,394,-100,164,1389807386.475076
2,209,0,57987,-225,7,-821,58653,6160,1424,-576,58191,278,-304,187,1389807386.486915
3,209,0,37710,210,-183,634,38321,7728,1840,288,37506,399,-96,166,1389807386.486930
2,210,0,59976,-238,1,-687,60532,6224,1408,-864,60752,278,-309,189,1389807386.487213
3,210,0,39709,184,-155,640,40199,8064,1488,-16,40082,393,-92,168,1389807386.487494
2,211,0,61966,-213,-3,-553,62411,6016,1264,-768,60752,278,-309,189,1389807386.505177
3,211,0,41709,197,-151,618,42075,8240,1200,-128,40082,393,-92,168,1389807386.505186
2,212,0,63955,-153,-15,-404,64290,5680,1056,-464,63313,273,-311,190,1389807386.517405
3,212,0,43708,223,-160,555,43953,8272,1008,-16,42659,393,-90,169,1389807386.517419
2,213,0,409,-70,-29,-234,633,5344,912,-176,336,274,-310,191,1389807386.517742
3,213,0,45708,169,-185,507,45831,8192,992,80,45237,396,-86,168,1389807386.517753
2,214,0,2398,53,-24,-49,2512,4960,784,80,336,274,-310,191,1389807386.535581
3,214,0,47707,70,-208,502,47708,8080,1136,112,47814,394,-84,171,1389807386.535596
2,215,0,4388,238,16,130,4391,4528,560,208,2897,275,-312,191,1389807386.547677
3,215,0,48707,9,-219,528,49586,8176,1504,64,47814,394,-84,171,1389807386.547685
2,216,0,6377,400,72,375,6271,4160,416,240,5458,273,-309,187,1389807386.547953
3,216,0,50706,-79,-191,566,51463,8352,1904,-128,50391,392,-72,179,1389807386.547960
2,217,0,7372,465,96,497,8150,3840,288,160,8018,276,-304,184,1389807386.565967
3,217,0,52705,-127,-158,517,53341,8368,2160,-272,52968,392,-70,172,1389807386.565981
2,218,0,9361,516,141,737,10029,3744,224,64,8018,276,-304,184,1389807386.577680
3,218,0,54705,-166,-131,405,55218,8208,2240,-256,52968,392,-70,172,1389807386.577689
2,219,0,11351,452,164,959,11908,4000,80,-144,10578,281,-307,181,1389807386.577953
3,219,0,56704,-251,-124,329,57096,7984,2352,-96,55544,392,-66,176,1389807386.577960
2,220,0,13340,371,163,1161,13787,4496,-320,-48,13139,281,-291,177,1389807386.595251
3,220,0,58704,-417,-120,306,58973,7936,2176,112,58122,390,-65,175,1389807386.595259
2,221,0,15330,318,153,1349,15666,5088,-1056,-16,15700,298,-281,176,1389807386.606903
3,221,0,60703,-543,-125,339,60850,8176,1808,288,60699,389,-54,179,1389807386.606912
2,222,0,17319,224,165,1518,17545,5808,-1696,32,15700,298,-281,176,1389807386.607158
3,222,0,62702,-606,-125,356,62727,8416,1328,448,60699,389,-54,179,1389807386.607366
2,223,0,19309,28,194,1621,19424,6560,-2544,32,18261,298,-277,173,1389807386.624933
3,223,0,63702,-616,-132,351,64604,8480,1072,624,63276,391,-60,176,1389807386.624942
2,224,0,21298,-189,257,1625,21304,7328,-3248,-16,20823,300,-260,170,1389807386.637269
3,224,0,166,-627,-140,336,945,8272,976,736,318,384,-48,178,1389807386.637284
2,225,0,23288,-310,332,1571,23183,8128,-4272,-176,20823,300,-260,170,1389807386.637622
3,225,0,2165,-654,-171,342,2822,8128,1024,528,2896,390,-40,182,1389807386.637638
2,226,0,24282,-315,345,1541,25062,9120,-5856,-16,23383,307,-502,171,1389807386.655133
3,226,0,4164,-661,-178,413,4699,8016,1120,304,2896,390,-40,182,1389807386.655143
2,227,0,26272,-257,365,1483,26942,10640,-7552,112,25944,314,-236,166,1389807386.667322
3,227,0,6164,-653,-149,448,6576,8016,1344,192,5475,388,-37,184,1389807386.667337
2,228,0,28261,-259,375,1407,28821,12928,-9360,-64,28506,317,-226,169,1389807386.667661
3,228,0,8163,-664,-67,445,8453,8128,1680,560,8053,387,-30,180,1389807386.667672
2,229,0,30251,-324,326,1257,30700,15360,-10992,-192,28506,317,-226,169,1389807386.685214
3,229,0,10163,-737,5,431,10330,8208,2288,1296,8053,387,-30,180,1389807386.685229
2,230,0,32240,-246,229,843,32579,16672,-11488,272,31066,322,-217,163,1389807386.697472
3,230,0,12162,-791,37,403,12208,8464,2912,2016,10630,383,-19,183,1389807386.697486
2,231,0,34230,133,59,94,34458,16048,-10048,1712,33629,327,-216,163,1389807386.697801
3,231,0,13162,-752,41,376,14085,8912,3088,2432,13207,386,-14,180,1389807386.697874
2,232,0,36219,492,-122,-644,36337,13472,-7584,2528,36190,325,-224,163,1389807386.715590
3,232,0,15161,-585,33,335,15962,9152,3024,2656,15783,384,-16,181,1389807386.715605
2,233,0,38209,617,-193,-885,38215,10784,-5472,2560,36190,325,-224,163,1389807386.727407
3,233,0,17160,-399,7,281,17838,9296,2880,2624,15783,384,-16,181,1389807386.727417
2,234,0,40198,205,-198,-761,40094,8368,-4112,2464,38751,320,-229,168,1389807386.727684
3,234,0,19160,-239,-17,208,19715,9392,2496,2064,18360,383,-11,178,1389807386.727690
2,235,0,41193,-178,-188,-658,41973,6128,-3024,2560,41313,321,-237,165,1389807386.745190
3,235,0,21159,-102,-49,164,21592,9280,1552,1024,20937,386,-6,178,1389807386.745199
2,236,0,43183,-946,-121,-495,43852,4144,-1680,3232,43874,318,-236,167,1389807386.756993
3,236,0,23159,-10,-80,147,23469,8848,432,-160,20937,386,-6,178,1389807386.757001
2,237,0,45172,-1315,15,-386,45732,2928,96,4208,43874,318,-236,167,1389807386.757268
3,237,0,25158,-10,-70,182,25346,8784,-624,-1152,23515,386,-7,178,1389807386.757274
2,238,0,47162,-1191,214,-228,47611,3328,2128,5392,46437,318,-229,176,1389807386.775402
3,238,0,27157,-148,-2,279,27223,9664,-1200,-1472,26092,386,-254,185,1389807386.775410
2,239,0,49151,-869,455,76,49489,5408,3952,5840,48998,320,-224,170,1389807386.787737
3,239,0,28157,-269,49,337,29100,11696,-1424,-672,28669,387,3,180,1389807386.787751
2,240,0,51141,-721,620,657,51368,8432,5152,4720,48998,320,-224,170,1389807386.788067
3,240,0,30156,-586,134,397,30978,13408,-1328,688,28669,387,3,180,1389807386.788078
2,241,0,53130,-542,678,1465,53247,11504,5504,736,51559,323,-214,168,1389807386.806096
3,241,0,32156,-883,144,315,32855,13200,-1600,688,31246,387,7,176,1389807386.806104
2,242,0,55120,-69,699,2255,55126,13376,5360,-6576,54120,322,-196,160,1389807386.818260
3,242,0,34155,-888,84,114,34733,11920,-2848,-752,33824,383,15,174,1389807386.818275
2,243,0,56114,263,713,2515,57005,14560,3424,-11248,56682,333,-177,153,1389807386.818596
3,243,0,36155,-578,90,-188,36609,10944,-3344,-2368,36401,383,12,174,1389807386.818606
2,244,0,58104,455,653,2359,58883,15440,-704,-9216,56682,333,-177,153,1389807386.836567
3,244,0,38154,-339,274,-563,38487,10512,-2944,-3632,36401,383,12,174,1389807386.836576
2,245,0,60093,-171,389,1508,60762,15760,-7984,-3600,59242,342,-167,147,1389807386.836819
3,245,0,40153,-465,582,-890,40365,10208,-1344,-3024,38979,387,0,169,1389807386.842651
2,246,0,62083,-1122,-15,-205,62641,13840,-10752,2208,61803,341,-170,149,1389807386.854666
3,246,0,42153,-1137,821,-1435,42242,10240,2336,-1280,41557,387,-2,161,1389807386.854675
2,247,0,64072,-2266,-252,-2623,64520,7840,-4192,5472,64364,343,-189,155,1389807386.866814
3,247,0,43153,-1540,860,-1710,44119,9888,4128,-288,41557,387,-2,161,1389807386.866829
2,248,0,526,-2457,-75,-2873,863,-1312,4160,6944,64364,343,-189,155,1389807386.867142
3,248,0,45152,-1816,784,-1982,45997,9552,2864,-48,44135,396,-11,153,1389807386.867455
2,249,0,2515,-1077,245,-592,2742,-7264,10272,7296,1389,338,-186,163,1389807386.885527
3,249,0,47151,-1416,619,-1906,47875,10144,1728,1424,46712,396,-22,151,1389807386.885542
2,250,0,4505,1253,248,2354,4621,-3744,10752,2224,3949,330,-171,156,1389807386.897657
3,250,0,49151,-1232,412,-1938,49752,11168,2656,3632,49289,402,-34,140,1389807386.897666
2,251,0,6494,3013,470,3219,6501,2352,7120,-6656,3949,330,-171,156,1389807386.897934
3,251,0,51150,-1414,176,-2184,51630,11488,4432,5104,49289,402,-34,140,1389807386.897941
2,252,0,7489,3342,870,2951,8380,9872,2352,-12208,6510,347,-149,147,1389807386.915875
3,252,0,53149,-1231,-21,-2235,53507,11312,5328,5264,51867,402,-48,139,1389807386.915889
2,253,0,9478,2941,1618,1899,10259,15728,-1504,-11840,9071,347,-153,130,1389807386.927423
3,253,0,55149,-505,-154,-2057,55384,10992,5360,4288,54444,407,-60,141,1389807386.927431
2,254,0,11468,1152,1647,778,12138,18080,-2512,-8336,11632,349,-151,114,1389807386.927698
3,254,0,57148,361,-194,-1896,57262,10800,5008,2624,57022,404,-78,142,1389807386.927705
2,255,0,13457,-1033,828,427,14017,14944,-1248,-5504,11632,349,-151,114,1389807386.945209
2,0,0,15447,-2161,-112,464,15896,9936,1680,-4000,14193,356,-139,112,1389807386.957388
3,0,0,60147,1697,-98,-1841,61017,9984,3904,608,59600,403,-101,140,1389807386.957397
2,1,0,17436,-2045,-646,543,17776,6672,4400,-2112,16753,358,-132,120,1389807386.957663
3,1,0,62147,2337,24,-1954,62894,9552,3584,640,62177,405,-120,142,1389807386.957670
2,2,0,19426,-1324,-667,913,19654,4608,4560,512,19313,357,-121,127,1389807386.975875
3,2,0,64146,2523,125,-2044,64302,9376,3456,768,64754,404,-147,134,1389807386.975883
2,3,0,21415,-675,-257,1303,21534,3680,3200,3488,19313,357,-121,127,1389807386.987151
3,3,0,610,2413,228,-2014,644,9088,3008,560,64754,404,-147,134,1389807386.987160
2,4,0,23405,-344,345,1372,23413,3872,2064,5536,21874,355,-104,129,1389807386.987393
3,4,0,2609,2237,305,-2010,2521,8784,2448,96,1796,396,-168,131,1389807386.987400
2,5,0,24400,-191,604,1338,25292,5312,1440,5856,24435,361,-94,121,1389807387.5010
3,5,0,4608,2033,380,-2022,4399,8496,1904,-592,4373,397,-190,122,1389807387.5019
2,6,0,26389,316,925,1306,27171,7360,1104,4496,26996,358,-86,112,1389807387.17307
3,6,0,6608,1807,414,-2019,6276,8416,1504,-1216,4373,397,-190,122,1389807387.17321
2,7,0,28379,1066,969,1440,29049,8736,624,2352,26996,358,-86,112,1389807387.17640
3,7,0,8607,1584,402,-2007,8153,8224,1216,-1680,6950,398,-215,116,1389807387.17651
2,8,0,30368,1741,760,1596,30928,9328,496,-112,29555,365,-72,108,1389807387.35438
3,8,0,9607,1508,373,-1983,10031,8224,944,-2016,9528,391,-234,110,1389807387.35452
2,9,0,32358,2120,439,1616,32807,9264,688,-2368,32116,365,-64,101,1389807387.46561
3,9,0,11606,1505,314,-1946,11908,8000,1088,-1968,12105,389,-252,101,1389807387.46570
2,10,0,34347,2237,158,1494,34217,8832,1104,-3600,34677,364,-62,100,1389807387.46714
3,10,0,13606,1619,290,-1906,13784,7648,1200,-1376,12105,389,-252,101,1389807387.57559
2,11,0,36337,2280,77,1312,36096,8240,1392,-4176,34677,364,-62,100,1389807387.57779
3,11,0,15605,1666,298,-1828,15661,7552,1472,-640,14683,385,-16,96,1389807387.57785
2,12,0,38326,2322,146,1080,37975,7984,1296,-4128,37238,365,-54,102,1389807387.75490
3,12,0,17604,1543,321,-1697,17537,7552,1376,-64,17260,377,-287,83,1389807387.75498
2,13,0,39321,2321,201,951,39854,7936,992,-3728,39800,365,-54,103,1389807387.87550
3,13,0,19604,1324,367,-1579,19414,7664,1408,0,19837,374,-304,80,1389807387.87559
2,14,0,41310,2254,292,721,41733,7872,416,-3072,39800,365,-54,103,1389807387.87771
3,14,0,21603,1127,401,-1552,21291,7504,1440,-96,19837,374,-304,80,1389807387.87777
2,15,0,43300,2034,321,558,43611,8000,-112,-2320,42359,364,-53,100,1389807387.105403
3,15,0,23603,982,416,-1584,23168,7088,1392,-224,22415,370,-317,71,1389807387.105412
2,16,0,45289,1684,259,444,45491,8144,0,-1712,44920,360,-55,96,1389807387.117653
3,16,0,24602,907,414,-1579,25045,6752,1280,-432,24992,362,-331,63,1389807387.117667
2,17,0,47279,1306,162,392,47370,8448,368,-1120,47481,365,-55,93,1389807387.117993
3,17,0,26602,699,356,-1518,26922,6448,1248,-544,24992,362,-331,63,1389807387.118004
2,18,0,49268,861,59,333,49249,8640,960,-816,47481,365,-55,93,1389807387.136182
3,18,0,28601,429,298,-1393,28799,6272,1136,-688,27570,357,-342,56,1389807387.136197
2,19,0,51258,393,1,224,51128,8464,1344,-736,50041,365,-60,94,1389807387.142143
3,19,0,30600,145,243,-1269,30676,6352,1136,-736,30148,354,-355,55,1389807387.142332
2,20,0,53247,124,17,113,53007,8176,1696,-1040,52601,367,-53,93,1389807387.154468
3,20,0,32600,-126,180,-1141,32553,6352,976,-752,32726,347,-361,54,1389807387.154478
2,21,0,55237,160,83,169,54886,7904,1920,-1648,55161,364,-51,91,1389807387.166764
3,21,0,34599,-360,117,-1026,34429,6448,848,-656,32726,347,-361,54,1389807387.166779
2,22,0,56232,240,117,252,56765,7856,1840,-2256,55161,364,-51,91,1389807387.167095
3,22,0,36599,-536,39,-884,36307,6400,736,-608,35306,342,-366,55,1389807387.167350
2,23,0,58221,381,184,412,58645,7936,1184,-2352,57721,365,-54,92,1389807387.184896
3,23,0,38598,-657,-54,-712,38183,6272,864,-576,37883,343,-367,58,1389807387.184910
2,24,0,60211,357,217,497,60524,7984,528,-2096,60282,365,-44,91,1389807387.197182
3,24,0,39598,-686,-98,-615,40060,5904,1072,-608,40460,338,-367,66,1389807387.197261
2,25,0,62200,278,195,497,62403,7808,432,-1632,60282,365,-44,91,1389807387.197591
3,25,0,41597,-660,-174,-401,41937,5616,1248,-592,40460,338,-367,66,1389807387.197601
2,26,0,64189,271,141,480,64281,7520,944,-960,62843,365,-39,92,1389807387.215702
3,26,0,43597,-566,-201,-173,43814,5376,1424,-528,43037,331,-366,69,1389807387.215716
2,27,0,643,338,102,510,624,7360,1712,-240,65403,367,-38,89,1389807387.227419
3,27,0,45596,-460,-195,29,45691,5120,1296,-208,45615,334,-369,71,1389807387.227433
2,28,0,2632,446,88,559,2503,7504,2384,464,2429,364,-31,87,1389807387.227749
3,28,0,47595,-426,-161,187,47568,5040,1056,32,45615,334,-369,71,1389807387.227759
2,29,0,4622,546,89,601,4382,7776,2720,800,2429,364,-31,87,1389807387.245220
3,29,0,49595,-438,-131,309,49445,4912,992,336,48193,336,-363,75,1389807387.245228
2,30,0,6611,580,102,616,6261,8032,2624,688,4990,364,-27,90,1389807387.256511
3,30,0,51594,-448,-139,453,51322,4816,1152,576,50770,330,-360,80,1389807387.256517
2,31,0,7606,565,100,611,8140,8240,1936,80,7551,367,-26,85,1389807387.256665
3,31,0,53593,-353,-226,644,53199,4720,1408,912,53348,336,-351,82,1389807387.268677
2,32,0,9596,502,92,573,10020,8304,1216,-640,10112,366,-27,87,1389807387.268952
3,32,0,54593,-257,-282,749,55076,4592,1616,1264,53348,336,-351,82,1389807387.268958
2,33,0,11585,477,79,535,11899,8368,688,-1152,10112,366,-27,87,1389807387.286888
3,33,0,56593,82,-414,954,56954,4704,1632,1584,55926,342,-347,85,1389807387.286902
2,34,0,13575,535,92,493,13777,8240,464,-1392,12674,363,-17,87,1389807387.287210
3,34,0,58592,567,-516,1162,58831,5056,1312,2176,58503,337,-336,83,1389807387.287502
2,35,0,15564,671,122,430,15657,7984,448,-1280,15235,365,-19,87,1389807387.304724
3,35,0,60591,1003,-579,1372,60709,5808,496,2176,61080,346,-328,87,1389807387.304738
2,36,0,17554,788,160,398,17535,7856,480,-1072,17795,365,-17,86,1389807387.316918
3,36,0,62591,1180,-601,1538,62586,6816,-784,1456,61080,346,-328,87,1389807387.316933
2,37,0,19543,866,152,376,19415,7920,608,-880,17795,365,-17,86,1389807387.317240
3,37,0,64590,1030,-513,1649,64463,7872,-2544,384,63657,358,-321,87,1389807387.317550
2,38,0,21533,913,96,375,21294,8016,512,-880,20357,367,-13,87,1389807387.334940
3,38,0,1054,573,-298,1743,804,9488,-5008,-752,698,356,-306,82,1389807387.334949
2,39,0,22527,930,70,378,23174,7952,400,-1216,22917,367,-12,87,1389807387.346975
3,39,0,3053,227,-5,1760,2682,11680,-7904,-2048,698,356,-306,82,1389807387.346984
2,40,0,24517,923,21,342,25053,8064,208,-1856,22917,367,-12,87,1389807387.347252
3,40,0,4053,299,147,1651,4559,14912,-11280,-3504,3276,363,-295,83,1389807387.347259
2,41,0,26506,895,-11,292,26932,8448,272,-2448,25478,364,-12,89,1389807387.365271
3,41,0,6052,1119,369,892,6436,17408,-13328,-4240,5853,370,-296,75,1389807387.365286
2,42,0,28496,865,-15,201,28811,8800,896,-2768,28039,364,-10,90,1389807387.377359
3,42,0,8051,1754,359,-256,8313,16720,-10976,-4144,8430,372,-304,65,1389807387.377373
2,43,0,30485,793,-7,73,30690,8720,1680,-2768,30599,363,-15,90,1389807387.377690
3,43,0,10051,1666,138,-354,10191,14400,-6864,-4480,8430,372,-304,65,1389807387.377701
2,44,0,32475,669,-24,-14,32568,8640,2320,-2704,30599,363,-15,90,1389807387.395505
3,44,0,12050,1616,-48,-171,12068,11136,-5216,-4416,11008,370,-307,58,1389807387.395514
2,45,0,34464,514,-40,-71,34447,8784,2624,-2400,33158,364,-16,89,1389807387.407601
3,45,0,14050,1164,10,-492,13944,8144,-4336,-3728,13585,373,-312,57,1389807387.407610
2,46,0,36454,345,-54,-119,36326,8816,2224,-2032,35719,360,-18,91,1389807387.407857
3,46,0,16049,554,159,-493,15821,6304,-2688,-3280,16161,369,-316,50,1389807387.407863
2,47,0,38443,161,-36,-106,38205,8800,1200,-1552,38278,363,-17,90,1389807387.425964
3,47,0,18048,352,127,-148,17699,4992,-704,-3472,16161,369,-316,50,1389807387.425973
2,48,0,39438,92,-17,-83,40085,8672,272,-1104,38278,363,-17,90,1389807387.438122
3,48,0,19048,469,6,-2,19575,3904,1216,-3936,18738,369,-318,48,1389807387.438131
2,49,0,41428,23,6,-30,41964,8768,-368,-944,40838,361,-21,89,1389807387.438377
3,49,0,21047,861,-364,57,21452,3376,3552,-4352,21315,368,-319,49,1389807387.438425
2,50,0,43417,145,-2,37,43842,9632,-640,-1040,43401,366,-16,92,1389807387.455603
3,50,0,23047,1019,-708,-35,23328,4048,6192,-4752,21315,368,-319,49,1389807387.455613
2,51,0,45407,319,-43,64,45721,11328,-832,-1376,45963,366,-15,94,1389807387.467717
3,51,0,25046,645,-767,2,25205,5984,8496,-4608,23892,369,-319,50,1389807387.467727
2,52,0,47396,351,-99,-4,47601,12800,-768,-1632,45963,366,-15,94,1389807387.467997
3,52,0,27046,-82,-454,301,27082,8944,10112,-3008,26470,364,-314,54,1389807387.468003
2,53,0,49386,150,-113,-73,49479,12704,-1632,-1120,48525,365,-20,93,1389807387.485398
3,53,0,29045,-571,-97,923,28959,11696,9744,1744,29048,369,-304,58,1389807387.485407
2,54,0,51375,-203,-69,-190,51358,11680,-3808,-192,51087,362,-19,95,1389807387.497396
3,54,0,31044,-879,-211,1610,30835,13264,6160,7952,29048,369,-304,58,1389807387.497405
2,55,0,53365,-412,-90,-512,53237,11136,-5120,352,51087,362,-19,95,1389807387.497671
3,55,0,33044,-1251,-588,1869,32711,14240,-1488,9808,31625,373,-290,63,1389807387.497677
2,56,0,55354,-152,-264,-1157,55116,10432,-2864,1120,53648,361,-26,94,1389807387.515592
3,56,0,34044,-1265,-635,1605,34588,15056,-7392,5312,34202,377,-280,72,1389807387.515601
2,57,0,56349,70,-409,-1485,56994,9904,-32,2176,56209,365,-42,98,1389807387.527561
3,57,0,36043,-362,-330,210,36464,15088,-6976,-1648,36779,381,-286,73,1389807387.527571
2,58,0,58338,111,-758,-1719,58873,9888,1616,2576,58770,362,-55,104,1389807387.527833
3,58,0,38042,1328,70,-976,38341,13216,-4352,-6256,36779,381,-286,73,1389807387.527839
2,59,0,60328,199,-964,-1881,60753,10016,2496,2432,58770,362,-55,104,1389807387.545853
3,59,0,40042,2686,83,-1432,40218,9056,-2688,-7008,39357,381,-307,64,1389807387.545862
2,60,0,62317,462,-924,-2019,62631,9952,2928,1472,61330,360,-71,112,1389807387.557901
3,60,0,42041,2612,-150,-1128,42095,4496,-576,-4976,41934,370,-314,55,1389807387.557910
2,61,0,64307,604,-735,-2110,64510,10256,3136,-272,63890,361,-91,119,1389807387.558129
3,61,0,44041,1017,-324,76,43972,944,2784,-1904,41934,370,-314,55,1389807387.558135
2,62,0,760,687,-496,-2268,853,10832,4000,-1824,914,356,-113,122,1389807387.576113
3,62,0,46040,-1254,-351,1680,45849,160,6944,1504,44512,367,-305,54,1389807387.576122
2,63,0,2750,694,-284,-2371,2731,11360,4528,-2864,914,356,-113,122,1389807387.588305
3,63,0,48039,-2796,-428,2735,47726,3040,8688,4832,47090,372,-278,65,1389807387.588314
2,64,0,4739,528,-101,-2342,4610,11552,4208,-3680,3475,350,-129,124,1389807387.588585
3,64,0,49039,-3110,-559,2774,49603,7504,7424,5248,49667,382,-510,80,1389807387.588592
2,65,0,6729,242,-1,-2279,6490,11536,3408,-4064,6037,349,-151,124,1389807387.605979
3,65,0,51038,-2743,-914,1912,51481,10688,4688,2496,49667,382,-510,80,1389807387.605988
2,66,0,7723,111,28,-2264,8370,11296,2608,-3712,8598,349,-168,122,1389807387.618128
3,66,0,53038,-1025,-1050,657,53357,11872,1248,272,52244,386,-241,95,1389807387.618142
2,67,0,9713,-173,69,-2221,10249,10848,2128,-2896,8598,349,-168,122,1389807387.618469
3,67,0,55037,767,-779,25,55235,12016,-1712,496,54821,388,-245,101,1389807387.618479
2,68,0,11702,-657,44,-2130,12128,10240,2160,-1968,11158,346,-184,123,1389807387.636534
3,68,0,57037,1305,-292,87,57111,11392,-2336,2144,57398,388,-246,98,1389807387.636548
2,69,0,13692,-1168,-58,-2079,14008,9696,1808,-944,13719,344,-193,125,1389807387.636857
3,69,0,59036,987,23,264,58989,9872,-816,3536,57398,388,-246,98,1389807387.643102
2,70,0,15681,-1507,-168,-2077,15887,9040,1296,16,13719,344,-193,125,1389807387.655153
3,70,0,61035,523,22,497,60865,8064,992,4048,59976,387,-249,97,1389807387.655163
2,71,0,17671,-1553,-194,-2105,17766,8384,864,464,16280,339,-210,129,1389807387.667232
3,71,0,63035,131,-183,837,62742,6704,1872,3296,62554,387,-237,95,1389807387.667247
2,72,0,19660,-1386,-155,-2108,19645,7808,896,304,18842,334,-218,134,1389807387.667575
3,72,0,64034,-40,-306,988,64619,6016,1488,1344,62554,387,-237,95,1389807387.667586
2,73,0,21650,-1106,-92,-2067,21525,7216,1360,-176,21403,330,-233,139,1389807387.685509
3,73,0,498,-398,-535,1131,960,5952,1024,-1072,65134,390,-232,101,1389807387.685587
2,74,0,22645,-970,-61,-2018,23404,6960,1344,-688,21403,330,-233,139,1389807387.697731
3,74,0,2497,-851,-630,1184,2837,6368,880,-3376,2176,390,-215,107,1389807387.697740
2,75,0,24634,-799,-15,-1930,25284,6944,1344,-992,23963,325,-249,143,1389807387.698007
3,75,0,4497,-1199,-554,1253,4714,7264,1216,-4480,4754,395,-203,116,1389807387.698013
2,76,0,26624,-714,1,-1842,27164,7152,1088,-960,26524,318,-1,142,1389807387.716259
3,76,0,6496,-1286,-415,1318,6592,7808,1472,-4416,4754,395,-203,116,1389807387.716274
2,77,0,28613,-653,-5,-1737,29043,7264,944,-816,29084,310,-265,146,1389807387.722559
3,77,0,8495,-1163,-309,1355,8469,8000,1392,-3456,7332,395,-190,119,1389807387.722846
2,78,0,30603,-598,-46,-1644,30922,7184,800,-672,29084,310,-265,146,1389807387.735146
3,78,0,10495,-943,-243,1372,10346,8208,1248,-2096,9909,396,-174,125,1389807387.735161
2,79,0,32592,-625,-75,-1572,32801,7024,672,-688,31645,310,-282,150,1389807387.747296
3,79,0,12494,-782,-225,1321,12223,8512,1280,-896,12487,396,-158,128,1389807387.747312
2,80,0,34582,-696,-103,-1543,34680,6768,656,-816,34205,304,-286,151,1389807387.747627
2,81,0,36571,-808,-83,-1491,36559,6592,432,-1088,34205,304,-286,151,1389807387.765120
3,81,0,15493,-768,-264,930,15977,8464,1520,656,15064,395,-155,130,1389807387.765129
2,82,0,38561,-949,-44,-1394,38440,6464,336,-1200,36766,298,-294,157,1389807387.777232
3,82,0,17493,-926,-325,711,17855,8112,1376,1376,17642,395,-144,136,1389807387.777240
2,83,0,39555,-1027,-26,-1305,40320,6432,336,-1184,39327,297,-297,166,1389807387.777506
3,83,0,19492,-1163,-382,662,19733,7664,1200,1920,17642,395,-144,136,1389807387.777512
2,84,0,41545,-1200,36,-1142,42199,6448,448,-1120,41888,286,-301,165,1389807387.795470
3,84,0,21492,-1294,-395,736,21610,7408,1184,2448,20221,400,-133,142,1389807387.795479
2,85,0,43534,-1316,49,-966,44077,6448,672,-704,41888,286,-301,165,1389807387.806909
3,85,0,23491,-1206,-314,835,23487,7440,1488,2800,22799,400,-123,145,1389807387.806917
2,86,0,45524,-1352,57,-838,45956,6368,816,-208,44449,285,-302,172,1389807387.807182
3,86,0,25490,-909,-198,902,25365,7872,2016,2960,25378,396,-115,147,1389807387.807189
2,87,0,47513,-1320,21,-736,47836,6336,800,160,47010,284,-303,178,1389807387.824623
3,87,0,27490,-500,-91,951,27241,8464,2512,2784,25378,396,-115,147,1389807387.824632
2,88,0,49503,-1194,-15,-650,49715,6240,704,448,49572,280,-299,183,1389807387.836763
3,88,0,28489,-267,-61,945,29118,9088,2544,2192,27956,396,-101,150,1389807387.836777
2,89,0,51492,-987,-35,-548,51593,6112,608,592,49572,280,-299,183,1389807387.837110
3,89,0,30489,198,-42,833,30995,9184,1984,1648,30534,399,-97,150,1389807387.837331
2,90,0,53482,-696,-15,-421,53473,6048,336,816,52134,277,-299,186,1389807387.855171
3,90,0,32488,561,-57,593,32871,8672,1376,1376,33112,399,-96,151,1389807387.855180
2,91,0,55471,-282,24,-302,55351,5840,-16,1152,54695,279,-298,188,1389807387.866768
3,91,0,34488,693,-103,326,34748,8144,1200,1152,33112,399,-96,151,1389807387.866783
2,92,0,56466,-60,44,-252,57230,5600,-256,1392,57256,275,-304,183,1389807387.867086
3,92,0,36487,593,-150,183,36625,7648,1200,1024,35689,399,-99,153,1389807387.867328
2,93,0,58455,377,86,-166,59109,5520,-496,1328,57256,275,-304,183,1389807387.885515
3,93,0,38486,361,-167,193,38501,7488,1600,656,38267,399,-95,154,1389807387.885530
2,94,0,60445,780,107,-88,60987,5392,-624,1104,59817,275,-308,186,1389807387.897341
3,94,0,40486,135,-163,350,40378,7616,2272,272,38267,399,-95,154,1389807387.897356
2,95,0,62434,1122,113,35,62867,5248,-688,976,62377,277,-310,178,1389807387.897683
3,95,0,42485,34,-155,477,42254,8080,2480,-48,40845,399,-95,153,1389807387.897694
2,96,0,64424,1315,124,219,64746,5200,-688,944,62377,277,-310,178,1389807387.915806
3,96,0,43485,30,-160,514,44130,8512,2208,-176,43421,395,-89,154,1389807387.915814
2,97,0,877,1278,167,475,1090,5328,-832,864,64938,276,-310,170,1389807387.927477
3,97,0,45484,78,-188,519,46007,8576,1776,-176,45997,397,-83,155,1389807387.927486
2,98,0,2867,1114,241,725,2969,5408,-992,752,1962,278,-307,162,1389807387.927757
3,98,0,47484,36,-253,475,47884,8400,1328,-208,45997,397,-83,155,1389807387.927803
2,99,0,4856,949,290,922,4847,5392,-1280,544,4524,284,-307,157,1389807387.946220
3,99,0,49483,-107,-310,466,49761,8080,1056,-320,48575,396,-81,159,1389807387.946235
2,100,0,5851,895,302,996,6726,5216,-1744,272,4524,284,-307,157,1389807387.952468
3,100,0,51482,-318,-332,522,51637,7776,1104,-496,51152,391,-73,163,1389807387.952685
2,101,0,7841,805,284,1106,8605,5120,-2048,64,7084,286,-303,151,1389807387.964603
3,101,0,53482,-515,-297,574,53515,7696,1584,-832,53729,395,-67,163,1389807387.964617
2,102,0,9830,671,242,1236,10484,5248,-2368,-272,9646,287,-292,145,1389807387.976122
3,102,0,55481,-652,-255,571,55392,7664,2144,-1024,53729,395,-67,163,1389807387.976131
2,103,0,11820,456,218,1358,12363,5760,-2528,-640,12206,297,-285,140,1389807387.987637
3,103,0,57481,-743,-221,540,57269,7600,2576,-992,56306,396,-64,165,1389807387.987646
2,104,0,13809,135,232,1430,14242,6640,-2944,-1152,12206,297,-285,140,1389807387.987838
3,104,0,58480,-770,-202,539,59146,7600,2656,-800,58884,386,-53,170,1389807387.987843
2,105,0,15799,-287,265,1409,16122,7888,-3360,-1984,14767,305,-274,141,1389807388.5368
3,105,0,60480,-765,-178,551,61023,7776,2368,-400,58884,386,-53,170,1389807388.5378
2,106,0,17788,-701,286,1346,18000,9040,-3888,-2832,17328,307,-260,140,1389807388.16784
3,106,0,62479,-672,-154,575,62901,8112,1856,208,61461,391,-47,170,1389807388.16792
2,107,0,19778,-1071,291,1232,19878,10352,-4928,-3424,17328,307,-260,140,1389807388.17073
3,107,0,64478,-565,-136,571,64778,8288,1392,1104,64038,392,-41,171,1389807388.17317
2,108,0,21767,-1435,302,989,21757,11744,-6768,-3488,19890,318,-248,138,1389807388.35303
3,108,0,942,-536,-121,525,1119,8304,1200,2112,1081,387,-33,171,1389807388.35318
2,109,0,22762,-1599,280,790,23635,13264,-9216,-2496,22451,318,-240,145,1389807388.47205
3,109,0,2941,-546,-120,493,2997,8336,1280,2880,1081,387,-33,171,1389807388.47220
2,110,0,24751,-1726,183,194,25513,14448,-10832,-944,25013,316,-239,149,1389807388.47558
3,110,0,4941,-522,-113,469,4874,8256,1728,3280,3658,385,-26,174,1389807388.47568
2,111,0,26741,-1669,-97,-579,27392,14672,-9536,608,25013,316,-239,149,1389807388.65599
3,111,0,6940,-385,-97,454,6751,8384,2464,3312,6235,388,-18,173,1389807388.65614
2,112,0,28730,-1418,-436,-964,29272,13744,-6688,1840,27575,322,-237,157,1389807388.77544
3,112,0,7940,-281,-81,437,8629,8560,3120,2896,8812,384,-20,172,1389807388.77559
2,113,0,30720,-800,-616,-807,31150,12048,-4752,3264,30135,320,-240,164,1389807388.77881
3,113,0,9939,-77,-62,392,10506,8832,3504,2240,8812,384,-20,172,1389807388.77892
2,114,0,32709,-137,-568,-663,33029,9376,-4208,4592,32696,315,-243,169,1389807388.95627
3,114,0,11939,73,-76,308,12383,9168,3328,1312,11389,384,-17,175,1389807388.95642
2,115,0,34699,185,-385,-604,34908,5920,-3552,5856,32696,315,-243,169,1389807388.107918
3,115,0,13938,152,-108,223,14261,9344,2448,400,13967,386,-12,174,1389807388.107928
2,116,0,36688,243,-142,-446,36787,2576,-2448,7072,35258,312,-248,171,1389807388.108195
3,116,0,15937,160,-174,200,16139,9248,1200,-272,13967,386,-12,174,1389807388.108201
2,117,0,38678,126,121,-108,38665,704,-960,7392,37820,309,-251,168,1389807388.125535
3,117,0,17937,110,-204,247,18016,9232,-64,-608,16544,384,-15,177,1389807388.125542
2,118,0,39673,3,254,110,40544,1344,1136,5856,40382,306,-244,166,1389807388.137338
3,118,0,19936,-15,-175,330,19894,9360,-688,-304,19122,383,-5,181,1389807388.137345
2,119,0,41662,-315,538,569,42422,4272,3600,3360,40382,306,-244,166,1389807388.137631
3,119,0,21936,-294,-91,368,21772,10032,-480,240,21701,384,-6,179,1389807388.137636
2,120,0,43651,-712,831,1031,44300,9488,5904,640,42943,316,-234,161,1389807388.154535
3,120,0,22935,-452,-36,362,23649,11856,-32,1024,21701,384,-6,179,1389807388.154543
2,121,0,45641,-1099,1041,1343,46180,15312,7680,-3280,45504,316,-221,158,1389807388.166092
3,121,0,24935,-703,32,296,25526,12880,288,1648,24279,383,-2,177,1389807388.166101
2,122,0,47630,-1123,984,1653,47589,19056,7616,-7440,45504,316,-221,158,1389807388.178205
3,122,0,26934,-831,12,78,27404,12096,224,1296,26857,380,-253,178,1389807388.178214
2,123,0,49620,-719,536,1950,49469,20336,4784,-11088,48065,330,-203,152,1389807388.179018
3,123,0,28933,-719,-49,-180,29281,11648,-80,-48,29435,383,1,181,1389807388.179024
2,124,0,51609,-726,136,1535,51348,17888,576,-8816,50626,330,-189,149,1389807388.197098
3,124,0,30933,-427,9,-340,31159,11936,224,-1440,29435,383,1,181,1389807388.197106
2,125,0,53599,-994,67,669,53227,14784,-2704,-3392,53187,335,-183,149,1389807388.197342
3,125,0,32932,-201,161,-523,33036,12208,-608,-1936,32012,380,249,175,1389807388.197348
2,126,0,54594,-1007,88,201,55107,10944,-5760,1216,53187,335,-183,149,1389807388.214768
3,126,0,34932,-106,327,-947,34914,11984,-1472,-1552,34590,380,-10,172,1389807388.214783
2,127,0,56583,-1100,162,-712,56986,6384,-8096,3856,55749,338,-183,151,1389807388.227103
3,127,0,36931,-189,444,-1510,36791,10944,-768,-2032,34590,380,-10,172,1389807388.227112
2,128,0,58573,-1609,141,-1208,58865,1248,-7616,5744,58311,331,-191,155,1389807388.227395
3,128,0,37931,-254,506,-1762,38668,9648,288,-3264,37169,383,-21,170,1389807388.227402
2,129,0,60562,-1873,57,-1398,60744,-3712,-2736,8320,60872,333,-194,157,1389807388.244446
3,129,0,39930,-224,651,-1968,40545,9008,368,-3552,39746,390,-38,162,1389807388.244456
2,130,0,62552,-1171,106,-785,62623,-5920,5536,10272,60872,333,-194,157,1389807388.256187
3,130,0,41929,-391,763,-2051,42422,8624,1408,-2832,42324,392,-53,154,1389807388.256195
2,131,0,64541,1220,20,1161,64502,-2208,12400,7536,63433,329,-191,159,1389807388.262339
3,131,0,43929,-899,731,-2103,44298,9280,2944,-1440,42324,392,-53,154,1389807388.262578
2,132,0,995,3564,-135,2874,845,3136,13024,720,458,331,-170,152,1389807388.274406
3,132,0,45928,-1385,574,-2098,46175,10848,3888,512,44901,396,-61,150,1389807388.274414
2,133,0,2984,3219,116,3246,2724,9520,9024,-7504,3021,336,-154,142,1389807388.286502
3,133,0,47928,-1696,322,-2149,48052,12048,4752,2688,47477,397,-76,147,1389807388.286510
2,134,0,4974,1662,936,2277,4602,15984,4288,-14496,3021,336,-154,142,1389807388.286775
3,134,0,49927,-1659,71,-2247,49929,12016,5312,4336,50054,397,-90,147,1389807388.293095
2,135,0,5968,1322,1403,1507,6481,18976,-160,-15264,5583,346,-154,135,1389807388.304942
3,135,0,51926,-1221,-130,-2282,51805,11312,5856,5104,50054,397,-90,147,1389807388.304951
2,136,0,7958,987,1701,221,8360,16896,-3392,-10240,8144,346,-156,117,1389807388.317009
3,136,0,52926,-866,-175,-2241,53682,10576,5824,5008,52632,395,-103,150,1389807388.317024
2,137,0,9947,-156,1093,-55,10238,12624,-4720,-4720,8144,346,-156,117,1389807388.317350
3,137,0,54926,107,-129,-2078,55560,10032,4976,4400,55209,399,-118,151,1389807388.317361
2,138,0,11937,-1805,297,149,12116,8368,-3152,-1152,10707,350,-155,114,1389807388.335451
3,138,0,56925,1114,47,-1963,57437,9648,4240,3568,55209,399,-118,151,1389807388.335460
2,139,0,13926,-2543,-278,336,13995,4688,-352,560,13269,356,-144,117,1389807388.347563
3,139,0,58924,1858,249,-1960,59313,9408,3600,2480,57786,396,-144,147,1389807388.347573
2,140,0,15916,-1894,-489,754,15874,2032,2224,1616,15830,350,-129,123,1389807388.347842
3,140,0,60924,2203,401,-1969,61191,9152,3136,1248,60363,393,-162,143,1389807388.347849
2,141,0,17905,-527,-293,1324,17753,1136,3504,2192,15830,350,-129,123,1389807388.365692
3,141,0,62923,2192,479,-1902,63068,8848,2608,-64,62939,392,-184,135,1389807388.365707
2,142,0,19895,675,48,1752,19631,2640,3632,1984,18391,353,-113,123,1389807388.377867
3,142,0,64922,2012,484,-1830,64945,8704,2032,-1296,62939,392,-184,135,1389807388.377876
2,143,0,21884,1391,284,1801,21510,5888,3696,1456,20951,359,-105,122,1389807388.378141
3,143,0,1386,1781,436,-1847,1285,8448,1504,-1920,65516,392,-204,126,1389807388.378147
2,144,0,22879,1574,376,1686,23389,9168,3024,1168,23513,353,-95,116,1389807388.395856
3,144,0,2386,1651,403,-1877,3162,8256,1088,-1968,2558,389,-226,118,1389807388.395871
2,145,0,24869,1621,560,1296,25267,11024,1376,1072,23513,353,-95,116,1389807388.408115
3,145,0,4385,1350,351,-1936,5038,8048,880,-1536,5136,387,-245,109,1389807388.408124
2,146,0,26858,1349,668,1079,27146,11232,-512,352,26074,356,-91,112,1389807388.408387
3,146,0,6384,1028,315,-1978,6915,7648,1008,-1120,5136,387,-245,109,1389807388.408433
2,147,0,28848,1026,617,1117,29025,10208,-1728,-576,28635,359,-87,104,1389807388.426398
3,147,0,8384,781,287,-1937,8792,7248,1200,-784,7713,384,-9,106,1389807388.426407
2,148,0,30837,868,486,1164,30904,8992,-1744,-1600,31196,360,-77,100,1389807388.426659
3,148,0,10383,703,245,-1817,10669,6992,1408,-368,10291,375,-278,102,1389807388.438205
2,149,0,32827,839,388,1089,32783,8032,-928,-2112,31196,360,-77,100,1389807388.438481
3,149,0,12383,742,205,-1652,12545,6848,1552,80,10291,375,-278,102,1389807388.438487
2,150,0,34816,827,317,903,34661,7184,256,-2112,33756,365,-72,97,1389807388.456440
3,150,0,14382,786,158,-1505,14422,6800,1584,448,12868,373,-288,97,1389807388.456465
2,151,0,36806,912,251,661,36540,6576,1408,-1632,36318,365,-69,91,1389807388.456656
3,151,0,16381,773,158,-1400,16300,6784,1600,848,15445,371,-304,96,1389807388.468730
2,152,0,37800,1031,211,527,38420,6240,2400,-1120,36318,365,-69,91,1389807388.469005
3,152,0,17381,750,174,-1355,18176,6688,1552,1024,18022,363,-314,88,1389807388.469011
2,153,0,39790,1378,129,344,40298,6448,2848,-736,38879,363,-72,92,1389807388.487183
3,153,0,19380,721,204,-1308,20053,6448,1648,1168,18022,363,-314,88,1389807388.487191
2,154,0,41779,1675,66,351,42177,7136,2752,-928,41440,362,-70,90,1389807388.487469
3,154,0,21380,758,225,-1251,21929,6128,1840,1088,20599,358,-325,83,1389807388.487475
2,155,0,43769,1769,44,478,44055,8016,2320,-1312,44001,365,-68,90,1389807388.504921
3,155,0,23379,857,216,-1137,23806,5920,1968,960,23176,357,-337,77,1389807388.504931
2,156,0,45758,1555,71,569,45934,8560,1936,-1696,44001,365,-68,90,1389807388.517252
3,156,0,25379,943,200,-984,25683,5824,2048,704,25752,347,-344,76,1389807388.517267
2,157,0,47748,1068,127,649,47813,8704,1472,-2272,46562,365,-68,94,1389807388.517566
3,157,0,27378,952,191,-819,27560,5792,2048,304,25752,347,-344,76,1389807388.517576
2,158,0,49737,528,172,716,49692,8480,1296,-2672,49124,361,-60,90,1389807388.535608
3,158,0,29377,877,188,-645,29436,5968,1968,-352,28330,345,-350,65,1389807388.535623
2,159,0,51727,125,195,746,51570,8144,1296,-2672,51686,361,-54,86,1389807388.547382
3,159,0,31377,768,169,-491,31314,6080,1808,-976,30907,348,-355,62,1389807388.547391
2,160,0,53716,-59,184,712,53450,7776,1520,-2384,51686,361,-54,86,1389807388.547653
3,160,0,32376,703,152,-423,33190,6032,1584,-1392,30907,348,-355,62,1389807388.547659
2,161,0,54711,-84,172,667,55329,7552,1920,-1936,54247,366,-51,85,1389807388.565587
3,161,0,34376,483,88,-303,35068,5856,1232,-1696,33485,346,-361,58,1389807388.565602
2,162,0,56700,-47,132,565,57208,7440,1904,-1472,56808,359,-44,88,1389807388.577600
3,162,0,36375,117,10,-152,36946,5536,1024,-1744,36063,336,-359,55,1389807388.577609
2,163,0,58690,24,90,483,59087,7584,1616,-896,59369,364,-41,85,1389807388.577875
3,163,0,38375,-329,-57,21,38822,5216,800,-1712,38639,342,-357,57,1389807388.577881
2,164,0,60679,101,80,424,60966,7856,1328,-576,59369,364,-41,85,1389807388.596149
3,164,0,40374,-777,-115,175,40700,4928,816,-1344,38639,342,-357,57,1389807388.596164
2,165,0,62669,194,92,422,62846,8080,880,-320,61928,363,-39,86,1389807388.602418
3,165,0,42373,-1154,-164,324,42577,4640,960,-896,41217,342,-357,63,1389807388.602738
2,166,0,64658,321,121,454,64725,8112,528,-160,64489,363,-35,84,1389807388.615187
3,166,0,44373,-1411,-211,486,44454,4464,1056,-272,43795,342,-346,72,1389807388.615202
2,167,0,1112,432,149,505,1069,8128,512,-112,64489,363,-35,84,1389807388.627482
3,167,0,46372,-1483,-264,673,46331,4528,992,96,46372,348,-337,81,1389807388.627497
2,168,0,3101,549,152,546,2947,8080,784,-32,1514,365,-31,81,1389807388.627827
3,168,0,47372,-1447,-300,776,48208,4800,864,416,46372,348,-337,81,1389807388.627837
2,169,0,5091,670,138,553,4825,8080,1168,240,4075,366,-28,81,1389807388.645585
3,169,0,49371,-1233,-387,968,50085,5168,528,672,48949,348,-331,90,1389807388.645594
2,170,0,6086,721,136,546,6704,8016,1424,496,6636,362,-22,82,1389807388.657666
3,170,0,51371,-913,-464,1108,51963,5616,-176,880,51525,353,-313,96,1389807388.657675
2,171,0,8075,802,127,496,8583,7952,1344,864,6636,362,-22,82,1389807388.657981
3,171,0,53370,-604,-470,1186,53841,6592,-896,976,51525,353,-313,96,1389807388.657987
2,172,0,10065,865,123,442,10462,7776,1040,1168,9196,362,-22,81,1389807388.676104
3,172,0,55370,-258,-367,1352,55718,8128,-2048,848,54101,353,-304,102,1389807388.676112
2,173,0,12054,937,95,394,12341,7440,672,976,11758,365,-24,81,1389807388.687728
3,173,0,57369,157,-187,1649,57595,10128,-3552,816,56679,363,-293,106,1389807388.687743
2,174,0,14044,1086,31,356,14220,7136,688,368,14318,364,-20,83,1389807388.688214
3,174,0,59368,664,-37,1742,59473,11792,-5344,1104,59256,363,-282,104,1389807388.688229
2,175,0,16033,1278,-69,332,16101,7232,1104,-816,14318,364,-20,83,1389807388.706286
3,175,0,61368,1426,79,1377,61350,13536,-8064,1712,59256,363,-282,104,1389807388.706294
2,176,0,18023,1468,-178,329,17979,7536,1984,-2576,16879,364,-19,85,1389807388.712350
3,176,0,62367,1877,144,1013,63227,15488,-10304,912,61833,375,-276,97,1389807388.712609
2,177,0,20012,1565,-245,314,19857,7808,2640,-3984,19442,364,-20,90,1389807388.724868
3,177,0,64367,2811,261,-60,65104,16032,-9952,-1232,64410,375,-290,85,1389807388.724877
2,178,0,21007,1504,-247,310,21736,8160,3008,-4864,19442,364,-20,90,1389807388.737215
3,178,0,830,3229,201,-867,1445,14928,-7920,-3568,1451,365,-304,70,1389807388.737230
2,179,0,22996,1170,-215,327,23615,8480,3360,-5072,22003,364,-20,91,1389807388.737553
3,179,0,2830,2847,-18,-1302,3322,12128,-6080,-4624,1451,365,-304,70,1389807388.737565
2,180,0,24986,736,-140,331,25493,9072,3424,-4656,24566,361,-19,96,1389807388.755037
3,180,0,4829,1816,7,-1428,5199,9696,-4720,-4800,4029,365,-325,60,1389807388.755046
2,181,0,26975,353,-51,275,27371,9312,2896,-3664,27127,361,-19,95,1389807388.767325
3,181,0,6828,715,243,-1037,7076,8432,-3824,-4928,6607,359,-328,55,1389807388.767339
2,182,0,28965,-50,22,221,29250,9056,2176,-2560,27127,361,-19,95,1389807388.767665
3,182,0,8828,-302,378,-631,8952,7424,-3360,-5600,6607,359,-328,55,1389807388.767676
2,183,0,30954,-326,70,242,31128,8768,1440,-1680,29688,360,-17,96,1389807388.785837
3,183,0,10827,-1063,304,-574,10829,5824,-2640,-6304,9185,359,-332,56,1389807388.785851
2,184,0,32944,-336,60,286,33007,8832,848,-800,32249,361,-14,95,1389807388.797697
3,184,0,11827,-1280,220,-634,12706,3728,-1520,-6160,11761,356,-338,59,1389807388.797712
2,185,0,34933,-215,18,361,34885,8992,512,48,34810,362,-7,90,1389807388.798101
3,185,0,13826,-1440,5,-726,14584,2000,-32,-5088,14339,356,-338,65,1389807388.798111
2,186,0,36923,-10,-57,470,36763,9104,32,736,34810,362,-7,90,1389807388.816269
3,186,0,15826,-1428,-199,-514,16461,2048,1456,-3520,14339,356,-338,65,1389807388.816278
3,187,0,17825,-1369,-367,-90,18338,3584,2704,-1616,16917,356,-335,76,1389807388.828230
2,188,0,39907,330,-105,610,40521,9328,-832,1184,39932,356,-253,98,1389807388.828594
3,188,0,19824,-1104,-537,184,20215,5760,4000,208,19496,349,-329,85,1389807388.828605
2,189,0,41896,638,-140,656,42399,10320,-512,640,42494,359,6,96,1389807388.846904
3,189,0,21824,-238,-618,313,22093,9232,5296,2128,22074,350,-327,88,1389807388.846919
2,190,0,43886,891,-204,591,44279,12880,416,-288,42494,359,6,96,1389807388.847150
3,190,0,23823,1115,-508,593,23970,15824,5488,4224,22074,350,-327,88,1389807388.847436
2,191,0,45875,1058,-288,377,46156,15168,1024,-1456,45056,358,4,106,1389807388.865304
3,191,0,25823,2842,-278,974,25848,23648,608,7264,24651,355,-321,83,1389807388.865314
2,192,0,47865,1061,-269,12,48034,14592,-160,-1632,47618,355,2,106,1389807388.877561
3,192,0,26822,3662,-141,1014,27725,24624,-4400,10784,27229,357,-327,67,1389807388.877576
2,193,0,49854,544,-188,-336,49911,13136,-2656,-992,47618,355,2,106,1389807388.877861
3,193,0,28822,3735,-121,344,29602,17520,-3744,9872,27229,357,-327,67,1389807388.877868
2,194,0,51844,34,-203,-651,51789,12192,-4352,-832,50178,355,254,108,1389807388.896103
3,194,0,30821,2828,-179,60,31478,10304,304,4752,29808,357,-332,55,1389807388.896112
2,195,0,53833,174,-410,-1332,53667,11152,-3520,-256,52739,357,-14,109,1389807388.902467
3,195,0,32820,3151,117,-523,33355,4480,4256,-880,32386,356,-343,39,1389807388.902739
2,196,0,54828,248,-601,-1705,55545,10096,-1200,1968,55300,357,-32,119,1389807388.914666
3,196,0,34820,2085,203,-1444,35232,-2176,5312,-8304,34962,352,-360,30,1389807388.914680
2,197,0,56818,37,-1029,-2136,57423,9152,1344,3440,55300,357,-32,119,1389807388.926960
3,197,0,36819,-247,-481,-1331,37109,-7952,5056,-16304,34962,352,-360,30,1389807388.926969
2,198,0,58807,262,-1264,-2140,59301,8432,2912,3504,57862,356,-47,124,1389807388.927234
3,198,0,38819,-1030,-840,-6,38986,-5488,1616,-17696,37540,345,-358,39,1389807388.927241
2,199,0,60797,1009,-1132,-2160,61180,8112,3808,1632,60425,355,-66,136,1389807388.944663
3,199,0,40818,350,-382,1325,40863,2976,-3968,-8800,40117,344,-348,44,1389807388.944672
2,200,0,62786,1616,-732,-2125,63058,8592,4448,-2592,62985,350,-88,144,1389807388.956668
3,200,0,41818,157,-417,1625,42740,9600,-976,2128,42694,350,-331,53,1389807388.956677
2,201,0,64776,1882,-171,-2002,64936,9952,4368,-7152,62985,350,-88,144,1389807388.956872
2,202,0,1229,1440,341,-1885,1277,11312,3488,-10080,9,351,-107,144,1389807388.974255
3,202,0,45817,-3827,-1543,2598,46494,18288,6800,11360,45272,356,-306,77,1389807388.974264
2,203,0,3219,246,628,-1869,3156,12016,2192,-10224,2570,350,-126,136,1389807388.986555
3,203,0,47816,-2403,-1456,1950,48371,16784,4848,8560,47850,369,-290,100,1389807388.986570
2,204,0,4213,-562,621,-1914,5034,11568,1584,-7696,5133,348,-140,132,1389807388.986878
3,204,0,49815,21,-919,450,50248,12208,2016,4992,47850,369,-290,100,1389807388.992518
2,205,0,6203,-2296,345,-2069,6912,10544,2272,-3968,5133,348,-140,132,1389807389.4201
3,205,0,51815,799,-485,-315,52125,8048,1584,800,50429,370,-292,105,1389807389.4209
2,206,0,8192,-3562,-35,-2152,8792,9328,3312,-336,7695,348,-146,135,1389807389.16358
3,206,0,53814,644,-214,6,54003,5392,1360,-2256,53007,362,-293,104,1389807389.16373
2,207,0,10182,-3998,-310,-2104,10670,8192,3760,2336,10255,346,-149,142,1389807389.22706
3,207,0,55814,476,11,580,55879,4368,1104,-3040,55584,366,-290,100,1389807389.22971
2,208,0,12171,-3784,-455,-1994,12549,7056,3376,3840,10255,346,-149,142,1389807389.34580
3,208,0,56813,380,101,777,57756,4464,816,-2000,55584,366,-290,100,1389807389.34589
2,209,0,14161,-3118,-493,-1899,14428,6288,2544,4064,12817,346,-155,152,1389807389.46646
3,209,0,58813,45,175,983,59632,5232,672,-208,58162,368,-281,99,1389807389.46661
2,210,0,16150,-2193,-451,-1833,16306,5984,1792,3440,15379,335,-159,158,1389807389.46966
3,210,0,60812,-527,-5,1147,61509,6224,816,928,60739,367,-270,100,1389807389.47276
2,211,0,18140,-1216,-395,-1815,18184,6352,1024,2176,17940,335,-171,165,1389807389.65434
3,211,0,62811,-1047,-393,1312,63386,7616,1296,1104,63317,375,-257,107,1389807389.65448
2,212,0,20129,-374,-307,-1840,20063,7264,576,624,17940,335,-171,165,1389807389.77199
3,212,0,64811,-1225,-748,1402,65263,9040,1712,832,63317,375,-257,107,1389807389.77208
2,213,0,21124,-42,-252,-1846,21942,8160,624,-560,20500,331,-181,167,1389807389.77471
3,213,0,1274,-1133,-922,1417,1604,10320,1664,576,360,378,-501,118,1389807389.77482
2,214,0,23114,368,-96,-1840,23820,9008,672,-1552,23062,322,-197,168,1389807389.95149
3,214,0,3274,-991,-908,1363,3481,10624,1536,304,2937,379,-228,130,1389807389.95164
2,215,0,25103,442,61,-1794,25699,9616,960,-2096,25623,324,-213,163,1389807389.107342
3,215,0,5273,-941,-748,1273,5360,9680,1504,-48,2937,379,-228,130,1389807389.107350
2,216,0,27093,248,179,-1725,27578,9840,1248,-2224,25623,324,-213,163,1389807389.107606
3,216,0,6273,-942,-639,1209,7237,8288,1728,-368,5515,378,-217,140,1389807389.107613
2,217,0,29082,-101,257,-1644,29456,9504,1536,-2160,28186,320,-227,161,1389807389.125591
3,217,0,8272,-957,-400,1116,8645,7472,1696,-480,8092,384,-204,147,1389807389.125600
2,218,0,31071,-479,297,-1603,31336,8624,1600,-2192,30746,313,-236,163,1389807389.137883
3,218,0,10271,-940,-230,1041,10521,6992,1328,-512,10669,381,-194,149,1389807389.137898
2,219,0,33061,-818,330,-1586,33215,7648,1696,-2336,33306,313,-246,161,1389807389.138170
3,219,0,12271,-893,-170,915,12399,6912,656,-224,10669,381,-194,149,1389807389.138178
2,220,0,35050,-1107,307,-1574,35095,6640,1616,-2448,33306,313,-246,161,1389807389.155527
3,220,0,14270,-993,-199,759,14277,6880,224,144,13246,383,-184,152,1389807389.155577
2,221,0,37040,-1364,239,-1560,36973,6016,1728,-2592,35866,313,-1,160,1389807389.167726
3,221,0,16270,-1302,-298,727,16155,6848,240,656,15824,387,-175,156,1389807389.167735
2,222,0,38035,-1470,196,-1540,38852,5664,1776,-2448,38427,304,-257,166,1389807389.168137
3,222,0,18269,-1719,-377,944,18032,7024,720,1248,18401,382,-158,162,1389807389.168146
2,223,0,40024,-1629,108,-1474,40730,5696,1776,-2080,38427,304,-257,166,1389807389.185710
3,223,0,20268,-2055,-403,1271,19909,7664,1760,1936,18401,382,-158,162,1389807389.185719
2,224,0,42014,-1689,25,-1367,42609,6016,1696,-1552,40988,304,-263,169,1389807389.197903
3,224,0,21268,-2106,-386,1406,21785,8304,3024,2064,20979,383,-138,167,1389807389.197913
2,225,0,44003,-1646,10,-1234,44488,6368,1472,-1008,43550,296,-268,177,1389807389.198168
3,225,0,23268,-1780,-336,1553,23663,9008,4032,2032,23556,388,-121,174,1389807389.198180
2,226,0,45993,-1502,64,-1063,46367,6608,1200,-368,46111,296,-268,184,1389807389.216319
3,226,0,25267,-956,-276,1502,25540,9200,4544,2256,23556,388,-121,174,1389807389.216334
2,227,0,47982,-1282,180,-866,48246,6688,880,16,46111,296,-268,184,1389807389.222457
3,227,0,27266,-53,-236,1219,27418,8736,4176,2672,26133,385,-107,174,1389807389.222700
2,228,0,49972,-1050,302,-638,50125,6592,800,272,48672,290,-273,185,1389807389.234764
3,228,0,29266,434,-216,833,29295,8080,3184,2848,28711,387,-103,178,1389807389.234773
2,229,0,51961,-858,378,-428,52004,6320,560,240,51233,294,-266,183,1389807389.246450
3,229,0,31265,392,-200,597,31172,7616,2464,2448,31288,388,-99,178,1389807389.246458
2,230,0,52956,-783,398,-328,53883,5904,576,176,53793,292,-265,182,1389807389.246665
3,230,0,33265,80,-193,515,33048,7616,2112,1632,31288,388,-99,178,1389807389.252095
2,231,0,54945,-679,385,-171,55762,5488,560,0,53793,292,-265,182,1389807389.264002
3,231,0,35264,-155,-191,479,34925,7856,2064,720,33865,386,-100,182,1389807389.264017
2,232,0,56935,-650,322,-18,57640,5088,688,-112,56352,295,-267,184,1389807389.275868
3,232,0,36264,-190,-190,457,36802,8144,2000,32,36443,383,-93,182,1389807389.275878
2,233,0,58924,-634,262,124,59519,4928,928,-96,58912,296,-259,185,1389807389.288065
3,233,0,38263,-133,-190,390,38678,8368,1632,-272,39021,387,-89,186,1389807389.288080
2,234,0,60914,-631,250,303,61398,4992,960,256,58912,296,-259,185,1389807389.288334
3,234,0,40262,-72,-198,374,40555,8496,1584,-128,39021,387,-89,186,1389807389.288341
2,235,0,62903,-674,270,509,63276,5392,960,528,61473,298,-511,181,1389807389.305674
3,235,0,42262,-156,-234,380,42432,8480,1776,0,41598,384,-85,186,1389807389.305683
2,236,0,64893,-744,319,711,65155,5696,1040,800,64034,298,-246,184,1389807389.317945
3,236,0,44261,-310,-283,406,44309,8400,2032,-48,44176,380,-81,189,1389807389.317960
2,237,0,1346,-808,359,901,1497,5888,1120,992,1060,309,-236,181,1389807389.318275
3,237,0,46261,-459,-342,447,46188,8272,2176,-400,44176,380,-81,189,1389807389.318286
2,238,0,3336,-738,394,1055,3376,5984,976,1104,1060,309,-236,181,1389807389.335750
3,238,0,48260,-647,-358,461,48065,8176,1920,-848,46752,381,-75,191,1389807389.335765
2,239,0,4331,-637,398,1104,5254,6080,704,1232,3621,309,-224,182,1389807389.348041
3,239,0,50259,-897,-336,470,49942,8112,1648,-1264,49330,381,-72,194,1389807389.348055
2,240,0,6320,-341,375,1158,7133,6352,256,1488,6183,309,-215,177,1389807389.348378
3,240,0,51259,-1024,-321,471,51819,8256,1360,-1440,51906,380,-62,196,1389807389.348389
2,241,0,8310,-3,299,1208,9011,6832,-544,1696,8744,316,-206,177,1389807389.366554
3,241,0,53258,-1224,-260,426,53696,8528,1280,-1456,51906,380,-62,196,1389807389.366568
2,242,0,10299,293,187,1246,10889,7520,-1792,1760,8744,316,-206,177,1389807389.366881
3,242,0,55258,-1338,-219,364,55574,8736,1488,-1104,54483,379,-48,195,1389807389.372494
2,243,0,12289,384,52,1264,12767,8432,-3904,1248,11304,322,-195,176,1389807389.384750
3,243,0,57257,-1415,-206,332,57451,8432,1792,-560,57061,381,-44,199,1389807389.384765
2,244,0,14278,67,-70,1246,14645,9808,-7120,-96,13865,322,-187,175,1389807389.396591
3,244,0,59257,-1459,-221,353,59328,7808,2096,352,59637,376,-35,198,1389807389.396639
2,245,0,16268,-889,-126,987,16054,11360,-10672,-1408,16427,327,-181,177,1389807389.396883
3,245,0,61256,-1484,-224,407,61205,7648,2176,1472,59637,376,-35,198,1389807389.403167
2,246,0,18257,-2339,-173,203,17932,13968,-15888,-2240,16427,327,-181,177,1389807389.415316
3,246,0,63255,-1462,-196,478,63082,8032,2464,2672,62215,373,-22,199,1389807389.415331
2,247,0,20247,-3498,-251,-966,19811,16160,-14608,-1776,18989,325,-179,188,1389807389.427736
3,247,0,65255,-1325,-184,483,64959,8448,2896,3808,64792,374,-15,201,1389807389.427751
2,248,0,21241,-3794,-243,-1288,21690,16720,-8400,-384,21551,326,-170,194,1389807389.428095
3,248,0,719,-1189,-181,433,1300,8368,3200,4720,64792,374,-15,201,1389807389.428106
2,249,0,23231,-3625,-178,-1206,23568,17088,-4976,1104,21551,326,-170,194,1389807389.446043
3,249,0,2718,-870,-210,288,3177,8432,3296,4976,1834,371,-9,200,1389807389.446053
2,250,0,25220,-2329,-182,-960,25446,15616,-3584,1968,24113,321,-167,200,1389807389.458338
3,250,0,4717,-681,-278,175,5054,8896,3200,4304,4412,368,-1,204,1389807389.458353
2,251,0,27210,-1152,-280,-798,27326,12032,-2432,1760,26674,321,-167,205,1389807389.458677
3,251,0,6717,-530,-335,70,6932,9184,2832,2912,6990,370,-1,205,1389807389.458714
2,252,0,29199,-763,-368,-856,29205,6912,-1472,1888,29236,315,-170,208,1389807389.477084
3,252,0,8716,-340,-401,-40,8808,8832,1568,608,6990,370,-1,205,1389807389.477092
2,253,0,31189,-880,-292,-1012,31084,1072,-784,2576,29236,315,-170,208,1389807389.477356
3,253,0,10715,-212,-440,-64,10685,8400,-128,-1552,9567,371,-255,208,1389807389.477363
2,254,0,33178,-934,33,-857,32963,-4176,-128,3296,31796,315,-176,212,1389807389.495349
3,254,0,12715,-341,-417,35,12562,8224,-1392,-2848,12145,364,1,211,1389807389.495358
2,255,0,35168,-921,575,-262,34840,-6432,1008,2800,34358,317,-171,212,1389807389.506821
3,255,0,14714,-776,-334,146,14438,8224,-1744,-2976,14722,364,8,211,1389807389.506830
2,0,0,36162,-940,852,155,36720,-3728,3936,-208,36919,312,-160,204,1389807389.506949
3,0,0,15714,-1075,-285,166,16315,8352,-1296,-2304,14722,364,8,211,1389807389.507061
2,1,0,38152,-831,1290,1125,38598,2080,8352,-5024,36919,312,-160,204,1389807389.524348
3,1,0,17713,-1691,-178,131,18192,9184,-320,-1152,17299,360,12,213,1389807389.524357
2,2,0,40141,-312,1594,2021,40477,12096,10224,-8848,39479,322,-145,189,1389807389.536490
3,2,0,19713,-2197,-83,57,20069,12128,688,784,19876,360,27,212,1389807389.536504
2,3,0,42131,6,1548,2520,42355,28768,10688,-10176,42039,329,-122,180,1389807389.536815
3,3,0,21712,-2406,-74,-20,21946,14432,2144,3760,19876,360,27,212,1389807389.543127
2,4,0,44120,42,666,2492,44234,31504,5648,-8208,44599,335,-109,174,1389807389.555324
3,4,0,23712,-2164,-157,-319,23822,13248,2832,4992,22453,362,36,205,1389807389.555333
2,5,0,46110,-1401,-112,1002,46113,23200,-2880,-6000,44599,335,-109,174,1389807389.567383
3,5,0,25711,-1561,-278,-757,25698,11712,2720,2640,25031,362,36,206,1389807389.567397
2,6,0,48099,-3511,-495,-980,47992,16672,-8928,496,47159,337,-108,178,1389807389.567727
3,6,0,27710,-970,-308,-1013,27575,10976,2512,-944,27608,362,34,207,1389807389.567737
2,7,0,50089,-5428,-474,-1772,49870,10960,-7056,6480,49722,338,-105,182,1389807389.586126
3,7,0,29710,-679,-194,-1220,29450,10912,1072,-2896,27608,362,34,207,1389807389.586141
2,8,0,52078,-5853,-347,-1584,51749,4768,-1360,9456,49722,338,-105,182,1389807389.592353
3,8,0,30709,-636,-137,-1339,31326,11088,-400,-2704,30185,362,25,205,1389807389.592607
2,9,0,53073,-5451,-329,-1440,53627,-3104,4688,11504,52283,336,-95,190,1389807389.604930
3,9,0,32709,-776,-10,-1684,33202,11040,144,-3168,32761,366,14,203,1389807389.604945
2,10,0,55063,-3049,-458,-700,55505,-10080,9456,12880,54844,332,-81,196,1389807389.617168
3,10,0,34708,-788,148,-2335,35078,9952,2032,-4752,35338,366,253,200,1389807389.617182
2,11,0,57052,973,-650,938,57383,-6704,12240,10800,57404,332,-76,202,1389807389.617508
3,11,0,36708,-708,365,-2755,36955,9696,2544,-5248,35338,366,253,200,1389807389.617519
2,12,0,59042,4038,-618,1856,59261,-1120,12864,5616,57404,332,-76,202,1389807389.635236
3,12,0,38707,-1267,554,-2834,38833,10032,4976,-5024,37916,375,-21,193,1389807389.635251
2,13,0,61031,5218,480,1825,61140,3328,9184,-1520,59965,332,-76,201,1389807389.647345
3,13,0,40706,-2018,601,-2747,40711,11184,7088,-5200,40493,375,-33,190,1389807389.647360
2,14,0,63021,4453,1704,1906,63018,8432,2080,-8368,62527,325,-84,191,1389807389.647691
3,14,0,42706,-2278,542,-2583,42588,12160,7568,-4464,40493,375,-33,190,1389807389.647701
2,15,0,65010,2423,2094,1900,64897,15184,-2656,-12000,65088,335,-75,172,1389807389.666119
3,15,0,44705,-2282,457,-2686,44465,12080,7232,-2384,43071,384,-47,185,1389807389.666134
2,16,0,1464,916,1494,1489,1240,19808,-1520,-12672,65088,335,-75,172,1389807389.671933
3,16,0,45705,-2227,422,-2723,46342,11568,6960,-240,45648,384,-53,180,1389807389.672190
2,17,0,3453,37,506,1001,3119,19600,320,-10720,2113,342,-69,160,1389807389.683368
3,17,0,47704,-1961,363,-2577,48218,11104,6704,1440,48226,391,-68,176,1389807389.683377
2,18,0,4448,-358,106,792,4998,15072,-48,-8688,4675,346,-63,157,1389807389.695288
3,18,0,49704,-1496,275,-2288,50094,10800,6000,2624,48226,391,-68,176,1389807389.695298
2,19,0,6437,-990,-313,322,6876,10384,-640,-7552,4675,346,-63,157,1389807389.707369
3,19,0,51703,-1049,269,-2158,51971,10368,5024,2944,50802,391,-79,173,1389807389.707378
2,20,0,8427,-1388,-585,27,8755,6704,-880,-5648,7236,347,-60,164,1389807389.707649
3,20,0,53702,-806,390,-2183,53847,9808,4240,2096,53379,392,-93,173,1389807389.707655
2,21,0,10416,-1867,-780,84,10633,3840,-496,-3456,9796,348,-53,167,1389807389.725809
3,21,0,55702,-694,568,-2247,55724,9008,3760,560,55956,392,-108,166,1389807389.725818
2,22,0,12406,-2172,-718,280,12510,1920,176,-1056,12359,340,-42,174,1389807389.738096
3,22,0,57701,-654,715,-2278,57601,8368,3280,-928,55956,392,-108,166,1389807389.738110
2,23,0,14395,-1958,-348,439,14389,1792,400,832,12359,340,-42,174,1389807389.738426
3,23,0,59701,-647,793,-2234,59477,7712,2944,-1680,58533,391,-123,161,1389807389.738436
2,24,0,16385,-1380,78,583,16268,3664,448,2080,14920,340,-32,173,1389807389.756510
3,24,0,60700,-657,809,-2184,61354,7360,2704,-1744,61111,390,-136,154,1389807389.756519
2,25,0,18374,-777,345,752,18147,6384,64,2688,17482,336,-22,171,1389807389.756715
3,25,0,62700,-710,821,-2077,63231,7152,2544,-1392,61111,390,-136,154,1389807389.763007
2,26,0,19369,-609,422,848,20025,8704,-592,3104,20044,338,-10,170,1389807389.775297
3,26,0,64699,-736,775,-1978,65108,7040,2704,-1072,63688,389,-149,150,1389807389.775306
2,27,0,21359,-668,488,993,21904,10432,-1296,3248,20044,338,-10,170,1389807389.787540
3,27,0,1163,-688,684,-1874,1448,7088,2768,-928,729,394,-163,143,1389807389.787555
2,28,0,23348,-1106,441,1030,23783,11040,-1280,2928,22605,338,-5,164,1389807389.787886
3,28,0,3162,-624,606,-1696,3325,7152,2768,-720,3306,395,-171,140,1389807389.787896
2,29,0,25338,-1416,323,969,25661,10448,-768,2224,25165,343,-242,159,1389807389.806136
3,29,0,5161,-764,611,-1517,5202,7328,2832,-784,3306,395,-171,140,1389807389.806148
2,30,0,27327,-1260,195,831,27540,9392,-368,1392,27724,337,20,154,1389807389.812283
3,30,0,7161,-1024,688,-1413,7079,7504,2928,-1072,5884,396,-180,136,1389807389.812491
2,31,0,29316,-823,136,662,29418,8464,-320,624,27724,337,20,154,1389807389.824090
3,31,0,9160,-1229,802,-1378,8956,7488,2656,-1248,8461,393,-186,133,1389807389.824099
2,32,0,31306,-479,158,479,31296,8064,-384,-128,30286,333,24,152,1389807389.836210
3,32,0,10160,-1298,847,-1351,10834,7376,2288,-1424,11037,393,-195,128,1389807389.836224
2,33,0,33295,-360,192,357,33175,7872,-480,-688,32847,339,31,151,1389807389.842454
3,33,0,12159,-1386,923,-1298,12710,6992,1936,-1424,11037,393,-195,128,1389807389.842702
2,34,0,35285,-424,233,246,35053,7712,-368,-1232,32847,339,31,151,1389807389.855062
3,34,0,14159,-1463,958,-1200,14587,6576,1536,-1808,13614,396,-200,121,1389807389.855072
2,35,0,36280,-475,246,207,36932,7376,-144,-1600,35408,337,34,149,1389807389.867169
3,35,0,16158,-1472,971,-1035,16464,6320,1440,-2304,16190,395,-202,116,1389807389.867178
2,36,0,38269,-524,232,109,38809,7264,304,-1824,37969,336,35,143,1389807389.867388
3,36,0,18157,-1400,935,-807,18341,6064,1776,-2704,16190,395,-202,116,1389807389.867437
2,37,0,40259,-522,206,70,40688,7328,624,-2096,40530,343,39,144,1389807389.885222
3,37,0,20157,-1288,900,-582,20218,5872,2592,-2944,18767,395,-203,113,1389807389.885237
2,38,0,42248,-564,158,99,42566,7664,976,-2224,40530,343,39,144,1389807389.897473
3,38,0,22156,-1084,906,-484,22095,6064,3472,-2272,21345,395,-204,107,1389807389.897487
2,39,0,44238,-580,116,187,44444,8000,1392,-2080,43093,337,43,141,1389807389.897810
3,39,0,24156,-1064,859,-442,23973,6432,3328,-960,23923,399,-202,102,1389807389.897821
2,40,0,46227,-502,82,322,46323,8288,2128,-1728,45654,339,45,138,1389807389.915342
3,40,0,25155,-1210,828,-382,25850,6864,2368,208,23923,399,-202,102,1389807389.915358
2,41,0,48217,-429,63,458,48202,8368,2720,-1360,48215,338,53,137,1389807389.927570
2,42,0,50206,-577,50,598,50080,8384,2560,-1168,48215,338,53,137,1389807389.927819
2,43,0,52196,-1010,26,640,51958,8304,2576,-1200,50776,338,58,134,1389807389.945120
3,43,0,31153,-2659,658,-254,31481,7216,336,1520,31653,403,-193,101,1389807389.945129
2,44,0,53190,-1248,23,613,53837,8192,3008,-1040,53338,335,67,130,1389807389.957311
3,44,0,33153,-2848,652,-241,33358,6928,160,1552,31653,403,-193,101,1389807389.957320
2,45,0,55180,-1609,74,493,55716,7712,3120,-496,55899,339,76,126,1389807389.957588
3,45,0,35152,-2806,631,-112,35235,6480,192,1680,34231,403,-185,97,1389807389.957594
2,46,0,57169,-1899,165,393,57595,7168,2336,-160,55899,339,76,126,1389807389.975050
3,46,0,37152,-2632,600,66,37112,6096,128,1648,36807,406,-177,97,1389807389.975075
2,47,0,59159,-2117,185,380,59472,7040,1296,-64,58461,335,82,120,1389807389.987311
3,47,0,39151,-2420,577,247,38989,5664,96,1744,36807,406,-177,97,1389807389.987326
2,48,0,61148,-2074,109,419,61350,7216,736,-368,61023,330,92,110,1389807389.987654
3,48,0,41150,-2247,542,403,40867,5280,-32,1680,39385,407,-169,96,1389807389.987665
2,49,0,63138,-1710,-24,501,63229,7536,816,-1056,61023,330,92,110,1389807390.5768
3,49,0,42150,-2196,509,477,42744,5104,-368,1824,41962,411,-156,96,1389807390.5777
2,50,0,65127,-1216,-144,627,65108,7952,1136,-1952,63585,329,102,106,1389807390.17255
3,50,0,44150,-2181,448,643,44621,5184,-816,1984,44539,410,-142,94,1389807390.17270
2,51,0,1581,-871,-189,721,1450,8352,1584,-2896,609,335,111,103,1389807390.17532
3,51,0,46149,-2271,374,822,46498,5504,-1328,2192,44539,410,-142,94,1389807390.17541
2,52,0,2576,-767,-175,743,3329,8688,2528,-3408,3169,325,115,102,1389807390.35512
3,52,0,48148,-2340,304,992,48375,5920,-2080,2464,47116,411,-131,96,1389807390.35527
2,53,0,4565,-656,-93,725,5207,8832,2848,-3296,3169,325,115,102,1389807390.47719
3,53,0,50148,-2247,207,1154,50252,6496,-2976,2688,49692,416,-115,94,1389807390.47734
2,54,0,6555,-837,42,699,7085,8608,2176,-2544,5730,328,124,100,1389807390.48074
3,54,0,52147,-1916,87,1274,52129,7296,-4048,3280,52269,413,-93,97,1389807390.48084
2,55,0,8544,-1280,159,648,8964,8144,1600,-1120,8291,326,131,95,1389807390.66252
3,55,0,54146,-1585,-55,1296,54007,8304,-5424,3936,52269,413,-93,97,1389807390.66267
2,56,0,10534,-1543,242,596,10842,7696,912,208,10852,315,139,86,1389807390.71861
3,56,0,56146,-1516,-228,1172,55884,9472,-6704,4144,54847,413,-85,98,1389807390.72121
2,57,0,12523,-1591,255,623,12720,7488,432,1152,10852,315,139,86,1389807390.84275
3,57,0,57146,-1620,-313,1039,57760,10688,-7152,3632,57424,420,-69,103,1389807390.84284
2,58,0,14513,-1391,159,657,14599,7856,560,1392,13414,315,146,78,1389807390.96427
3,58,0,59145,-1983,-489,654,59636,11392,-6576,2496,57424,420,-69,103,1389807390.96442
2,59,0,16502,-813,34,623,16478,8224,1552,1024,15976,320,152,75,1389807390.96746
3,59,0,61144,-2122,-599,267,61513,11264,-4608,1296,60000,412,-63,105,1389807390.103004
2,60,0,18492,-9,-65,523,18356,8496,2864,576,18539,317,157,77,1389807390.114720
3,60,0,63144,-1622,-563,186,63390,10736,-3616,512,62578,412,-54,111,1389807390.114729
2,61,0,19486,304,-87,461,20235,8496,3136,400,18539,317,157,77,1389807390.126922
3,61,0,65143,-854,-461,468,65266,10208,-3872,192,65156,414,-46,114,1389807390.126931
2,62,0,21476,365,-67,341,22114,8272,2208,288,21100,312,156,74,1389807390.127236
3,62,0,1607,-151,-388,804,1607,9376,-4896,352,65156,414,-46,114,1389807390.127242
2,63,0,23465,-141,-31,262,23995,8032,1504,-64,23661,315,163,75,1389807390.144840
3,63,0,3606,480,-181,1025,3483,9040,-6144,128,2198,411,-40,119,1389807390.144854
2,64,0,25455,-482,35,257,25873,8000,832,-896,23661,315,163,75,1389807390.156799
3,64,0,5605,987,271,959,5360,9280,-5968,-1408,4776,407,-36,114,1389807390.156808
2,65,0,27444,-438,55,370,27752,8272,704,-1936,26223,307,165,77,1389807390.157049
3,65,0,6605,1049,546,854,7237,9696,-5344,-4288,7353,409,-34,112,1389807390.157249
2,66,0,29434,-192,6,404,29630,8544,1184,-2944,28784,306,168,73,1389807390.175369
3,66,0,8604,732,1034,430,9114,9568,-4832,-7712,7353,409,-34,112,1389807390.175378
2,67,0,31423,-28,-48,334,31509,8624,1408,-3072,31346,310,171,73,1389807390.187550
3,67,0,10604,62,1233,-260,10991,8640,-3552,-10288,9930,413,-34,99,1389807390.187558
2,68,0,33413,-258,-95,212,33388,8672,1248,-2688,31346,310,171,73,1389807390.187831
3,68,0,12603,-647,1069,-694,12868,7280,-1872,-11552,12507,415,-40,93,1389807390.187838
2,69,0,35402,-692,-195,81,35267,8800,1216,-2144,33907,305,171,74,1389807390.205472
3,69,0,14603,-1249,644,-697,14745,5456,-272,-10320,12507,415,-40,93,1389807390.205481
2,70,0,36397,-897,-261,45,37146,9120,992,-1520,36468,305,175,69,1389807390.217769
3,70,0,16602,-1608,282,-675,16621,4112,912,-7152,15083,419,-45,85,1389807390.217784
2,71,0,38386,-1252,-390,-21,39025,9328,432,-672,39029,304,178,64,1389807390.218107
3,71,0,18601,-1670,26,-636,18498,3968,2288,-3296,17662,421,-41,85,1389807390.218118
2,72,0,40376,-1541,-469,-124,40904,9248,-240,-32,39029,304,178,64,1389807390.235492
3,72,0,20601,-1229,-102,-378,20374,4640,3632,368,20239,414,-41,83,1389807390.235506
2,73,0,42365,-1528,-521,-255,42782,9312,-1360,592,41590,304,173,66,1389807390.247188
3,73,0,21600,-869,-153,-156,22251,6304,4480,3040,20239,414,-41,83,1389807390.247200
2,74,0,44355,-1197,-526,-301,44661,9904,-1632,832,44152,303,175,58,1389807390.247460
3,74,0,23600,-142,-284,454,24127,8736,4432,4720,22818,418,-35,86,1389807390.247468
2,75,0,46344,-623,-538,-264,46539,10832,-1296,528,44152,303,175,58,1389807390.264735
3,75,0,25599,386,-440,1102,26003,11440,3504,5760,25396,422,-23,91,1389807390.264750
2,76,0,48334,-25,-568,-300,48418,11264,-464,-80,46714,304,176,63,1389807390.276998
3,76,0,27599,535,-633,1566,27880,13584,928,6816,27974,415,-13,96,1389807390.277008
2,77,0,50323,435,-583,-432,50295,11104,-336,-672,49276,305,173,70,1389807390.277275
3,77,0,29598,135,-850,1684,29757,14704,-1984,7952,27974,415,-13,96,1389807390.277281
2,78,0,51318,610,-576,-521,52174,10720,-1280,-944,51837,307,167,76,1389807390.294626
3,78,0,31597,-623,-982,1514,31633,14496,-3424,7600,30551,412,-2,103,1389807390.294641
2,79,0,53308,729,-596,-666,54054,10736,-2480,-688,51837,307,167,76,1389807390.306189
3,79,0,33597,-869,-795,1170,33510,13312,-3424,5584,33128,413,-243,107,1389807390.306198
2,80,0,55297,383,-691,-795,55933,11024,-3120,128,54400,307,162,81,1389807390.312328
3,80,0,35596,-480,-265,913,35387,12000,-2416,2912,33128,413,-243,107,1389807390.312578
2,81,0,57287,-367,-880,-980,57812,11200,-2832,624,56960,311,154,91,1389807390.324301
3,81,0,36596,-244,16,887,37263,10992,-1568,-16,35704,406,21,112,1389807390.324310
2,82,0,59276,-956,-1048,-1210,59691,11152,-1328,-320,59522,310,149,94,1389807390.336361
3,82,0,38595,264,421,849,39139,9792,-1424,-2384,38282,405,28,109,1389807390.336375
2,83,0,61266,-899,-1097,-1393,61569,10688,-672,-2272,59522,310,149,94,1389807390.336684
3,83,0,40595,835,557,581,41016,7936,-1632,-3824,40858,406,30,106,1389807390.342984
2,84,0,63255,-592,-974,-1511,63448,9744,-752,-4320,62083,318,140,101,1389807390.355233
3,84,0,42594,1421,397,157,42893,4784,-1568,-4192,40858,406,30,106,1389807390.355243
3,85,0,44594,1584,19,-81,44769,1904,-432,-3712,43433,402,22,110,1389807390.367299
2,86,0,1698,-521,-716,-1733,1670,8080,-560,-6176,1670,326,115,106,1389807390.367633
3,86,0,46593,1017,-189,303,46645,1616,1904,-2224,46011,404,24,108,1389807390.367644
2,87,0,2693,-676,-675,-1832,3549,7648,16,-6112,1670,326,115,106,1389807390.385939
3,87,0,48592,-206,-211,1239,48521,4000,5952,-560,48587,408,37,110,1389807390.385953
2,88,0,4682,-1089,-587,-2054,5427,7632,720,-5936,4232,326,101,112,1389807390.398332
3,88,0,50592,-1526,-392,1696,50397,7328,9200,-1024,48587,408,37,110,1389807390.398346
2,89,0,6672,-1580,-461,-2222,7305,8016,1344,-5872,6794,329,90,104,1389807390.398673
3,89,0,51591,-1939,-553,1583,52275,9712,9568,-3520,51164,403,53,111,1389807390.398683
2,90,0,8661,-2040,-274,-2248,9183,8640,1920,-5888,6794,329,90,104,1389807390.417090
3,90,0,53591,-2034,-826,852,54151,10688,6688,-5328,53740,394,61,115,1389807390.417105
2,91,0,10651,-2379,-31,-2146,11063,9504,2432,-5584,9355,337,78,104,1389807390.417431
3,91,0,55590,-1800,-862,72,56027,10752,2800,-4640,53740,394,61,115,1389807390.417442
2,92,0,12640,-2638,219,-1948,12942,10288,2832,-5232,11916,341,71,90,1389807390.435060
3,92,0,57590,-2028,-635,-266,57904,10288,352,-2448,56316,396,66,117,1389807390.435068
2,93,0,14630,-2928,425,-1738,14819,10608,3408,-5056,14478,350,61,80,1389807390.446686
3,93,0,59589,-2461,-288,-217,59780,9600,-176,160,58893,393,71,115,1389807390.446695
2,94,0,16619,-3215,514,-1591,16699,10656,3440,-4704,14478,350,61,80,1389807390.446990
3,94,0,61588,-2500,-95,-92,61658,8560,160,2800,61472,393,78,109,1389807390.447176
2,95,0,18609,-3494,458,-1583,18577,10576,2592,-4128,17041,352,60,67,1389807390.465115
3,95,0,63588,-2131,-87,-81,63535,7408,176,5120,61472,393,78,109,1389807390.465123
2,96,0,19604,-3661,407,-1634,20455,10224,1568,-3600,19603,352,46,55,1389807390.476812
3,96,0,51,-1694,-178,-53,65412,6368,-48,6752,64049,390,80,105,1389807390.476822
2,97,0,21593,-3942,339,-1823,22333,9696,1056,-3360,22164,361,39,40,1389807390.477050
3,97,0,1051,-1535,-228,7,1753,6304,208,7536,1090,390,90,104,1389807390.477057
2,98,0,23583,-3903,396,-1992,24212,8944,848,-3216,22164,361,39,40,1389807390.494685
3,98,0,3050,-1551,-347,215,3630,6960,2176,7040,3667,383,97,101,1389807390.494694
2,99,0,25572,-3621,550,-2035,26092,8512,736,-3072,24725,369,28,28,1389807390.506894
3,99,0,5050,-1906,-426,570,5507,7776,4608,5248,3667,383,97,101,1389807390.506904
2,100,0,27562,-3290,703,-1990,27971,8336,720,-2864,27286,369,15,15,1389807390.507171
3,100,0,7049,-2046,-363,912,7384,8480,6048,2656,6244,383,109,99,1389807390.507178
2,101,0,29551,-3003,799,-1907,29382,8416,688,-2576,29847,373,2,0,1389807390.524845
3,101,0,9048,-1642,-219,986,9262,8960,6240,752,8821,375,122,97,1389807390.524854
2,102,0,31540,-2840,834,-1796,31730,8752,688,-2272,29847,373,2,0,1389807390.536293
3,102,0,11048,-970,-125,665,11139,8800,5152,480,8821,375,122,97,1389807390.536308
2,103,0,33530,-2866,873,-1708,33609,9024,624,-2144,32408,375,245,-6,1389807390.536617
3,103,0,13047,-461,-70,198,13016,8384,3712,1120,11399,375,126,94,1389807390.542836
2,104,0,34525,-2971,887,-1669,35489,9040,704,-2080,34970,376,-23,-21,1389807390.555034
3,104,0,15047,-289,-57,-69,14892,8256,2464,1904,13976,380,124,93,1389807390.555043
2,105,0,36514,-3256,903,-1619,37367,8832,816,-2144,34970,376,-23,-21,1389807390.567331
3,105,0,16046,-315,-56,-141,16769,8448,1664,1856,16554,380,128,93,1389807390.567345
2,106,0,38504,-3464,881,-1594,39246,8720,736,-2272,37531,382,-37,-33,1389807390.567670
3,106,0,18046,-410,-90,-205,18646,8736,1072,1184,16554,380,128,93,1389807390.567681
2,107,0,40493,-3499,867,-1574,41125,8528,608,-2320,40094,387,-47,-41,1389807390.585730
3,107,0,20045,-443,-116,-171,20522,8976,112,592,19131,378,124,91,1389807390.585745
2,108,0,42483,-3340,853,-1562,43003,8464,528,-2304,42655,384,-59,-53,1389807390.597601
3,108,0,22045,-606,-154,-111,22400,9136,-800,224,21708,378,127,91,1389807390.597615
2,109,0,44472,-3124,862,-1554,44883,8336,592,-2032,42655,384,-59,-53,1389807390.597948
3,109,0,24044,-898,-202,-76,24278,9264,-1424,-192,24286,377,129,88,1389807390.597959
2,110,0,46462,-2946,874,-1526,46762,8176,592,-1568,45218,381,-75,-63,1389807390.616215
3,110,0,26043,-1171,-273,-87,26156,8992,-1760,-496,24286,377,129,88,1389807390.616230
2,111,0,48451,-2851,874,-1469,48641,7904,592,-1136,47779,389,-85,-70,1389807390.622291
3,111,0,28043,-1367,-341,-71,28034,8560,-1520,-576,26864,377,133,86,1389807390.622489
2,112,0,50441,-2773,859,-1366,50050,7696,496,-800,50340,384,-99,-77,1389807390.633982
3,112,0,30042,-1566,-388,26,29911,8160,-784,-528,29441,374,137,83,1389807390.633991
2,113,0,51435,-2716,840,-1302,51930,7456,288,-464,50340,384,-99,-77,1389807390.645421
3,113,0,31042,-1663,-408,98,31788,7920,208,-224,29441,374,137,83,1389807390.645430
2,114,0,53425,-2538,805,-1173,53808,7296,-64,-304,52901,384,-107,-82,1389807390.657677
3,114,0,33041,-1825,-396,215,33665,7616,1136,288,32018,378,142,81,1389807390.657686
2,115,0,55414,-2346,798,-1058,55687,7424,-256,-432,55463,384,-116,-85,1389807390.658085
3,115,0,35041,-1966,-349,214,35542,7520,2096,848,34595,375,146,80,1389807390.658094
2,116,0,57404,-2147,842,-954,57565,7600,-512,-800,55463,384,-116,-85,1389807390.676190
3,116,0,37040,-2081,-266,144,37418,7936,2688,1104,37172,371,152,72,1389807390.676198
2,117,0,59393,-1962,915,-871,59443,7824,-656,-1152,58025,385,-128,-93,1389807390.682471
3,117,0,39039,-1988,-233,71,39295,8320,2768,1520,37172,371,152,72,1389807390.682787
2,118,0,61383,-1859,1035,-771,61322,8016,-768,-1264,60586,381,-136,-101,1389807390.694649
3,118,0,41039,-1737,-223,-34,41172,8704,2272,2288,39750,369,157,66,1389807390.694658
2,119,0,63372,-1898,1138,-686,63200,8016,-640,-1360,63147,382,-141,-111,1389807390.706849
3,119,0,43038,-1465,-233,-136,43048,9008,1408,3008,42327,372,162,63,1389807390.706858
2,120,0,65362,-2099,1215,-578,65079,8016,-400,-1376,63147,382,-141,-111,1389807390.707092
3,120,0,45038,-1168,-258,-252,44925,9136,624,3424,44905,369,161,59,1389807390.707098
2,121,0,1815,-2356,1242,-472,1422,7840,-64,-1408,171,381,-144,-114,1389807390.725243
3,121,0,46037,-1026,-273,-291,46801,9040,64,3440,44905,369,161,59,1389807390.725253
2,122,0,2810,-2467,1239,-431,3300,7616,240,-1376,2733,375,-153,-128,1389807390.737409
3,122,0,48037,-845,-306,-346,48678,8624,-64,2960,47483,370,161,60,1389807390.737418
2,123,0,4800,-2638,1174,-329,5179,7296,368,-1232,5295,375,-156,-129,1389807390.737687
3,123,0,50036,-815,-333,-359,50556,8112,-112,2192,50059,371,158,56,1389807390.737693
2,124,0,6789,-2658,1087,-224,7058,7088,384,-944,5295,375,-156,-129,1389807390.756005
3,124,0,52035,-950,-318,-372,52433,7648,288,1168,50059,371,158,56,1389807390.756014
2,125,0,8779,-2511,1003,-113,8936,7008,368,-592,7857,375,-162,-139,1389807390.768096
3,125,0,54035,-1115,-282,-375,54310,7664,752,288,52635,371,160,58,1389807390.768106
2,126,0,10768,-2239,937,11,10814,7104,320,-80,10417,373,-162,-142,1389807390.768375
3,126,0,56034,-1222,-269,-335,56187,7776,1264,-448,55213,373,159,54,1389807390.768381
2,127,0,12758,-1919,895,109,12692,7328,256,352,12978,374,-159,-146,1389807390.786265
3,127,0,58034,-1226,-254,-326,58064,7856,1712,-592,57791,377,158,49,1389807390.786279
2,128,0,14747,-1677,897,171,14571,7440,304,704,12978,374,-159,-146,1389807390.792518
3,128,0,60033,-1194,-220,-311,59942,7856,2016,-416,57791,377,158,49,1389807390.792767
2,129,0,16737,-1533,919,214,16451,7568,384,912,15538,372,-163,-153,1389807390.804985
3,129,0,61033,-1171,-199,-311,61820,7952,2096,48,60368,376,157,49,1389807390.805000
2,130,0,18726,-1445,951,270,18330,7568,432,944,18099,372,-162,-160,1389807390.816565
3,130,0,63032,-1170,-207,-308,63698,8096,2176,320,62944,372,157,43,1389807390.816574
2,131,0,19721,-1411,961,311,20209,7536,528,896,18099,372,-162,-160,1389807390.816826
3,131,0,65031,-1224,-211,-290,39,8080,2016,480,65522,374,157,43,1389807390.822537
2,132,0,21710,-1369,979,405,22088,7328,688,896,20661,369,-159,-168,1389807390.834355
3,132,0,1495,-1251,-219,-293,1916,7936,1904,816,65522,374,157,43,1389807390.834365
2,133,0,23700,-1334,961,490,23967,6976,736,912,23222,370,-155,-173,1389807390.846336
3,133,0,3494,-1253,-208,-274,3794,7968,1712,1008,2562,377,160,42,1389807390.846350
2,134,0,25689,-1302,945,564,25846,6784,720,1008,25784,367,-156,-181,1389807390.846660
3,134,0,5494,-1243,-214,-232,5671,8112,1824,1104,5140,374,157,36,1389807390.852992
2,135,0,27679,-1249,919,637,27725,6624,688,1056,25784,367,-156,-181,1389807390.864973
3,135,0,7493,-1214,-236,-184,7549,8416,2048,1088,5140,374,157,36,1389807390.864988
2,136,0,29668,-1152,889,716,29604,6528,560,1088,28345,371,-149,-190,1389807390.877196
3,136,0,9492,-1122,-244,-144,9427,8576,2304,1168,7718,377,161,33,1389807390.877205
2,137,0,31658,-1025,854,778,31484,6576,464,1008,30907,366,-144,-195,1389807390.877472
3,137,0,10492,-1090,-251,-139,11303,8528,2512,1248,10296,379,163,29,1389807390.877478
2,138,0,33647,-902,805,845,33363,6560,256,880,33468,365,-138,-201,1389807390.895682
3,138,0,12492,-1104,-262,-130,13180,8512,2672,1168,12873,376,162,28,1389807390.895697
2,139,0,34642,-851,782,869,35242,6640,-16,656,33468,365,-138,-201,1389807390.908023
3,139,0,14491,-1189,-281,-125,15056,8496,2848,736,12873,376,162,28,1389807390.908032
2,140,0,36631,-806,735,942,37120,6560,-560,336,36030,365,-132,-206,1389807390.908255
3,140,0,16490,-1247,-274,-98,16932,8464,2832,272,15449,376,165,26,1389807390.908261
2,141,0,38621,-841,715,1037,39000,6512,-1104,48,38591,365,-127,-214,1389807390.926397
3,141,0,18490,-1249,-235,-67,18809,8496,2416,-176,18028,376,164,23,1389807390.926406
2,142,0,40610,-912,712,1084,40879,6480,-1360,-112,41152,361,-119,-219,1389807390.926650
3,142,0,20489,-1211,-200,-70,20686,8128,2320,-464,20605,373,165,22,1389807390.932873
2,143,0,42600,-910,728,1126,42758,6608,-1664,-16,41152,361,-119,-219,1389807390.944911
3,143,0,22489,-1135,-159,-54,22563,7760,2080,-768,20605,373,165,22,1389807390.944920
2,144,0,44589,-794,751,1169,44637,6976,-2160,112,43713,362,-112,-226,1389807390.956799
3,144,0,24488,-1123,-123,4,24439,7536,1984,-832,23183,376,168,20,1389807390.956808
2,145,0,46579,-672,768,1173,46515,7536,-2768,128,46275,362,-101,-231,1389807390.957058
3,145,0,25488,-1134,-100,32,26316,7488,1968,-560,25762,375,167,12,1389807390.957272
2,146,0,48568,-693,773,1143,48394,8368,-3584,-192,46275,362,-101,-231,1389807390.975515
3,146,0,27487,-1217,-91,102,28194,7904,2112,-160,25762,375,167,12,1389807390.975524
2,147,0,50558,-786,759,1081,50273,9664,-4112,-800,48835,360,-94,-236,1389807390.987646
3,147,0,29486,-1372,-111,176,30071,8272,2224,432,28339,375,174,6,1389807390.987655
2,148,0,51553,-747,761,1040,52152,11296,-4544,-1216,51396,359,-88,-244,1389807390.987895
3,148,0,31486,-1492,-162,235,31948,8528,2096,1088,30916,373,177,0,1389807390.987902
2,149,0,53542,-394,755,968,54031,12416,-4768,-1472,53957,355,-83,-252,1389807391.5892
3,149,0,33485,-1558,-198,209,33825,8336,1952,1712,33493,374,181,-2,1389807391.5902
2,150,0,55532,159,755,878,55910,12128,-5056,-1456,53957,355,-83,-252,1389807391.17847
3,150,0,35485,-1513,-216,223,35702,8112,1696,2032,33493,374,181,-2,1389807391.17862
2,151,0,57521,541,684,684,57790,10544,-5568,-1344,56518,352,-76,-258,1389807391.18189
3,151,0,37484,-1814,-211,213,37579,7968,3104,1600,36071,371,186,-7,1389807391.18200
2,152,0,59511,398,528,393,59669,8720,-5952,-1312,59079,352,-71,-265,1389807391.36380
3,152,0,39483,-1378,-115,-374,39456,7408,2496,2432,38649,369,184,-12,1389807391.36394
2,153,0,61500,-327,374,167,61548,8000,-5840,-1344,61641,355,-72,-266,1389807391.42502
3,153,0,40483,-1343,-147,28,41334,8000,2048,2256,41226,373,187,-20,1389807391.42664
2,154,0,63490,-1180,304,85,63428,8192,-5232,-1376,61641,355,-72,-266,1389807391.54699
3,154,0,42482,-1163,-137,256,43212,8048,2304,2128,41226,373,187,-20,1389807391.54708
2,155,0,65479,-1842,316,92,65308,9040,-4192,-1296,64203,351,-73,-270,1389807391.67082
3,155,0,44482,-973,-169,127,45089,8128,2032,2032,43802,368,189,-19,1389807391.67097
2,156,0,1933,-2195,343,0,1650,9648,-3264,-880,1229,349,-80,-275,1389807391.67426
3,156,0,46481,-900,-218,130,46966,8144,2096,1904,46381,369,191,-25,1389807391.67437
2,157,0,2927,-2249,356,-68,3530,9568,-2496,-96,3789,349,-90,-278,1389807391.85652
3,157,0,48481,-743,-271,114,48843,8256,1280,1360,46381,369,191,-25,1389807391.85666
2,158,0,4917,-2168,361,-197,5409,9520,-1520,1104,3789,349,-90,-278,1389807391.97508
3,158,0,50480,-758,-340,226,50719,8368,800,512,48958,365,194,-25,1389807391.97523
2,159,0,6906,-2026,348,-243,7287,9920,-752,1984,6350,345,-94,-280,1389807391.97844
3,159,0,52479,-775,-376,214,52596,8448,336,-240,51536,365,197,-29,1389807391.97914
2,160,0,8896,-2167,292,-125,9165,11072,-928,1792,8910,345,-102,-282,1389807391.116129
3,160,0,54479,-875,-405,293,54473,9504,128,-656,54113,365,199,-28,1389807391.116144
2,161,0,10885,-2504,179,279,11044,10864,-160,-1136,8910,345,-102,-282,1389807391.122134
3,161,0,55479,-986,-391,336,56350,11456,736,-160,54113,365,199,-28,1389807391.122398
2,162,0,12875,-2137,291,902,12922,9376,3424,-5792,11471,347,-107,-284,1389807391.134572
3,162,0,57478,-1314,-361,281,58226,12032,1408,240,56690,363,203,-31,1389807391.134587
2,163,0,14864,-532,470,1359,14801,9504,5168,-6240,14033,346,-99,-288,1389807391.145514
3,163,0,59477,-1434,-398,-102,60102,10976,656,-96,59269,360,204,-35,1389807391.145523
2,164,0,16854,-35,313,1180,16681,10992,3520,-1648,16595,339,-91,-291,1389807391.157119
3,164,0,61477,-1382,-400,-339,61979,10144,-544,-368,61847,359,204,-42,1389807391.157128
2,165,0,17849,-293,125,922,18560,11216,1504,2416,16595,339,-91,-291,1389807391.157367
3,165,0,63476,-1473,-250,-432,63855,10224,-304,-352,61847,359,204,-42,1389807391.157374
