TOTAL_TIME,0m38s
TOTAL_FRAMES,1955
SELECTED_FRAMES,1955
NO_OF_JOINTS,12
FREQUENCY,51.2
DESCRIPTION,Capture 13
TIME_STAMP,Nov 1, 2010

Time,Frame,Pelvis_accelX_Pelvis,Pelvis_accelY_Pelvis,Pelvis_accelZ_Pelvis,Pelvis_gyroX_Pelvis,Pelvis_gyroY_Pelvis,Pelvis_gyroZ_Pelvis,Pelvis_Joint angle_Pelvis,Pelvis_Relative pos X_Pelvis,Pelvis_Relative pos Y_Pelvis,Pelvis_Relative pos Z_Pelvis,RightPelvis_accelX_RightPelvis,RightPelvis_accelY_RightPelvis,RightPelvis_accelZ_RightPelvis,RightPelvis_gyroX_RightPelvis,RightPelvis_gyroY_RightPelvis,RightPelvis_gyroZ_RightPelvis,RightPelvis_Joint angle_RightPelvis,RightPelvis_Relative pos X_RightPelvis,RightPelvis_Relative pos Y_RightPelvis,RightPelvis_Relative pos Z_RightPelvis,RightUpLeg_accelX_RightUpLeg,RightUpLeg_accelY_RightUpLeg,RightUpLeg_accelZ_RightUpLeg,RightUpLeg_gyroX_RightUpLeg,RightUpLeg_gyroY_RightUpLeg,RightUpLeg_gyroZ_RightUpLeg,RightUpLeg_Joint angle_RightUpLeg,RightUpLeg_Relative pos X_RightUpLeg,RightUpLeg_Relative pos Y_RightUpLeg,RightUpLeg_Relative pos Z_RightUpLeg,RightLeg_accelX_RightLeg,RightLeg_accelY_RightLeg,RightLeg_accelZ_RightLeg,RightLeg_gyroX_RightLeg,RightLeg_gyroY_RightLeg,RightLeg_gyroZ_RightLeg,RightLeg_Joint angle_RightLeg,RightLeg_Relative pos X_RightLeg,RightLeg_Relative pos Y_RightLeg,RightLeg_Relative pos Z_RightLeg,RightFoot_accelX_RightFoot,RightFoot_accelY_RightFoot,RightFoot_accelZ_RightFoot,RightFoot_gyroX_RightFoot,RightFoot_gyroY_RightFoot,RightFoot_gyroZ_RightFoot,RightFoot_Joint angle_RightFoot,RightFoot_Relative pos X_RightFoot,RightFoot_Relative pos Y_RightFoot,RightFoot_Relative pos Z_RightFoot,RightFootEnd_accelX_RightFootEnd,RightFootEnd_accelY_RightFootEnd,RightFootEnd_accelZ_RightFootEnd,RightFootEnd_gyroX_RightFootEnd,RightFootEnd_gyroY_RightFootEnd,RightFootEnd_gyroZ_RightFootEnd,RightFootEnd_Joint angle_RightFootEnd,RightFootEnd_Relative pos X_RightFootEnd,RightFootEnd_Relative pos Y_RightFootEnd,RightFootEnd_Relative pos Z_RightFootEnd,LeftPelvis_accelX_LeftPelvis,LeftPelvis_accelY_LeftPelvis,LeftPelvis_accelZ_LeftPelvis,LeftPelvis_gyroX_LeftPelvis,LeftPelvis_gyroY_LeftPelvis,LeftPelvis_gyroZ_LeftPelvis,LeftPelvis_Joint angle_LeftPelvis,LeftPelvis_Relative pos X_LeftPelvis,LeftPelvis_Relative pos Y_LeftPelvis,LeftPelvis_Relative pos Z_LeftPelvis,LeftUpLeg_accelX_LeftUpLeg,LeftUpLeg_accelY_LeftUpLeg,LeftUpLeg_accelZ_LeftUpLeg,LeftUpLeg_gyroX_LeftUpLeg,LeftUpLeg_gyroY_LeftUpLeg,LeftUpLeg_gyroZ_LeftUpLeg,LeftUpLeg_Joint angle_LeftUpLeg,LeftUpLeg_Relative pos X_LeftUpLeg,LeftUpLeg_Relative pos Y_LeftUpLeg,LeftUpLeg_Relative pos Z_LeftUpLeg,LeftLeg_accelX_LeftLeg,LeftLeg_accelY_LeftLeg,LeftLeg_accelZ_LeftLeg,LeftLeg_gyroX_LeftLeg,LeftLeg_gyroY_LeftLeg,LeftLeg_gyroZ_LeftLeg,LeftLeg_Joint angle_LeftLeg,LeftLeg_Relative pos X_LeftLeg,LeftLeg_Relative pos Y_LeftLeg,LeftLeg_Relative pos Z_LeftLeg,LeftFoot_accelX_LeftFoot,LeftFoot_accelY_LeftFoot,LeftFoot_accelZ_LeftFoot,LeftFoot_gyroX_LeftFoot,LeftFoot_gyroY_LeftFoot,LeftFoot_gyroZ_LeftFoot,LeftFoot_Joint angle_LeftFoot,LeftFoot_Relative pos X_LeftFoot,LeftFoot_Relative pos Y_LeftFoot,LeftFoot_Relative pos Z_LeftFoot,LeftFootEnd_accelX_LeftFootEnd,LeftFootEnd_accelY_LeftFootEnd,LeftFootEnd_accelZ_LeftFootEnd,LeftFootEnd_gyroX_LeftFootEnd,LeftFootEnd_gyroY_LeftFootEnd,LeftFootEnd_gyroZ_LeftFootEnd,LeftFootEnd_Joint angle_LeftFootEnd,LeftFootEnd_Relative pos X_LeftFootEnd,LeftFootEnd_Relative pos Y_LeftFootEnd,LeftFootEnd_Relative pos Z_LeftFootEnd,Spine_accelX_Spine,Spine_accelY_Spine,Spine_accelZ_Spine,Spine_gyroX_Spine,Spine_gyroY_Spine,Spine_gyroZ_Spine,Spine_Joint angle_Spine,Spine_Relative pos X_Spine,Spine_Relative pos Y_Spine,Spine_Relative pos Z_Spine,
0.0,0,-0.049316406,0.75579834,0.42181396,0.0234375,0.19824219,0.12207031,0.0,0.0,0.0,0.0,0.0,0.0,0.0,0.0,0.0,0.0,0.0,0.14998543,-0.36124235,0.91926813,-0.9465332,-0.29907227,-0.08441162,-0.81152344,1.3896484,0.12402344,46.020103,3.1051645,-7.4788375,19.0317,0.9764404,0.08306885,-0.045776367,0.56152344,0.5419922,-0.028320312,29.316463,5.852651,-64.23638,23.549473,-0.5168457,-0.45489502,0.7558594,-0.27539062,-0.58691406,-0.2783203,29.864923,11.816605,-124.10207,63.096066,0.0,0.0,0.0,0.0,0.0,0.0,0.0,29.273756,-133.76057,64.29494,0.0,0.0,0.0,0.0,0.0,0.0,0.0,-0.14998543,0.36124235,-0.91926813,-0.97265625,0.041015625,-0.24407959,-1.5146484,-0.21191406,-0.10839844,51.12441,-3.1051645,7.4788375,-19.0317,0.965271,0.12664795,-0.17694092,1.3203125,-0.38867188,0.0546875,22.839003,6.870675,-48.58476,-21.738766,0.2991333,-0.21850586,0.871521,0.51953125,-0.50683594,1.2236328,50.95382,15.663891,-115.818665,2.488535,0.0,0.0,0.0,0.0,0.0,0.0,0.0,28.105713,-113.22659,-12.881432,0.0,0.0,0.0,0.0,0.0,0.0,0.0,28.864193,33.420654,8.423819,
0.0195312497089617,1,-0.049316406,0.75579834,0.42181396,0.0234375,0.19824219,0.12207031,0.0,0.0,0.0,0.0,0.0,0.0,0.0,0.0,0.0,0.0,0.0,0.14998543,-0.36124235,0.91926813,-0.9465332,-0.29907227,-0.08441162,-0.81152344,1.3896484,0.12402344,46.020103,3.1051645,-7.4788375,19.0317,0.9764404,0.08306885,-0.045776367,0.56152344,0.5419922,-0.028320312,29.316463,5.852651,-64.23638,23.549473,-0.5168457,-0.45489502,0.7558594,-0.27539062,-0.58691406,-0.2783203,29.864923,11.816605,-124.10207,63.096066,0.0,0.0,0.0,0.0,0.0,0.0,0.0,29.273756,-133.76057,64.29494,0.0,0.0,0.0,0.0,0.0,0.0,0.0,-0.14998543,0.36124235,-0.91926813,-0.97265625,0.041015625,-0.24407959,-1.5146484,-0.21191406,-0.10839844,51.12441,-3.1051645,7.4788375,-19.0317,0.965271,0.12664795,-0.17694092,1.3203125,-0.38867188,0.0546875,22.839003,6.870675,-48.58476,-21.738766,0.2991333,-0.21850586,0.871521,0.51953125,-0.50683594,1.2236328,50.95382,15.663891,-115.818665,2.488535,0.0,0.0,0.0,0.0,0.0,0.0,0.0,28.105713,-113.22659,-12.881432,0.0,0.0,0.0,0.0,0.0,0.0,0.0,28.864193,33.420654,8.423819,
0.0390624994179234,2,-0.049316406,0.75579834,0.42181396,0.0234375,0.19824219,0.12207031,0.0,0.0,0.0,0.0,0.0,0.0,0.0,0.0,0.0,0.0,0.0,0.14998543,-0.36124235,0.91926813,-0.9465332,-0.29907227,-0.08441162,-0.81152344,1.3896484,0.12402344,46.020103,3.1051645,-7.4788375,19.0317,0.9764404,0.08306885,-0.045776367,0.56152344,0.5419922,-0.028320312,29.316463,5.852651,-64.23638,23.549473,-0.5168457,-0.45489502,0.7558594,-0.27539062,-0.58691406,-0.2783203,29.864923,11.816605,-124.10207,63.096066,0.0,0.0,0.0,0.0,0.0,0.0,0.0,29.273756,-133.76057,64.29494,0.0,0.0,0.0,0.0,0.0,0.0,0.0,-0.14998543,0.36124235,-0.91926813,-0.97265625,0.041015625,-0.24407959,-1.5146484,-0.21191406,-0.10839844,51.12441,-3.1051645,7.4788375,-19.0317,0.965271,0.12664795,-0.17694092,1.3203125,-0.38867188,0.0546875,22.839003,6.870675,-48.58476,-21.738766,0.2991333,-0.21850586,0.871521,0.51953125,-0.50683594,1.2236328,50.95382,15.663891,-115.818665,2.488535,0.0,0.0,0.0,0.0,0.0,0.0,0.0,28.105713,-113.22659,-12.881432,0.0,0.0,0.0,0.0,0.0,0.0,0.0,28.864193,33.420654,8.423819,
0.0585937491268851,3,-0.06225586,0.82592773,0.4555664,-0.022460938,-0.0126953125,0.030273438,0.0,0.0,0.0,0.0,0.0,0.0,0.0,0.0,0.0,0.0,0.0,0.3958131,0.03317411,-0.9178458,-0.9786377,0.064208984,0.1048584,0.052734375,1.1757812,0.65625,6.3107476,8.194558,0.6868069,-19.002254,1.0011597,-0.14801025,-0.12860107,-0.032226562,-0.001953125,0.016601562,3.0159712,4.7537713,-56.19904,-17.650883,-0.4880371,-0.35253906,0.78912354,-0.03125,0.09667969,-0.001953125,4.3712115,3.2505648,-128.1809,-16.175915,0.0,0.0,0.0,0.0,0.0,0.0,0.0,-15.115974,-127.4243,-24.03003,0.0,0.0,0.0,0.0,0.0,0.0,0.0,-0.3958131,-0.03317411,0.9178458,-0.91290283,3.6621094E-4,-0.39086914,0.07324219,0.072265625,-0.0048828125,1.022973,-8.194558,-0.6868069,19.002254,1.0150146,-0.079589844,-0.13806152,-0.0390625,0.05859375,0.046875,4.323909,-6.777177,-57.660984,17.580696,0.43707275,-0.31396484,0.85632324,-0.068359375,0.6513672,1.1337891,7.9666634,-11.200474,-129.46692,14.149349,0.0,0.0,0.0,0.0,0.0,0.0,0.0,-29.735762,-130.05492,6.6506953,0.0,0.0,0.0,0.0,0.0,0.0,0.0,-1.8639132,44.9586,0.82116216,
0.0781249988358468,4,-0.057495117,0.83062744,0.4345703,0.015625,-0.033203125,0.029296875,0.0,0.0,0.0,0.0,0.0,0.0,0.0,0.0,0.0,0.0,0.0,0.39447147,0.03238204,-0.9184879,-0.9782715,0.043823242,0.04083252,0.034179688,0.81640625,0.46191406,5.046555,8.166784,0.6704086,-19.015545,0.98760986,-0.16217041,-0.11956787,-0.051757812,0.017578125,0.016601562,2.1882958,5.7132316,-56.28524,-18.49928,-0.48614502,-0.36047363,0.7832031,-0.01171875,-0.0126953125,-0.018554688,4.375601,4.175462,-128.2692,-17.04537,0.0,0.0,0.0,0.0,0.0,0.0,0.0,-14.197223,-127.51108,-24.885061,0.0,0.0,0.0,0.0,0.0,0.0,0.0,-0.39447147,-0.03238204,0.9184879,-0.9326172,0.027709961,-0.4142456,0.03515625,0.034179688,-0.00390625,1.0307859,-8.166784,-0.6704086,19.015545,1.0183716,-0.062683105,-0.12243652,-0.01953125,0.021484375,0.046875,4.3290243,-6.764265,-57.64153,17.569359,0.42993164,-0.29205322,0.87994385,-0.06933594,0.5566406,0.98339844,8.2447405,-11.233115,-129.44473,14.1807575,0.0,0.0,0.0,0.0,0.0,0.0,0.0,-29.678799,-129.79875,6.4502,0.0,0.0,0.0,0.0,0.0,0.0,0.0,-1.8388741,44.961597,0.79539967,
0.09765624854480849,5,-0.04559326,0.84417725,0.42645264,-0.00390625,-0.032226562,0.029296875,0.0,0.0,0.0,0.0,0.0,0.0,0.0,0.0,0.0,0.0,0.0,0.3924026,0.031161554,-0.91936064,-1.003418,0.025390625,6.1035156E-4,0.034179688,0.28808594,0.11230469,4.276267,8.12395,0.6451408,-19.033615,1.0018921,-0.15783691,-0.122680664,0.005859375,0.016601562,0.017578125,1.876593,6.2858787,-56.326828,-18.919458,-0.4862671,-0.36553955,0.8128662,-0.01171875,0.024414062,0.0,4.3210545,4.706398,-128.31134,-17.464365,0.0,0.0,0.0,0.0,0.0,0.0,0.0,-13.671762,-127.54947,-25.289068,0.0,0.0,0.0,0.0,0.0,0.0,0.0,-0.3924026,-0.031161554,0.91936064,-0.9090576,-0.010070801,-0.40667725,-0.041992188,-0.021484375,0.017578125,1.0402344,-8.12395,-0.6451408,19.033615,1.020874,-0.03375244,-0.105895996,-0.07714844,0.041015625,0.028320312,4.3083897,-6.740963,-57.62044,17.556065,0.43811035,-0.32476807,0.8356323,-0.08886719,0.40722656,0.6816406,8.502998,-11.240615,-129.4178,14.258873,0.0,0.0,0.0,0.0,0.0,0.0,0.0,-29.613617,-129.59695,6.3518467,0.0,0.0,0.0,0.0,0.0,0.0,0.0,-1.7984064,44.961624,0.7563679,
0.11718749825377019,6,-0.06237793,0.84375,0.45178223,-0.0234375,-0.032226562,0.01171875,0.0,0.0,0.0,0.0,0.0,0.0,0.0,0.0,0.0,0.0,0.0,0.39080656,0.030965135,-0.92001057,-1.0004883,0.058654785,0.04699707,-0.041015625,0.041992188,-0.00390625,4.0692415,8.090908,0.6410743,-19.047073,0.9916382,-0.16333008,-0.12359619,-0.07128906,0.017578125,-0.0029296875,1.6764308,6.456079,-56.344276,-18.881783,-0.49176025,-0.3357544,0.8029175,0.026367188,0.0048828125,0.01953125,4.2709966,4.8469996,-128.32512,-17.440023,0.0,0.0,0.0,0.0,0.0,0.0,0.0,-13.532417,-127.55361,-25.259209,0.0,0.0,0.0,0.0,0.0,0.0,0.0,-0.39080656,-0.030965135,0.92001057,-0.92004395,-0.0073242188,-0.35064697,0.07324219,0.013671875,-0.0048828125,1.0351429,-8.090908,-0.6410743,19.047073,1.0302734,-0.073791504,-0.12158203,-0.11621094,0.059570312,0.06640625,4.247961,-6.7668753,-57.618996,17.644228,0.42590332,-0.2977295,0.852417,-0.07128906,0.23828125,0.26757812,8.715846,-11.252538,-129.41989,14.400371,0.0,0.0,0.0,0.0,0.0,0.0,0.0,-29.605412,-129.5219,6.4457283,0.0,0.0,0.0,0.0,0.0,0.0,0.0,-1.7789606,44.960873,0.75758904,
0.1367187479627319,7,-0.038085938,0.8421631,0.45806885,-0.0234375,-0.032226562,0.030273438,0.0,0.0,0.0,0.0,0.0,0.0,0.0,0.0,0.0,0.0,0.0,0.38984808,0.03050407,-0.92050546,-0.98461914,0.062561035,0.09088135,0.052734375,-0.015625,0.013671875,4.083318,8.071063,0.6315288,-19.057318,0.9968262,-0.1586914,-0.11364746,-0.051757812,0.017578125,0.016601562,1.618583,6.419089,-56.353367,-18.82999,-0.479187,-0.36279297,0.8109131,0.0068359375,0.005859375,0.018554688,4.2590113,4.793799,-128.33125,-17.413786,0.0,0.0,0.0,0.0,0.0,0.0,0.0,-13.586981,-127.5518,-25.228676,0.0,0.0,0.0,0.0,0.0,0.0,0.0,-0.38984808,-0.03050407,0.92050546,-0.91638184,0.043151855,-0.37774658,0.09277344,0.07128906,-0.0048828125,1.0366541,-8.071063,-0.6315288,19.057318,1.0199585,-0.089660645,-0.13903809,-0.07714844,0.041015625,0.06640625,4.2357254,-6.7764482,-57.610825,17.702887,0.4165039,-0.31762695,0.86328125,-0.07421875,0.0107421875,0.060546875,8.8304405,-11.285282,-129.4173,14.526903,0.0,0.0,0.0,0.0,0.0,0.0,0.0,-29.656029,-129.53203,6.617473,0.0,0.0,0.0,0.0,0.0,0.0,0.0,-1.7674037,44.964622,0.7415329,
0.1562499976716936,8,-0.044189453,0.833374,0.45117188,-0.0234375,-0.03125,0.047851562,0.0,0.0,0.0,0.0,0.0,0.0,0.0,0.0,0.0,0.0,0.0,0.3872247,0.029297275,-0.92163515,-0.96917725,0.04547119,0.049804688,0.052734375,0.00390625,0.0146484375,4.010392,8.016751,0.60654444,-19.080706,0.98376465,-0.15618896,-0.11450195,0.0048828125,-0.041015625,0.018554688,1.5437032,6.390106,-56.37636,-18.82413,-0.4937744,-0.33563232,0.7949829,-0.01171875,0.005859375,0.0,4.2512794,4.766214,-128.35876,-17.473148,0.0,0.0,0.0,0.0,0.0,0.0,0.0,-13.617229,-127.565704,-25.283833,0.0,0.0,0.0,0.0,0.0,0.0,0.0,-0.3872247,-0.029297275,0.92163515,-0.90148926,0.026184082,-0.41522217,0.015625,0.015625,0.016601562,1.0609095,-8.016751,-0.60654444,19.080706,1.0082397,-0.10144043,-0.11505127,-0.057617188,0.021484375,0.028320312,4.2377596,-6.749777,-57.582954,17.689238,0.42578125,-0.30194092,0.8731079,-0.0546875,0.0107421875,0.041992188,8.873141,-11.314796,-129.39195,14.5419235,0.0,0.0,0.0,0.0,0.0,0.0,0.0,-29.703943,-129.52708,6.6737356,0.0,0.0,0.0,0.0,0.0,0.0,0.0,-1.7326975,44.96595,0.7014018,
0.1757812473806553,9,-0.029174805,0.82891846,0.43981934,0.03515625,-0.051757812,0.06542969,0.0,0.0,0.0,0.0,0.0,0.0,0.0,0.0,0.0,0.0,0.0,0.38448855,0.0281479,-0.9228601,-1.0048218,0.011291504,0.03125,-0.00390625,0.060546875,0.034179688,3.840175,7.9601073,0.5827488,-19.106064,1.0070801,-0.15411377,-0.12866211,0.043945312,0.03515625,0.018554688,1.3998364,6.4561396,-56.40585,-18.788431,-0.48797607,-0.3458252,0.8197632,-0.01171875,0.005859375,-0.038085938,4.192972,4.8212194,-128.39021,-17.453815,0.0,0.0,0.0,0.0,0.0,0.0,0.0,-13.562917,-127.58867,-25.260397,0.0,0.0,0.0,0.0,0.0,0.0,0.0,-0.38448855,-0.0281479,0.9228601,-0.91241455,0.03643799,-0.38568115,-0.041992188,-0.080078125,-0.00390625,1.0866054,-7.9601073,-0.5827488,19.106064,1.0162354,-0.081604004,-0.12420654,-0.07714844,0.041015625,0.028320312,4.184696,-6.7413654,-57.55929,17.682013,0.41363525,-0.28961182,0.86328125,-0.0546875,0.0107421875,0.022460938,8.874736,-11.314957,-129.36954,14.562254,0.0,0.0,0.0,0.0,0.0,0.0,0.0,-29.713142,-129.52469,6.7161183,0.0,0.0,0.0,0.0,0.0,0.0,0.0,-1.6846237,44.9701,0.6697606,
0.19531249708961698,10,-0.03326416,0.82702637,0.43792725,0.015625,-0.052734375,0.0107421875,0.0,0.0,0.0,0.0,0.0,0.0,0.0,0.0,0.0,0.0,0.0,0.3820491,0.02706189,-0.92388254,-1.013794,0.026062012,0.028503418,-0.041015625,0.041992188,-0.00390625,3.6995173,7.9096,0.560265,-19.127234,1.013855,-0.16418457,-0.13775635,-0.0703125,0.055664062,-0.00390625,1.2505442,6.5436826,-56.430862,-18.728765,-0.4749756,-0.35394287,0.7920532,-0.01171875,0.005859375,0.0,4.1767797,4.897085,-128.419,-17.38065,0.0,0.0,0.0,0.0,0.0,0.0,0.0,-13.491346,-127.611565,-25.176449,0.0,0.0,0.0,0.0,0.0,0.0,0.0,-0.3820491,-0.02706189,0.92388254,-0.89904785,-0.014526367,-0.350708,-0.00390625,-0.0234375,-0.00390625,1.0869654,-7.9096,-0.560265,19.127234,1.0283203,-0.0657959,-0.12164307,-0.11621094,0.041015625,0.047851562,4.1557207,-6.7124357,-57.53999,17.763355,0.43011475,-0.27789307,0.8602905,-0.0546875,0.0107421875,0.060546875,8.991452,-11.263695,-129.35245,14.666939,0.0,0.0,0.0,0.0,0.0,0.0,0.0,-29.666462,-129.52887,6.830997,0.0,0.0,0.0,0.0,0.0,0.0,0.0,-1.6703696,44.970318,0.62650657,
0.21484374679857868,11,-0.04522705,0.84436035,0.45428467,-0.022460938,-0.0126953125,0.048828125,0.0,0.0,0.0,0.0,0.0,0.0,0.0,0.0,0.0,0.0,0.0,0.37962043,0.026494244,-0.9248254,-0.98272705,0.043151855,0.085632324,0.015625,0.00390625,-0.0048828125,3.6510358,7.8593183,0.548513,-19.146753,0.97680664,-0.15197754,-0.11047363,-0.0703125,0.037109375,-0.00390625,1.1925538,6.533929,-56.440258,-18.70658,-0.50982666,-0.33514404,0.7890625,-0.01171875,-0.01171875,0.018554688,4.031529,4.8951473,-128.43073,-17.365414,0.0,0.0,0.0,0.0,0.0,0.0,0.0,-13.486261,-127.61813,-25.175505,0.0,0.0,0.0,0.0,0.0,0.0,0.0,-0.37962043,-0.026494244,0.9248254,-0.9180298,-0.008178711,-0.39678955,0.111328125,0.032226562,-0.0048828125,1.0656943,-7.8593183,-0.548513,19.146753,1.0436401,-0.11791992,-0.13739014,-0.09765625,0.115234375,0.046875,4.1989927,-6.660101,-57.52916,17.815544,0.4216919,-0.3137207,0.8613281,-0.0546875,0.0107421875,0.00390625,9.115269,-11.255497,-129.32751,14.727001,0.0,0.0,0.0,0.0,0.0,0.0,0.0,-29.676096,-129.52243,6.933681,0.0,0.0,0.0,0.0,0.0,0.0,0.0,-1.6569027,44.967976,0.60811305,
0.23437499650754037,12,-0.06652832,0.8647461,0.4510498,0.017578125,0.005859375,0.047851562,0.0,0.0,0.0,0.0,0.0,0.0,0.0,0.0,0.0,0.0,0.0,0.37671342,0.025978524,-0.92607164,-0.972229,0.048461914,0.047851562,0.052734375,0.00390625,0.0146484375,3.613734,7.7991347,0.53783596,-19.172554,0.989563,-0.16522217,-0.1105957,0.024414062,0.015625,0.018554688,1.1289991,6.4726954,-56.452557,-18.675701,-0.46594238,-0.35327148,0.7969971,-0.01171875,-0.01171875,0.0,3.9553242,4.8165045,-128.43791,-17.35534,0.0,0.0,0.0,0.0,0.0,0.0,0.0,-13.564202,-127.62201,-25.167747,0.0,0.0,0.0,0.0,0.0,0.0,0.0,-0.37671342,-0.025978524,0.92607164,-0.9442749,0.05609131,-0.40515137,0.015625,-0.0234375,0.016601562,1.0507159,-7.7991347,-0.53783596,19.172554,0.99664307,-0.06933594,-0.111083984,-0.0390625,0.05859375,0.0087890625,4.208497,-6.61304,-57.51707,17.798513,0.43395996,-0.3317871,0.84552,-0.036132812,-0.0087890625,0.041015625,9.103793,-11.258072,-129.32036,14.742626,0.0,0.0,0.0,0.0,0.0,0.0,0.0,-29.692524,-129.52397,6.9842854,0.0,0.0,0.0,0.0,0.0,0.0,0.0,-1.609085,44.971554,0.6070057,
0.2539062462165021,13,-0.04321289,0.8323364,0.44714355,0.033203125,-0.109375,0.064453125,0.0,0.0,0.0,0.0,0.0,0.0,0.0,0.0,0.0,0.0,0.0,0.37610552,0.025901217,-0.92636317,-0.9883423,0.035461426,0.026733398,0.015625,0.041992188,0.0146484375,3.5547361,7.7865496,0.53623545,-19.178587,1.0026855,-0.13146973,-0.10961914,0.04296875,-0.0029296875,0.0,1.0557323,6.5401726,-56.455074,-18.65125,-0.47857666,-0.3302002,0.79296875,-0.03125,-0.030273438,-0.018554688,3.917167,4.8770733,-128.44418,-17.322193,0.0,0.0,0.0,0.0,0.0,0.0,0.0,-13.505508,-127.619774,-25.132519,0.0,0.0,0.0,0.0,0.0,0.0,0.0,-0.37610552,-0.025901217,0.92636317,-0.92974854,0.019104004,-0.3838501,-0.041992188,-0.041015625,-0.0234375,1.1002067,-7.7865496,-0.53623545,19.178587,1.0111694,-0.0725708,-0.1350708,-0.07714844,0.041015625,0.028320312,4.2001123,-6.6354494,-57.518555,17.787306,0.41137695,-0.32043457,0.8554077,-0.0546875,0.029296875,0.041992188,9.063451,-11.323616,-129.31772,14.754448,0.0,0.0,0.0,0.0,0.0,0.0,0.0,-29.780037,-129.53256,7.0479565,0.0,0.0,0.0,0.0,0.0,0.0,0.0,-1.615526,44.97316,0.60154736,
0.2734374959254638,14,-0.03765869,0.84191895,0.4142456,-0.0234375,-0.051757812,0.01171875,0.0,0.0,0.0,0.0,0.0,0.0,0.0,0.0,0.0,0.0,0.0,0.37338355,0.024519043,-0.9274911,-1.0159302,0.010559082,0.023254395,-0.022460938,0.060546875,-0.0234375,3.4173584,7.7301965,0.5076202,-19.20194,1.0023804,-0.13922119,-0.12658691,-0.051757812,0.017578125,0.016601562,0.92725134,6.612898,-56.482655,-18.589087,-0.47174072,-0.33740234,0.80981445,-0.01171875,0.005859375,-0.018554688,3.915567,4.9284577,-128.46347,-17.217625,0.0,0.0,0.0,0.0,0.0,0.0,0.0,-13.459345,-127.630844,-25.013382,0.0,0.0,0.0,0.0,0.0,0.0,0.0,-0.37338355,-0.024519043,0.9274911,-0.90893555,-0.0018310547,-0.34368896,0.015625,-0.0234375,-0.024414062,1.1450047,-7.7301965,-0.5076202,19.20194,1.0125732,-0.055603027,-0.11743164,-0.13574219,0.060546875,0.047851562,4.130242,-6.641444,-57.492027,17.85667,0.42999268,-0.29595947,0.86517334,-0.0546875,0.0107421875,0.041992188,9.03231,-11.315895,-129.29135,14.871479,0.0,0.0,0.0,0.0,0.0,0.0,0.0,-29.789677,-129.51605,7.203576,0.0,0.0,0.0,0.0,0.0,0.0,0.0,-1.5961967,44.974133,0.54634404,
0.2929687456344255,15,-0.032409668,0.83288574,0.42596436,-0.0234375,-0.03125,0.047851562,0.0,0.0,0.0,0.0,0.0,0.0,0.0,0.0,0.0,0.0,0.0,0.37122405,0.023589082,-0.92840225,-1.001831,0.04559326,0.07269287,-0.00390625,0.041015625,0.0146484375,3.305353,7.685488,0.4883671,-19.220804,1.0057983,-0.16394043,-0.114746094,-0.08886719,0.055664062,0.0146484375,0.828271,6.6678195,-56.503998,-18.554604,-0.50457764,-0.3206787,0.81378174,0.0068359375,-0.0126953125,-0.018554688,3.824847,4.966574,-128.49127,-17.17473,0.0,0.0,0.0,0.0,0.0,0.0,0.0,-13.423269,-127.65401,-24.96387,0.0,0.0,0.0,0.0,0.0,0.0,0.0,-0.37122405,-0.023589082,0.92840225,-0.91412354,-0.013366699,-0.3880005,0.12988281,0.03125,0.0146484375,1.1182014,-7.685488,-0.4883671,19.220804,1.0079346,-0.097473145,-0.13879395,-0.09667969,0.059570312,0.047851562,4.1618896,-6.5854907,-57.47444,17.911627,0.4319458,-0.32177734,0.84747314,-0.0546875,0.0107421875,0.00390625,9.168555,-11.291742,-129.28136,14.9939575,0.0,0.0,0.0,0.0,0.0,0.0,0.0,-29.77458,-129.51672,7.3519745,0.0,0.0,0.0,0.0,0.0,0.0,0.0,-1.5757146,44.97611,0.512711,
0.3124999953433872,16,-0.03741455,0.83703613,0.43310547,0.034179688,-0.07128906,0.028320312,0.0,0.0,0.0,0.0,0.0,0.0,0.0,0.0,0.0,0.0,0.0,0.36983976,0.022766788,-0.92889047,-0.977478,0.07122803,0.09106445,0.052734375,-0.053710938,0.013671875,3.3314302,7.656829,0.47134313,-19.230913,0.96917725,-0.16723633,-0.13934326,-0.0703125,0.017578125,0.015625,0.8091504,6.592332,-56.52069,-18.52598,-0.49597168,-0.34832764,0.7871094,0.0068359375,-0.0126953125,0.0,3.752646,4.893605,-128.50569,-17.16218,0.0,0.0,0.0,0.0,0.0,0.0,0.0,-13.4955435,-127.66681,-24.954384,0.0,0.0,0.0,0.0,0.0,0.0,0.0,-0.36983976,-0.022766788,0.92889047,-0.92852783,0.034118652,-0.3984375,0.091796875,0.051757812,0.015625,1.1265699,-7.656829,-0.47134313,19.230913,1.0431519,-0.079956055,-0.12182617,0.0,0.057617188,0.046875,4.2077055,-6.5287433,-57.454185,17.891575,0.4440918,-0.32525635,0.875,-0.0546875,0.0107421875,0.022460938,9.232568,-11.263264,-129.25319,14.961364,0.0,0.0,0.0,0.0,0.0,0.0,0.0,-29.751076,-129.50671,7.3331056,0.0,0.0,0.0,0.0,0.0,0.0,0.0,-1.5615249,44.97342,0.4805587,
0.3320312450523489,17,-0.05670166,0.8534546,0.42980957,0.03515625,-0.052734375,0.046875,0.0,0.0,0.0,0.0,0.0,0.0,0.0,0.0,0.0,0.0,0.0,0.3676651,0.021464027,-0.92982846,-0.9794922,0.02331543,0.047424316,0.034179688,0.00390625,-0.0048828125,3.2519698,7.6118083,0.4443719,-19.250332,0.98535156,-0.13568115,-0.11242676,-0.032226562,0.036132812,0.016601562,0.74703425,6.5852623,-56.547493,-18.507185,-0.4958496,-0.33953857,0.80096436,-0.01171875,-0.0126953125,-0.037109375,3.6619065,4.8724217,-128.53189,-17.148014,0.0,0.0,0.0,0.0,0.0,0.0,0.0,-13.513805,-127.688675,-24.942318,0.0,0.0,0.0,0.0,0.0,0.0,0.0,-0.3676651,-0.021464027,0.92982846,-0.9212036,0.05419922,-0.38458252,-0.022460938,-0.041992188,-0.00390625,1.1721972,-7.6118083,-0.4443719,19.250332,1.0122681,-0.06561279,-0.13214111,-0.07714844,0.059570312,0.046875,4.160619,-6.504005,-57.42579,17.884607,0.4257202,-0.31781006,0.8612671,-0.016601562,-0.009765625,0.022460938,9.153969,-11.220637,-129.23471,15.001508,0.0,0.0,0.0,0.0,0.0,0.0,0.0,-29.718102,-129.49893,7.39573,0.0,0.0,0.0,0.0,0.0,0.0,0.0,-1.5311697,44.9768,0.43279544,
0.3515624947613106,18,-0.050354004,0.83947754,0.44744873,0.07324219,-0.072265625,0.02734375,0.0,0.0,0.0,0.0,0.0,0.0,0.0,0.0,0.0,0.0,0.0,0.36641312,0.02075814,-0.93032545,-0.9996338,0.027770996,0.029541016,0.052734375,0.041992188,-0.0048828125,3.150327,7.5858874,0.42975786,-19.26062,1.0064697,-0.1404419,-0.119628906,-0.05078125,0.036132812,0.03515625,0.6827098,6.6611013,-56.563744,-18.49909,-0.47802734,-0.35577393,0.7871094,0.0078125,-0.048828125,0.01953125,3.6128128,4.911972,-128.54214,-17.120502,0.0,0.0,0.0,0.0,0.0,0.0,0.0,-13.474575,-127.693306,-24.913813,0.0,0.0,0.0,0.0,0.0,0.0,0.0,-0.36641312,-0.02075814,0.93032545,-0.895813,0.001953125,-0.3475952,-0.00390625,-0.04296875,0.016601562,1.2000781,-7.5858874,-0.42975786,19.26062,1.0202637,-0.07165527,-0.12438965,-0.09667969,0.041015625,0.06640625,4.118656,-6.509399,-57.412872,17.930809,0.42877197,-0.33172607,0.8514404,-0.016601562,0.029296875,0.022460938,9.077986,-11.2087,-129.21979,15.079054,0.0,0.0,0.0,0.0,0.0,0.0,0.0,-29.722502,-129.48868,7.5124865,0.0,0.0,0.0,0.0,0.0,0.0,0.0,-1.5324442,44.976513,0.3999902,
0.37109374447027227,19,-0.039855957,0.83636475,0.4749756,-0.00390625,-0.052734375,-0.0068359375,0.0,0.0,0.0,0.0,0.0,0.0,0.0,0.0,0.0,0.0,0.0,0.3659392,0.021000005,-0.93046254,-1.013794,0.03942871,0.04168701,0.034179688,0.00390625,-0.0234375,3.1017299,7.5760756,0.43476522,-19.263458,1.0100708,-0.15423584,-0.13171387,-0.14550781,0.056640625,0.013671875,0.6214961,6.7493796,-56.561005,-18.440065,-0.49188232,-0.34362793,0.7969971,0.0068359375,-0.0126953125,-0.018554688,3.611783,5.045532,-128.5422,-17.037573,0.0,0.0,0.0,0.0,0.0,0.0,0.0,-13.3445015,-127.68416,-24.821945,0.0,0.0,0.0,0.0,0.0,0.0,0.0,-0.3659392,-0.021000005,0.93046254,-0.89904785,-0.01373291,-0.3850708,0.12988281,0.01171875,0.0146484375,1.1688536,-7.5760756,-0.43476522,19.263458,1.0198364,-0.06365967,-0.093811035,-0.13574219,0.041992188,0.047851562,4.121793,-6.493971,-57.421528,17.973671,0.4378662,-0.3460083,0.8632202,-0.016601562,0.009765625,0.022460938,9.170826,-11.188061,-129.23259,15.161051,0.0,0.0,0.0,0.0,0.0,0.0,0.0,-29.712101,-129.51035,7.619784,0.0,0.0,0.0,0.0,0.0,0.0,0.0,-1.5409969,44.974293,0.40898937,
0.39062499417923396,20,-0.08520508,0.8535156,0.48327637,-0.06347656,-0.06933594,0.048828125,0.0,0.0,0.0,0.0,0.0,0.0,0.0,0.0,0.0,0.0,0.0,0.3656066,0.021602768,-0.93062735,-0.9970093,0.048950195,0.10064697,0.109375,-0.034179688,-0.0048828125,3.1423628,7.56919,0.44724426,-19.26687,0.97698975,-0.14215088,-0.12835693,-0.10839844,-9.765625E-4,0.0146484375,0.5898349,6.7279444,-56.548542,-18.392967,-0.48779297,-0.33685303,0.80389404,0.0068359375,0.005859375,0.0,3.535738,5.036806,-128.53151,-16.981607,0.0,0.0,0.0,0.0,0.0,0.0,0.0,-13.359953,-127.662964,-24.753935,0.0,0.0,0.0,0.0,0.0,0.0,0.0,-0.3656066,-0.021602768,0.93062735,-0.9006958,0.012145996,-0.40063477,0.07324219,0.033203125,0.015625,1.1168005,-7.56919,-0.44724426,19.26687,1.0231323,-0.0836792,-0.12927246,-0.078125,0.059570312,0.028320312,4.1500144,-6.47998,-57.43275,17.984869,0.42175293,-0.30963135,0.8494873,-0.0546875,0.0107421875,0.022460938,9.2946205,-11.199104,-129.24597,15.170312,0.0,0.0,0.0,0.0,0.0,0.0,0.0,-29.722786,-129.54312,7.626493,0.0,0.0,0.0,0.0,0.0,0.0,0.0,-1.528074,44.97641,0.4437233,
0.41015624388819566,21,-0.06518555,0.862854,0.47387695,-0.0048828125,-0.08984375,0.047851562,0.0,0.0,0.0,0.0,0.0,0.0,0.0,0.0,0.0,0.0,0.0,0.36339325,0.021700667,-0.93152946,-0.96606445,0.058044434,0.052001953,0.09082031,-0.0146484375,-0.024414062,3.1708295,7.523367,0.4492711,-19.285547,0.99468994,-0.16143799,-0.13354492,-0.08886719,0.017578125,0.015625,0.55249286,6.6759224,-56.54097,-18.40938,-0.4802246,-0.36364746,0.8010254,0.0068359375,-0.0126953125,-0.037109375,3.4164417,4.975431,-128.51947,-17.044312,0.0,0.0,0.0,0.0,0.0,0.0,0.0,-13.416697,-127.64898,-24.82586,0.0,0.0,0.0,0.0,0.0,0.0,0.0,-0.36339325,-0.021700667,0.93152946,-0.93151855,0.0368042,-0.3847046,0.07324219,0.013671875,0.015625,1.1889384,-7.523367,-0.4492711,19.285547,0.98760986,-0.088134766,-0.103881836,-0.09765625,0.059570312,0.009765625,4.1466627,-6.4676285,-57.436443,17.959547,0.4338379,-0.33392334,0.8612671,-0.055664062,-0.0087890625,0.022460938,9.38898,-11.24274,-129.24486,15.183089,0.0,0.0,0.0,0.0,0.0,0.0,0.0,-29.773453,-129.53355,7.659408,0.0,0.0,0.0,0.0,0.0,0.0,0.0,-1.5470288,44.977345,0.44427854,
0.42968749359715736,22,-0.052246094,0.85150146,0.45654297,0.03125,-0.18652344,0.02734375,0.0,0.0,0.0,0.0,0.0,0.0,0.0,0.0,0.0,0.0,0.0,0.36038148,0.021275433,-0.9326989,-1.0054321,0.05029297,0.023986816,0.052734375,0.00390625,0.0146484375,3.1264358,7.4610143,0.4404674,-19.30976,1.0001221,-0.15100098,-0.10369873,-0.0126953125,0.016601562,0.036132812,0.51624125,6.6800265,-56.55164,-18.432636,-0.49005127,-0.35253906,0.7999878,0.0068359375,-0.0126953125,0.0,3.356955,4.96536,-128.53798,-17.077637,0.0,0.0,0.0,0.0,0.0,0.0,0.0,-13.424166,-127.65922,-24.861038,0.0,0.0,0.0,0.0,0.0,0.0,0.0,-0.36038148,-0.021275433,0.9326989,-0.8977051,0.008850098,-0.38787842,-0.00390625,-0.0625,-0.024414062,1.2566321,-7.4610143,-0.4404674,19.30976,1.0006714,-0.072387695,-0.10424805,-0.09667969,0.059570312,0.047851562,4.128772,-6.4321575,-57.426334,17.984295,0.4043579,-0.29736328,0.8564453,-0.0546875,0.0107421875,0.041992188,9.533102,-11.232538,-129.23569,15.287817,0.0,0.0,0.0,0.0,0.0,0.0,0.0,-29.768015,-129.53995,7.7764316,0.0,0.0,0.0,0.0,0.0,0.0,0.0,-1.573348,44.97628,0.4180173,
0.44921874330611905,23,-0.02923584,0.8129883,0.43371582,-0.005859375,-0.109375,0.029296875,0.0,0.0,0.0,0.0,0.0,0.0,0.0,0.0,0.0,0.0,0.0,0.35735515,0.020326355,-0.93393743,-1.0065918,0.026123047,0.015563965,0.034179688,0.022460938,0.0146484375,3.0379598,7.3983583,0.42081854,-19.3354,1.0126343,-0.16900635,-0.1437378,-0.032226562,0.0546875,0.016601562,0.44499385,6.735383,-56.57275,-18.420313,-0.4586792,-0.33874512,0.8048706,0.0068359375,0.0234375,-0.018554688,3.437523,5.0309114,-128.5499,-17.08129,0.0,0.0,0.0,0.0,0.0,0.0,0.0,-13.366019,-127.66056,-24.848837,0.0,0.0,0.0,0.0,0.0,0.0,0.0,-0.35735515,-0.020326355,0.93393743,-0.91589355,0.0041503906,-0.38397217,0.07324219,-0.044921875,-0.025390625,1.3223424,-7.3983583,-0.42081854,19.3354,0.99261475,-0.0692749,-0.112976074,-0.11621094,0.059570312,0.029296875,4.11799,-6.3785324,-57.406948,18.023016,0.4338379,-0.34783936,0.8514404,-0.0546875,0.029296875,0.041992188,9.508801,-11.179283,-129.21318,15.360387,0.0,0.0,0.0,0.0,0.0,0.0,0.0,-29.728392,-129.52081,7.8836694,0.0,0.0,0.0,0.0,0.0,0.0,0.0,-1.5993962,44.97806,0.36692792,
0.46874999301508075,24,-0.048095703,0.8076172,0.4520874,-0.064453125,-0.08886719,0.01171875,0.0,0.0,0.0,0.0,0.0,0.0,0.0,0.0,0.0,0.0,0.0,0.35447696,0.019225314,-0.93493015,-0.9937744,0.04827881,0.08068848,0.034179688,0.0234375,-0.04296875,3.023815,7.3387733,0.3980236,-19.355953,0.98864746,-0.124938965,-0.12738037,-0.08886719,0.037109375,0.0146484375,0.4343124,6.706923,-56.598663,-18.425776,-0.46746826,-0.32757568,0.7919922,0.0068359375,0.0048828125,-0.018554688,3.3751607,4.973489,-128.58226,-17.078506,0.0,0.0,0.0,0.0,0.0,0.0,0.0,-13.427964,-127.6825,-24.83091,0.0,0.0,0.0,0.0,0.0,0.0,0.0,-0.35447696,-0.019225314,0.93493015,-0.89190674,-0.006958008,-0.38598633,0.12988281,-0.046875,0.03515625,1.3546525,-7.3387733,-0.3980236,19.355953,1.0360718,-0.08984375,-0.12554932,-0.05859375,0.05859375,0.046875,4.188392,-6.2668376,-57.382698,18.06856,0.42163086,-0.32165527,0.85443115,-0.016601562,0.009765625,0.022460938,9.547135,-11.086435,-129.1896,15.406992,0.0,0.0,0.0,0.0,0.0,0.0,0.0,-29.646963,-129.50647,7.95404,0.0,0.0,0.0,0.0,0.0,0.0,0.0,-1.6366112,44.97185,0.30425483,
0.48828124272404244,25,-0.062316895,0.836853,0.45666504,0.032226562,-0.12890625,0.028320312,0.0,0.0,0.0,0.0,0.0,0.0,0.0,0.0,0.0,0.0,0.0,0.35219303,0.018614069,-0.9358465,-0.9763794,0.043518066,0.055725098,0.072265625,0.00390625,-0.0048828125,3.075362,7.2914867,0.38536888,-19.374924,1.0010986,-0.14794922,-0.14556885,-0.0146484375,-0.001953125,-0.001953125,0.4015385,6.6246,-56.609344,-18.421755,-0.48602295,-0.35351562,0.77923584,0.0078125,-0.030273438,0.01953125,3.3435729,4.9081106,-128.59114,-17.087122,0.0,0.0,0.0,0.0,0.0,0.0,0.0,-13.4882345,-127.69119,-24.854267,0.0,0.0,0.0,0.0,0.0,0.0,0.0,-0.35219303,-0.018614069,0.9358465,-0.93151855,0.035949707,-0.3493042,0.07324219,0.013671875,0.015625,1.4015129,-7.2914867,-0.38536888,19.374924,1.003479,-0.06945801,-0.119140625,-0.05859375,0.05859375,-0.009765625,4.2063556,-6.2309194,-57.369118,18.11098,0.4296875,-0.33306885,0.8829346,-0.016601562,0.009765625,0.041015625,9.497736,-11.090162,-129.17653,15.492847,0.0,0.0,0.0,0.0,0.0,0.0,0.0,-29.666552,-129.49449,8.083847,0.0,0.0,0.0,0.0,0.0,0.0,0.0,-1.6621053,44.972885,0.26900396,
0.5078124924330042,26,-0.037353516,0.8240967,0.43200684,0.052734375,-0.111328125,-0.0087890625,0.0,0.0,0.0,0.0,0.0,0.0,0.0,0.0,0.0,0.0,0.0,0.3488633,0.017273955,-0.9371501,-0.9844971,0.02154541,0.03845215,0.052734375,0.041992188,0.0146484375,3.0282142,7.222553,0.35762447,-19.401915,0.98895264,-0.1494751,-0.12451172,-0.07128906,0.017578125,-0.0029296875,0.360452,6.6076984,-56.635513,-18.404793,-0.48284912,-0.34191895,0.7969971,0.0078125,-0.030273438,0.01953125,3.3937297,4.9001446,-128.61249,-17.065212,0.0,0.0,0.0,0.0,0.0,0.0,0.0,-13.499811,-127.70612,-24.821754,0.0,0.0,0.0,0.0,0.0,0.0,0.0,-0.3488633,-0.017273955,0.9371501,-0.9366455,0.028320312,-0.35327148,0.03515625,0.053710938,-0.024414062,1.5015475,-7.222553,-0.35762447,19.401915,1.0083008,-0.0715332,-0.12908936,0.0,0.057617188,0.02734375,4.2051916,-6.1941056,-57.34427,18.125526,0.4371338,-0.3098755,0.84747314,-0.016601562,0.009765625,0.022460938,9.539617,-11.099567,-129.15219,15.534669,0.0,0.0,0.0,0.0,0.0,0.0,0.0,-29.683058,-129.47626,8.139397,0.0,0.0,0.0,0.0,0.0,0.0,0.0,-1.675989,44.974037,0.20507759,
0.5273437421419659,27,-0.03741455,0.8230591,0.42504883,-0.026367188,-0.12792969,-0.0068359375,0.0,0.0,0.0,0.0,0.0,0.0,0.0,0.0,0.0,0.0,0.0,0.34636715,0.01607066,-0.9381268,-1.0118408,0.0048217773,0.016235352,0.072265625,0.022460938,-0.0048828125,2.9291077,7.170873,0.33271247,-19.422136,1.0234985,-0.14501953,-0.12780762,-0.08886719,0.017578125,0.015625,0.35772744,6.6862893,-56.66208,-18.363222,-0.47418213,-0.3638916,0.8029785,0.0068359375,0.005859375,0.0,3.3642957,4.972071,-128.64502,-16.986069,0.0,0.0,0.0,0.0,0.0,0.0,0.0,-13.426958,-127.73028,-24.741718,0.0,0.0,0.0,0.0,0.0,0.0,0.0,-0.34636715,-0.01607066,0.9381268,-0.9151001,-0.010559082,-0.34277344,-0.00390625,-0.0625,-0.00390625,1.6091247,-7.170873,-0.33271247,19.422136,0.9831543,-0.043151855,-0.09320068,-0.07714844,0.041015625,0.028320312,4.113089,-6.2237883,-57.321346,18.186995,0.45233154,-0.33721924,0.85528564,-0.072265625,0.087890625,-0.07128906,9.437173,-11.121281,-129.13496,15.687088,0.0,0.0,0.0,0.0,0.0,0.0,0.0,-29.717352,-129.46016,8.323157,0.0,0.0,0.0,0.0,0.0,0.0,0.0,-1.6990938,44.974674,0.14311746,
0.5468749918509276,28,-0.05328369,0.82366943,0.4473877,0.0126953125,-0.12890625,-0.0078125,0.0,0.0,0.0,0.0,0.0,0.0,0.0,0.0,0.0,0.0,0.0,0.3370558,0.0068038553,-0.93880945,-0.99560547,0.040039062,0.048706055,0.052734375,-0.015625,-0.0048828125,1.9463181,6.9781,0.14086089,-19.436266,1.0144653,-0.14367676,-0.12371826,-0.16503906,0.095703125,-0.0068359375,0.3901695,6.5388126,-56.853245,-18.332582,-0.49731445,-0.36419678,0.8139038,0.026367188,-0.03125,-0.017578125,3.2698607,4.828039,-128.83112,-16.880789,0.0,0.0,0.0,0.0,0.0,0.0,0.0,-13.570957,-127.915276,-24.639322,0.0,0.0,0.0,0.0,0.0,0.0,0.0,-0.3370558,-0.0068038553,0.93880945,-0.92840576,-0.03137207,-0.36157227,0.07324219,-0.005859375,0.015625,1.2193279,-6.9781,-0.14086089,19.436266,1.036438,-0.071899414,-0.11187744,-0.11621094,0.059570312,0.047851562,4.10985,-6.032884,-57.12895,18.241707,0.42163086,-0.317688,0.8613281,-0.03515625,0.029296875,-0.0146484375,9.444397,-10.926397,-128.93414,15.784466,0.0,0.0,0.0,0.0,0.0,0.0,0.0,-29.523172,-129.26794,8.424113,0.0,0.0,0.0,0.0,0.0,0.0,0.0,-0.9072957,44.87855,-4.9220026E-4,
0.5664062415598893,29,-0.059509277,0.87249756,0.44891357,0.013671875,-0.11035156,-0.0078125,0.0,0.0,0.0,0.0,0.0,0.0,0.0,0.0,0.0,0.0,0.0,0.333883,0.005153234,-0.94229066,-1.0009155,0.05029297,0.08270264,0.09082031,-0.052734375,-0.024414062,1.8715805,6.9124117,0.106687926,-19.508339,0.98114014,-0.13934326,-0.12536621,-0.12792969,0.0,-0.0048828125,0.35332447,6.4335637,-56.884884,-18.382498,-0.4901123,-0.3583374,0.78222656,0.0068359375,0.0048828125,-0.018554688,3.1903415,4.7463226,-128.86581,-16.915764,0.0,0.0,0.0,0.0,0.0,0.0,0.0,-13.650692,-127.942825,-24.679602,0.0,0.0,0.0,0.0,0.0,0.0,0.0,-0.333883,-0.005153234,0.94229066,-0.91278076,0.010131836,-0.3494873,0.07324219,-0.005859375,0.015625,1.2301927,-6.9124117,-0.106687926,19.508339,1.031189,-0.06982422,-0.1295166,-0.07714844,0.041015625,0.028320312,4.0763097,-5.997288,-57.096916,18.351208,0.4421997,-0.3279419,0.84155273,-0.091796875,0.049804688,-0.0146484375,9.449016,-10.88793,-128.90927,15.949358,0.0,0.0,0.0,0.0,0.0,0.0,0.0,-29.490732,-129.24165,8.607239,0.0,0.0,0.0,0.0,0.0,0.0,0.0,-0.826722,44.97924,-0.046949223,
0.585937491268851,30,-0.016418457,0.8543091,0.42077637,-0.005859375,-0.109375,0.0107421875,0.0,0.0,0.0,0.0,0.0,0.0,0.0,0.0,0.0,0.0,0.0,0.33037904,0.003831793,-0.9438307,-0.98742676,0.058288574,0.054992676,0.09082031,0.00390625,-0.0048828125,1.8185459,6.8398705,0.07932999,-19.54022,0.9752197,-0.17053223,-0.117492676,-0.08984375,-9.765625E-4,0.015625,0.31651786,6.3901896,-56.911697,-18.409115,-0.50183105,-0.3334961,0.81085205,0.0068359375,0.005859375,0.018554688,3.1541774,4.739829,-128.89912,-16.983524,0.0,0.0,0.0,0.0,0.0,0.0,0.0,-13.661344,-127.968544,-24.735357,0.0,0.0,0.0,0.0,0.0,0.0,0.0,-0.33037904,-0.003831793,0.9438307,-0.9321289,-0.011108398,-0.3880005,-0.00390625,-0.04296875,0.016601562,1.3184891,-6.8398705,-0.07932999,19.54022,1.0324707,-0.06384277,-0.11383057,-0.07714844,0.041015625,0.028320312,4.044478,-5.9630637,-57.068905,18.383123,0.4177246,-0.29956055,0.84851074,-0.072265625,0.06933594,-0.109375,9.418034,-10.86603,-128.88235,16.009563,0.0,0.0,0.0,0.0,0.0,0.0,0.0,-29.486116,-129.2376,8.713744,0.0,0.0,0.0,0.0,0.0,0.0,0.0,-0.84040034,44.991592,-0.11151597,
0.6054687409778127,31,0.0138549805,0.82366943,0.41375732,0.033203125,-0.11035156,0.009765625,0.0,0.0,0.0,0.0,0.0,0.0,0.0,0.0,0.0,0.0,0.0,0.32784322,0.0020962423,-0.9448539,-0.9923706,0.038513184,0.02178955,0.052734375,-0.015625,-0.0048828125,1.7578053,6.78737,0.043398716,-19.561405,1.0164185,-0.14971924,-0.09881592,-0.033203125,0.017578125,-0.021484375,0.3426407,6.405261,-56.952236,-18.40733,-0.49005127,-0.35253906,0.8039551,0.0068359375,0.005859375,0.0,3.1252458,4.7492924,-128.93088,-16.966583,0.0,0.0,0.0,0.0,0.0,0.0,0.0,-13.649525,-127.99819,-24.720592,0.0,0.0,0.0,0.0,0.0,0.0,0.0,-0.32784322,-0.0020962423,0.9448539,-0.90753174,0.026672363,-0.35040283,0.034179688,-0.10253906,0.015625,1.4100045,-6.78737,-0.043398716,19.561405,1.0141602,-0.0736084,-0.13513184,-0.057617188,0.040039062,0.06640625,3.995716,-5.953763,-57.036133,18.451675,0.40930176,-0.31359863,0.87713623,-0.091796875,0.049804688,-0.052734375,9.366113,-10.8508,-128.84692,16.15004,0.0,0.0,0.0,0.0,0.0,0.0,0.0,-29.482927,-129.21231,8.882221,0.0,0.0,0.0,0.0,0.0,0.0,0.0,-0.88633907,44.996067,-0.20771211,
0.6249999906867744,32,0.010864258,0.8217163,0.41381836,-0.0048828125,-0.07128906,0.0107421875,0.0,0.0,0.0,0.0,0.0,0.0,0.0,0.0,0.0,0.0,0.0,0.32646844,6.979974E-4,-0.9453102,-0.99334717,0.037597656,0.018798828,0.034179688,0.00390625,-0.04296875,1.6896863,6.7589083,0.014450711,-19.570852,0.9920654,-0.14361572,-0.14941406,-0.0703125,0.037109375,-0.00390625,0.39167115,6.4773583,-56.981216,-18.396835,-0.47802734,-0.35009766,0.82666016,-0.01171875,0.0234375,-0.01953125,3.190648,4.8503084,-128.96043,-16.9387,0.0,0.0,0.0,0.0,0.0,0.0,0.0,-13.553863,-128.0218,-24.683481,0.0,0.0,0.0,0.0,0.0,0.0,0.0,-0.32646844,-6.979974E-4,0.9453102,-0.9335327,0.035949707,-0.38861084,0.16796875,-0.0087890625,0.0146484375,1.4654028,-6.7589083,-0.014450711,19.570852,1.0109253,-0.056518555,-0.09564209,-0.01953125,0.021484375,0.028320312,4.0279326,-5.9211636,-57.011444,18.528267,0.4093628,-0.32824707,0.8377075,-0.0546875,0.030273438,-0.0146484375,9.412877,-10.84541,-128.83023,16.254818,0.0,0.0,0.0,0.0,0.0,0.0,0.0,-29.48851,-129.19559,9.015209,0.0,0.0,0.0,0.0,0.0,0.0,0.0,-0.9437005,44.993507,-0.29269028,
0.6445312403957361,33,-0.039367676,0.85998535,0.44329834,0.015625,-0.034179688,-0.0078125,0.0,0.0,0.0,0.0,0.0,0.0,0.0,0.0,0.0,0.0,0.0,0.32480985,2.492452E-4,-0.945943,-0.99090576,0.037353516,0.08947754,0.052734375,-0.034179688,0.013671875,1.7179416,6.7245708,0.005160154,-19.583952,0.97869873,-0.11669922,-0.13726807,-0.07128906,-9.765625E-4,-0.0029296875,0.34434965,6.4409103,-56.987236,-18.382719,-0.47387695,-0.34613037,0.79400635,0.026367188,0.0234375,0.0,3.2451599,4.8675485,-128.96677,-16.915842,0.0,0.0,0.0,0.0,0.0,0.0,0.0,-13.536819,-128.02083,-24.65839,0.0,0.0,0.0,0.0,0.0,0.0,0.0,-0.32480985,-2.492452E-4,0.945943,-0.9088135,0.0063476562,-0.3564453,0.053710938,0.0146484375,0.015625,1.4737918,-6.7245708,-0.005160154,19.583952,1.0324097,-0.07684326,-0.11273193,-0.07714844,0.059570312,0.046875,4.041862,-5.88546,-56.998657,18.578018,0.4371338,-0.31781006,0.83758545,-0.072265625,0.06933594,-0.12792969,9.358808,-10.826157,-128.81311,16.356056,0.0,0.0,0.0,0.0,0.0,0.0,0.0,-29.485844,-129.19325,9.161552,0.0,0.0,0.0,0.0,0.0,0.0,0.0,-0.97103643,44.99534,-0.32157052,
0.6640624901046978,34,-0.05041504,0.8692627,0.45062256,0.015625,-0.032226562,0.047851562,0.0,0.0,0.0,0.0,0.0,0.0,0.0,0.0,0.0,0.0,0.0,0.32417697,-1.6144942E-4,-0.9461413,-0.97229004,0.0435791,0.051757812,0.07128906,0.0029296875,0.033203125,1.7464125,6.7114697,-0.0033424823,-19.58806,0.9970703,-0.18109131,-0.15362549,-0.09082031,0.018554688,-0.0234375,0.28324032,6.41374,-56.997498,-18.358925,-0.48712158,-0.3546753,0.8168335,0.0068359375,0.005859375,0.0,3.1992269,4.860998,-128.97592,-16.926794,0.0,0.0,0.0,0.0,0.0,0.0,0.0,-13.543478,-128.03166,-24.670586,0.0,0.0,0.0,0.0,0.0,0.0,0.0,-0.32417697,1.6144942E-4,0.9461413,-0.92492676,0.0020141602,-0.3682251,-0.00390625,-0.0234375,0.016601562,1.5041517,-6.7114697,0.0033424823,19.58806,1.0201416,-0.047668457,-0.08105469,-0.057617188,0.040039062,0.06640625,4.0275927,-5.911996,-56.993717,18.598173,0.4277954,-0.33361816,0.8395996,-0.09082031,0.107421875,-0.08984375,9.180292,-10.890535,-128.80609,16.434088,0.0,0.0,0.0,0.0,0.0,0.0,0.0,-29.583364,-129.17726,9.327667,0.0,0.0,0.0,0.0,0.0,0.0,0.0,-0.9861404,44.994038,-0.34555966,
0.6835937398136595,35,-0.04144287,0.8590088,0.43841553,0.0146484375,-0.07128906,0.0107421875,0.0,0.0,0.0,0.0,0.0,0.0,0.0,0.0,0.0,0.0,0.0,0.3220067,-4.9645547E-4,-0.94679934,-1.001648,0.024902344,0.02947998,0.015625,0.00390625,0.0146484375,1.7224923,6.6665363,-0.010278189,-19.601683,1.0155029,-0.1427002,-0.124694824,0.0068359375,0.03515625,0.037109375,0.26392958,6.3928957,-57.000565,-18.317877,-0.4790039,-0.3519287,0.8039551,-0.01171875,0.005859375,0.0,3.1563492,4.831602,-128.98895,-16.905401,0.0,0.0,0.0,0.0,0.0,0.0,0.0,-13.568375,-128.04384,-24.656025,0.0,0.0,0.0,0.0,0.0,0.0,0.0,-0.3220067,4.9645547E-4,0.94679934,-0.9227905,0.012207031,-0.34753418,-0.022460938,-0.061523438,-0.00390625,1.5005044,-6.6665363,0.010278189,19.601683,0.9929199,-0.05529785,-0.10021973,-0.0390625,0.040039062,0.046875,3.9803464,-5.919362,-56.985916,18.631168,0.41662598,-0.30755615,0.8514404,-0.034179688,0.08691406,-0.052734375,9.114795,-10.908926,-128.80345,16.522245,0.0,0.0,0.0,0.0,0.0,0.0,0.0,-29.62225,-129.18716,9.465412,0.0,0.0,0.0,0.0,0.0,0.0,0.0,-0.96367514,44.99096,-0.35133725,
0.7031249895226211,36,-0.008239746,0.8153076,0.41625977,0.034179688,-0.07128906,0.046875,0.0,0.0,0.0,0.0,0.0,0.0,0.0,0.0,0.0,0.0,0.0,0.3209614,-0.0017542103,-0.94719005,-1.0107422,0.018371582,0.017456055,-0.041015625,0.041992188,-0.0234375,1.6212409,6.6448965,-0.036317587,-19.609772,1.0184326,-0.14379883,-0.13671875,-0.0703125,0.036132812,0.015625,0.3351346,6.4747148,-57.025414,-18.27816,-0.46868896,-0.3383789,0.7959595,-0.01171875,-0.0126953125,-0.018554688,3.2530532,4.940917,-129.01108,-16.820753,0.0,0.0,0.0,0.0,0.0,0.0,0.0,-13.4675455,-128.05475,-24.553455,0.0,0.0,0.0,0.0,0.0,0.0,0.0,-0.3209614,0.0017542103,0.94719005,-0.9119873,-0.003967285,-0.37322998,-0.080078125,-0.07910156,-0.043945312,1.580658,-6.6448965,0.036317587,19.609772,1.0361938,-0.06390381,-0.1296997,0.01953125,0.0390625,0.046875,3.9099114,-5.9759984,-56.96163,18.658676,0.39715576,-0.3081665,0.8535156,-0.034179688,0.06738281,-0.034179688,9.103966,-10.972933,-128.77469,16.565033,0.0,0.0,0.0,0.0,0.0,0.0,0.0,-29.694902,-129.16014,9.532724,0.0,0.0,0.0,0.0,0.0,0.0,0.0,-0.96622396,44.991985,-0.410737,
0.7226562392315828,37,-0.010070801,0.8223877,0.43328857,0.015625,-0.032226562,0.06542969,0.0,0.0,0.0,0.0,0.0,0.0,0.0,0.0,0.0,0.0,0.0,0.32107532,-0.0028847232,-0.9471794,-1.0018921,0.04748535,0.075683594,-0.041015625,0.00390625,-0.0048828125,1.6149518,6.6472545,-0.059722707,-19.60955,0.9911499,-0.1416626,-0.14245605,-0.013671875,-0.021484375,0.017578125,0.32324654,6.4886484,-57.051296,-18.251862,-0.4857788,-0.33599854,0.80981445,0.026367188,-0.06738281,9.765625E-4,3.2351904,4.9707484,-129.03413,-16.802563,0.0,0.0,0.0,0.0,0.0,0.0,0.0,-13.439428,-128.0788,-24.529634,0.0,0.0,0.0,0.0,0.0,0.0,0.0,-0.32107532,0.0028847232,0.9471794,-0.9300537,-0.0034179688,-0.3427124,0.053710938,0.0146484375,-0.0048828125,1.5838736,-6.6472545,0.059722707,19.60955,1.0164795,-0.081604004,-0.107421875,0.05859375,0.01953125,0.045898438,3.9060528,-5.9944444,-56.94168,18.754969,0.45037842,-0.32617188,0.8513794,-0.072265625,0.06933594,-0.07128906,9.015958,-10.990327,-128.75189,16.686432,0.0,0.0,0.0,0.0,0.0,0.0,0.0,-29.722504,-129.13924,9.679565,0.0,0.0,0.0,0.0,0.0,0.0,0.0,-0.99352264,44.992085,-0.4738124,
0.7421874889405445,38,-0.012878418,0.8305664,0.45031738,-0.022460938,-0.0126953125,0.048828125,0.0,0.0,0.0,0.0,0.0,0.0,0.0,0.0,0.0,0.0,0.0,0.32118362,-0.0037259962,-0.9471067,-0.9694824,0.021911621,0.06335449,0.015625,0.00390625,-0.0234375,1.6858598,6.6494966,-0.07713966,-19.608046,0.99261475,-0.16033936,-0.15148926,-0.0146484375,-0.001953125,-0.001953125,0.24389328,6.4416046,-57.068924,-18.201523,-0.47717285,-0.3647461,0.79803467,-0.01171875,-0.01171875,0.055664062,3.307958,4.94761,-129.05087,-16.758642,0.0,0.0,0.0,0.0,0.0,0.0,0.0,-13.465449,-128.08578,-24.477428,0.0,0.0,0.0,0.0,0.0,0.0,0.0,-0.32118362,0.0037259962,0.9471067,-0.92474365,0.015991211,-0.33862305,-0.022460938,-0.0029296875,-0.00390625,1.6429436,-6.6494966,0.07713966,19.608046,1.0232544,-0.0836792,-0.1194458,0.078125,9.765625E-4,0.045898438,3.885293,-6.041094,-56.921333,18.78848,0.42163086,-0.3295288,0.84259033,-0.015625,0.029296875,-0.034179688,8.996302,-11.068319,-128.73645,16.77208,0.0,0.0,0.0,0.0,0.0,0.0,0.0,-29.809834,-129.12865,9.792988,0.0,0.0,0.0,0.0,0.0,0.0,0.0,-1.0230207,44.989456,-0.5239198,
0.7617187386495062,39,-0.03753662,0.8230591,0.41809082,-0.00390625,-0.03125,0.083984375,0.0,0.0,0.0,0.0,0.0,0.0,0.0,0.0,0.0,0.0,0.0,0.32038853,-0.00454328,-0.94741267,-0.9761963,0.02947998,0.022644043,-0.00390625,0.041015625,0.0146484375,1.672106,6.633036,-0.09405999,-19.61438,0.98547363,-0.12878418,-0.12237549,0.04296875,0.015625,0.0,0.2654082,6.4430194,-57.08206,-18.167686,-0.49169922,-0.33087158,0.80981445,-0.01171875,-0.029296875,0.037109375,3.346207,4.943246,-129.07327,-16.712597,0.0,0.0,0.0,0.0,0.0,0.0,0.0,-13.473115,-128.0962,-24.424065,0.0,0.0,0.0,0.0,0.0,0.0,0.0,-0.32038853,0.00454328,0.94741267,-0.92755127,0.029907227,-0.38671875,-0.080078125,-0.040039062,-0.0234375,1.7468607,-6.633036,0.09405999,19.61438,0.9907837,-0.07324219,-0.10107422,0.09667969,0.038085938,0.045898438,3.8823183,-6.065171,-56.90755,18.75385,0.40924072,-0.32751465,0.8652954,0.060546875,0.06542969,0.0029296875,8.983604,-11.151176,-128.71663,16.75475,0.0,0.0,0.0,0.0,0.0,0.0,0.0,-29.907425,-129.10258,9.815559,0.0,0.0,0.0,0.0,0.0,0.0,0.0,-1.0292038,44.99055,-0.56379855,
0.7812499883584679,40,-0.029418945,0.83380127,0.4229126,0.0390625,0.0625,0.047851562,0.0,0.0,0.0,0.0,0.0,0.0,0.0,0.0,0.0,0.0,0.0,0.32047606,-0.00562119,-0.9473447,-1.0220947,-0.008666992,0.015991211,-0.041015625,0.060546875,-0.0234375,1.6026661,6.634847,-0.11637606,-19.612974,1.0065308,-0.13745117,-0.12762451,-0.051757812,0.017578125,0.016601562,0.37272853,6.566392,-57.10317,-18.080122,-0.48883057,-0.34075928,0.7999878,-0.01171875,-0.06640625,9.765625E-4,3.4224534,5.088472,-129.09044,-16.570507,0.0,0.0,0.0,0.0,0.0,0.0,0.0,-13.329275,-128.09644,-24.274193,0.0,0.0,0.0,0.0,0.0,0.0,0.0,-0.32047606,0.00562119,0.9473447,-0.8989868,-0.009033203,-0.33691406,-0.15625,-0.038085938,-0.04296875,1.871685,-6.634847,0.11637606,19.612974,1.0159912,-0.059692383,-0.15106201,0.15527344,0.0,0.064453125,3.8254101,-6.110766,-56.885662,18.733864,0.4342041,-0.28094482,0.8533325,0.07910156,0.0078125,0.0029296875,8.927045,-11.17996,-128.70053,16.709433,0.0,0.0,0.0,0.0,0.0,0.0,0.0,-29.927301,-129.13435,9.748568,0.0,0.0,0.0,0.0,0.0,0.0,0.0,-1.061051,44.987602,-0.6258812,
0.8007812380674296,41,0.018066406,0.82855225,0.42559814,0.017578125,0.024414062,0.047851562,0.0,0.0,0.0,0.0,0.0,0.0,0.0,0.0,0.0,0.0,0.0,0.3198057,-0.006641718,-0.9475728,-1.0037842,0.038085938,0.055603027,-0.07910156,0.0029296875,-0.0048828125,1.5698498,6.62097,-0.13750416,-19.617695,1.013916,-0.16223145,-0.12677002,-0.032226562,0.016601562,0.016601562,0.44190514,6.6000066,-57.12554,-18.020906,-0.48565674,-0.32910156,0.8078003,0.0078125,-0.030273438,0.0,3.464754,5.102859,-129.11192,-16.488052,0.0,0.0,0.0,0.0,0.0,0.0,0.0,-13.322971,-128.10054,-24.172977,0.0,0.0,0.0,0.0,0.0,0.0,0.0,-0.3198057,0.006641718,0.9475728,-0.91412354,-0.01574707,-0.37036133,-0.080078125,-0.040039062,-0.064453125,1.9159148,-6.62097,0.13750416,19.617695,1.0084229,-0.04156494,-0.13323975,0.078125,-0.017578125,0.045898438,3.7397356,-6.1187835,-56.8642,18.768848,0.41381836,-0.24975586,0.8740845,0.001953125,0.0087890625,0.07910156,8.736196,-11.09325,-128.67699,16.710218,0.0,0.0,0.0,0.0,0.0,0.0,0.0,-29.826729,-129.14647,9.711693,0.0,0.0,0.0,0.0,0.0,0.0,0.0,-1.0690074,44.98704,-0.67611253,
0.8203124877763913,42,-0.03314209,0.85894775,0.4560547,-0.040039062,0.064453125,0.049804688,0.0,0.0,0.0,0.0,0.0,0.0,0.0,0.0,0.0,0.0,0.0,0.31947428,-0.0072762277,-0.9476662,-0.99279785,0.04724121,0.08270264,-0.022460938,-0.034179688,-0.0048828125,1.6335065,6.6141086,-0.15064047,-19.619629,0.9874878,-0.16607666,-0.12554932,-0.051757812,0.017578125,0.016601562,0.3706227,6.521571,-57.135456,-18.010088,-0.46820068,-0.3640747,0.80792236,0.0078125,-0.030273438,0.01953125,3.469667,5.035186,-129.12335,-16.492908,0.0,0.0,0.0,0.0,0.0,0.0,0.0,-13.387582,-128.10655,-24.182331,0.0,0.0,0.0,0.0,0.0,0.0,0.0,-0.31947428,0.0072762277,0.9476662,-0.901062,-0.013366699,-0.3988037,-0.0029296875,0.03515625,-0.024414062,1.9046454,-6.6141086,0.15064047,19.619629,0.9925537,-0.0413208,-0.12896729,-0.13476562,0.0234375,0.06738281,3.7233112,-6.0586348,-56.848404,18.807386,0.42877197,-0.33770752,0.84552,-0.017578125,-0.028320312,0.07910156,8.614681,-10.939997,-128.66568,16.76886,0.0,0.0,0.0,0.0,0.0,0.0,0.0,-29.665155,-129.12668,9.751093,0.0,0.0,0.0,0.0,0.0,0.0,0.0,-1.0808395,44.985653,-0.7097713,
0.839843737485353,43,-0.033447266,0.8428345,0.42712402,0.0390625,0.0625,0.047851562,0.0,0.0,0.0,0.0,0.0,0.0,0.0,0.0,0.0,0.0,0.0,0.31840557,-0.007616842,-0.94805056,-0.989563,0.037963867,0.051635742,-0.022460938,-0.015625,-0.0048828125,1.6339858,6.5919824,-0.15769222,-19.627586,0.9902954,-0.13677979,-0.1274414,0.0048828125,-0.001953125,-9.765625E-4,0.3753442,6.4770675,-57.142895,-18.012766,-0.48187256,-0.34204102,0.8128052,0.0068359375,0.005859375,0.018554688,3.4159832,4.9743743,-129.1308,-16.543705,0.0,0.0,0.0,0.0,0.0,0.0,0.0,-13.445862,-128.10802,-24.239838,0.0,0.0,0.0,0.0,0.0,0.0,0.0,-0.31840557,0.007616842,0.94805056,-0.9205322,0.03277588,-0.38964844,0.03515625,0.07324219,-0.024414062,1.9448091,-6.5919824,0.15769222,19.627586,1.039978,-0.07696533,-0.13757324,-0.21289062,0.024414062,0.030273438,3.7199965,-5.9745626,-56.840305,18.748583,0.42181396,-0.2966919,0.8583374,0.020507812,-0.029296875,0.09765625,8.750147,-10.790669,-128.66527,16.718407,0.0,0.0,0.0,0.0,0.0,0.0,0.0,-29.510468,-129.12239,9.686825,0.0,0.0,0.0,0.0,0.0,0.0,0.0,-1.0664618,44.987007,-0.71960956,
0.8593749871943147,44,-0.024108887,0.8128662,0.4385376,0.01953125,0.0625,0.029296875,0.0,0.0,0.0,0.0,0.0,0.0,0.0,0.0,0.0,0.0,0.0,0.31929624,-0.0081660785,-0.9477385,-1.0036621,0.0095825195,0.013305664,-0.041015625,0.00390625,-0.0048828125,1.6100974,6.6104226,-0.16906309,-19.621126,0.99780273,-0.15960693,-0.13061523,0.043945312,0.015625,0.018554688,0.42932793,6.542264,-57.154167,-17.981037,-0.4859619,-0.34960938,0.7861328,-0.01171875,-0.0126953125,-0.018554688,3.4292545,5.039139,-129.1417,-16.51083,0.0,0.0,0.0,0.0,0.0,0.0,0.0,-13.379988,-128.11955,-24.209028,0.0,0.0,0.0,0.0,0.0,0.0,0.0,-0.31929624,0.0081660785,0.9477385,-0.9069214,-0.002380371,-0.3633423,-0.022460938,-0.0029296875,-0.00390625,1.9978237,-6.6104226,0.16906309,19.621126,1.027771,-0.08880615,-0.14813232,-0.13574219,0.060546875,0.06640625,3.7102458,-5.967371,-56.826717,18.73139,0.43707275,-0.30999756,0.85632324,9.765625E-4,-0.048828125,0.13476562,8.978419,-10.737877,-128.65268,16.682745,0.0,0.0,0.0,0.0,0.0,0.0,0.0,-29.442726,-129.09514,9.609769,0.0,0.0,0.0,0.0,0.0,0.0,0.0,-1.0898576,44.985535,-0.75478923,
0.8789062369032764,45,-0.031311035,0.80700684,0.42474365,-0.020507812,0.0625,0.0126953125,0.0,0.0,0.0,0.0,0.0,0.0,0.0,0.0,0.0,0.0,0.0,0.31949103,-0.007927498,-0.9476233,-1.0065918,0.02709961,0.017578125,-0.060546875,0.00390625,-0.0048828125,1.5794194,6.614455,-0.1641238,-19.61874,1.0179443,-0.12615967,-0.12567139,-0.033203125,0.036132812,-0.0029296875,0.5051297,6.636424,-57.14798,-17.948069,-0.4847412,-0.3340454,0.810791,-0.049804688,0.025390625,0.017578125,3.490315,5.1543393,-129.13452,-16.464558,0.0,0.0,0.0,0.0,0.0,0.0,0.0,-13.267984,-128.10707,-24.154594,0.0,0.0,0.0,0.0,0.0,0.0,0.0,-0.31949103,0.007927498,0.9476233,-0.91571045,0.01751709,-0.3701172,0.053710938,0.0146484375,-0.0048828125,2.0151856,-6.614455,0.1641238,19.61874,1.0151978,-0.06365967,-0.137146,-0.11621094,0.041015625,0.047851562,3.656395,-5.994064,-56.835957,18.736567,0.434021,-0.30993652,0.8572998,0.020507812,0.0078125,0.11621094,9.141639,-10.725403,-128.66716,16.701853,0.0,0.0,0.0,0.0,0.0,0.0,0.0,-29.417871,-129.10017,9.59573,0.0,0.0,0.0,0.0,0.0,0.0,0.0,-1.1219912,44.982548,-0.754588,
0.8984374866122381,46,-0.03515625,0.81915283,0.44384766,9.765625E-4,0.10058594,0.01171875,0.0,0.0,0.0,0.0,0.0,0.0,0.0,0.0,0.0,0.0,0.0,0.31412777,-0.015769223,-0.9467856,-0.98864746,0.0435791,0.064697266,0.015625,-0.034179688,-0.0048828125,0.73408717,6.503419,-0.32647178,-19.601398,0.9854126,-0.12567139,-0.16326904,-0.07128906,0.017578125,-0.0029296875,0.43834847,6.514824,-57.31191,-17.908989,-0.46362305,-0.3366089,0.7949829,-0.01171875,0.024414062,0.018554688,3.6061947,5.1116605,-129.30031,-16.399117,0.0,0.0,0.0,0.0,0.0,0.0,0.0,-13.315054,-128.27142,-24.077465,0.0,0.0,0.0,0.0,0.0,0.0,0.0,-0.31412777,0.015769223,0.9467856,-0.9187622,0.014892578,-0.37994385,0.09277344,0.11035156,-0.025390625,2.004279,-6.503419,0.32647178,19.601398,1.0206909,-0.04071045,-0.113708496,-0.09667969,0.059570312,0.028320312,3.660195,-5.8536806,-56.672157,18.710316,0.42993164,-0.31378174,0.85339355,-0.017578125,-0.009765625,0.09765625,9.316901,-10.560608,-128.50427,16.710331,0.0,0.0,0.0,0.0,0.0,0.0,0.0,-29.23917,-128.92442,9.568861,0.0,0.0,0.0,0.0,0.0,0.0,0.0,-0.33481508,44.885296,-0.85867476,
0.9179687363211998,47,-0.049316406,0.84539795,0.45043945,0.01953125,0.06347656,0.06640625,0.0,0.0,0.0,0.0,0.0,0.0,0.0,0.0,0.0,0.0,0.0,0.31387088,-0.015755072,-0.94905144,-0.9803467,0.04284668,0.043762207,0.052734375,-0.034179688,0.013671875,0.74991006,6.4981008,-0.32617885,-19.648308,0.9885254,-0.16412354,-0.13653564,-0.05078125,0.036132812,0.03515625,0.4256662,6.4850507,-57.304752,-17.925762,-0.4718628,-0.34814453,0.7949829,0.0068359375,0.0234375,-0.018554688,3.6685843,5.130805,-129.28865,-16.471235,0.0,0.0,0.0,0.0,0.0,0.0,0.0,-13.292979,-128.25774,-24.156038,0.0,0.0,0.0,0.0,0.0,0.0,0.0,-0.31387088,0.015755072,0.94905144,-0.94177246,0.021911621,-0.36810303,-0.041992188,0.056640625,-0.0029296875,2.0389369,-6.4981008,0.32617885,19.648308,1.008667,-0.093444824,-0.09338379,-0.0390625,0.040039062,0.028320312,3.6750367,-5.845891,-56.66926,18.696312,0.44213867,-0.3319702,0.8484497,-0.036132812,-0.0087890625,0.041015625,9.372007,-10.585334,-128.50034,16.731728,0.0,0.0,0.0,0.0,0.0,0.0,0.0,-29.269611,-128.9133,9.600489,0.0,0.0,0.0,0.0,0.0,0.0,0.0,-0.23796655,44.979687,-0.825402,
0.9374999860301615,48,-0.028259277,0.82092285,0.43273926,-0.041992188,-0.01171875,0.048828125,0.0,0.0,0.0,0.0,0.0,0.0,0.0,0.0,0.0,0.0,0.0,0.31363395,-0.015162315,-0.9495334,-0.9802246,0.02960205,0.018676758,-0.00390625,0.0029296875,0.033203125,0.76053303,6.4931955,-0.3139069,-19.658285,1.0144043,-0.140625,-0.15258789,0.024414062,0.015625,0.018554688,0.46182463,6.518982,-57.294266,-17.945833,-0.4979248,-0.3444214,0.7999878,-0.01171875,-0.01171875,0.0,3.622717,5.1740866,-129.28752,-16.52843,0.0,0.0,0.0,0.0,0.0,0.0,0.0,-13.242059,-128.25993,-24.231655,0.0,0.0,0.0,0.0,0.0,0.0,0.0,-0.31363395,0.015162315,0.9495334,-0.91192627,0.0014038086,-0.35351562,-0.13769531,-0.01953125,-0.001953125,2.0056453,-6.4931955,0.3139069,19.658285,1.0129395,-0.053588867,-0.09375,0.0,0.09472656,0.064453125,3.6995173,-5.864773,-56.68329,18.703264,0.43603516,-0.3178711,0.84942627,-0.052734375,0.068359375,-0.07128906,9.38387,-10.678194,-128.51685,16.836456,0.0,0.0,0.0,0.0,0.0,0.0,0.0,-29.371851,-128.9264,9.731242,0.0,0.0,0.0,0.0,0.0,0.0,0.0,-0.2557136,44.99683,-0.8029802,
0.9570312357391232,49,-0.022216797,0.8147583,0.42755127,-0.021484375,0.0068359375,0.048828125,0.0,0.0,0.0,0.0,0.0,0.0,0.0,0.0,0.0,0.0,0.0,0.31407323,-0.015396535,-0.9493752,-1.00354,0.03564453,0.0256958,-0.059570312,0.041992188,-0.0234375,0.7173703,6.50229,-0.318756,-19.655008,1.034729,-0.14355469,-0.11791992,-0.033203125,0.036132812,-0.0029296875,0.5446455,6.6387577,-57.300503,-17.933985,-0.46209717,-0.35839844,0.8187866,-0.01171875,0.005859375,0.0,3.661746,5.2895703,-129.28755,-16.477457,0.0,0.0,0.0,0.0,0.0,0.0,0.0,-13.131229,-128.25119,-24.16729,0.0,0.0,0.0,0.0,0.0,0.0,0.0,-0.31407323,0.015396535,0.9493752,-0.92529297,-0.021911621,-0.350708,-0.022460938,-0.022460938,-0.024414062,1.994883,-6.50229,0.318756,19.655008,1.0465698,-0.06402588,-0.10223389,0.0,0.057617188,0.06542969,3.6745572,-5.9009604,-56.681267,18.731441,0.40124512,-0.29742432,0.8721924,-0.053710938,0.030273438,-0.034179688,9.303645,-10.712883,-128.51416,16.868624,0.0,0.0,0.0,0.0,0.0,0.0,0.0,-29.415028,-128.93272,9.784954,0.0,0.0,0.0,0.0,0.0,0.0,0.0,-0.29524082,44.99575,-0.82739246,
0.9765624854480849,50,-0.005859375,0.82836914,0.44714355,-0.020507812,0.06347656,0.030273438,0.0,0.0,0.0,0.0,0.0,0.0,0.0,0.0,0.0,0.0,0.0,0.31475055,-0.015809566,-0.94912,-0.99487305,0.049072266,0.091674805,-0.041015625,0.0029296875,0.0146484375,0.69633144,6.5163116,-0.32730705,-19.649725,0.9991455,-0.14996338,-0.103637695,0.005859375,0.03515625,0.017578125,0.5428462,6.632436,-57.30778,-17.941647,-0.4671631,-0.3612671,0.82666016,-0.03125,0.024414062,-9.765625E-4,3.6382496,5.2462296,-129.29344,-16.474468,0.0,0.0,0.0,0.0,0.0,0.0,0.0,-13.181923,-128.24757,-24.145565,0.0,0.0,0.0,0.0,0.0,0.0,0.0,-0.31475055,0.015809566,0.94912,-0.9267578,0.018127441,-0.34552002,-0.00390625,-0.00390625,0.016601562,1.9621412,-6.5163116,0.32730705,19.649725,1.0278931,-0.06982422,-0.1482544,0.0,0.057617188,0.06542969,3.6325943,-5.9538956,-56.66971,18.795757,0.41760254,-0.3076172,0.8563843,-0.03515625,0.029296875,0.00390625,9.25627,-10.7491,-128.50168,16.927774,0.0,0.0,0.0,0.0,0.0,0.0,0.0,-29.451385,-128.9274,9.843546,0.0,0.0,0.0,0.0,0.0,0.0,0.0,-0.34429377,44.993694,-0.86363935,
0.9960937351570466,51,-0.0051879883,0.8361206,0.42529297,-0.040039062,0.06347656,0.0126953125,0.0,0.0,0.0,0.0,0.0,0.0,0.0,0.0,0.0,0.0,0.0,0.314939,-0.016483478,-0.94904196,-0.9796753,0.029663086,0.07543945,-0.041015625,-0.015625,0.033203125,0.7195491,6.520214,-0.3412591,-19.64811,1.0263062,-0.1539917,-0.116882324,0.025390625,0.053710938,0.018554688,0.47888115,6.5561156,-57.32204,-17.938377,-0.46374512,-0.34057617,0.810791,-0.01171875,0.005859375,0.018554688,3.6865802,5.161034,-129.30515,-16.470644,0.0,0.0,0.0,0.0,0.0,0.0,0.0,-13.276981,-128.24455,-24.118586,0.0,0.0,0.0,0.0,0.0,0.0,0.0,-0.314939,0.016483478,0.94904196,-0.9387207,0.024047852,-0.37982178,-0.0029296875,0.0546875,-0.00390625,2.0268064,-6.520214,0.3412591,19.64811,1.0009155,-0.055419922,-0.09942627,-0.07714844,0.041015625,0.06640625,3.6216898,-5.966346,-56.66072,18.782597,0.42889404,-0.3166504,0.84155273,-0.03515625,0.029296875,0.022460938,9.292294,-10.759655,-128.49213,16.90767,0.0,0.0,0.0,0.0,0.0,0.0,0.0,-29.455097,-128.92593,9.811451,0.0,0.0,0.0,0.0,0.0,0.0,0.0,-0.380378,44.992363,-0.90768003,
1.0156249848660084,52,-0.0119018555,0.8156128,0.44519043,0.01953125,0.0625,0.047851562,0.0,0.0,0.0,0.0,0.0,0.0,0.0,0.0,0.0,0.0,0.0,0.31704792,-0.01682875,-0.94829625,-0.9975586,0.02960205,0.032592773,-0.09765625,0.041015625,0.034179688,0.73382056,6.5638747,-0.3484073,-19.632671,0.9862671,-0.13964844,-0.10449219,0.10058594,0.0146484375,0.020507812,0.4825446,6.591688,-57.33325,-17.9212,-0.47668457,-0.33233643,0.81274414,-0.01171875,0.005859375,-0.018554688,3.696764,5.1783085,-129.32124,-16.448496,0.0,0.0,0.0,0.0,0.0,0.0,0.0,-13.2582035,-128.25346,-24.096947,0.0,0.0,0.0,0.0,0.0,0.0,0.0,-0.31704792,0.01682875,0.94829625,-0.91674805,0.0146484375,-0.3701172,-0.080078125,0.018554688,-0.0234375,2.0976985,-6.5638747,0.3484073,19.632671,1.0283813,-0.07775879,-0.1116333,-0.095703125,-0.0146484375,0.048828125,3.6042397,-6.039404,-56.65185,18.737833,0.43395996,-0.3258667,0.84942627,-0.015625,0.029296875,-0.034179688,9.277245,-10.856055,-128.48389,16.886454,0.0,0.0,0.0,0.0,0.0,0.0,0.0,-29.563702,-128.91623,9.82029,0.0,0.0,0.0,0.0,0.0,0.0,0.0,-0.42715737,44.989666,-0.9412135,
1.03515623457497,53,-0.008911133,0.82244873,0.44421387,0.040039062,0.10058594,0.047851562,0.0,0.0,0.0,0.0,0.0,0.0,0.0,0.0,0.0,0.0,0.0,0.3121266,-0.025303837,-0.94741553,-1.0370483,0.015014648,0.007385254,-0.13574219,0.041992188,-0.0234375,0.7124436,6.4619884,-0.52386785,-19.614439,1.0211792,-0.15570068,-0.12182617,-0.013671875,0.0546875,-0.001953125,0.6049027,6.5968027,-57.50158,-17.840818,-0.46600342,-0.35620117,0.7940674,-0.03125,0.04296875,-0.01953125,3.7205756,5.1655793,-129.48834,-16.32894,0.0,0.0,0.0,0.0,0.0,0.0,0.0,-13.273169,-128.40918,-23.97266,0.0,0.0,0.0,0.0,0.0,0.0,0.0,-0.3121266,0.025303837,0.94741553,-0.93811035,-0.0038452148,-0.35845947,-0.061523438,-0.041015625,-0.0029296875,2.4629123,-6.4619884,0.52386785,19.614439,1.0127563,-0.085510254,-0.091552734,0.0,0.020507812,0.06542969,3.5999997,-5.9749174,-56.475494,18.724373,0.42803955,-0.27191162,0.8632202,-0.0146484375,0.08691406,-0.109375,9.284509,-10.835319,-128.30792,16.89358,0.0,0.0,0.0,0.0,0.0,0.0,0.0,-29.553627,-128.75357,9.855387,0.0,0.0,0.0,0.0,0.0,0.0,0.0,0.35479754,44.88779,-1.0819873,
1.0546874842839318,54,-0.03338623,0.8438721,0.43408203,-0.059570312,0.06542969,0.068359375,0.0,0.0,0.0,0.0,0.0,0.0,0.0,0.0,0.0,0.0,0.0,0.3125579,-0.026393235,-0.94925886,-1.0060425,0.047302246,0.08862305,-0.07910156,0.00390625,-0.0234375,0.7974581,6.470917,-0.5464218,-19.652601,0.9918823,-0.15350342,-0.123535156,-0.08984375,0.018554688,-0.00390625,0.62494975,6.6311707,-57.529617,-17.859795,-0.49676514,-0.3336792,0.8059082,-0.01171875,0.005859375,0.018554688,3.6923652,5.203182,-129.51288,-16.323025,0.0,0.0,0.0,0.0,0.0,0.0,0.0,-13.237438,-128.4274,-23.958876,0.0,0.0,0.0,0.0,0.0,0.0,0.0,-0.3125579,0.026393235,0.94925886,-0.9291382,-0.007873535,-0.32110596,-0.080078125,-0.020507812,-0.0234375,2.4417617,-6.470917,0.5464218,19.652601,1.0404663,-0.065979004,-0.10998535,-0.057617188,0.040039062,0.06640625,3.5642521,-6.0286384,-56.456837,18.836714,0.4338379,-0.3399048,0.8553467,-0.09277344,0.01171875,0.00390625,9.233439,-10.890709,-128.2938,17.026995,0.0,0.0,0.0,0.0,0.0,0.0,0.0,-29.60866,-128.74449,9.989687,0.0,0.0,0.0,0.0,0.0,0.0,0.0,0.42138922,44.972622,-1.111672,
1.0742187339928935,55,-0.048583984,0.8562012,0.42962646,-0.020507812,0.06347656,0.048828125,0.0,0.0,0.0,0.0,0.0,0.0,0.0,0.0,0.0,0.0,0.0,0.3132259,-0.025321413,-0.94935536,-0.9776001,0.03161621,0.07244873,-0.07910156,-0.03515625,-0.0048828125,0.71189404,6.4847465,-0.52423173,-19.654598,0.99334717,-0.1741333,-0.1315918,0.0068359375,0.015625,0.055664062,0.58450294,6.554572,-57.50434,-17.83377,-0.46887207,-0.34735107,0.81085205,-0.01171875,0.024414062,0.0,3.71204,5.1106634,-129.49397,-16.33233,0.0,0.0,0.0,0.0,0.0,0.0,0.0,-13.330119,-128.40118,-23.965942,0.0,0.0,0.0,0.0,0.0,0.0,0.0,-0.3132259,0.025321413,0.94935536,-0.9501343,-0.0021972656,-0.37805176,-0.041992188,-0.001953125,-0.043945312,2.318662,-6.4847465,0.52423173,19.654598,1.0124512,-0.076538086,-0.11236572,-0.057617188,-0.015625,0.047851562,3.575715,-6.0591264,-56.477848,18.893946,0.42163086,-0.32666016,0.8563843,0.001953125,-0.009765625,0.00390625,9.205965,-10.953049,-128.30898,17.131506,0.0,0.0,0.0,0.0,0.0,0.0,0.0,-29.684803,-128.74841,10.126764,0.0,0.0,0.0,0.0,0.0,0.0,0.0,0.372351,44.986187,-1.0770295,
1.0937499837018552,56,-0.040649414,0.83203125,0.4142456,0.038085938,0.043945312,0.083984375,0.0,0.0,0.0,0.0,0.0,0.0,0.0,0.0,0.0,0.0,0.0,0.3136542,-0.025258675,-0.94933957,-0.9885254,0.022644043,0.033447266,-0.17285156,0.022460938,-0.0048828125,0.66617244,6.4936156,-0.5229328,-19.654272,1.0097656,-0.12878418,-0.12658691,0.04296875,0.03515625,-0.01953125,0.6170725,6.57837,-57.49798,-17.810238,-0.49621582,-0.3583374,0.8099365,-0.01171875,0.024414062,0.037109375,3.702374,5.1233616,-129.48003,-16.30821,0.0,0.0,0.0,0.0,0.0,0.0,0.0,-13.316969,-128.38899,-23.947342,0.0,0.0,0.0,0.0,0.0,0.0,0.0,-0.3136542,0.025258675,0.94933957,-0.9234009,0.0423584,-0.33843994,-0.15722656,-0.09667969,-0.022460938,2.3031628,-6.4936156,0.5229328,19.654272,0.99890137,-0.04937744,-0.10437012,-0.115234375,0.00390625,0.06738281,3.512403,-6.1362348,-56.478634,18.875744,0.421875,-0.28961182,0.84747314,-0.0546875,0.0107421875,0.060546875,9.316164,-11.042936,-128.30923,17.139185,0.0,0.0,0.0,0.0,0.0,0.0,0.0,-29.766462,-128.76105,10.11672,0.0,0.0,0.0,0.0,0.0,0.0,0.0,0.31099093,44.991528,-1.0943215,
1.1132812334108169,57,-0.012145996,0.8164673,0.42730713,-0.021484375,0.025390625,0.048828125,0.0,0.0,0.0,0.0,0.0,0.0,0.0,0.0,0.0,0.0,0.0,0.31295222,-0.025414802,-0.94959337,-1.0291138,0.00592041,0.0211792,-0.2109375,0.041992188,-0.041992188,0.6926687,6.4790807,-0.5261652,-19.659527,0.993103,-0.14471436,-0.13745117,-0.032226562,0.055664062,-0.0029296875,0.70415574,6.6455593,-57.503117,-17.755062,-0.47686768,-0.34313965,0.8078613,-0.01171875,0.024414062,0.037109375,3.6940618,5.195629,-129.4866,-16.229258,0.0,0.0,0.0,0.0,0.0,0.0,0.0,-13.241352,-128.39578,-23.873878,0.0,0.0,0.0,0.0,0.0,0.0,0.0,-0.31295222,0.025414802,0.94959337,-0.9077759,0.008972168,-0.3446045,-0.11816406,-0.05859375,-0.0234375,2.3202655,-6.4790807,0.5261652,19.659527,1.0237427,-0.08972168,-0.14898682,-0.07714844,0.00390625,0.06640625,3.4252555,-6.198223,-56.475838,18.85021,0.42163086,-0.3236084,0.852417,-0.017578125,-0.009765625,0.060546875,9.2371,-11.094021,-128.30753,17.094728,0.0,0.0,0.0,0.0,0.0,0.0,0.0,-29.822498,-128.75562,10.087178,0.0,0.0,0.0,0.0,0.0,0.0,0.0,0.25461864,44.992367,-1.120257,
1.1328124831197786,58,-0.016052246,0.8186035,0.4383545,-0.060546875,0.02734375,0.06738281,0.0,0.0,0.0,0.0,0.0,0.0,0.0,0.0,0.0,0.0,0.0,0.31353793,-0.025506571,-0.94933295,-0.987854,0.025817871,0.07733154,-0.19238281,-0.053710938,-0.0625,0.6345818,6.491207,-0.5280651,-19.654137,1.0062866,-0.14624023,-0.12567139,-0.052734375,0.037109375,-0.022460938,0.7149112,6.6224256,-57.499725,-17.681973,-0.45806885,-0.3614502,0.8138428,0.0048828125,0.22167969,-0.095703125,3.6256342,5.152852,-129.48198,-16.131754,0.0,0.0,0.0,0.0,0.0,0.0,0.0,-13.301757,-128.43204,-23.742374,0.0,0.0,0.0,0.0,0.0,0.0,0.0,-0.31353793,0.025506571,0.94933295,-0.9104004,-0.038208008,-0.37445068,-0.00390625,-0.0234375,-0.024414062,2.3111372,-6.491207,0.5280651,19.654137,1.0067749,-0.06951904,-0.16363525,-0.15429688,-0.013671875,0.068359375,3.4010484,-6.1818624,-56.472466,18.874249,0.4216919,-0.32354736,0.84259033,0.020507812,-0.029296875,0.09765625,9.285503,-11.003456,-128.3122,17.103552,0.0,0.0,0.0,0.0,0.0,0.0,0.0,-29.72182,-128.74634,10.062328,0.0,0.0,0.0,0.0,0.0,0.0,0.0,0.1820111,44.989243,-1.1486526,
1.1523437328287403,59,-0.016174316,0.83154297,0.43450928,-0.001953125,0.025390625,0.06640625,0.0,0.0,0.0,0.0,0.0,0.0,0.0,0.0,0.0,0.0,0.0,0.31450704,-0.025941031,-0.9490351,-0.9520874,0.029663086,0.051574707,-0.07910156,-0.015625,-0.04296875,0.5439265,6.51127,-0.5370598,-19.64797,0.9730835,-0.13604736,-0.13226318,-0.12695312,0.037109375,0.013671875,0.6419395,6.5825677,-57.51038,-17.636316,-0.49371338,-0.3355713,0.77819824,0.08203125,0.16601562,0.018554688,3.522756,5.18857,-129.5002,-16.072044,0.0,0.0,0.0,0.0,0.0,0.0,0.0,-13.273254,-128.51451,-23.669077,0.0,0.0,0.0,0.0,0.0,0.0,0.0,-0.31450704,0.025941031,0.9490351,-0.90893555,-0.0026855469,-0.43017578,-0.080078125,0.018554688,-0.0234375,2.3879433,-6.51127,0.5370598,19.64797,1.0202026,-0.053710938,-0.1373291,-0.15429688,0.0234375,0.06738281,3.3929796,-6.1554923,-56.466187,18.836197,0.4381714,-0.30194092,0.84942627,-0.038085938,-0.06640625,0.15429688,9.43411,-10.904196,-128.30844,16.99909,0.0,0.0,0.0,0.0,0.0,0.0,0.0,-29.6019,-128.7328,9.90723,0.0,0.0,0.0,0.0,0.0,0.0,0.0,0.10870892,44.98978,-1.1937299,
1.171874982537702,60,-0.03338623,0.84088135,0.43206787,-0.020507812,0.06347656,0.048828125,0.0,0.0,0.0,0.0,0.0,0.0,0.0,0.0,0.0,0.0,0.0,0.314539,-0.02613098,-0.9490298,-0.953125,0.0076293945,0.03125,-0.07910156,0.060546875,-0.00390625,0.5539077,6.511932,-0.54099226,-19.64786,0.96710205,-0.13287354,-0.14215088,-0.08886719,0.055664062,0.0146484375,0.6693957,6.608598,-57.513657,-17.584293,-0.49627686,-0.36706543,0.79016113,0.1015625,0.09375,0.056640625,3.4715285,5.253,-129.49649,-16.007107,0.0,0.0,0.0,0.0,0.0,0.0,0.0,-13.216269,-128.54424,-23.596392,0.0,0.0,0.0,0.0,0.0,0.0,0.0,-0.314539,0.02613098,0.9490298,-0.89923096,-0.030273438,-0.42944336,-0.080078125,0.018554688,-0.043945312,2.5072558,-6.511932,0.54099226,19.64786,1.0353394,-0.081970215,-0.17694092,-0.09667969,0.022460938,0.047851562,3.4072027,-6.0655236,-56.461086,18.752106,0.44622803,-0.3241577,0.85632324,-0.017578125,-0.009765625,0.15429688,9.533701,-10.722939,-128.29529,16.844963,0.0,0.0,0.0,0.0,0.0,0.0,0.0,-29.401585,-128.69951,9.699769,0.0,0.0,0.0,0.0,0.0,0.0,0.0,0.06374276,44.98967,-1.2176378,
1.1914062322466636,61,-0.04437256,0.82232666,0.43518066,-0.021484375,0.0068359375,0.08496094,0.0,0.0,0.0,0.0,0.0,0.0,0.0,0.0,0.0,0.0,0.0,0.3146416,-0.025477193,-0.94899505,-0.9815674,0.03375244,0.0635376,-0.041015625,0.041992188,-0.00390625,0.5914913,6.5140567,-0.5274568,-19.64714,0.98394775,-0.11102295,-0.12927246,-0.05078125,0.036132812,0.03515625,0.7074825,6.68305,-57.495533,-17.564997,-0.4967041,-0.331604,0.7949829,0.08300781,0.021484375,0.038085938,3.547182,5.3615475,-129.47926,-15.976608,0.0,0.0,0.0,0.0,0.0,0.0,0.0,-13.113459,-128.51219,-23.54734,0.0,0.0,0.0,0.0,0.0,0.0,0.0,-0.3146416,0.025477193,0.94899505,-0.9052124,-0.023986816,-0.35961914,-0.0029296875,0.0546875,-0.024414062,2.5242944,-6.5140567,0.5274568,19.64714,1.0238037,-0.0657959,-0.15704346,-0.09667969,0.059570312,0.047851562,3.4213665,-5.9819274,-56.47248,18.720663,0.43811035,-0.32092285,0.85040283,-0.056640625,-0.046875,0.13574219,9.429171,-10.548098,-128.32002,16.762823,0.0,0.0,0.0,0.0,0.0,0.0,0.0,-29.213291,-128.7112,9.581836,0.0,0.0,0.0,0.0,0.0,0.0,0.0,0.013931751,44.989315,-1.2031863,
1.2109374819556253,62,-0.031066895,0.8161011,0.4467163,-0.0625,-0.03125,0.03125,0.0,0.0,0.0,0.0,0.0,0.0,0.0,0.0,0.0,0.0,0.0,0.31514546,-0.024505947,-0.9488372,-0.99664307,0.039978027,0.05267334,-0.0029296875,0.041992188,-0.00390625,0.5804718,6.5244884,-0.5073491,-19.643871,0.99816895,-0.14794922,-0.11956787,-0.087890625,0.055664062,0.034179688,0.6812752,6.6956453,-57.477657,-17.58485,-0.48291016,-0.3439331,0.8118286,0.08300781,0.00390625,0.0390625,3.569577,5.3839803,-129.46008,-15.985828,0.0,0.0,0.0,0.0,0.0,0.0,0.0,-13.092615,-128.48235,-23.54857,0.0,0.0,0.0,0.0,0.0,0.0,0.0,-0.31514546,0.024505947,0.9488372,-0.90856934,-0.0501709,-0.36865234,0.03515625,0.053710938,-0.024414062,2.4698167,-6.5244884,0.5073491,19.643871,0.98828125,-0.07324219,-0.1326294,-0.15527344,0.060546875,0.047851562,3.4504278,-5.9154377,-56.489857,18.740816,0.43395996,-0.3237915,0.84552,-0.056640625,-0.046875,0.13574219,9.536237,-10.417522,-128.33946,16.787357,0.0,0.0,0.0,0.0,0.0,0.0,0.0,-29.06793,-128.70639,9.566135,0.0,0.0,0.0,0.0,0.0,0.0,0.0,-0.04839909,44.98926,-1.1780283,
1.230468731664587,63,-0.032165527,0.82006836,0.43981934,-0.0625,-0.03125,0.0126953125,0.0,0.0,0.0,0.0,0.0,0.0,0.0,0.0,0.0,0.0,0.0,0.3167004,-0.023574147,-0.94832224,-1.0050049,0.032043457,0.07147217,0.034179688,0.060546875,0.0146484375,0.59314305,6.5566792,-0.48805797,-19.633211,1.0170898,-0.16149902,-0.09887695,-0.06933594,0.036132812,0.034179688,0.6895542,6.732857,-57.458733,-17.57909,-0.49713135,-0.35528564,0.80200195,0.026367188,0.0234375,0.037109375,3.471303,5.3945646,-129.447,-15.965355,0.0,0.0,0.0,0.0,0.0,0.0,0.0,-13.080806,-128.46713,-23.531818,0.0,0.0,0.0,0.0,0.0,0.0,0.0,-0.3167004,0.023574147,0.94832224,-0.9130249,-0.00982666,-0.41351318,0.091796875,0.051757812,-0.0048828125,2.4230125,-6.5566792,0.48805797,19.633211,1.0380859,-0.077941895,-0.12963867,-0.15527344,0.09765625,0.06640625,3.4614184,-5.9090524,-56.5107,18.740772,0.42462158,-0.35650635,0.83374023,-0.037109375,-0.028320312,0.07910156,9.589171,-10.370077,-128.3658,16.75935,0.0,0.0,0.0,0.0,0.0,0.0,0.0,-29.019663,-128.701,9.534073,0.0,0.0,0.0,0.0,0.0,0.0,0.0,-0.11524497,44.988804,-1.1568546,
1.2499999813735487,64,-0.031921387,0.8311157,0.461792,-0.0625,-0.03125,0.0126953125,0.0,0.0,0.0,0.0,0.0,0.0,0.0,0.0,0.0,0.0,0.0,0.31819963,-0.022864562,-0.94785833,-0.9949341,0.016418457,0.066223145,0.015625,0.022460938,-0.0048828125,0.6552143,6.587719,-0.47336727,-19.623606,0.9837036,-0.15911865,-0.10656738,-0.033203125,0.036132812,-0.0029296875,0.7545922,6.7618513,-57.43938,-17.526007,-0.49768066,-0.32867432,0.79992676,0.0078125,-0.030273438,0.01953125,3.4142058,5.363383,-129.42288,-15.914655,0.0,0.0,0.0,0.0,0.0,0.0,0.0,-13.111992,-128.433,-23.479998,0.0,0.0,0.0,0.0,0.0,0.0,0.0,-0.31819963,0.022864562,0.94785833,-0.9130249,-0.010192871,-0.39978027,0.091796875,0.032226562,0.015625,2.3911376,-6.587719,0.47336727,19.623606,0.99645996,-0.080322266,-0.1159668,-0.13574219,0.115234375,0.047851562,3.5513747,-5.921362,-56.52645,18.734972,0.4360962,-0.33361816,0.81988525,-0.016601562,0.028320312,0.060546875,9.709482,-10.482011,-128.37097,16.819405,0.0,0.0,0.0,0.0,0.0,0.0,0.0,-29.134571,-128.6909,9.605619,0.0,0.0,0.0,0.0,0.0,0.0,0.0,-0.17113402,44.989876,-1.1427114,
1.2695312310825104,65,-0.040100098,0.8233032,0.45196533,-0.043945312,-0.0703125,0.01171875,0.0,0.0,0.0,0.0,0.0,0.0,0.0,0.0,0.0,0.0,0.0,0.31969374,-0.02186365,-0.94733447,-0.97546387,0.046142578,0.07470703,0.09082031,0.022460938,0.033203125,0.7121689,6.61865,-0.4526453,-19.612759,0.96813965,-0.1359253,-0.11328125,0.005859375,0.016601562,0.017578125,0.7281993,6.7466607,-57.419975,-17.509699,-0.47784424,-0.34020996,0.8187256,-0.049804688,-0.06542969,0.0,3.4124851,5.3276615,-129.40616,-15.882857,0.0,0.0,0.0,0.0,0.0,0.0,0.0,-13.15004,-128.40775,-23.441277,0.0,0.0,0.0,0.0,0.0,0.0,0.0,-0.31969374,0.02186365,0.94733447,-0.9546509,0.03363037,-0.35913086,0.053710938,0.0146484375,-0.0048828125,2.3245635,-6.61865,0.4526453,19.612759,1.0163574,-0.08557129,-0.11633301,-0.05859375,0.05859375,0.046875,3.6467967,-5.97808,-56.543644,18.740068,0.43389893,-0.3397827,0.84454346,-0.016601562,0.009765625,0.041015625,9.84097,-10.700343,-128.38435,16.903095,0.0,0.0,0.0,0.0,0.0,0.0,0.0,-29.366253,-128.69484,9.719029,0.0,0.0,0.0,0.0,0.0,0.0,0.0,-0.22926173,44.98839,-1.1156608,
1.2890624807914721,66,-0.032287598,0.802124,0.42773438,-0.0625,-0.03125,0.0126953125,0.0,0.0,0.0,0.0,0.0,0.0,0.0,0.0,0.0,0.0,0.0,0.32036954,-0.02106327,-0.9471887,-0.99487305,0.030883789,0.07244873,0.09082031,0.0029296875,0.052734375,0.7399282,6.632643,-0.43607503,-19.609743,1.0089722,-0.12188721,-0.12158203,-0.06933594,0.055664062,0.015625,0.6858553,6.743314,-57.402233,-17.528715,-0.489563,-0.3239746,0.7979126,-0.030273438,-0.029296875,0.018554688,3.4654887,5.3034983,-129.38393,-15.849827,0.0,0.0,0.0,0.0,0.0,0.0,0.0,-13.179601,-128.37173,-23.39259,0.0,0.0,0.0,0.0,0.0,0.0,0.0,-0.32036954,0.02106327,0.9471887,-0.9546509,0.03363037,-0.35913086,0.053710938,0.0146484375,-0.0048828125,2.2941372,-6.632643,0.43607503,19.609743,1.008606,-0.103393555,-0.093322754,-0.078125,0.115234375,0.046875,3.7248359,-5.992073,-56.560215,18.737053,0.42565918,-0.34661865,0.84161377,0.0234375,0.06640625,-0.034179688,9.879479,-10.820623,-128.39732,16.963066,0.0,0.0,0.0,0.0,0.0,0.0,0.0,-29.501463,-128.7006,9.81949,0.0,0.0,0.0,0.0,0.0,0.0,0.0,-0.29624546,44.99111,-1.1006973,
1.3085937305004338,67,-0.020935059,0.8168335,0.45141602,-0.12109375,-0.030273438,0.013671875,0.0,0.0,0.0,0.0,0.0,0.0,0.0,0.0,0.0,0.0,0.0,0.31487432,-0.027604897,-0.9465906,-0.9957886,0.024414062,0.0524292,0.015625,0.022460938,0.033203125,0.83485967,6.518874,-0.5715069,-19.597359,0.99243164,-0.17224121,-0.1126709,-0.06933594,0.036132812,0.034179688,0.7146374,6.639325,-57.54133,-17.511108,-0.47772217,-0.3371582,0.8048706,-0.01171875,-0.030273438,-0.018554688,3.4068577,5.1702642,-129.51794,-15.832328,0.0,0.0,0.0,0.0,0.0,0.0,0.0,-13.313252,-128.50288,-23.37244,0.0,0.0,0.0,0.0,0.0,0.0,0.0,-0.31487432,0.027604897,0.9465906,-0.90374756,0.009277344,-0.36132812,0.015625,0.015625,-0.00390625,2.5492935,-6.518874,0.5715069,19.597359,0.98913574,-0.07318115,-0.07635498,0.038085938,0.09472656,0.045898438,3.7732527,-5.9569955,-56.432602,18.786276,0.413208,-0.36437988,0.84954834,0.08300781,0.14257812,-0.18457031,9.779014,-10.951944,-128.2611,17.14563,0.0,0.0,0.0,0.0,0.0,0.0,0.0,-29.678925,-128.54836,10.121595,0.0,0.0,0.0,0.0,0.0,0.0,0.0,0.37222928,44.891403,-1.1853247,
1.3281249802093955,68,-0.016967773,0.8097534,0.44433594,-0.06347656,-0.049804688,0.030273438,0.0,0.0,0.0,0.0,0.0,0.0,0.0,0.0,0.0,0.0,0.0,0.31693405,-0.026900671,-0.94799054,-0.98535156,0.048706055,0.043884277,0.034179688,0.00390625,0.0146484375,0.79352236,6.561518,-0.5569273,-19.626343,0.9793091,-0.13543701,-0.107421875,0.025390625,0.053710938,0.037109375,0.7279305,6.6997495,-57.526558,-17.553135,-0.47131348,-0.36993408,0.8109131,-0.01171875,-0.0126953125,-0.018554688,3.387956,5.2087126,-129.51198,-15.858467,0.0,0.0,0.0,0.0,0.0,0.0,0.0,-13.275846,-128.49454,-23.395763,0.0,0.0,0.0,0.0,0.0,0.0,0.0,-0.31693405,0.026900671,0.94799054,-0.9281006,-0.006652832,-0.33093262,-0.022460938,-0.0029296875,0.037109375,2.4602883,-6.561518,0.5569273,19.626343,1.0244751,-0.0836792,-0.103637695,0.15429688,0.055664062,0.044921875,3.797204,-6.062119,-56.44532,18.832584,0.40966797,-0.26153564,0.8642578,0.06347656,0.12402344,-0.22265625,9.697345,-11.169657,-128.26697,17.251766,0.0,0.0,0.0,0.0,0.0,0.0,0.0,-29.927668,-128.6168,10.3186035,0.0,0.0,0.0,0.0,0.0,0.0,0.0,0.3077451,44.980423,-1.1735018,
1.3476562299183572,69,-0.010253906,0.82733154,0.42340088,0.036132812,-0.033203125,0.046875,0.0,0.0,0.0,0.0,0.0,0.0,0.0,0.0,0.0,0.0,0.0,0.3171601,-0.02695677,-0.9480836,-0.99676514,0.032104492,0.06048584,-0.00390625,0.0029296875,0.0146484375,0.70165026,6.5661983,-0.5580888,-19.62827,0.9980469,-0.113586426,-0.12646484,-0.0126953125,0.0546875,0.036132812,0.68356913,6.6860723,-57.527985,-17.561724,-0.49176025,-0.33380127,0.8029175,-0.01171875,-0.030273438,0.018554688,3.3840818,5.1985416,-129.51099,-15.814582,0.0,0.0,0.0,0.0,0.0,0.0,0.0,-13.281906,-128.49939,-23.363201,0.0,0.0,0.0,0.0,0.0,0.0,0.0,-0.3171601,0.02695677,0.9480836,-0.93078613,0.01574707,-0.32391357,-0.041992188,-0.021484375,-0.0234375,2.3600767,-6.5661983,0.5580888,19.62827,1.0244141,-0.06573486,-0.117614746,0.19335938,0.0546875,0.0625,3.7453864,-6.1442504,-56.446743,18.913881,0.42993164,-0.29693604,0.86517334,0.0048828125,0.0859375,-0.09082031,9.589376,-11.276735,-128.26865,17.357555,0.0,0.0,0.0,0.0,0.0,0.0,0.0,-30.032263,-128.661,10.416494,0.0,0.0,0.0,0.0,0.0,0.0,0.0,0.24477515,44.987446,-1.1972399,
1.367187479627319,70,-0.013122559,0.83843994,0.4375,-0.0234375,-0.03125,0.047851562,0.0,0.0,0.0,0.0,0.0,0.0,0.0,0.0,0.0,0.0,0.0,0.31672373,-0.027210206,-0.94827193,-1.00177,0.018005371,0.03338623,-0.041015625,0.041992188,-0.00390625,0.63489,6.5571632,-0.56333566,-19.63217,1.0224609,-0.14892578,-0.10986328,-0.051757812,0.017578125,-0.0029296875,0.71408963,6.692611,-57.531116,-17.546131,-0.49206543,-0.3515625,0.81085205,0.0078125,-0.030273438,0.0,3.3654594,5.1814694,-129.51076,-15.778777,0.0,0.0,0.0,0.0,0.0,0.0,0.0,-13.298748,-128.49472,-23.327791,0.0,0.0,0.0,0.0,0.0,0.0,0.0,-0.31672373,0.027210206,0.94827193,-0.9234009,0.043762207,-0.35614014,-0.041992188,-0.060546875,-0.00390625,2.3390846,-6.5571632,0.56333566,19.63217,1.0087891,-0.02960205,-0.11553955,0.05859375,0.038085938,0.064453125,3.657198,-6.1914034,-56.4384,18.941858,0.4216919,-0.32354736,0.84552,0.0234375,0.08496094,-0.015625,9.361117,-11.282434,-128.26013,17.408686,0.0,0.0,0.0,0.0,0.0,0.0,0.0,-30.04156,-128.66566,10.47661,0.0,0.0,0.0,0.0,0.0,0.0,0.0,0.17150593,44.988926,-1.2336524,
1.3867187293362806,71,-0.013793945,0.8256836,0.4602661,-0.0625,-0.030273438,0.048828125,0.0,0.0,0.0,0.0,0.0,0.0,0.0,0.0,0.0,0.0,0.0,0.317451,-0.027058126,-0.9479998,-0.9818115,0.014160156,0.072143555,-0.060546875,0.0029296875,0.0146484375,0.591822,6.572221,-0.5601871,-19.626535,1.0001831,-0.14703369,-0.12261963,0.005859375,0.016601562,0.017578125,0.7602757,6.7093863,-57.528435,-17.488039,-0.48651123,-0.32598877,0.7821045,-0.01171875,-0.029296875,0.037109375,3.3863952,5.1735015,-129.50528,-15.719927,0.0,0.0,0.0,0.0,0.0,0.0,0.0,-13.307863,-128.47852,-23.266241,0.0,0.0,0.0,0.0,0.0,0.0,0.0,-0.317451,0.027058126,0.9479998,-0.9249878,-0.0010375977,-0.36431885,-0.080078125,0.038085938,-0.0234375,2.3552616,-6.572221,0.5601871,19.626535,1.0239868,-0.11663818,-0.11920166,0.0,0.057617188,0.06542969,3.6704519,-6.2303467,-56.44394,18.919676,0.43615723,-0.30090332,0.85235596,0.0048828125,0.14257812,-0.015625,9.499102,-11.367217,-128.26572,17.355555,0.0,0.0,0.0,0.0,0.0,0.0,0.0,-30.122932,-128.68213,10.414412,0.0,0.0,0.0,0.0,0.0,0.0,0.0,0.0718036,44.98704,-1.2599908,
1.4062499790452423,72,-0.011108398,0.8164673,0.42926025,0.016601562,-0.013671875,0.06542969,0.0,0.0,0.0,0.0,0.0,0.0,0.0,0.0,0.0,0.0,0.0,0.31827402,-0.027385488,-0.94775885,-0.9987793,0.02734375,0.053466797,-0.041015625,0.00390625,-0.0048828125,0.5226451,6.589259,-0.5669645,-19.621548,1.006897,-0.124816895,-0.10961914,0.025390625,0.015625,0.037109375,0.7853427,6.722355,-57.535675,-17.461946,-0.49609375,-0.3513794,0.8029785,-0.01171875,-0.030273438,0.018554688,3.3676112,5.162239,-129.51044,-15.694203,0.0,0.0,0.0,0.0,0.0,0.0,0.0,-13.317881,-128.48093,-23.240622,0.0,0.0,0.0,0.0,0.0,0.0,0.0,-0.31827402,0.027385488,0.94775885,-0.9227295,0.016418457,-0.35931396,-0.099609375,-9.765625E-4,0.017578125,2.4322846,-6.589259,0.5669645,19.621548,1.0377808,-0.09692383,-0.1383667,0.15527344,0.037109375,0.06347656,3.725677,-6.2563024,-56.437183,18.874989,0.41351318,-0.30749512,0.8563843,0.060546875,0.045898438,0.041015625,9.569079,-11.47364,-128.24303,17.262564,0.0,0.0,0.0,0.0,0.0,0.0,0.0,-30.23301,-128.66267,10.332004,0.0,0.0,0.0,0.0,0.0,0.0,0.0,-0.014015377,44.987724,-1.3046267,
1.425781228754204,73,-0.0079956055,0.826355,0.43725586,0.037109375,0.024414062,0.06542969,0.0,0.0,0.0,0.0,0.0,0.0,0.0,0.0,0.0,0.0,0.0,0.3174357,-0.027688567,-0.9480288,-0.9987793,0.017822266,0.04034424,-0.041015625,0.0029296875,0.033203125,0.4901886,6.5719037,-0.57323915,-19.627136,1.0106201,-0.13769531,-0.11071777,-0.013671875,0.016601562,-0.001953125,0.8256681,6.7285213,-57.538204,-17.434757,-0.46484375,-0.35028076,0.79003906,-0.01171875,0.005859375,-0.018554688,3.3741162,5.1549306,-129.51326,-15.653259,0.0,0.0,0.0,0.0,0.0,0.0,0.0,-13.3266735,-128.47913,-23.197838,0.0,0.0,0.0,0.0,0.0,0.0,0.0,-0.3174357,0.027688567,0.9480288,-0.91796875,-0.0031738281,-0.3604126,-0.11816406,0.0,-0.022460938,2.4765437,-6.5719037,0.57323915,19.627136,1.0320435,-0.068847656,-0.13745117,0.15429688,0.037109375,0.026367188,3.6739178,-6.2780037,-56.43164,18.875326,0.42993164,-0.3098755,0.85931396,0.060546875,0.045898438,0.0029296875,9.285439,-11.471027,-128.23886,17.189459,0.0,0.0,0.0,0.0,0.0,0.0,0.0,-30.230782,-128.67265,10.265713,0.0,0.0,0.0,0.0,0.0,0.0,0.0,-0.09878668,44.98627,-1.3469672,
1.4453124784631657,74,-0.026123047,0.82092285,0.43963623,0.020507812,0.10058594,0.030273438,0.0,0.0,0.0,0.0,0.0,0.0,0.0,0.0,0.0,0.0,0.0,0.31771073,-0.026918914,-0.94794875,-1.0159912,0.021972656,0.041381836,-0.059570312,0.060546875,-0.00390625,0.56786233,6.5775976,-0.557305,-19.625479,1.0165405,-0.13781738,-0.14367676,-0.051757812,-0.001953125,-0.0029296875,0.87826437,6.7560744,-57.52352,-17.37699,-0.48358154,-0.32806396,0.7880249,-0.01171875,0.005859375,0.018554688,3.4150085,5.1832914,-129.49925,-15.600194,0.0,0.0,0.0,0.0,0.0,0.0,0.0,-13.297921,-128.45728,-23.14319,0.0,0.0,0.0,0.0,0.0,0.0,0.0,-0.31771073,0.026918914,0.94794875,-0.9140625,-0.010498047,-0.34570312,-0.060546875,-0.001953125,-0.0029296875,2.4515216,-6.5775976,0.557305,19.625479,1.0244141,-0.053771973,-0.12554932,0.09667969,0.01953125,0.064453125,3.644165,-6.2697563,-56.44324,18.873106,0.43017578,-0.26098633,0.86517334,0.001953125,0.009765625,0.022460938,9.14396,-11.405615,-128.25562,17.169647,0.0,0.0,0.0,0.0,0.0,0.0,0.0,-30.154116,-128.72874,10.211834,0.0,0.0,0.0,0.0,0.0,0.0,0.0,-0.15536806,44.9862,-1.3295462,
1.4648437281721274,75,-0.024475098,0.8296509,0.41381836,-0.020507812,0.043945312,0.0126953125,0.0,0.0,0.0,0.0,0.0,0.0,0.0,0.0,0.0,0.0,0.0,0.3182473,-0.026091173,-0.947768,-1.0040283,0.03100586,0.074401855,-0.022460938,0.00390625,-0.0048828125,0.63427335,6.588705,-0.54016817,-19.621733,1.0112915,-0.1484375,-0.1217041,0.005859375,0.03515625,0.017578125,0.9037398,6.7581763,-57.50073,-17.338333,-0.46954346,-0.3295288,0.7939453,-0.01171875,0.024414062,0.037109375,3.403753,5.182129,-129.47227,-15.578641,0.0,0.0,0.0,0.0,0.0,0.0,0.0,-13.299631,-128.42972,-23.123844,0.0,0.0,0.0,0.0,0.0,0.0,0.0,-0.3182473,0.026091173,0.947768,-0.9382324,-0.016845703,-0.38702393,-0.041992188,0.017578125,-0.0234375,2.3963706,-6.588705,0.54016817,19.621733,1.0126343,-0.02368164,-0.12945557,-0.07714844,0.041015625,0.047851562,3.6171458,-6.241486,-56.46235,18.90055,0.4093628,-0.3114624,0.8613281,-0.017578125,-0.009765625,0.060546875,8.979908,-11.2886915,-128.28879,17.198229,0.0,0.0,0.0,0.0,0.0,0.0,0.0,-30.035679,-128.77667,10.238348,0.0,0.0,0.0,0.0,0.0,0.0,0.0,-0.21905477,44.985428,-1.3119626,
1.484374977881089,76,-0.025390625,0.83569336,0.42382812,0.037109375,0.0234375,0.029296875,0.0,0.0,0.0,0.0,0.0,0.0,0.0,0.0,0.0,0.0,0.0,0.31767395,-0.025294557,-0.9479616,-0.9968262,0.029174805,0.061462402,-0.022460938,0.00390625,-0.0048828125,0.6838553,6.576835,-0.52367574,-19.625746,1.022583,-0.14202881,-0.122802734,-0.049804688,0.0546875,0.03515625,0.8793776,6.730609,-57.483463,-17.33791,-0.49176025,-0.3338623,0.8118286,0.026367188,-0.0126953125,0.01953125,3.4141486,5.161935,-129.46135,-15.556831,0.0,0.0,0.0,0.0,0.0,0.0,0.0,-13.31504,-128.42244,-23.112783,0.0,0.0,0.0,0.0,0.0,0.0,0.0,-0.31767395,0.025294557,0.9479616,-0.92474365,0.019042969,-0.38482666,0.03515625,0.053710938,-0.00390625,2.361569,-6.576835,0.52367574,19.625746,1.0080566,-0.0914917,-0.13287354,-0.15429688,0.0234375,0.06738281,3.604783,-6.2025614,-56.483032,18.906471,0.43615723,-0.30194092,0.8513794,0.001953125,0.0087890625,0.07910156,9.071599,-11.197523,-128.30896,17.190718,0.0,0.0,0.0,0.0,0.0,0.0,0.0,-29.935377,-128.80022,10.210056,0.0,0.0,0.0,0.0,0.0,0.0,0.0,-0.2575521,44.985092,-1.2866507,
1.5039062275900508,77,-0.02545166,0.8226929,0.41778564,0.017578125,0.0048828125,0.029296875,0.0,0.0,0.0,0.0,0.0,0.0,0.0,0.0,0.0,0.0,0.0,0.31719002,-0.024554923,-0.948102,-0.9968872,0.008911133,0.0491333,-0.041015625,0.022460938,-0.0048828125,0.7638705,6.5668163,-0.50836307,-19.62865,1.0026855,-0.13049316,-0.11755371,-0.0703125,-0.001953125,0.015625,0.89656615,6.7247934,-57.465908,-17.299349,-0.48815918,-0.35943604,0.7911377,0.026367188,0.0234375,0.037109375,3.3970742,5.154871,-129.44046,-15.490712,0.0,0.0,0.0,0.0,0.0,0.0,0.0,-13.319658,-128.4073,-23.055231,0.0,0.0,0.0,0.0,0.0,0.0,0.0,-0.31719002,0.024554923,0.948102,-0.907959,-0.0067749023,-0.38110352,0.015625,-0.00390625,0.016601562,2.3335552,-6.5668163,0.50836307,19.62865,1.008667,-0.056518555,-0.109436035,-0.11621094,0.059570312,0.047851562,3.6163878,-6.145312,-56.493736,18.9089,0.4206543,-0.31567383,0.8554077,0.001953125,-0.009765625,0.07910156,9.232078,-11.094231,-128.31891,17.187145,0.0,0.0,0.0,0.0,0.0,0.0,0.0,-29.819012,-128.80759,10.168489,0.0,0.0,0.0,0.0,0.0,0.0,0.0,-0.29637444,44.983734,-1.264188,
1.5234374772990125,78,-0.05645752,0.8475342,0.442688,0.017578125,0.0048828125,0.0107421875,0.0,0.0,0.0,0.0,0.0,0.0,0.0,0.0,0.0,0.0,0.0,0.3171282,-0.023456708,-0.9482575,-1.0,0.01361084,0.061157227,0.015625,0.00390625,0.0146484375,0.8706562,6.565537,-0.48562664,-19.631872,0.977478,-0.1618042,-0.11846924,-0.049804688,0.0546875,0.03515625,0.9381607,6.729565,-57.442627,-17.25469,-0.4755249,-0.3215332,0.8167114,0.026367188,0.0048828125,0.01953125,3.3746386,5.154578,-129.42172,-15.451129,0.0,0.0,0.0,0.0,0.0,0.0,0.0,-13.316337,-128.38258,-23.020813,0.0,0.0,0.0,0.0,0.0,0.0,0.0,-0.3171282,0.023456708,0.9482575,-0.9360962,-0.002746582,-0.3250122,0.034179688,-0.0048828125,0.016601562,2.2635617,-6.565537,0.48562664,19.631872,1.0040283,-0.06549072,-0.14776611,-0.07714844,0.041015625,0.047851562,3.5940123,-6.1284356,-56.51594,18.932377,0.4321289,-0.28094482,0.8641968,-0.017578125,-0.009765625,0.11621094,9.318294,-11.021692,-128.34839,17.185524,0.0,0.0,0.0,0.0,0.0,0.0,0.0,-29.728304,-128.83055,10.117461,0.0,0.0,0.0,0.0,0.0,0.0,0.0,-0.33723348,44.989086,-1.2256608,
1.5429687270079742,79,-0.020080566,0.82470703,0.44152832,-0.0234375,-0.032226562,0.01171875,0.0,0.0,0.0,0.0,0.0,0.0,0.0,0.0,0.0,0.0,0.0,0.31815994,-0.022593394,-0.94784284,-1.0006714,0.032470703,0.04058838,0.052734375,0.00390625,-0.0048828125,0.9526493,6.586898,-0.4677533,-19.623285,0.9859009,-0.14935303,-0.13043213,-0.08886719,0.037109375,0.0146484375,0.93418944,6.7257743,-57.424976,-17.222727,-0.47888184,-0.3421631,0.82073975,0.026367188,-0.013671875,9.765625E-4,3.382635,5.167597,-129.40254,-15.432062,0.0,0.0,0.0,0.0,0.0,0.0,0.0,-13.299803,-128.35912,-23.008162,0.0,0.0,0.0,0.0,0.0,0.0,0.0,-0.31815994,0.022593394,0.94784284,-0.94091797,0.007507324,-0.38098145,0.07324219,0.033203125,-0.025390625,2.2119586,-6.586898,0.4677533,19.623285,1.0308838,-0.048828125,-0.09411621,-0.07714844,0.041015625,0.047851562,3.6185532,-6.1169205,-56.53773,18.954628,0.43206787,-0.30767822,0.83270264,-0.055664062,-0.0087890625,0.041015625,9.296629,-10.996441,-128.3634,17.2275,0.0,0.0,0.0,0.0,0.0,0.0,0.0,-29.705967,-128.84848,10.171028,0.0,0.0,0.0,0.0,0.0,0.0,0.0,-0.40773255,44.985107,-1.2091565,
1.5624999767169359,80,-0.033081055,0.8529663,0.4560547,-0.061523438,-0.0126953125,0.0126953125,0.0,0.0,0.0,0.0,0.0,0.0,0.0,0.0,0.0,0.0,0.0,0.3177949,-0.02209849,-0.9480099,-0.9904785,0.02758789,0.031555176,0.015625,0.022460938,-0.0048828125,1.0009288,6.5793395,-0.45750722,-19.626743,1.0424194,-0.1585083,-0.123046875,-0.06933594,0.055664062,0.034179688,0.98952496,6.7520127,-57.4174,-17.192383,-0.49871826,-0.331604,0.79992676,0.044921875,-0.013671875,0.038085938,3.3516438,5.1869154,-129.3948,-15.407985,0.0,0.0,0.0,0.0,0.0,0.0,0.0,-13.276467,-128.34888,-22.995508,0.0,0.0,0.0,0.0,0.0,0.0,0.0,-0.3177949,0.02209849,0.9480099,-0.92193604,-7.9345703E-4,-0.41638184,0.053710938,-0.0048828125,0.015625,2.2142582,-6.5793395,0.45750722,19.626743,1.0083008,-0.06555176,-0.12908936,-0.13574219,0.07910156,0.047851562,3.6448634,-6.0926833,-56.542347,18.93564,0.40325928,-0.3013916,0.8623657,-0.036132812,0.009765625,0.022460938,9.290412,-10.993908,-128.37466,17.237772,0.0,0.0,0.0,0.0,0.0,0.0,0.0,-29.712454,-128.8631,10.202032,0.0,0.0,0.0,0.0,0.0,0.0,0.0,-0.43033934,44.986736,-1.1929184,
1.5820312264258976,81,-0.028381348,0.8546753,0.434021,-0.021484375,0.005859375,0.01171875,0.0,0.0,0.0,0.0,0.0,0.0,0.0,0.0,0.0,0.0,0.0,0.31750554,-0.021163655,-0.9481366,-0.9805908,0.0413208,0.07562256,0.034179688,0.0029296875,0.033203125,1.032493,6.573349,-0.43815327,-19.629368,0.9700928,-0.13598633,-0.123291016,-0.06933594,0.036132812,0.053710938,0.9787881,6.7678165,-57.393906,-17.21467,-0.48858643,-0.32403564,0.80682373,0.064453125,-0.032226562,0.0390625,3.3805509,5.2163086,-129.36905,-15.422296,0.0,0.0,0.0,0.0,0.0,0.0,0.0,-13.243973,-128.31775,-23.013784,0.0,0.0,0.0,0.0,0.0,0.0,0.0,-0.31750554,0.021163655,0.9481366,-0.9089966,-0.008056641,-0.36834717,0.03515625,0.034179688,0.016601562,2.1603014,-6.573349,0.43815327,19.629368,1.024353,-0.101623535,-0.103515625,-0.05859375,0.05859375,0.046875,3.6883857,-6.0821705,-56.56432,18.960571,0.43798828,-0.33795166,0.852417,-0.034179688,0.08691406,-0.0146484375,9.373874,-11.0337715,-128.39064,17.297922,0.0,0.0,0.0,0.0,0.0,0.0,0.0,-29.76321,-128.87515,10.29471,0.0,0.0,0.0,0.0,0.0,0.0,0.0,-0.48334453,44.987263,-1.166034,
1.6015624761348592,82,-0.024414062,0.8306885,0.42181396,-0.022460938,-0.013671875,0.01171875,0.0,0.0,0.0,0.0,0.0,0.0,0.0,0.0,0.0,0.0,0.0,0.31705466,-0.020726945,-0.94828886,-0.99884033,0.027282715,0.059448242,0.034179688,0.00390625,-0.0048828125,1.0631206,6.564014,-0.429112,-19.63252,1.0125122,-0.1416626,-0.115722656,-0.05078125,0.036132812,0.015625,0.9638805,6.7476106,-57.385677,-17.22539,-0.46643066,-0.32470703,0.79888916,0.044921875,-0.013671875,0.01953125,3.386164,5.171973,-129.35945,-15.403509,0.0,0.0,0.0,0.0,0.0,0.0,0.0,-13.290933,-128.30463,-22.991808,0.0,0.0,0.0,0.0,0.0,0.0,0.0,-0.31705466,0.020726945,0.94828886,-0.9279785,0.0010375977,-0.36627197,-0.022460938,-0.0029296875,0.016601562,2.151223,-6.564014,0.429112,19.63252,1.024231,-0.077697754,-0.123413086,0.0,0.057617188,0.046875,3.6630292,-6.103194,-56.57373,18.974485,0.428833,-0.3157959,0.8553467,-0.0546875,0.0107421875,0.022460938,9.4245,-11.058117,-128.40347,17.304607,0.0,0.0,0.0,0.0,0.0,0.0,0.0,-29.785444,-128.90681,10.295527,0.0,0.0,0.0,0.0,0.0,0.0,0.0,-0.53329015,44.986465,-1.1615806,
1.621093725843821,83,-0.016296387,0.8115845,0.4194336,-0.061523438,-0.01171875,0.048828125,0.0,0.0,0.0,0.0,0.0,0.0,0.0,0.0,0.0,0.0,0.0,0.31765902,-0.020459514,-0.94810694,-1.0049438,0.012939453,0.04724121,0.015625,-0.015625,0.0146484375,1.102694,6.576526,-0.4235754,-19.628756,1.0111084,-0.15527344,-0.12573242,-0.05078125,-0.001953125,0.03515625,0.9875455,6.754232,-57.378838,-17.206936,-0.47613525,-0.35699463,0.8157959,0.044921875,0.0048828125,0.038085938,3.3915946,5.141267,-129.35892,-15.378245,0.0,0.0,0.0,0.0,0.0,0.0,0.0,-13.326591,-128.29254,-22.949934,0.0,0.0,0.0,0.0,0.0,0.0,0.0,-0.31765902,0.020459514,0.94810694,-0.94403076,0.0032958984,-0.36724854,-0.00390625,-0.00390625,-0.00390625,2.1285405,-6.576526,0.4235754,19.628756,1.024231,-0.081726074,-0.123413086,-0.07714844,0.041015625,0.06640625,3.642499,-6.146148,-56.58356,19.006372,0.41662598,-0.29675293,0.8731079,-0.055664062,-0.0087890625,0.041015625,9.438776,-11.108625,-128.41096,17.352417,0.0,0.0,0.0,0.0,0.0,0.0,0.0,-29.83491,-128.92671,10.341761,0.0,0.0,0.0,0.0,0.0,0.0,0.0,-0.575743,44.986504,-1.1636789,
1.6406249755527826,84,-0.032165527,0.8668213,0.45513916,-0.041015625,0.025390625,0.03125,0.0,0.0,0.0,0.0,0.0,0.0,0.0,0.0,0.0,0.0,0.0,0.31820416,-0.020126458,-0.9479166,-0.9845581,0.032043457,0.05255127,-0.00390625,0.00390625,-0.0048828125,1.1531789,6.5878115,-0.41668007,-19.624811,1.0112305,-0.14935303,-0.13269043,-0.0146484375,-0.001953125,-0.001953125,0.9944564,6.7458067,-57.37098,-17.186901,-0.4847412,-0.33599854,0.80981445,0.0068359375,0.005859375,0.0,3.3936722,5.1176133,-129.34122,-15.361849,0.0,0.0,0.0,0.0,0.0,0.0,0.0,-13.350424,-128.26753,-22.931278,0.0,0.0,0.0,0.0,0.0,0.0,0.0,-0.31820416,0.020126458,0.9479166,-0.94403076,0.0032958984,-0.36724854,-0.00390625,-0.00390625,-0.00390625,2.130103,-6.5878115,0.41668007,19.624811,1.039917,-0.09289551,-0.13354492,-0.15429688,0.0234375,0.06738281,3.60804,-6.1574335,-56.590458,19.002428,0.4215088,-0.30810547,0.9026489,-0.0546875,0.0107421875,0.041992188,9.452553,-11.080283,-128.42088,17.374798,0.0,0.0,0.0,0.0,0.0,0.0,0.0,-29.805569,-128.9331,10.361434,0.0,0.0,0.0,0.0,0.0,0.0,0.0,-0.6094064,44.985535,-1.1597172,
1.6601562252617443,85,-0.029174805,0.8399048,0.44488525,-0.001953125,0.005859375,0.029296875,0.0,0.0,0.0,0.0,0.0,0.0,0.0,0.0,0.0,0.0,0.0,0.3176069,-0.01970303,-0.94813734,-0.99591064,0.01739502,0.06524658,-0.00390625,0.00390625,-0.0048828125,1.2062584,6.5754476,-0.40791383,-19.629381,0.9852905,-0.13360596,-0.13934326,-0.0126953125,0.03515625,0.036132812,0.9785881,6.7084217,-57.365997,-17.182575,-0.4706421,-0.33447266,0.8078003,0.0068359375,0.0234375,0.018554688,3.410993,5.07607,-129.33951,-15.345554,0.0,0.0,0.0,0.0,0.0,0.0,0.0,-13.39042,-128.25641,-22.921238,0.0,0.0,0.0,0.0,0.0,0.0,0.0,-0.3176069,0.01970303,0.94813734,-0.92004395,-0.00793457,-0.36437988,-0.00390625,-0.00390625,-0.024414062,2.0797079,-6.5754476,0.40791383,19.629381,1.0238647,-0.079711914,-0.1451416,-0.13574219,0.0234375,0.048828125,3.568754,-6.1701365,-56.593876,19.054916,0.40527344,-0.3015747,0.87713623,-0.018554688,-0.047851562,0.07910156,9.524934,-11.062645,-128.42244,17.41689,0.0,0.0,0.0,0.0,0.0,0.0,0.0,-29.791084,-128.93204,10.411892,0.0,0.0,0.0,0.0,0.0,0.0,0.0,-0.63822573,44.985912,-1.148635,
1.679687474970706,86,-0.040161133,0.854126,0.4552002,-0.001953125,0.024414062,0.030273438,0.0,0.0,0.0,0.0,0.0,0.0,0.0,0.0,0.0,0.0,0.0,0.3175694,-0.019443037,-0.9481544,-0.99884033,0.029174805,0.060424805,-0.022460938,0.022460938,-0.0048828125,1.209984,6.5746713,-0.40253115,-19.629736,0.98010254,-0.14227295,-0.1184082,-0.013671875,0.016601562,-0.001953125,0.9769872,6.7326665,-57.35683,-17.191826,-0.46661377,-0.32873535,0.8206787,0.0078125,-0.01171875,0.038085938,3.4498603,5.095004,-129.3276,-15.323385,0.0,0.0,0.0,0.0,0.0,0.0,0.0,-13.375871,-128.23302,-22.886738,0.0,0.0,0.0,0.0,0.0,0.0,0.0,-0.3175694,0.019443037,0.9481544,-0.9269409,0.002746582,-0.35546875,-0.00390625,0.015625,-0.00390625,2.1220021,-6.5746713,0.40253115,19.629736,1.0155029,-0.059631348,-0.1194458,-0.13574219,0.041992188,0.047851562,3.5342424,-6.185049,-56.6054,19.022318,0.4257202,-0.32965088,0.8475342,-0.055664062,0.009765625,0.09765625,9.653087,-11.061735,-128.44328,17.38794,0.0,0.0,0.0,0.0,0.0,0.0,0.0,-29.783077,-128.93639,10.360481,0.0,0.0,0.0,0.0,0.0,0.0,0.0,-0.67064935,44.985447,-1.1471035,
1.6992187246796677,87,-0.030334473,0.8239136,0.4298706,0.018554688,0.043945312,0.047851562,0.0,0.0,0.0,0.0,0.0,0.0,0.0,0.0,0.0,0.0,0.0,0.31710923,-0.018758595,-0.9483527,-0.9907837,0.026062012,0.06640625,-0.00390625,-0.034179688,-0.0048828125,1.2630006,6.5651445,-0.3883611,-19.633842,0.998291,-0.14105225,-0.12652588,-0.013671875,0.016601562,0.017578125,0.9587917,6.7170687,-57.346653,-17.193352,-0.49084473,-0.33874512,0.80389404,-0.01171875,0.005859375,0.018554688,3.4669008,5.089403,-129.31921,-15.306078,0.0,0.0,0.0,0.0,0.0,0.0,0.0,-13.382353,-128.22064,-22.864857,0.0,0.0,0.0,0.0,0.0,0.0,0.0,-0.31710923,0.018758595,0.9483527,-0.95318604,-0.005126953,-0.37609863,0.03515625,-0.0048828125,-0.024414062,2.088535,-6.5651445,0.3883611,19.633842,1.0083618,-0.07946777,-0.121154785,-0.15429688,0.0234375,0.048828125,3.5050373,-6.1643596,-56.617165,19.040794,0.42980957,-0.32781982,0.8583374,-0.055664062,-0.0087890625,0.07910156,9.791814,-10.988224,-128.4548,17.416191,0.0,0.0,0.0,0.0,0.0,0.0,0.0,-29.696598,-128.92986,10.351977,0.0,0.0,0.0,0.0,0.0,0.0,0.0,-0.7048815,44.986767,-1.1255444,
1.7187499743886294,88,-0.036193848,0.82318115,0.4439087,-9.765625E-4,0.043945312,0.030273438,0.0,0.0,0.0,0.0,0.0,0.0,0.0,0.0,0.0,0.0,0.0,0.31694135,-0.01800657,-0.9483885,-1.001831,0.028381348,0.051452637,-0.00390625,-0.015625,0.033203125,1.349732,6.5616693,-0.37279186,-19.634583,0.9937134,-0.15844727,-0.1375122,-0.0146484375,-0.001953125,-0.020507812,0.9785881,6.6876097,-57.325413,-17.168531,-0.50549316,-0.3156128,0.79296875,-0.01171875,0.024414062,0.0,3.4594383,5.0551977,-129.2945,-15.314253,0.0,0.0,0.0,0.0,0.0,0.0,0.0,-13.415093,-128.18935,-22.877117,0.0,0.0,0.0,0.0,0.0,0.0,0.0,-0.31694135,0.01800657,0.9483885,-0.91192627,-0.0020141602,-0.4154663,0.015625,0.03515625,-0.00390625,2.0780132,-6.5616693,0.37279186,19.634583,1.0282593,-0.09375,-0.111572266,-0.15527344,0.041992188,0.048828125,3.5498307,-6.134104,-56.633472,19.02458,0.4298706,-0.3098755,0.8612671,-0.055664062,-0.02734375,0.060546875,9.997766,-10.988291,-128.46481,17.424757,0.0,0.0,0.0,0.0,0.0,0.0,0.0,-29.68987,-128.92259,10.346092,0.0,0.0,0.0,0.0,0.0,0.0,0.0,-0.73778117,44.985367,-1.100673,
1.7382812240975911,89,-0.049316406,0.8245239,0.4442749,-0.0029296875,-0.013671875,0.01171875,0.0,0.0,0.0,0.0,0.0,0.0,0.0,0.0,0.0,0.0,0.0,0.31787246,-0.016969303,-0.9480977,-0.9968872,0.012756348,0.051208496,-0.022460938,0.1171875,0.034179688,1.3815435,6.5809455,-0.35131717,-19.628563,1.0095825,-0.13562012,-0.1315918,0.0234375,0.016601562,-9.765625E-4,1.0129772,6.771939,-57.302063,-17.157938,-0.4937744,-0.33666992,0.79797363,0.0068359375,0.0234375,0.018554688,3.4840267,5.1562395,-129.27765,-15.29224,0.0,0.0,0.0,0.0,0.0,0.0,0.0,-13.308307,-128.16956,-22.865128,0.0,0.0,0.0,0.0,0.0,0.0,0.0,-0.31787246,0.016969303,0.9480977,-0.93792725,0.0071411133,-0.3671875,0.015625,0.0546875,0.016601562,2.0163505,-6.5809455,0.35131717,19.628563,1.0087891,-0.07745361,-0.091552734,-0.057617188,0.040039062,0.046875,3.6124332,-6.1535044,-56.65049,19.05368,0.42993164,-0.30786133,0.85632324,-0.036132812,0.009765625,0.060546875,10.202224,-11.076971,-128.4803,17.43252,0.0,0.0,0.0,0.0,0.0,0.0,0.0,-29.783262,-128.9296,10.360424,0.0,0.0,0.0,0.0,0.0,0.0,0.0,-0.78029895,44.985542,-1.066777,
1.7578124738065528,90,-0.054382324,0.82958984,0.44244385,-0.001953125,0.0048828125,0.01171875,0.0,0.0,0.0,0.0,0.0,0.0,0.0,0.0,0.0,0.0,0.0,0.3176803,-0.015451359,-0.94817555,-0.98461914,0.03765869,0.066589355,-0.00390625,0.060546875,0.034179688,1.4395345,6.5769663,-0.31989104,-19.630175,1.0057373,-0.12860107,-0.1305542,-0.0126953125,0.016601562,0.036132812,0.99759984,6.7971125,-57.27215,-17.172478,-0.49395752,-0.3435669,0.8078613,-0.01171875,0.005859375,0.018554688,3.516136,5.1997623,-129.24626,-15.273943,0.0,0.0,0.0,0.0,0.0,0.0,0.0,-13.265362,-128.13872,-22.846151,0.0,0.0,0.0,0.0,0.0,0.0,0.0,-0.3176803,0.015451359,0.94817555,-0.9157715,0.011413574,-0.36029053,0.015625,-0.00390625,0.016601562,1.9430977,-6.5769663,0.31989104,19.630175,1.0125122,-0.06060791,-0.119384766,-0.07714844,0.022460938,0.047851562,3.5976057,-6.1817317,-56.686188,19.071545,0.42156982,-0.33270264,0.8623047,-0.0546875,0.0107421875,0.022460938,10.142298,-11.1219635,-128.51248,17.443836,0.0,0.0,0.0,0.0,0.0,0.0,0.0,-29.836136,-128.96098,10.398241,0.0,0.0,0.0,0.0,0.0,0.0,0.0,-0.8057718,44.986023,-1.0030558,
1.7773437235155145,91,-0.0413208,0.82922363,0.4401245,-0.00390625,-0.032226562,0.029296875,0.0,0.0,0.0,0.0,0.0,0.0,0.0,0.0,0.0,0.0,0.0,0.31776407,-0.014391618,-0.94815344,-1.0090332,0.014831543,0.053222656,0.015625,0.022460938,0.033203125,1.5071411,6.5787005,-0.29795113,-19.629715,0.9850464,-0.14538574,-0.12542725,-0.032226562,0.016601562,0.036132812,0.98576045,6.783639,-57.251953,-17.174995,-0.473938,-0.34918213,0.8128052,0.0068359375,0.005859375,0.0,3.5303068,5.168166,-129.2262,-15.25772,0.0,0.0,0.0,0.0,0.0,0.0,0.0,-13.300591,-128.11392,-22.820534,0.0,0.0,0.0,0.0,0.0,0.0,0.0,-0.31776407,0.014391618,0.94815344,-0.92456055,0.031921387,-0.35131836,-0.00390625,0.03515625,-0.00390625,1.8820081,-6.5787005,0.29795113,19.629715,1.0082397,-0.09246826,-0.121032715,-0.0390625,0.05859375,0.06542969,3.604783,-6.183643,-56.70927,19.093475,0.40844727,-0.2954712,0.86328125,0.0029296875,0.028320312,0.00390625,10.078468,-11.127248,-128.53905,17.458557,0.0,0.0,0.0,0.0,0.0,0.0,0.0,-29.852486,-128.98428,10.437025,0.0,0.0,0.0,0.0,0.0,0.0,0.0,-0.8301111,44.986042,-0.9610274,
1.7968749732244762,92,-0.027038574,0.8120117,0.44360352,-0.0625,-0.03125,0.0126953125,0.0,0.0,0.0,0.0,0.0,0.0,0.0,0.0,0.0,0.0,0.0,0.31852838,-0.01375852,-0.9479692,-0.99890137,0.012817383,0.051208496,-0.00390625,0.00390625,-0.0048828125,1.5669801,6.5945253,-0.28484404,-19.625902,0.9920654,-0.14764404,-0.11956787,-0.049804688,0.03515625,0.0546875,1.0471714,6.8219075,-57.235325,-17.135736,-0.47485352,-0.34613037,0.79992676,-0.01171875,0.024414062,0.0,3.5040874,5.172559,-129.2121,-15.218828,0.0,0.0,0.0,0.0,0.0,0.0,0.0,-13.298612,-128.09297,-22.775946,0.0,0.0,0.0,0.0,0.0,0.0,0.0,-0.31852838,0.01375852,0.9479692,-0.9220581,-0.0043945312,-0.3486328,-0.041992188,0.016601562,0.017578125,1.8614099,-6.5945253,0.28484404,19.625902,1.0201416,-0.06567383,-0.1352539,-0.057617188,0.021484375,0.06640625,3.5963538,-6.1920223,-56.718014,19.10266,0.43395996,-0.31793213,0.85827637,-0.036132812,-0.0087890625,0.07910156,9.989304,-11.1073885,-128.54231,17.444166,0.0,0.0,0.0,0.0,0.0,0.0,0.0,-29.831375,-128.98732,10.424128,0.0,0.0,0.0,0.0,0.0,0.0,0.0,-0.86372745,44.98847,-0.9431703,
1.816406222933438,93,-0.0211792,0.82470703,0.4326172,-0.0234375,-0.05078125,0.047851562,0.0,0.0,0.0,0.0,0.0,0.0,0.0,0.0,0.0,0.0,0.0,0.31797448,-0.013865428,-0.94814533,-0.9906616,0.03112793,0.054504395,-0.00390625,0.022460938,0.033203125,1.586096,6.583057,-0.28705737,-19.629549,0.99401855,-0.14666748,-0.1494751,-0.013671875,0.016601562,0.017578125,1.0662451,6.807164,-57.23872,-17.128046,-0.49786377,-0.3404541,0.7930298,-0.01171875,0.005859375,-0.018554688,3.473333,5.1586523,-129.20808,-15.240208,0.0,0.0,0.0,0.0,0.0,0.0,0.0,-13.303208,-128.09126,-22.82088,0.0,0.0,0.0,0.0,0.0,0.0,0.0,-0.31797448,0.013865428,0.94814533,-0.9212036,-0.01940918,-0.37628174,-0.00390625,0.03515625,-0.00390625,1.8888589,-6.583057,0.28705737,19.629549,1.039917,-0.081970215,-0.1375122,-0.07714844,0.041015625,0.047851562,3.6297905,-6.15529,-56.716908,19.103941,0.4258423,-0.31951904,0.83374023,-0.016601562,0.009765625,0.022460938,9.936066,-11.078482,-128.53911,17.426876,0.0,0.0,0.0,0.0,0.0,0.0,0.0,-29.80792,-128.98251,10.420307,0.0,0.0,0.0,0.0,0.0,0.0,0.0,-0.89754903,44.987125,-0.95888597,
1.8359374726423996,94,-0.008911133,0.8204346,0.4421997,-0.041992188,-0.0126953125,0.0126953125,0.0,0.0,0.0,0.0,0.0,0.0,0.0,0.0,0.0,0.0,0.0,0.31842652,-0.014321785,-0.94793457,-0.98651123,0.02545166,0.041503906,-0.00390625,0.022460938,0.033203125,1.5937275,6.5924163,-0.2965054,-19.625185,0.9859009,-0.15234375,-0.11151123,-0.013671875,-0.0029296875,0.017578125,1.0447394,6.787505,-57.250286,-17.125227,-0.49084473,-0.3378296,0.8187256,-0.01171875,0.024414062,0.0,3.4831836,5.1214514,-129.22058,-15.219727,0.0,0.0,0.0,0.0,0.0,0.0,0.0,-13.346185,-128.09782,-22.78632,0.0,0.0,0.0,0.0,0.0,0.0,0.0,-0.31842652,0.014321785,0.94793457,-0.9156494,0.018920898,-0.38580322,0.034179688,0.0146484375,0.016601562,1.969707,-6.5924163,0.2965054,19.625185,1.0040283,-0.080444336,-0.1408081,-0.057617188,0.021484375,0.047851562,3.6389494,-6.157411,-56.70993,19.069456,0.4277954,-0.32183838,0.85931396,-0.016601562,0.028320312,0.060546875,9.863941,-11.080145,-128.53143,17.33816,0.0,0.0,0.0,0.0,0.0,0.0,0.0,-29.810694,-128.9811,10.335661,0.0,0.0,0.0,0.0,0.0,0.0,0.0,-0.9308836,44.98349,-0.9923279,
1.8554687223513613,95,-0.020935059,0.8208008,0.4494629,0.017578125,0.0234375,-0.0068359375,0.0,0.0,0.0,0.0,0.0,0.0,0.0,0.0,0.0,0.0,0.0,0.31992128,-0.0145802,-0.9474247,-1.0047607,0.017150879,0.027404785,-0.00390625,0.022460938,-0.0048828125,1.5802865,6.623362,-0.30185533,-19.614628,1.0142212,-0.15246582,-0.12176514,-0.013671875,0.016601562,-0.001953125,1.0782896,6.8537126,-57.254406,-17.111322,-0.4633789,-0.31793213,0.80877686,0.0068359375,0.005859375,0.0,3.543703,5.1902733,-129.22737,-15.21748,0.0,0.0,0.0,0.0,0.0,0.0,0.0,-13.287746,-128.09164,-22.757263,0.0,0.0,0.0,0.0,0.0,0.0,0.0,-0.31992128,0.0145802,0.9474247,-0.9159546,-7.324219E-4,-0.38397217,-0.022460938,0.036132812,0.016601562,2.0848773,-6.623362,0.30185533,19.614628,1.0165405,-0.053649902,-0.119506836,0.0,0.0390625,0.046875,3.637927,-6.2012854,-56.70309,19.000227,0.39709473,-0.31518555,0.85253906,0.001953125,0.0087890625,0.041015625,9.897238,-11.154854,-128.53061,17.275814,0.0,0.0,0.0,0.0,0.0,0.0,0.0,-29.888765,-128.97488,10.282707,0.0,0.0,0.0,0.0,0.0,0.0,0.0,-0.9748689,44.9818,-1.0214268,
1.874999972060323,96,-0.054382324,0.8684082,0.4547119,-0.041015625,0.025390625,0.0126953125,0.0,0.0,0.0,0.0,0.0,0.0,0.0,0.0,0.0,0.0,0.0,0.3126018,-0.022524148,-0.94726497,-0.9835205,0.016723633,0.035339355,-0.00390625,0.00390625,-0.0048828125,1.0829977,6.4718275,-0.4663197,-19.61132,0.9715576,-0.15563965,-0.12835693,-0.05078125,0.036132812,0.015625,1.1237874,6.742506,-57.419014,-17.096872,-0.48937988,-0.31323242,0.81073,-0.01171875,0.005859375,-0.018554688,3.5418794,5.0597167,-129.38547,-15.194656,0.0,0.0,0.0,0.0,0.0,0.0,0.0,-13.42189,-128.2451,-22.724495,0.0,0.0,0.0,0.0,0.0,0.0,0.0,-0.3126018,0.022524148,0.94726497,-0.9006958,0.013427734,-0.37408447,-0.00390625,0.015625,-0.00390625,2.0507092,-6.4718275,0.4663197,19.61132,1.0061035,-0.08947754,-0.1338501,-0.05859375,0.05859375,0.046875,3.618986,-6.0675335,-56.535835,19.014744,0.43304443,-0.31378174,0.84454346,-0.016601562,0.028320312,0.041015625,9.868666,-11.012234,-128.35793,17.276628,0.0,0.0,0.0,0.0,0.0,0.0,0.0,-29.747158,-128.8102,10.284277,0.0,0.0,0.0,0.0,0.0,0.0,0.0,-0.19738042,44.88478,-1.1324105,
1.8945312217692847,97,-0.054260254,0.81970215,0.44836426,-0.0625,-0.03125,0.03125,0.0,0.0,0.0,0.0,0.0,0.0,0.0,0.0,0.0,0.0,0.0,0.31263903,-0.021761157,-0.94940376,-0.96832275,0.020263672,0.042419434,0.015625,-0.015625,-0.0048828125,1.143979,6.472597,-0.4505234,-19.655602,0.9928589,-0.15252686,-0.14349365,0.0068359375,0.03515625,0.037109375,1.1262224,6.745053,-57.39985,-17.142403,-0.4804077,-0.3203125,0.7939453,-0.01171875,0.005859375,0.0,3.5443106,5.072902,-129.36801,-15.255939,0.0,0.0,0.0,0.0,0.0,0.0,0.0,-13.409784,-128.2282,-22.780281,0.0,0.0,0.0,0.0,0.0,0.0,0.0,-0.31263903,0.021761157,0.94940376,-0.9329834,0.004760742,-0.3534546,0.03515625,0.034179688,0.016601562,1.970601,-6.472597,0.4505234,19.655602,1.0280762,-0.073791504,-0.13635254,-0.07714844,0.059570312,0.046875,3.622609,-6.0684752,-56.55278,19.081411,0.42163086,-0.3375244,0.83966064,-0.016601562,0.028320312,0.060546875,9.787917,-11.012136,-128.3857,17.33721,0.0,0.0,0.0,0.0,0.0,0.0,0.0,-29.756353,-128.83463,10.370904,0.0,0.0,0.0,0.0,0.0,0.0,0.0,-0.17041208,44.97719,-1.0870329,
1.9140624714782464,98,-0.03753662,0.8290405,0.42010498,-0.0234375,-0.03125,0.06640625,0.0,0.0,0.0,0.0,0.0,0.0,0.0,0.0,0.0,0.0,0.0,0.3126938,-0.020969838,-0.9497015,-1.0080566,0.025390625,0.064331055,0.015625,0.041015625,0.034179688,1.1424384,6.4737296,-0.43414068,-19.661764,1.0013428,-0.14117432,-0.12261963,-0.013671875,0.016601562,-0.001953125,1.1153978,6.757607,-57.387196,-17.18505,-0.49157715,-0.3248291,0.7880249,-0.049804688,0.0068359375,-9.765625E-4,3.5433161,5.0999947,-129.3637,-15.323723,0.0,0.0,0.0,0.0,0.0,0.0,0.0,-13.379515,-128.22636,-22.858425,0.0,0.0,0.0,0.0,0.0,0.0,0.0,-0.3126938,0.020969838,0.9497015,-0.9421387,-0.006286621,-0.37615967,-0.022460938,0.016601562,-0.024414062,1.927626,-6.4737296,0.43414068,19.661764,1.0322876,-0.06982422,-0.12164307,0.0,0.0390625,0.02734375,3.6404016,-6.0567794,-56.571705,19.092237,0.42578125,-0.30981445,0.8602905,-0.016601562,0.028320312,0.041015625,9.78641,-10.997179,-128.395,17.30809,0.0,0.0,0.0,0.0,0.0,0.0,0.0,-29.742754,-128.84464,10.342636,0.0,0.0,0.0,0.0,0.0,0.0,0.0,-0.19885817,44.990475,-1.0588851,
1.933593721187208,99,-0.04437256,0.8651123,0.44744873,-0.041992188,-0.01171875,0.048828125,0.0,0.0,0.0,0.0,0.0,0.0,0.0,0.0,0.0,0.0,0.0,0.31232622,-0.020341028,-0.9498421,-0.98638916,0.03149414,0.026672363,-0.022460938,0.041992188,-0.00390625,1.1695231,6.466122,-0.42112237,-19.664677,0.9940796,-0.14978027,-0.10961914,0.024414062,0.03515625,-9.765625E-4,1.1800172,6.790792,-57.376804,-17.184233,-0.47851562,-0.32336426,0.8009033,-0.01171875,0.005859375,-0.018554688,3.5069919,5.1109004,-129.35513,-15.355507,0.0,0.0,0.0,0.0,0.0,0.0,0.0,-13.358652,-128.2179,-22.91319,0.0,0.0,0.0,0.0,0.0,0.0,0.0,-0.31232622,0.020341028,0.9498421,-0.89367676,0.010986328,-0.3996582,-0.00390625,-0.00390625,-0.00390625,1.9413848,-6.466122,0.42112237,19.664677,1.006897,-0.059570312,-0.16070557,-0.038085938,0.040039062,0.06640625,3.6091259,-6.0343313,-56.581654,19.055626,0.40838623,-0.3093872,0.85443115,-0.016601562,0.028320312,0.041015625,9.683792,-10.926465,-128.40617,17.274368,0.0,0.0,0.0,0.0,0.0,0.0,0.0,-29.669617,-128.8593,10.304739,0.0,0.0,0.0,0.0,0.0,0.0,0.0,-0.23337384,44.991005,-1.0402277,
1.9531249708961698,100,-0.036132812,0.83709717,0.45098877,-0.060546875,0.025390625,0.0126953125,0.0,0.0,0.0,0.0,0.0,0.0,0.0,0.0,0.0,0.0,0.0,0.312324,-0.019270018,-0.94989693,-0.9956665,0.041809082,0.058654785,0.015625,0.022460938,0.0146484375,1.2234935,6.4660745,-0.3989491,-19.665812,0.9976196,-0.1272583,-0.13842773,0.024414062,0.03515625,0.018554688,1.1740321,6.801614,-57.35437,-17.168346,-0.4897461,-0.33380127,0.7969971,-0.03125,0.024414062,-0.01953125,3.5641973,5.156183,-129.33362,-15.332257,0.0,0.0,0.0,0.0,0.0,0.0,0.0,-13.313677,-128.19136,-22.892517,0.0,0.0,0.0,0.0,0.0,0.0,0.0,-0.312324,0.019270018,0.94989693,-0.92523193,-0.016601562,-0.36834717,0.034179688,0.0146484375,0.016601562,1.882528,-6.4660745,0.3989491,19.665812,0.9927368,-0.061279297,-0.109069824,-0.07714844,0.059570312,0.046875,3.6154675,-6.0287895,-56.60319,19.075132,0.44207764,-0.33795166,0.84747314,-0.09375,-0.026367188,0.022460938,9.590627,-10.913362,-128.43878,17.269358,0.0,0.0,0.0,0.0,0.0,0.0,0.0,-29.663673,-128.87059,10.317308,0.0,0.0,0.0,0.0,0.0,0.0,0.0,-0.300848,44.992607,-1.0116576,
1.9726562206051315,101,-0.016052246,0.8265991,0.44244385,-0.001953125,0.0048828125,0.01171875,0.0,0.0,0.0,0.0,0.0,0.0,0.0,0.0,0.0,0.0,0.0,0.3129424,-0.018368531,-0.9496402,-0.9847412,0.008666992,0.05218506,0.034179688,0.041992188,-0.00390625,1.2431679,6.478878,-0.38028556,-19.660496,1.005127,-0.15209961,-0.118652344,-0.0126953125,0.015625,0.055664062,1.1738653,6.81762,-57.330105,-17.172655,-0.4998169,-0.33654785,0.8088379,0.0068359375,0.0234375,0.0,3.518752,5.1615715,-129.30502,-15.328927,0.0,0.0,0.0,0.0,0.0,0.0,0.0,-13.299866,-128.17108,-22.90935,0.0,0.0,0.0,0.0,0.0,0.0,0.0,-0.3129424,0.018368531,0.9496402,-0.9038086,0.0031738281,-0.39282227,-0.022460938,0.055664062,-0.00390625,1.8730439,-6.478878,0.38028556,19.660496,1.0283203,-0.06878662,-0.12158203,-0.05859375,0.07714844,0.046875,3.6592853,-6.0205064,-56.624374,19.056862,0.43597412,-0.32196045,0.85632324,-0.16894531,0.013671875,0.041992188,9.51337,-10.938934,-128.45078,17.259066,0.0,0.0,0.0,0.0,0.0,0.0,0.0,-29.696285,-128.83594,10.325117,0.0,0.0,0.0,0.0,0.0,0.0,0.0,-0.37692004,44.989388,-0.99442214,
1.9921874703140932,102,-0.024230957,0.8307495,0.43170166,-0.041992188,0.0068359375,0.030273438,0.0,0.0,0.0,0.0,0.0,0.0,0.0,0.0,0.0,0.0,0.0,0.31193784,-0.018191315,-0.95007485,-1.0028687,0.01776123,0.047302246,0.015625,0.041015625,0.034179688,1.2295561,6.4580803,-0.37661663,-19.669497,1.0001221,-0.14801025,-0.12359619,-0.05078125,0.036132812,0.015625,1.2204509,6.856249,-57.330357,-17.191427,-0.47784424,-0.34014893,0.8118286,-0.01171875,0.005859375,-0.018554688,3.517472,5.1839476,-129.30753,-15.335871,0.0,0.0,0.0,0.0,0.0,0.0,0.0,-13.2818,-128.17108,-22.90747,0.0,0.0,0.0,0.0,0.0,0.0,0.0,-0.31193784,0.018191315,0.95007485,-0.91625977,-0.022094727,-0.3890381,0.03515625,0.07324219,-0.00390625,1.8766973,-6.4580803,0.37661663,19.669497,1.0045776,-0.04949951,-0.121276855,-0.09667969,0.078125,0.06640625,3.7090318,-5.950607,-56.62584,19.063675,0.4215088,-0.34960938,0.8494873,0.001953125,-0.009765625,0.059570312,9.35406,-10.886738,-128.45207,17.349463,0.0,0.0,0.0,0.0,0.0,0.0,0.0,-29.657608,-128.80469,10.444372,0.0,0.0,0.0,0.0,0.0,0.0,0.0,-0.40899414,44.99339,-0.99578434,
2.011718720023055,103,-0.019958496,0.83374023,0.45355225,-0.041992188,-0.0126953125,0.0126953125,0.0,0.0,0.0,0.0,0.0,0.0,0.0,0.0,0.0,0.0,0.0,0.3115432,-0.017822906,-0.95023257,-0.9925537,0.028564453,0.035583496,0.015625,0.022460938,-0.0048828125,1.257255,6.4499106,-0.3689894,-19.67276,1.0014648,-0.17358398,-0.115722656,-0.03125,0.03515625,0.036132812,1.2869439,6.8833256,-57.322887,-17.169144,-0.4977417,-0.331604,0.8019409,-0.03125,0.005859375,-0.01953125,3.490259,5.191524,-129.29288,-15.335043,0.0,0.0,0.0,0.0,0.0,0.0,0.0,-13.274027,-128.15312,-22.904129,0.0,0.0,0.0,0.0,0.0,0.0,0.0,-0.3115432,0.017822906,0.95023257,-0.9388428,0.016479492,-0.34942627,0.053710938,0.07324219,0.016601562,1.8928953,-6.4499106,0.3689894,19.67276,1.0223389,-0.08166504,-0.11645508,-0.07714844,0.059570312,0.06640625,3.75322,-5.9604306,-56.63557,19.055546,0.41955566,-0.33258057,0.8534546,-0.016601562,-0.0087890625,-0.015625,9.457749,-10.990585,-128.45412,17.421087,0.0,0.0,0.0,0.0,0.0,0.0,0.0,-29.763805,-128.80159,10.526375,0.0,0.0,0.0,0.0,0.0,0.0,0.0,-0.46770215,44.99369,-0.9972588,
2.0312499697320168,104,-0.0602417,0.8447876,0.46063232,-0.0234375,-0.032226562,0.01171875,0.0,0.0,0.0,0.0,0.0,0.0,0.0,0.0,0.0,0.0,0.0,0.3117835,-0.017003028,-0.9500982,-0.98876953,0.03375244,0.07147217,0.052734375,0.00390625,0.0146484375,1.282069,6.4548845,-0.3520154,-19.66998,1.0027466,-0.1607666,-0.14562988,-0.032226562,0.036132812,0.016601562,1.2474107,6.8486176,-57.302204,-17.185575,-0.47772217,-0.33233643,0.817688,-0.03125,0.0068359375,-9.765625E-4,3.488744,5.1594496,-129.27487,-15.363143,0.0,0.0,0.0,0.0,0.0,0.0,0.0,-13.303382,-128.13579,-22.93759,0.0,0.0,0.0,0.0,0.0,0.0,0.0,-0.3117835,0.017003028,0.9500982,-0.930603,0.029418945,-0.3640747,-0.022460938,-0.0029296875,0.037109375,1.8904123,-6.4548845,0.3520154,19.66998,1.0324097,-0.057861328,-0.120788574,-0.0390625,0.05859375,0.06542969,3.7070785,-6.0055375,-56.654636,19.041874,0.41333008,-0.32476807,0.8829956,-0.07421875,-0.026367188,-0.034179688,9.402347,-11.028536,-128.48393,17.393785,0.0,0.0,0.0,0.0,0.0,0.0,0.0,-29.802946,-128.82996,10.503777,0.0,0.0,0.0,0.0,0.0,0.0,0.0,-0.52882785,44.990406,-0.9786912,
2.0507812194409785,105,-0.019836426,0.8098755,0.4543457,-0.0625,-0.03125,0.03125,0.0,0.0,0.0,0.0,0.0,0.0,0.0,0.0,0.0,0.0,0.0,0.31259674,-0.015882926,-0.94981724,-0.9844971,0.032165527,0.0435791,0.052734375,0.022460938,-0.0048828125,1.3427548,6.471722,-0.3288258,-19.664162,0.996521,-0.13311768,-0.1295166,-0.0126953125,0.0546875,0.016601562,1.2116001,6.8390408,-57.283707,-17.184694,-0.47583008,-0.34222412,0.8187256,-0.049804688,-0.0107421875,-0.01953125,3.4928384,5.1477394,-129.25983,-15.335461,0.0,0.0,0.0,0.0,0.0,0.0,0.0,-13.317841,-128.12,-22.905087,0.0,0.0,0.0,0.0,0.0,0.0,0.0,-0.31259674,0.015882926,0.94981724,-0.9319458,0.0024414062,-0.38000488,-0.022460938,0.016601562,0.016601562,1.860253,-6.471722,0.3288258,19.664162,1.0144653,-0.089538574,-0.105407715,0.0,0.057617188,0.02734375,3.7309813,-6.035816,-56.676167,19.043324,0.40014648,-0.3232422,0.85253906,-0.24707031,-0.1171875,-0.1640625,9.177509,-11.10191,-128.49513,17.380737,0.0,0.0,0.0,0.0,0.0,0.0,0.0,-29.906374,-128.78745,10.567198,0.0,0.0,0.0,0.0,0.0,0.0,0.0,-0.5973053,44.98877,-0.9488868,
2.07031246914994,106,-0.033081055,0.8430176,0.4529419,-0.0625,-0.03125,0.0126953125,0.0,0.0,0.0,0.0,0.0,0.0,0.0,0.0,0.0,0.0,0.0,0.31250888,-0.014157074,-0.94996053,-0.99261475,0.027526855,0.03955078,-0.00390625,0.041015625,0.0146484375,1.3883259,6.4699025,-0.29309532,-19.667128,0.99328613,-0.13885498,-0.13049316,-0.013671875,0.016601562,0.017578125,1.249605,6.9175825,-57.246246,-17.216816,-0.45489502,-0.34979248,0.8206787,0.0078125,-0.030273438,0.0,3.5326355,5.239876,-129.22006,-15.359659,0.0,0.0,0.0,0.0,0.0,0.0,0.0,-13.235573,-128.07848,-22.905052,0.0,0.0,0.0,0.0,0.0,0.0,0.0,-0.31250888,0.014157074,0.94996053,-0.9299927,0.0020751953,-0.36724854,-0.00390625,0.015625,-0.00390625,1.8289548,-6.4699025,0.29309532,19.667128,1.0247803,-0.052734375,-0.09991455,0.0,0.0390625,0.02734375,3.7400498,-6.0257607,-56.711876,19.028656,0.44647217,-0.2970581,0.8414917,-0.28515625,-0.078125,-0.0703125,9.077532,-11.101499,-128.5287,17.399895,0.0,0.0,0.0,0.0,0.0,0.0,0.0,-29.909206,-128.78502,10.596991,0.0,0.0,0.0,0.0,0.0,0.0,0.0,-0.6800749,44.992435,-0.8942379,
2.089843718858902,107,-0.038085938,0.8192749,0.45092773,-0.0234375,-0.05078125,0.047851562,0.0,0.0,0.0,0.0,0.0,0.0,0.0,0.0,0.0,0.0,0.0,0.3133756,-0.0129452,-0.949652,-0.99560547,0.036193848,0.0446167,-0.00390625,0.022460938,0.0146484375,1.448749,6.4878454,-0.2680058,-19.66074,0.99627686,-0.14093018,-0.1295166,-0.032226562,0.036132812,0.016601562,1.2753354,6.9707856,-57.219856,-17.207108,-0.49468994,-0.32977295,0.8088379,0.0068359375,-0.0126953125,-0.018554688,3.5425425,5.2958527,-129.19434,-15.339888,0.0,0.0,0.0,0.0,0.0,0.0,0.0,-13.181963,-128.05598,-22.88022,0.0,0.0,0.0,0.0,0.0,0.0,0.0,-0.3133756,0.0129452,0.949652,-0.96325684,-0.008300781,-0.35845947,0.053710938,-0.024414062,-0.0048828125,1.781581,-6.4878454,0.2680058,19.66074,1.0015869,-0.050476074,-0.12219238,-0.0390625,0.040039062,0.046875,3.7339194,-6.053566,-56.738426,19.053278,0.44226074,-0.29815674,0.86120605,-0.13183594,-0.043945312,-0.051757812,8.936724,-11.131393,-128.56238,17.444088,0.0,0.0,0.0,0.0,0.0,0.0,0.0,-29.948803,-128.76517,10.665561,0.0,0.0,0.0,0.0,0.0,0.0,0.0,-0.7475897,44.990314,-0.85998344,
