TOTAL_TIME,0m12s
TOTAL_FRAMES,624
SELECTED_FRAMES,624
NO_OF_JOINTS,12
FREQUENCY,51.2
DESCRIPTION,Capture 16
TIME_STAMP,Nov 1, 2010

Time,Frame,Pelvis_accelX_Pelvis,Pelvis_accelY_Pelvis,Pelvis_accelZ_Pelvis,Pelvis_gyroX_Pelvis,Pelvis_gyroY_Pelvis,Pelvis_gyroZ_Pelvis,Pelvis_Joint angle_Pelvis,Pelvis_Relative pos X_Pelvis,Pelvis_Relative pos Y_Pelvis,Pelvis_Relative pos Z_Pelvis,RightPelvis_accelX_RightPelvis,RightPelvis_accelY_RightPelvis,RightPelvis_accelZ_RightPelvis,RightPelvis_gyroX_RightPelvis,RightPelvis_gyroY_RightPelvis,RightPelvis_gyroZ_RightPelvis,RightPelvis_Joint angle_RightPelvis,RightPelvis_Relative pos X_RightPelvis,RightPelvis_Relative pos Y_RightPelvis,RightPelvis_Relative pos Z_RightPelvis,RightUpLeg_accelX_RightUpLeg,RightUpLeg_accelY_RightUpLeg,RightUpLeg_accelZ_RightUpLeg,RightUpLeg_gyroX_RightUpLeg,RightUpLeg_gyroY_RightUpLeg,RightUpLeg_gyroZ_RightUpLeg,RightUpLeg_Joint angle_RightUpLeg,RightUpLeg_Relative pos X_RightUpLeg,RightUpLeg_Relative pos Y_RightUpLeg,RightUpLeg_Relative pos Z_RightUpLeg,RightLeg_accelX_RightLeg,RightLeg_accelY_RightLeg,RightLeg_accelZ_RightLeg,RightLeg_gyroX_RightLeg,RightLeg_gyroY_RightLeg,RightLeg_gyroZ_RightLeg,RightLeg_Joint angle_RightLeg,RightLeg_Relative pos X_RightLeg,RightLeg_Relative pos Y_RightLeg,RightLeg_Relative pos Z_RightLeg,RightFoot_accelX_RightFoot,RightFoot_accelY_RightFoot,RightFoot_accelZ_RightFoot,RightFoot_gyroX_RightFoot,RightFoot_gyroY_RightFoot,RightFoot_gyroZ_RightFoot,RightFoot_Joint angle_RightFoot,RightFoot_Relative pos X_RightFoot,RightFoot_Relative pos Y_RightFoot,RightFoot_Relative pos Z_RightFoot,RightFootEnd_accelX_RightFootEnd,RightFootEnd_accelY_RightFootEnd,RightFootEnd_accelZ_RightFootEnd,RightFootEnd_gyroX_RightFootEnd,RightFootEnd_gyroY_RightFootEnd,RightFootEnd_gyroZ_RightFootEnd,RightFootEnd_Joint angle_RightFootEnd,RightFootEnd_Relative pos X_RightFootEnd,RightFootEnd_Relative pos Y_RightFootEnd,RightFootEnd_Relative pos Z_RightFootEnd,LeftPelvis_accelX_LeftPelvis,LeftPelvis_accelY_LeftPelvis,LeftPelvis_accelZ_LeftPelvis,LeftPelvis_gyroX_LeftPelvis,LeftPelvis_gyroY_LeftPelvis,LeftPelvis_gyroZ_LeftPelvis,LeftPelvis_Joint angle_LeftPelvis,LeftPelvis_Relative pos X_LeftPelvis,LeftPelvis_Relative pos Y_LeftPelvis,LeftPelvis_Relative pos Z_LeftPelvis,LeftUpLeg_accelX_LeftUpLeg,LeftUpLeg_accelY_LeftUpLeg,LeftUpLeg_accelZ_LeftUpLeg,LeftUpLeg_gyroX_LeftUpLeg,LeftUpLeg_gyroY_LeftUpLeg,LeftUpLeg_gyroZ_LeftUpLeg,LeftUpLeg_Joint angle_LeftUpLeg,LeftUpLeg_Relative pos X_LeftUpLeg,LeftUpLeg_Relative pos Y_LeftUpLeg,LeftUpLeg_Relative pos Z_LeftUpLeg,LeftLeg_accelX_LeftLeg,LeftLeg_accelY_LeftLeg,LeftLeg_accelZ_LeftLeg,LeftLeg_gyroX_LeftLeg,LeftLeg_gyroY_LeftLeg,LeftLeg_gyroZ_LeftLeg,LeftLeg_Joint angle_LeftLeg,LeftLeg_Relative pos X_LeftLeg,LeftLeg_Relative pos Y_LeftLeg,LeftLeg_Relative pos Z_LeftLeg,LeftFoot_accelX_LeftFoot,LeftFoot_accelY_LeftFoot,LeftFoot_accelZ_LeftFoot,LeftFoot_gyroX_LeftFoot,LeftFoot_gyroY_LeftFoot,LeftFoot_gyroZ_LeftFoot,LeftFoot_Joint angle_LeftFoot,LeftFoot_Relative pos X_LeftFoot,LeftFoot_Relative pos Y_LeftFoot,LeftFoot_Relative pos Z_LeftFoot,LeftFootEnd_accelX_LeftFootEnd,LeftFootEnd_accelY_LeftFootEnd,LeftFootEnd_accelZ_LeftFootEnd,LeftFootEnd_gyroX_LeftFootEnd,LeftFootEnd_gyroY_LeftFootEnd,LeftFootEnd_gyroZ_LeftFootEnd,LeftFootEnd_Joint angle_LeftFootEnd,LeftFootEnd_Relative pos X_LeftFootEnd,LeftFootEnd_Relative pos Y_LeftFootEnd,LeftFootEnd_Relative pos Z_LeftFootEnd,Spine_accelX_Spine,Spine_accelY_Spine,Spine_accelZ_Spine,Spine_gyroX_Spine,Spine_gyroY_Spine,Spine_gyroZ_Spine,Spine_Joint angle_Spine,Spine_Relative pos X_Spine,Spine_Relative pos Y_Spine,Spine_Relative pos Z_Spine,
0.0,0,0.07910156,0.9686279,0.20123291,-0.33398438,0.072265625,0.09277344,0.0,0.0,0.0,0.0,0.0,0.0,0.0,0.0,0.0,0.0,0.0,-0.68865424,-0.11139852,0.7166357,-0.73028564,0.31323242,0.84228516,0.58203125,-0.6542969,-0.46972656,12.440105,-14.257277,-2.3062947,14.83658,0.80670166,0.28826904,-0.12915039,-0.5751953,-1.2646484,-0.38671875,21.117704,1.0330715,-56.748558,22.11061,-2.0,0.03125,-0.6131592,0.3017578,1.6289062,0.34179688,77.74525,0.5981977,-123.605804,48.67605,0.0,0.0,0.0,0.0,0.0,0.0,0.0,16.91853,-134.76633,51.282425,0.0,0.0,0.0,0.0,0.0,0.0,0.0,0.68865424,0.11139852,-0.7166357,-1.1759033,0.24847412,0.07501221,-2.4863281,0.3828125,-0.19824219,18.85058,14.257277,2.3062947,-14.83658,1.0333862,0.06225586,0.14208984,1.4570312,-2.3554688,0.09472656,34.47602,3.7983637,-53.57883,-10.714184,0.44970703,-0.3137207,1.0178223,-0.20703125,-1.9853516,-0.1484375,45.31944,-34.024376,-104.44025,23.486286,0.0,0.0,0.0,0.0,0.0,0.0,0.0,-40.294525,-95.79419,40.342,0.0,0.0,0.0,0.0,0.0,0.0,0.0,-5.7003646,44.61869,1.4580293,
0.0195312497089617,1,0.07910156,0.9686279,0.20123291,-0.33398438,0.072265625,0.09277344,0.0,0.0,0.0,0.0,0.0,0.0,0.0,0.0,0.0,0.0,0.0,-0.68865424,-0.11139852,0.7166357,-0.73028564,0.31323242,0.84228516,0.58203125,-0.6542969,-0.46972656,12.440105,-14.257277,-2.3062947,14.83658,0.80670166,0.28826904,-0.12915039,-0.5751953,-1.2646484,-0.38671875,21.117704,1.0330715,-56.748558,22.11061,-2.0,0.03125,-0.6131592,0.3017578,1.6289062,0.34179688,77.74525,0.5981977,-123.605804,48.67605,0.0,0.0,0.0,0.0,0.0,0.0,0.0,16.91853,-134.76633,51.282425,0.0,0.0,0.0,0.0,0.0,0.0,0.0,0.68865424,0.11139852,-0.7166357,-1.1759033,0.24847412,0.07501221,-2.4863281,0.3828125,-0.19824219,18.85058,14.257277,2.3062947,-14.83658,1.0333862,0.06225586,0.14208984,1.4570312,-2.3554688,0.09472656,34.47602,3.7983637,-53.57883,-10.714184,0.44970703,-0.3137207,1.0178223,-0.20703125,-1.9853516,-0.1484375,45.31944,-34.024376,-104.44025,23.486286,0.0,0.0,0.0,0.0,0.0,0.0,0.0,-40.294525,-95.79419,40.342,0.0,0.0,0.0,0.0,0.0,0.0,0.0,-5.7003646,44.61869,1.4580293,
0.0390624994179234,2,0.07910156,0.9686279,0.20123291,-0.33398438,0.072265625,0.09277344,0.0,0.0,0.0,0.0,0.0,0.0,0.0,0.0,0.0,0.0,0.0,-0.68865424,-0.11139852,0.7166357,-0.73028564,0.31323242,0.84228516,0.58203125,-0.6542969,-0.46972656,12.440105,-14.257277,-2.3062947,14.83658,0.80670166,0.28826904,-0.12915039,-0.5751953,-1.2646484,-0.38671875,21.117704,1.0330715,-56.748558,22.11061,-2.0,0.03125,-0.6131592,0.3017578,1.6289062,0.34179688,77.74525,0.5981977,-123.605804,48.67605,0.0,0.0,0.0,0.0,0.0,0.0,0.0,16.91853,-134.76633,51.282425,0.0,0.0,0.0,0.0,0.0,0.0,0.0,0.68865424,0.11139852,-0.7166357,-1.1759033,0.24847412,0.07501221,-2.4863281,0.3828125,-0.19824219,18.85058,14.257277,2.3062947,-14.83658,1.0333862,0.06225586,0.14208984,1.4570312,-2.3554688,0.09472656,34.47602,3.7983637,-53.57883,-10.714184,0.44970703,-0.3137207,1.0178223,-0.20703125,-1.9853516,-0.1484375,45.31944,-34.024376,-104.44025,23.486286,0.0,0.0,0.0,0.0,0.0,0.0,0.0,-40.294525,-95.79419,40.342,0.0,0.0,0.0,0.0,0.0,0.0,0.0,-5.7003646,44.61869,1.4580293,
0.0585937491268851,3,-0.10491943,0.81396484,0.4317627,0.04296875,0.18261719,0.3046875,0.0,0.0,0.0,0.0,0.0,0.0,0.0,0.0,0.0,0.0,0.0,-0.7698715,0.05772381,0.63590145,-0.86083984,0.091552734,0.23199463,-0.022460938,1.2900391,0.67578125,14.306445,-15.938728,1.1950618,13.165132,0.8963623,-0.14202881,-0.31402588,0.39648438,-0.56152344,0.053710938,23.767134,-3.9286556,-54.40602,16.83921,-0.54608154,-0.3980713,0.79626465,-0.29589844,0.32714844,0.45996094,25.9174,-16.134716,-125.25565,12.654051,0.0,0.0,0.0,0.0,0.0,0.0,0.0,-19.535248,-125.569664,32.3458,0.0,0.0,0.0,0.0,0.0,0.0,0.0,0.7698715,-0.05772381,-0.63590145,-0.98028564,0.076049805,-0.1907959,-0.5175781,0.24609375,-0.18164062,11.482814,15.938728,-1.1950618,-13.165132,1.0221558,-0.19445801,-0.13745117,0.3857422,0.14453125,0.021484375,11.649854,24.463377,-57.162037,-6.456362,0.411438,-0.31933594,0.8446045,-0.068359375,0.6328125,1.1152344,9.502329,21.312172,-127.93758,6.4977093,0.0,0.0,0.0,0.0,0.0,0.0,0.0,26.318598,-128.2293,25.861244,0.0,0.0,0.0,0.0,0.0,0.0,0.0,1.6488485,44.930668,-2.0823472,
0.0781249988358468,4,-0.12670898,0.7988281,0.4590454,-0.061523438,0.01171875,0.25,0.0,0.0,0.0,0.0,0.0,0.0,0.0,0.0,0.0,0.0,0.0,-0.77127427,0.05586861,0.6342895,-0.9058838,0.08459473,0.27856445,-0.13476562,1.1201172,0.48339844,13.040609,-15.967769,1.1566534,13.13176,0.94940186,-0.11743164,-0.4031372,0.30859375,-0.25683594,0.12402344,23.137793,-5.269945,-54.682377,17.280502,-0.23028564,-0.6211548,1.1049805,-0.5029297,-0.21191406,0.23730469,23.948936,-18.093267,-125.41797,13.0539055,0.0,0.0,0.0,0.0,0.0,0.0,0.0,-20.982653,-126.58255,32.046608,0.0,0.0,0.0,0.0,0.0,0.0,0.0,0.77127427,-0.05586861,-0.6342895,-0.9926758,0.048461914,-0.21356201,-0.4794922,0.24511719,-0.16113281,11.301986,15.967769,-1.1566534,-13.13176,1.0275879,-0.14263916,-0.13293457,0.5214844,0.10546875,0.001953125,11.32159,24.25948,-57.17348,-6.495059,0.39996338,-0.34033203,0.866333,-0.08886719,0.53808594,0.96484375,8.916145,21.265354,-127.93587,6.5217924,0.0,0.0,0.0,0.0,0.0,0.0,0.0,25.988441,-127.98126,25.957943,0.0,0.0,0.0,0.0,0.0,0.0,0.0,1.6532323,44.93438,-1.9475739,
0.09765624854480849,5,-0.15093994,0.78656006,0.456604,-0.0625,-0.025390625,0.2685547,0.0,0.0,0.0,0.0,0.0,0.0,0.0,0.0,0.0,0.0,0.0,-0.7717608,0.05532137,0.6336843,-0.8585205,0.17633057,0.046203613,-0.36035156,0.99121094,0.13867188,12.08072,-15.977844,1.1453239,13.119228,0.99658203,-0.17749023,-0.32403564,0.08691406,0.28125,0.07519531,22.108423,-6.395584,-54.886436,17.431211,0.22595215,-0.94104004,1.2130737,-0.765625,-0.89453125,-0.001953125,20.412266,-19.239109,-125.62967,13.326615,0.0,0.0,0.0,0.0,0.0,0.0,0.0,-20.917498,-128.65256,32.048634,0.0,0.0,0.0,0.0,0.0,0.0,0.0,0.7717608,-0.05532137,-0.6336843,-0.9817505,0.037841797,-0.22839355,-0.15527344,0.21582031,-0.041992188,11.160345,15.977844,-1.1453239,-13.119228,0.98187256,-0.06518555,-0.16711426,0.19238281,0.11035156,-0.0126953125,10.947044,23.995403,-57.21295,-6.6436243,0.3970337,-0.33312988,0.8475952,-0.08984375,0.3876953,0.6816406,8.314345,21.145922,-128.01704,6.205409,0.0,0.0,0.0,0.0,0.0,0.0,0.0,25.656982,-127.87749,25.692371,0.0,0.0,0.0,0.0,0.0,0.0,0.0,1.7437035,44.9354,-1.7992643,
0.11718749825377019,6,-0.13446045,0.7907715,0.4064331,0.13671875,0.064453125,0.26464844,0.0,0.0,0.0,0.0,0.0,0.0,0.0,0.0,0.0,0.0,0.0,-0.7723788,0.05273731,0.63318765,-0.8641968,0.230896,0.04510498,-0.6982422,1.3525391,0.06640625,10.723685,-15.990637,1.0918258,13.108947,1.0947876,-0.21594238,-0.022033691,0.37695312,0.77246094,0.020507812,19.919956,-7.642765,-55.160244,17.195374,-0.004699707,-0.5772095,0.80493164,0.46777344,-1.0810547,-0.46679688,17.556858,-19.498959,-126.018616,13.754166,0.0,0.0,0.0,0.0,0.0,0.0,0.0,-19.861008,-130.7174,32.54342,0.0,0.0,0.0,0.0,0.0,0.0,0.0,0.7723788,-0.05273731,-0.63318765,-0.91986084,0.0087890625,-0.24633789,-0.041015625,0.2705078,-0.043945312,10.740997,15.990637,-1.0918258,-13.108947,1.019043,-0.14361572,-0.17028809,-0.19433594,0.13476562,0.029296875,10.564512,23.712196,-57.232094,-6.869334,0.3970337,-0.33312988,0.8475952,-0.08984375,0.3876953,0.6816406,8.172866,21.015604,-128.0773,5.772278,0.0,0.0,0.0,0.0,0.0,0.0,0.0,25.526665,-127.937744,25.259241,0.0,0.0,0.0,0.0,0.0,0.0,0.0,1.6664371,44.942825,-1.7104619,
0.1367187479627319,7,-0.093566895,0.83270264,0.4574585,0.17480469,0.0068359375,0.28125,0.0,0.0,0.0,0.0,0.0,0.0,0.0,0.0,0.0,0.0,0.0,-0.7728555,0.047988962,0.632865,-0.9559326,0.087524414,0.43988037,-0.54785156,1.1826172,0.044921875,9.214755,-16.000507,0.9935203,13.102267,1.0462646,-0.14648438,0.020507812,0.4248047,0.6230469,-0.18554688,17.398584,-8.956561,-55.41264,17.113735,-1.5585938,0.13903809,0.46380615,0.29882812,-0.9238281,0.09082031,16.011805,-19.441978,-126.608765,14.422091,0.0,0.0,0.0,0.0,0.0,0.0,0.0,-18.672287,-132.21062,32.98955,0.0,0.0,0.0,0.0,0.0,0.0,0.0,0.7728555,-0.047988962,-0.632865,-0.91064453,0.09667969,-0.24768066,0.09375,0.4814453,-0.06542969,10.043887,16.000507,-0.9935203,-13.102267,0.9794922,-0.16796875,-0.13970947,-0.001953125,0.15039062,-0.0107421875,10.003115,23.217947,-57.219566,-7.032255,0.41741943,-0.33166504,0.8642578,-0.03515625,0.029296875,0.060546875,7.8207707,20.683575,-128.08237,5.579709,0.0,0.0,0.0,0.0,0.0,0.0,0.0,25.078344,-127.81202,25.090813,0.0,0.0,0.0,0.0,0.0,0.0,0.0,1.4829024,44.95004,-1.5975543,
0.1562499976716936,8,-0.06414795,0.81707764,0.4625244,0.033203125,-0.10253906,0.35742188,0.0,0.0,0.0,0.0,0.0,0.0,0.0,0.0,0.0,0.0,0.0,-0.7732924,0.042749323,0.6326031,-1.0918579,-0.024475098,0.68273926,-0.3232422,0.29003906,-0.11621094,8.479777,-16.00955,0.88504356,13.096846,1.0288086,-0.2824707,-0.12536621,-0.01171875,0.111328125,0.03515625,15.838087,-9.6494255,-55.64097,16.881474,-1.2451782,-0.006591797,0.66748047,-0.63183594,-0.8955078,0.20605469,17.716778,-19.191975,-126.985886,14.597885,0.0,0.0,0.0,0.0,0.0,0.0,0.0,-17.29895,-133.87907,32.687378,0.0,0.0,0.0,0.0,0.0,0.0,0.0,0.7732924,-0.042749323,-0.6326031,-0.94433594,0.13122559,-0.27490234,0.07519531,0.48242188,-0.16699219,9.475046,16.00955,-0.88504356,-13.096846,1.0234985,-0.15557861,-0.13476562,0.15429688,0.111328125,0.025390625,9.414798,22.633846,-57.201042,-7.2481136,0.4173584,-0.34960938,0.859375,-0.03515625,0.029296875,0.060546875,7.889165,20.255238,-128.05463,5.394926,0.0,0.0,0.0,0.0,0.0,0.0,0.0,24.650753,-127.78999,24.907013,0.0,0.0,0.0,0.0,0.0,0.0,0.0,1.4106569,44.958588,-1.313776,
0.1757812473806553,9,-0.016784668,0.8366699,0.46240234,-0.0048828125,-0.064453125,0.32128906,0.0,0.0,0.0,0.0,0.0,0.0,0.0,0.0,0.0,0.0,0.0,-0.77309835,0.03683061,0.6332513,-1.1546631,0.078063965,0.53704834,-0.19140625,-0.0703125,-0.19628906,8.568893,-16.005531,0.76250786,13.110264,0.9547119,-0.34765625,-0.23657227,0.55371094,-0.048828125,0.0146484375,15.530733,-9.616789,-55.76806,16.687513,-0.20391846,-0.47277832,0.831604,-1.0654297,-0.9316406,0.6484375,19.900782,-19.066673,-127.1391,15.0244255,0.0,0.0,0.0,0.0,0.0,0.0,0.0,-16.885332,-134.86752,33.18668,0.0,0.0,0.0,0.0,0.0,0.0,0.0,0.77309835,-0.03683061,-0.6332513,-0.96520996,0.14794922,-0.3022461,-0.13574219,0.31347656,-0.18554688,9.136972,16.005531,-0.76250786,-13.110264,1.0198975,-0.17541504,-0.09899902,0.095703125,0.11230469,-0.01171875,8.903665,22.12374,-57.15941,-7.4828186,0.41638184,-0.3297119,0.87316895,0.0029296875,0.028320312,0.059570312,7.965136,19.935112,-128.02078,5.1897736,0.0,0.0,0.0,0.0,0.0,0.0,0.0,24.331347,-127.76353,24.700857,0.0,0.0,0.0,0.0,0.0,0.0,0.0,1.3940563,44.97013,-0.91359437,
0.19531249708961698,10,0.025146484,0.8045044,0.42126465,0.17773438,0.12207031,0.31933594,0.0,0.0,0.0,0.0,0.0,0.0,0.0,0.0,0.0,0.0,0.0,-0.7752261,0.028560745,0.63103527,-1.0008545,0.22473145,0.24401855,-0.3798828,0.30859375,-0.078125,8.450221,-16.049582,0.59129596,13.064386,1.0429688,-0.23968506,-0.1831665,0.7597656,0.1796875,-0.19140625,15.078824,-9.746277,-55.957447,16.546146,-0.26690674,-0.51794434,0.80218506,-0.2529297,-0.7626953,0.1171875,20.090519,-18.89247,-127.37962,15.261875,0.0,0.0,0.0,0.0,0.0,0.0,0.0,-17.372185,-134.92595,33.64988,0.0,0.0,0.0,0.0,0.0,0.0,0.0,0.7752261,-0.028560745,-0.63103527,-0.998291,0.07543945,-0.31359863,-0.23144531,0.15917969,-0.1640625,8.939845,16.049582,-0.59129596,-13.064386,1.0276489,-0.16461182,-0.117004395,0.19238281,0.11035156,0.04296875,8.649517,21.90524,-57.036686,-7.6073675,0.40930176,-0.3156128,0.8751221,-0.016601562,0.028320312,0.060546875,8.101835,19.86894,-127.89169,5.1245146,0.0,0.0,0.0,0.0,0.0,0.0,0.0,24.248854,-127.654175,24.640236,0.0,0.0,0.0,0.0,0.0,0.0,0.0,1.2519617,44.97975,-0.4977563,
0.21484374679857868,11,0.025146484,0.8045044,0.42126465,0.17773438,0.12207031,0.31933594,0.0,0.0,0.0,0.0,0.0,0.0,0.0,0.0,0.0,0.0,0.0,-0.7752261,0.028560745,0.63103527,-0.8569336,0.24542236,0.16186523,-0.69921875,0.66796875,-0.016601562,7.9949756,-16.049582,0.59129596,13.064386,1.074585,-0.20697021,-0.095581055,0.45703125,0.22265625,-0.18066406,13.887514,-10.301676,-55.998837,16.732456,-0.93603516,-0.008728027,0.7620239,0.107421875,-0.6640625,0.21582031,20.1389,-18.576118,-127.533966,15.713436,0.0,0.0,0.0,0.0,0.0,0.0,0.0,-17.047546,-134.96536,33.861588,0.0,0.0,0.0,0.0,0.0,0.0,0.0,0.7752261,-0.028560745,-0.63103527,-0.93743896,0.044128418,-0.27947998,-0.5,0.08984375,-0.099609375,8.684938,16.049582,-0.59129596,-13.064386,1.003418,-0.14135742,-0.15124512,0.19238281,0.091796875,-0.0126953125,8.377683,21.641518,-57.06568,-7.664441,0.3970337,-0.32818604,0.8535156,0.022460938,0.046875,0.00390625,8.115854,19.674585,-127.92532,5.036066,0.0,0.0,0.0,0.0,0.0,0.0,0.0,24.050735,-127.69415,24.553602,0.0,0.0,0.0,0.0,0.0,0.0,0.0,1.2519617,44.97975,-0.4977563,
0.23437499650754037,12,0.012634277,0.83099365,0.47357178,0.0048828125,0.22070312,0.25097656,0.0,0.0,0.0,0.0,0.0,0.0,0.0,0.0,0.0,0.0,0.0,-0.78137165,0.019917414,0.6239188,-0.90631104,0.24768066,0.36297607,-0.83203125,0.51464844,0.0390625,7.8500304,-16.176815,0.4123522,12.917053,1.0576782,-0.30236816,-0.10479736,-0.12792969,0.11425781,-0.043945312,13.353399,-10.868145,-56.197647,16.89244,-0.663208,-0.1385498,0.8233032,-0.5,-0.5361328,0.31640625,22.716717,-19.025246,-127.665115,16.372995,0.0,0.0,0.0,0.0,0.0,0.0,0.0,-16.671122,-135.98192,34.103363,0.0,0.0,0.0,0.0,0.0,0.0,0.0,0.78137165,-0.019917414,-0.6239188,-0.9189453,0.0010986328,-0.2935791,-0.46191406,0.087890625,-0.080078125,8.734553,16.176815,-0.4123522,-12.917053,1.0241699,-0.06573486,-0.13433838,0.17285156,0.055664062,-0.03125,8.210999,21.627892,-56.90765,-7.591713,0.3970337,-0.3201294,0.85253906,0.0029296875,0.028320312,0.00390625,8.039149,19.671751,-127.79753,4.93816,0.0,0.0,0.0,0.0,0.0,0.0,0.0,24.035227,-127.5808,24.457912,0.0,0.0,0.0,0.0,0.0,0.0,0.0,1.1209857,44.99082,-0.03236687,
0.2539062462165021,13,-0.00982666,0.7956543,0.4459839,-0.0546875,0.20117188,0.19726562,0.0,0.0,0.0,0.0,0.0,0.0,0.0,0.0,0.0,0.0,0.0,-0.78233814,0.017492583,0.62261933,-1.0054932,0.16516113,0.25891113,-0.49316406,0.30664062,0.017578125,8.035412,-16.196825,0.36215073,12.890151,1.00354,-0.42755127,-0.114746094,-0.087890625,0.07421875,0.034179688,13.479741,-11.022528,-56.250175,17.069284,-0.37908936,-0.32354736,0.8244629,-0.21777344,-0.36523438,0.16894531,22.922628,-19.681894,-127.73015,17.169788,0.0,0.0,0.0,0.0,0.0,0.0,0.0,-17.550755,-136.04648,35.17845,0.0,0.0,0.0,0.0,0.0,0.0,0.0,0.78233814,-0.017492583,-0.62261933,-0.92523193,-0.014282227,-0.2602539,-0.040039062,0.3095703,-0.064453125,8.634676,16.196825,-0.36215073,-12.890151,0.9923706,-0.048339844,-0.14074707,-0.17480469,0.07910156,0.0107421875,7.976317,21.426529,-56.89996,-7.7836714,0.4215088,-0.34466553,0.8554077,-0.016601562,0.009765625,0.00390625,7.874671,19.511806,-127.84447,4.4552336,0.0,0.0,0.0,0.0,0.0,0.0,0.0,23.87756,-127.64601,23.975277,0.0,0.0,0.0,0.0,0.0,0.0,0.0,1.1583997,44.984993,0.1917007,
0.2734374959254638,14,-0.09436035,0.79504395,0.46313477,-0.032226562,0.2939453,0.10546875,0.0,0.0,0.0,0.0,0.0,0.0,0.0,0.0,0.0,0.0,0.0,-0.7842346,0.018258829,0.62026393,-1.0603638,0.11212158,0.21807861,-0.021484375,0.31054688,-0.13574219,7.784775,-16.236086,0.37801436,12.841387,0.9413452,-0.36608887,-0.14782715,0.2109375,0.12988281,-0.12988281,12.832351,-11.316495,-56.270065,16.92312,-0.60876465,-0.1274414,0.8272095,0.08496094,-0.1953125,0.022460938,22.47118,-19.715294,-127.789665,17.652,0.0,0.0,0.0,0.0,0.0,0.0,0.0,-17.714268,-135.77666,35.833122,0.0,0.0,0.0,0.0,0.0,0.0,0.0,0.7842346,-0.018258829,-0.62026393,-0.9595947,0.043640137,-0.28240967,0.11230469,0.16894531,-0.06640625,8.338353,16.236086,-0.37801436,-12.841387,1.0037842,-0.1373291,-0.12756348,-0.29101562,0.08105469,0.03125,7.7278647,21.234127,-56.954777,-7.938936,0.4052124,-0.31347656,0.8712158,-0.015625,0.06640625,0.041015625,7.794072,19.450556,-127.92256,4.147977,0.0,0.0,0.0,0.0,0.0,0.0,0.0,23.803387,-127.73553,23.671234,0.0,0.0,0.0,0.0,0.0,0.0,0.0,1.1867578,44.985905,0.17622581,
0.2929687456344255,15,-0.12670898,0.8456421,0.4753418,0.021484375,0.14160156,0.13964844,0.0,0.0,0.0,0.0,0.0,0.0,0.0,0.0,0.0,0.0,0.0,-0.7854314,0.021063553,0.61880296,-0.95648193,0.16125488,0.21710205,0.03515625,0.024414062,-0.099609375,7.6882205,-16.260864,0.43608084,12.81114,0.9630127,-0.3109131,-0.18670654,0.04296875,0.09277344,-0.01953125,12.493592,-11.3445015,-56.21969,16.774311,-0.6213379,-0.16418457,0.7739258,-0.03125,-0.06738281,-0.11230469,21.89416,-19.479008,-127.76138,17.884665,0.0,0.0,0.0,0.0,0.0,0.0,0.0,-17.39238,-135.46362,36.179688,0.0,0.0,0.0,0.0,0.0,0.0,0.0,0.7854314,-0.021063553,-0.61880296,-0.9445801,0.038085938,-0.30603027,-0.041015625,-0.001953125,-0.08496094,8.15112,16.260864,-0.43608084,-12.81114,1.0437012,-0.1817627,-0.101379395,0.0,0.0390625,0.046875,7.6366363,21.143616,-57.028877,-7.991321,0.40093994,-0.34136963,0.87023926,-0.015625,0.047851562,0.00390625,7.8088408,19.40361,-128.004,4.075025,0.0,0.0,0.0,0.0,0.0,0.0,0.0,23.760141,-127.826355,23.595945,0.0,0.0,0.0,0.0,0.0,0.0,0.0,1.2433888,44.98872,0.046822876,
0.3124999953433872,16,-0.09082031,0.848938,0.5182495,0.09765625,0.064453125,0.19238281,0.0,0.0,0.0,0.0,0.0,0.0,0.0,0.0,0.0,0.0,0.0,-0.78445154,0.020734377,0.6200502,-0.91693115,0.15686035,0.21508789,-0.24902344,9.765625E-4,0.1484375,7.904626,-16.24058,0.42926592,12.836961,0.96520996,-0.30316162,-0.18664551,0.1015625,0.09082031,0.0390625,12.443989,-11.222872,-56.19991,17.017721,-0.5924072,-0.23406982,0.78393555,0.043945312,-0.015625,-0.16796875,21.48343,-19.198261,-127.76022,18.49432,0.0,0.0,0.0,0.0,0.0,0.0,0.0,-17.077085,-135.23386,36.887924,0.0,0.0,0.0,0.0,0.0,0.0,0.0,0.78445154,-0.020734377,-0.6200502,-0.94091797,0.012390137,-0.25909424,-0.07910156,0.07714844,-0.08496094,8.123713,16.24058,-0.42926592,-12.836961,0.9869995,-0.096191406,-0.14031982,0.13574219,0.0,-0.0107421875,7.6732473,21.14811,-57.030853,-8.1168995,0.40942383,-0.30444336,0.8564453,0.0029296875,0.046875,0.041015625,7.797975,19.402246,-128.02713,3.853485,0.0,0.0,0.0,0.0,0.0,0.0,0.0,23.75669,-127.86992,23.376457,0.0,0.0,0.0,0.0,0.0,0.0,0.0,1.2417467,44.988586,0.06657478,
0.3320312450523489,17,-0.035583496,0.81744385,0.4876709,0.036132812,-0.0126953125,0.12011719,0.0,0.0,0.0,0.0,0.0,0.0,0.0,0.0,0.0,0.0,0.0,-0.782635,0.01973894,0.6222225,-0.96417236,0.13537598,0.26245117,-0.28710938,0.038085938,0.20605469,8.33939,-16.202969,0.40865728,12.881935,0.9942627,-0.24053955,-0.20367432,0.21191406,0.09082031,-0.072265625,12.416064,-11.117383,-56.185158,17.448349,-0.59051514,-0.24194336,0.76519775,0.1015625,-0.03515625,-0.16601562,20.94686,-18.911615,-127.761635,19.200377,0.0,0.0,0.0,0.0,0.0,0.0,0.0,-16.747364,-134.9876,37.691513,0.0,0.0,0.0,0.0,0.0,0.0,0.0,0.782635,-0.01973894,-0.6222225,-0.9713745,0.06213379,-0.31072998,-0.060546875,0.115234375,-0.043945312,8.150253,16.202969,-0.40865728,-12.881935,1.029541,-0.11279297,-0.14898682,-0.15429688,0.041992188,0.06738281,7.4769826,20.976562,-57.023617,-8.208508,0.39904785,-0.32928467,0.86138916,0.0029296875,0.047851562,0.00390625,7.6819386,19.253801,-128.05038,3.5424938,0.0,0.0,0.0,0.0,0.0,0.0,0.0,23.59711,-127.910645,23.067692,0.0,0.0,0.0,0.0,0.0,0.0,0.0,1.2974088,44.982353,0.20490012,
0.3515624947613106,18,-0.030456543,0.7770996,0.4055786,-0.05859375,0.08496094,0.10449219,0.0,0.0,0.0,0.0,0.0,0.0,0.0,0.0,0.0,0.0,0.0,-0.78124,0.018979512,0.62403816,-0.9486084,0.12145996,0.2074585,-0.09765625,0.21191406,0.03515625,8.4965515,-16.174091,0.39293477,12.919523,0.9530029,-0.15753174,-0.20391846,-0.013671875,0.07421875,-0.021484375,12.249571,-11.104305,-56.189304,17.648346,-0.60479736,-0.25531006,0.7692261,0.10253906,-0.125,-0.09082031,20.289585,-18.642994,-127.78117,19.421364,0.0,0.0,0.0,0.0,0.0,0.0,0.0,-16.47398,-134.77481,38.000923,0.0,0.0,0.0,0.0,0.0,0.0,0.0,0.78124,-0.018979512,-0.62403816,-0.9550781,0.07531738,-0.3411255,-0.060546875,-0.021484375,-0.043945312,8.001381,16.174091,-0.39293477,-12.919523,1.0194092,-0.16949463,-0.13360596,-0.13476562,0.0234375,0.06738281,7.255527,20.696665,-57.031345,-8.28442,0.41955566,-0.32958984,0.8534546,-0.016601562,0.029296875,0.022460938,7.6270194,18.946808,-128.08192,3.3481607,0.0,0.0,0.0,0.0,0.0,0.0,0.0,23.300232,-127.96107,22.87069,0.0,0.0,0.0,0.0,0.0,0.0,0.0,1.3146061,44.982635,0.27766648,
0.37109374447027227,19,-0.027526855,0.78344727,0.4772339,-0.115234375,0.14355469,0.10644531,0.0,0.0,0.0,0.0,0.0,0.0,0.0,0.0,0.0,0.0,0.0,-0.78100145,0.020620093,0.62434286,-0.9187622,0.13720703,0.16790771,-0.021484375,0.36621094,-0.0390625,8.30981,-16.169151,0.42689985,12.925832,0.9819336,-0.21368408,-0.17449951,-0.31347656,0.038085938,0.123046875,11.846613,-11.392971,-56.191288,17.587284,-0.6390991,-0.2678833,0.739624,0.064453125,-0.10449219,-0.016601562,19.645765,-18.78169,-127.8121,19.301542,0.0,0.0,0.0,0.0,0.0,0.0,0.0,-16.611736,-134.59969,37.956093,0.0,0.0,0.0,0.0,0.0,0.0,0.0,0.78100145,-0.020620093,-0.62434286,-0.9119873,0.0690918,-0.32055664,-0.15722656,-0.15527344,-0.04296875,8.062997,16.169151,-0.42689985,-12.925832,1.0134277,-0.16448975,-0.20062256,0.0390625,-0.016601562,0.046875,7.2662,20.650503,-57.066795,-8.283958,0.38879395,-0.31518555,0.86932373,0.022460938,0.06640625,0.00390625,7.6045237,18.800797,-128.12631,3.3008757,0.0,0.0,0.0,0.0,0.0,0.0,0.0,23.144491,-128.01767,22.825836,0.0,0.0,0.0,0.0,0.0,0.0,0.0,1.4072742,44.981483,0.27478644,
0.39062499417923396,20,-0.049621582,0.80596924,0.49188232,9.765625E-4,0.12207031,0.103515625,0.0,0.0,0.0,0.0,0.0,0.0,0.0,0.0,0.0,0.0,0.0,-0.7802909,0.022519795,0.6252069,-0.9555664,0.14294434,0.20684814,-0.078125,0.30859375,-0.001953125,8.183932,-16.154442,0.4662296,12.943721,0.9694214,-0.30249023,-0.14483643,-0.14550781,0.037109375,0.032226562,11.45394,-11.675026,-56.17562,17.576197,-0.585022,-0.27838135,0.73461914,-0.0107421875,-0.17382812,0.057617188,19.171768,-18.997015,-127.78986,19.47488,0.0,0.0,0.0,0.0,0.0,0.0,0.0,-16.873398,-134.3594,38.217846,0.0,0.0,0.0,0.0,0.0,0.0,0.0,0.7802909,-0.022519795,-0.6252069,-0.94091797,0.01361084,-0.2678833,-0.21386719,0.0029296875,-0.0625,8.243859,16.154442,-0.4662296,-12.943721,1.0021973,-0.10443115,-0.184021,-0.0390625,0.021484375,0.028320312,7.308174,20.672684,-57.102386,-8.264415,0.41955566,-0.3217163,0.8642578,0.0029296875,0.028320312,0.041015625,7.51178,18.683554,-128.17581,3.1642313,0.0,0.0,0.0,0.0,0.0,0.0,0.0,23.03389,-128.08647,22.68671,0.0,0.0,0.0,0.0,0.0,0.0,0.0,1.5271132,44.978683,0.28579658,
0.41015624388819566,21,-0.0357666,0.8183594,0.47174072,0.13671875,0.041992188,0.08203125,0.0,0.0,0.0,0.0,0.0,0.0,0.0,0.0,0.0,0.0,0.0,-0.7790099,0.021177843,0.62676895,-0.9855957,0.11053467,0.2510376,-0.11621094,0.15527344,0.03515625,8.155142,-16.12792,0.43844694,12.97606,0.9523926,-0.29388428,-0.16558838,0.15332031,-0.0029296875,-0.091796875,11.202154,-11.742632,-56.207253,17.620441,-0.5733032,-0.23651123,0.75427246,-0.0859375,-0.20703125,0.15039062,18.822657,-18.9369,-127.826355,19.768618,0.0,0.0,0.0,0.0,0.0,0.0,0.0,-16.94672,-134.1837,38.595314,0.0,0.0,0.0,0.0,0.0,0.0,0.0,0.7790099,-0.021177843,-0.62676895,-0.93408203,0.06976318,-0.28912354,0.11230469,0.24707031,-0.025390625,8.038025,16.12792,-0.43844694,-12.97606,1.0228882,-0.12872314,-0.1862793,-0.11621094,0.059570312,0.047851562,7.120507,20.407536,-57.103558,-8.384105,0.41137695,-0.32147217,0.8574219,-0.015625,0.047851562,0.00390625,7.38246,18.334476,-128.20763,2.8360376,0.0,0.0,0.0,0.0,0.0,0.0,0.0,22.69992,-128.13562,22.357285,0.0,0.0,0.0,0.0,0.0,0.0,0.0,1.5092335,44.97652,0.3561155,
0.42968749359715736,22,-0.03845215,0.8380127,0.42816162,0.07910156,0.10058594,0.1015625,0.0,0.0,0.0,0.0,0.0,0.0,0.0,0.0,0.0,0.0,0.0,-0.7798695,0.018044261,0.625847,-1.0335693,0.08581543,0.25854492,-0.09765625,-0.053710938,0.013671875,8.217762,-16.145716,0.37357217,12.956972,0.99523926,-0.24664307,-0.16381836,0.15332031,-0.041015625,-0.091796875,11.181286,-11.632577,-56.25233,17.698648,-0.57684326,-0.20404053,0.7868042,-0.12402344,-0.1875,0.16894531,18.26581,-18.626432,-127.896194,19.911736,0.0,0.0,0.0,0.0,0.0,0.0,0.0,-16.74046,-134.02574,38.825172,0.0,0.0,0.0,0.0,0.0,0.0,0.0,0.7798695,-0.018044261,-0.625847,-0.95892334,0.09057617,-0.36364746,0.20800781,0.20507812,-0.026367188,7.5191436,16.145716,-0.37357217,-12.956972,1.0367432,-0.15783691,-0.17645264,-9.765625E-4,0.076171875,0.0087890625,6.926652,20.048227,-57.079533,-8.563632,0.41748047,-0.32958984,0.8554077,-0.016601562,0.009765625,0.022460938,7.35015,17.898912,-128.20197,2.5782042,0.0,0.0,0.0,0.0,0.0,0.0,0.0,22.243668,-128.14116,22.10421,0.0,0.0,0.0,0.0,0.0,0.0,0.0,1.3664157,44.982063,0.40578255,
0.44921874330611905,23,-0.06616211,0.8201294,0.4645996,-0.020507812,0.045898438,0.12207031,0.0,0.0,0.0,0.0,0.0,0.0,0.0,0.0,0.0,0.0,0.0,-0.77971745,0.017038824,0.62616026,-0.9562378,0.1560669,0.18017578,-0.17285156,-0.11035156,-0.043945312,8.474843,-16.142567,0.3527565,12.963459,0.98010254,-0.27722168,-0.20166016,0.07910156,-0.041015625,-0.017578125,11.301602,-11.424219,-56.250004,17.809147,-0.57995605,-0.20892334,0.7918091,-0.14257812,-0.15136719,0.16796875,17.848995,-18.332794,-127.893265,20.184803,0.0,0.0,0.0,0.0,0.0,0.0,0.0,-16.553583,-133.8143,39.17206,0.0,0.0,0.0,0.0,0.0,0.0,0.0,0.77971745,-0.017038824,-0.62616026,-0.9437256,0.026977539,-0.33459473,-0.0029296875,0.015625,-0.044921875,7.3434205,16.142567,-0.3527565,-12.963459,1.0266724,-0.12976074,-0.19818115,0.115234375,0.055664062,-0.01171875,6.8905377,19.889154,-57.0793,-8.704316,0.4298706,-0.3237915,0.8494873,-0.016601562,0.028320312,0.041015625,7.304845,17.637243,-128.215,2.3209524,0.0,0.0,0.0,0.0,0.0,0.0,0.0,21.975624,-128.1755,21.848392,0.0,0.0,0.0,0.0,0.0,0.0,0.0,1.3524152,44.984665,0.4599714,
0.46874999301508075,24,-0.04168701,0.8046875,0.47875977,-0.08105469,-0.0078125,0.17773438,0.0,0.0,0.0,0.0,0.0,0.0,0.0,0.0,0.0,0.0,0.0,-0.77876836,0.017003061,0.6272991,-0.9333496,0.20562744,0.16412354,-0.17285156,0.07910156,-0.0234375,8.729199,-16.12292,0.35201612,12.987035,0.9637451,-0.28448486,-0.17962646,0.13769531,-0.04296875,0.022460938,11.261364,-11.411272,-56.240566,17.963799,-0.6067505,-0.19128418,0.78582764,-0.125,-0.043945312,0.11035156,17.438639,-18.296669,-127.88254,20.566042,0.0,0.0,0.0,0.0,0.0,0.0,0.0,-16.550411,-133.59619,39.620842,0.0,0.0,0.0,0.0,0.0,0.0,0.0,0.77876836,-0.017003061,-0.6272991,-0.91534424,0.044128418,-0.2962036,0.016601562,0.11328125,-0.06542969,7.325256,16.12292,-0.35201612,-12.987035,1.0230713,-0.11968994,-0.18041992,-0.05859375,0.07714844,0.028320312,6.770801,19.711264,-57.094387,-8.836286,0.42474365,-0.32165527,0.84851074,-0.015625,0.047851562,0.022460938,7.222897,17.42563,-128.25221,2.024664,0.0,0.0,0.0,0.0,0.0,0.0,0.0,21.766758,-128.23065,21.550163,0.0,0.0,0.0,0.0,0.0,0.0,0.0,1.4391825,44.979553,0.56751186,
0.48828124272404244,25,-5.493164E-4,0.8184204,0.46484375,0.017578125,0.026367188,0.12109375,0.0,0.0,0.0,0.0,0.0,0.0,0.0,0.0,0.0,0.0,0.0,-0.7780233,0.015163569,0.62811315,-0.9644165,0.19812012,0.23162842,-0.07910156,0.041015625,-0.00390625,9.021165,-16.107492,0.3139329,13.003889,0.986145,-0.27648926,-0.20568848,0.041992188,-0.041015625,0.0,11.202874,-11.445242,-56.265984,18.152245,-0.55963135,-0.19671631,0.78778076,-0.049804688,0.0078125,0.055664062,17.026337,-18.313585,-127.89647,20.959803,0.0,0.0,0.0,0.0,0.0,0.0,0.0,-16.567804,-133.41316,40.07397,0.0,0.0,0.0,0.0,0.0,0.0,0.0,0.7780233,-0.015163569,-0.62811315,-0.9612427,0.06567383,-0.3421631,0.0546875,0.19042969,-0.06542969,7.2592845,16.107492,-0.3139329,-13.003889,1.00354,-0.107421875,-0.16033936,-0.13574219,0.115234375,0.047851562,6.4861875,19.425018,-57.08609,-8.969287,0.42980957,-0.33374023,0.84552,-0.03515625,0.029296875,0.00390625,7.1692977,17.222916,-128.2753,1.7307196,0.0,0.0,0.0,0.0,0.0,0.0,0.0,21.553429,-128.26917,21.25824,0.0,0.0,0.0,0.0,0.0,0.0,0.0,1.4899671,44.970627,0.75991714,
0.5078124924330042,26,0.0061035156,0.8180542,0.43481445,0.09863281,0.08105469,0.08300781,0.0,0.0,0.0,0.0,0.0,0.0,0.0,0.0,0.0,0.0,0.0,-0.7786548,0.01241504,0.6273329,-0.9953613,0.12390137,0.21740723,-0.041015625,-0.072265625,-0.005859375,9.286836,-16.12057,0.25702983,12.987737,0.9857788,-0.28918457,-0.21374512,-0.12792969,0.018554688,-0.0048828125,11.29606,-11.3774185,-56.305965,18.252712,-0.57977295,-0.19903564,0.79174805,0.0068359375,0.0234375,-0.038085938,16.528856,-18.267548,-127.93291,21.197325,0.0,0.0,0.0,0.0,0.0,0.0,0.0,-16.518276,-133.23683,40.373745,0.0,0.0,0.0,0.0,0.0,0.0,0.0,0.7786548,-0.01241504,-0.6273329,-0.9717407,0.03326416,-0.32965088,-0.060546875,0.095703125,-0.0234375,7.1196527,16.12057,-0.25702983,-12.987737,1.010315,-0.14941406,-0.15130615,-0.078125,0.13378906,0.046875,6.2857504,19.183678,-57.05319,-9.074442,0.4215088,-0.33770752,0.86035156,-0.0546875,0.030273438,0.00390625,7.203586,17.075266,-128.24664,1.606534,0.0,0.0,0.0,0.0,0.0,0.0,0.0,21.4033,-128.24855,21.134872,0.0,0.0,0.0,0.0,0.0,0.0,0.0,1.4647629,44.96667,0.9281863,
0.5273437421419659,27,-0.046081543,0.8633423,0.47235107,0.021484375,0.119140625,0.030273438,0.0,0.0,0.0,0.0,0.0,0.0,0.0,0.0,0.0,0.0,0.0,-0.77972674,0.012021963,0.62633115,-0.97961426,0.13232422,0.1618042,-0.00390625,-0.14941406,0.032226562,9.512295,-16.142761,0.24889192,12.966997,0.95214844,-0.2956543,-0.21844482,-0.18457031,0.01953125,-0.0068359375,11.481768,-11.240335,-56.29711,18.3238,-0.6118164,-0.19311523,0.7878418,0.06347656,0.07519531,-0.09375,16.125624,-18.176191,-127.91742,21.38337,0.0,0.0,0.0,0.0,0.0,0.0,0.0,-16.400772,-133.04192,40.60575,0.0,0.0,0.0,0.0,0.0,0.0,0.0,0.77972674,-0.012021963,-0.62633115,-0.93743896,0.04510498,-0.27850342,-0.13769531,-0.01953125,-0.022460938,7.129428,16.142761,-0.24889192,-12.966997,1.0354004,-0.13977051,-0.14300537,0.07714844,0.056640625,0.026367188,6.216278,19.13975,-57.0438,-9.041787,0.45037842,-0.3241577,0.8474121,-0.015625,0.047851562,0.00390625,7.240639,17.041368,-128.23741,1.6319771,0.0,0.0,0.0,0.0,0.0,0.0,0.0,21.374956,-128.25462,21.160007,0.0,0.0,0.0,0.0,0.0,0.0,0.0,1.4734485,44.974598,0.9710586,
0.5468749918509276,28,-0.044128418,0.8383789,0.45916748,0.041015625,0.11816406,0.01171875,0.0,0.0,0.0,0.0,0.0,0.0,0.0,0.0,0.0,0.0,0.0,-0.7802531,0.012633035,0.6253416,-0.9570923,0.14196777,0.14807129,0.0146484375,-0.03515625,0.051757812,9.540626,-16.15366,0.261543,12.94651,0.9578247,-0.27130127,-0.23834229,-0.0126953125,0.036132812,0.017578125,11.493376,-11.275496,-56.28022,18.3544,-0.56591797,-0.21221924,0.7749634,-0.0126953125,0.11328125,-0.076171875,15.837448,-18.279352,-127.88211,21.554436,0.0,0.0,0.0,0.0,0.0,0.0,0.0,-16.487888,-132.85934,40.815758,0.0,0.0,0.0,0.0,0.0,0.0,0.0,0.7802531,-0.012633035,-0.6253416,-0.9458618,0.09338379,-0.28601074,-0.0029296875,0.07421875,-0.044921875,7.135671,16.15366,-0.261543,-12.94651,0.99194336,-0.092285156,-0.14343262,0.018554688,0.057617188,0.02734375,6.1884623,19.14855,-57.053436,-9.022497,0.40527344,-0.31628418,0.84954834,-0.016601562,0.029296875,0.00390625,7.200753,17.020218,-128.25412,1.557353,0.0,0.0,0.0,0.0,0.0,0.0,0.0,21.353907,-128.28644,21.084015,0.0,0.0,0.0,0.0,0.0,0.0,0.0,1.4960121,44.96506,0.95823276,
0.5664062415598893,29,-0.09411621,0.8289795,0.49127197,-0.017578125,0.13867188,0.0126953125,0.0,0.0,0.0,0.0,0.0,0.0,0.0,0.0,0.0,0.0,0.0,-0.78017527,0.014931086,0.62566817,-0.9628906,0.121520996,0.2144165,0.052734375,0.0029296875,0.033203125,9.574933,-16.152048,0.30911976,12.953271,0.9805908,-0.25360107,-0.23944092,0.043945312,0.034179688,0.038085938,11.556296,-11.233231,-56.220398,18.424854,-0.56591797,-0.21221924,0.7749634,-0.0126953125,0.11328125,-0.076171875,15.904944,-18.265064,-127.8153,21.693533,0.0,0.0,0.0,0.0,0.0,0.0,0.0,-16.4736,-132.79253,40.954857,0.0,0.0,0.0,0.0,0.0,0.0,0.0,0.78017527,-0.014931086,-0.62566817,-0.98254395,0.0524292,-0.30493164,0.03515625,0.09277344,-0.00390625,6.996978,16.152048,-0.30911976,-12.953271,1.0236816,-0.09674072,-0.14898682,-0.17480469,0.060546875,0.029296875,6.03712,19.062439,-57.114418,-9.075742,0.40924072,-0.33343506,0.8574219,0.0029296875,0.028320312,0.041015625,7.086567,16.962868,-128.3498,1.3115368,0.0,0.0,0.0,0.0,0.0,0.0,0.0,21.304346,-128.39317,20.836926,0.0,0.0,0.0,0.0,0.0,0.0,0.0,1.5488992,44.973186,0.85814553,
0.585937491268851,30,-0.10510254,0.84124756,0.50457764,-0.08105469,-0.0107421875,0.049804688,0.0,0.0,0.0,0.0,0.0,0.0,0.0,0.0,0.0,0.0,0.0,-0.7779549,0.018552326,0.6282579,-0.9689331,0.12451172,0.21343994,0.052734375,-0.0146484375,-0.024414062,9.753688,-16.106077,0.38409063,13.006886,0.94433594,-0.20996094,-0.23693848,0.061523438,0.053710938,-0.01953125,11.695091,-11.075844,-56.12931,18.523075,-0.6044922,-0.24139404,0.7463989,-0.05078125,0.09667969,-0.057617188,15.176865,-18.133902,-127.721504,21.793438,0.0,0.0,0.0,0.0,0.0,0.0,0.0,-16.329441,-132.43718,41.121323,0.0,0.0,0.0,0.0,0.0,0.0,0.0,0.7779549,-0.018552326,-0.6282579,-0.9664917,0.049682617,-0.32562256,0.015625,0.015625,0.037109375,7.0005093,16.106077,-0.38409063,-13.006886,1.0271606,-0.1885376,-0.13659668,-0.21289062,0.080078125,0.048828125,5.908599,18.964745,-57.19288,-9.154259,0.40515137,-0.32543945,0.8673096,-0.017578125,-0.028320312,-0.015625,7.121113,17.006866,-128.43701,1.2042027,0.0,0.0,0.0,0.0,0.0,0.0,0.0,21.351336,-128.48502,20.728657,0.0,0.0,0.0,0.0,0.0,0.0,0.0,1.6970787,44.967323,0.77357143,
0.6054687409778127,31,-0.06097412,0.8289795,0.47650146,0.0146484375,-0.07128906,0.029296875,0.0,0.0,0.0,0.0,0.0,0.0,0.0,0.0,0.0,0.0,0.0,-0.776963,0.019952083,0.62954605,-0.9370117,0.12982178,0.1618042,-0.022460938,0.060546875,-0.00390625,9.804978,-16.08554,0.41307,13.033555,0.95965576,-0.24401855,-0.22027588,-0.05078125,0.036132812,0.015625,11.736683,-11.024854,-56.100857,18.557539,-0.614624,-0.24499512,0.7454834,-0.06933594,0.043945312,-0.001953125,14.774628,-18.087234,-127.691086,21.795519,0.0,0.0,0.0,0.0,0.0,0.0,0.0,-16.28186,-132.2661,41.157867,0.0,0.0,0.0,0.0,0.0,0.0,0.0,0.776963,-0.019952083,-0.62954605,-0.94384766,0.020080566,-0.29144287,-0.041992188,-0.041015625,0.016601562,6.929879,16.08554,-0.41307,-13.033555,1.0071411,-0.14538574,-0.16607666,-9.765625E-4,0.076171875,0.02734375,5.890857,18.892948,-57.226067,-9.259619,0.41137695,-0.31359863,0.8721924,-0.016601562,0.029296875,0.00390625,7.156261,16.976072,-128.46867,1.0927277,0.0,0.0,0.0,0.0,0.0,0.0,0.0,21.320854,-128.52632,20.61804,0.0,0.0,0.0,0.0,0.0,0.0,0.0,1.7533278,44.968723,0.738709,
0.6249999906867744,32,-0.037109375,0.83618164,0.4539795,0.055664062,-0.015625,0.009765625,0.0,0.0,0.0,0.0,0.0,0.0,0.0,0.0,0.0,0.0,0.0,-0.77669394,0.0193935,0.62979096,-0.93829346,0.1293335,0.19268799,-0.09765625,0.17382812,0.03515625,9.682614,-16.079971,0.4015056,13.038626,0.9591675,-0.2645874,-0.2064209,-0.087890625,0.055664062,0.052734375,11.5588875,-11.153193,-56.12415,18.54228,-0.58258057,-0.24804688,0.7583008,-0.10644531,0.0087890625,0.03515625,14.442809,-18.17287,-127.71768,21.820383,0.0,0.0,0.0,0.0,0.0,0.0,0.0,-16.370651,-132.1514,41.21656,0.0,0.0,0.0,0.0,0.0,0.0,0.0,0.77669394,-0.0193935,-0.62979096,-0.9317627,0.019897461,-0.293396,-0.00390625,-0.00390625,0.016601562,6.89327,16.079971,-0.4015056,-13.038626,0.9959717,-0.08734131,-0.14453125,-0.0390625,0.05859375,0.046875,5.886463,18.898823,-57.22182,-9.319084,0.4338379,-0.3300171,0.8671875,0.00390625,0.06640625,0.00390625,7.0737386,16.957546,-128.47937,0.9061947,0.0,0.0,0.0,0.0,0.0,0.0,0.0,21.307716,-128.5457,20.42937,0.0,0.0,0.0,0.0,0.0,0.0,0.0,1.7327442,44.966328,0.7522455,
0.6445312403957361,33,-0.019897461,0.82476807,0.4534912,0.037109375,0.0234375,0.029296875,0.0,0.0,0.0,0.0,0.0,0.0,0.0,0.0,0.0,0.0,0.0,-0.7761837,0.017954025,0.6305771,-0.9852295,0.128479,0.2234497,-0.060546875,0.022460938,0.0146484375,9.6798115,-16.06941,0.371704,13.054901,0.95739746,-0.2546997,-0.21234131,-0.051757812,0.036132812,-0.0029296875,11.516491,-11.163439,-56.153263,18.59246,-0.5773926,-0.23840332,0.76519775,-0.068359375,-0.028320312,0.037109375,14.171042,-18.168955,-127.75055,21.949678,0.0,0.0,0.0,0.0,0.0,0.0,0.0,-16.387383,-132.05473,41.3805,0.0,0.0,0.0,0.0,0.0,0.0,0.0,0.7761837,-0.017954025,-0.6305771,-0.9364624,0.04168701,-0.2991333,0.07324219,0.033203125,0.015625,6.8854976,16.06941,-0.371704,-13.054901,1.029419,-0.10083008,-0.16485596,-0.15527344,0.060546875,0.047851562,5.808326,18.905922,-57.194054,-9.3512335,0.43798828,-0.32208252,0.8641968,-0.016601562,0.028320312,0.041015625,6.9928555,16.985092,-128.48288,0.694108,0.0,0.0,0.0,0.0,0.0,0.0,0.0,21.333279,-128.56734,20.217503,0.0,0.0,0.0,0.0,0.0,0.0,0.0,1.6843894,44.970722,0.79290855,
0.6640624901046978,34,-0.019836426,0.8128662,0.4543457,-0.0234375,-0.032226562,0.030273438,0.0,0.0,0.0,0.0,0.0,0.0,0.0,0.0,0.0,0.0,0.0,-0.7745676,0.017907346,0.632449,-0.986084,0.12878418,0.20751953,0.015625,0.00390625,-0.0048828125,9.829514,-16.03595,0.37073758,13.093656,0.97058105,-0.28955078,-0.21954346,-0.0146484375,0.036132812,-0.021484375,11.591243,-11.059605,-56.14232,18.685804,-0.5932617,-0.22320557,0.782959,-0.049804688,-0.0107421875,0.037109375,13.853766,-18.094988,-127.73274,22.167067,0.0,0.0,0.0,0.0,0.0,0.0,0.0,-16.313644,-131.87947,41.62861,0.0,0.0,0.0,0.0,0.0,0.0,0.0,0.7745676,-0.017907346,-0.632449,-0.93237305,0.048034668,-0.32269287,0.034179688,-0.043945312,-0.024414062,6.9320297,16.03595,-0.37073758,-13.093656,1.0074463,-0.12841797,-0.15435791,-0.15527344,0.060546875,0.06738281,5.773056,18.859352,-57.187305,-9.396257,0.42877197,-0.3258667,0.8652344,-0.016601562,0.029296875,0.00390625,6.9815702,16.899525,-128.48601,0.5349655,0.0,0.0,0.0,0.0,0.0,0.0,0.0,21.238665,-128.5847,20.061953,0.0,0.0,0.0,0.0,0.0,0.0,0.0,1.7156492,44.96568,0.828004,
0.6835937398136595,35,-0.045166016,0.81347656,0.44610596,-0.04296875,-0.05078125,0.030273438,0.0,0.0,0.0,0.0,0.0,0.0,0.0,0.0,0.0,0.0,0.0,-0.77361065,0.017801963,0.6337371,-0.9562378,0.14349365,0.17297363,0.015625,0.041992188,-0.00390625,9.907624,-16.016138,0.3685558,13.120323,0.96502686,-0.27166748,-0.21148682,0.043945312,0.03515625,0.018554688,11.577145,-11.026541,-56.14237,18.734661,-0.5874634,-0.18292236,0.7669678,-0.049804688,-0.0107421875,-9.765625E-4,13.547247,-18.066374,-127.72153,22.368288,0.0,0.0,0.0,0.0,0.0,0.0,0.0,-16.269516,-131.71097,41.859356,0.0,0.0,0.0,0.0,0.0,0.0,0.0,0.77361065,-0.017801963,-0.6337371,-0.92401123,-0.0032958984,-0.31225586,-0.00390625,-0.00390625,-0.00390625,6.914861,16.016138,-0.3685558,-13.120323,1.0308228,-0.103759766,-0.1352539,-0.05859375,0.05859375,0.046875,5.7773323,18.807558,-57.196762,-9.4898615,0.40515137,-0.33337402,0.8633423,-0.016601562,0.028320312,0.060546875,6.9924064,16.822615,-128.5103,0.38537312,0.0,0.0,0.0,0.0,0.0,0.0,0.0,21.15435,-128.62267,19.913109,0.0,0.0,0.0,0.0,0.0,0.0,0.0,1.741014,44.967346,0.862124,
0.7031249895226211,36,-0.007873535,0.8074951,0.44104004,0.15527344,0.020507812,0.0078125,0.0,0.0,0.0,0.0,0.0,0.0,0.0,0.0,0.0,0.0,0.0,-0.7731247,0.016030654,0.6343188,-0.9421997,0.15649414,0.19909668,-0.00390625,0.09863281,0.034179688,9.833213,-16.006079,0.3318842,13.132366,0.9743042,-0.26727295,-0.18859863,0.043945312,0.034179688,0.038085938,11.469563,-11.091168,-56.183136,18.766207,-0.59039307,-0.23217773,0.78692627,-0.0126953125,0.059570312,-0.038085938,13.220213,-18.102068,-127.76138,22.482136,0.0,0.0,0.0,0.0,0.0,0.0,0.0,-16.306282,-131.61026,42.002304,0.0,0.0,0.0,0.0,0.0,0.0,0.0,0.7731247,-0.016030654,-0.6343188,-0.9686279,0.042907715,-0.32659912,0.03515625,0.0146484375,-0.00390625,6.8606124,16.006079,-0.3318842,-13.132366,1.0153198,-0.14154053,-0.15441895,0.0,0.057617188,0.046875,5.787264,18.787918,-57.15602,-9.5234375,0.39691162,-0.32537842,0.8751831,-0.015625,0.0859375,0.022460938,6.978844,16.776936,-128.46715,0.32414055,0.0,0.0,0.0,0.0,0.0,0.0,0.0,21.116308,-128.58504,19.851097,0.0,0.0,0.0,0.0,0.0,0.0,0.0,1.6700144,44.96765,0.89902514,
0.7226562392315828,37,-0.034240723,0.8270874,0.4389038,0.1171875,0.059570312,0.0087890625,0.0,0.0,0.0,0.0,0.0,0.0,0.0,0.0,0.0,0.0,0.0,-0.7723169,0.013658165,0.63528425,-0.9915161,0.1329956,0.25341797,-0.041992188,-0.03515625,0.051757812,9.794304,-15.989353,0.28276637,13.152353,0.98291016,-0.24798584,-0.20056152,-0.013671875,0.016601562,0.017578125,11.468274,-11.03888,-56.216225,18.888285,-0.5873413,-0.23120117,0.77008057,0.005859375,0.09472656,-0.057617188,12.952853,-17.983847,-127.79838,22.663647,0.0,0.0,0.0,0.0,0.0,0.0,0.0,-16.204704,-131.52795,42.210545,0.0,0.0,0.0,0.0,0.0,0.0,0.0,0.7723169,-0.013658165,-0.63528425,-0.94854736,0.04034424,-0.31585693,-0.0234375,-0.022460938,0.037109375,6.714956,15.989353,-0.28276637,-13.152353,1.0078125,-0.10046387,-0.14666748,-0.05859375,0.05859375,0.046875,5.729913,18.74377,-57.10721,-9.528259,0.401062,-0.32739258,0.8673096,-0.03515625,0.029296875,0.00390625,6.9192286,16.694542,-128.43607,0.21001911,0.0,0.0,0.0,0.0,0.0,0.0,0.0,21.033596,-128.56726,19.735947,0.0,0.0,0.0,0.0,0.0,0.0,0.0,1.5274792,44.9708,0.89012027,
0.7421874889405445,38,-0.023803711,0.85284424,0.4716797,-0.041015625,0.026367188,0.06738281,0.0,0.0,0.0,0.0,0.0,0.0,0.0,0.0,0.0,0.0,0.0,-0.7711636,0.013063278,0.63677174,-0.98583984,0.14648438,0.19689941,-0.041015625,-0.072265625,-0.005859375,9.926739,-15.965477,0.27045035,13.18315,0.96313477,-0.2677002,-0.2074585,-0.14648438,0.056640625,-0.005859375,11.510503,-10.9261265,-56.216614,18.985094,-0.5951538,-0.21911621,0.7651367,-0.032226562,0.09667969,-0.057617188,12.7170105,-17.80463,-127.79901,22.806051,0.0,0.0,0.0,0.0,0.0,0.0,0.0,-16.022446,-131.42404,42.371292,0.0,0.0,0.0,0.0,0.0,0.0,0.0,0.7711636,-0.013063278,-0.63677174,-0.93969727,0.026428223,-0.31298828,-0.00390625,-0.0234375,-0.00390625,6.6338,15.965477,-0.27045035,-13.18315,1.0078125,-0.10046387,-0.14666748,-0.05859375,0.05859375,0.046875,5.7123384,18.644129,-57.109486,-9.627413,0.41131592,-0.3334961,0.8633423,-0.0546875,0.0107421875,0.041992188,6.939609,16.594902,-128.43834,0.11086559,0.0,0.0,0.0,0.0,0.0,0.0,0.0,20.939318,-128.57822,19.63464,0.0,0.0,0.0,0.0,0.0,0.0,0.0,1.5216666,44.972553,0.9202117,
0.7617187386495062,39,-0.040222168,0.81329346,0.43896484,-0.021484375,0.025390625,0.048828125,0.0,0.0,0.0,0.0,0.0,0.0,0.0,0.0,0.0,0.0,0.0,-0.7702801,0.013083691,0.6377785,-0.9490967,0.14453125,0.16503906,-0.041015625,-0.03515625,0.013671875,10.000361,-15.947188,0.27087298,13.203992,0.944397,-0.28259277,-0.22229004,-0.12695312,0.076171875,-0.005859375,11.53425,-10.875319,-56.210514,19.037233,-0.60040283,-0.23461914,0.7513428,-0.0126953125,0.09667969,-0.020507812,12.595198,-17.75354,-127.788925,22.928436,0.0,0.0,0.0,0.0,0.0,0.0,0.0,-15.965776,-131.32356,42.513382,0.0,0.0,0.0,0.0,0.0,0.0,0.0,0.7702801,-0.013083691,-0.6377785,-0.9268799,0.011291504,-0.3043213,-0.080078125,-0.040039062,-0.0234375,6.599122,15.947188,-0.27087298,-13.203992,0.9837036,-0.103149414,-0.15600586,-0.078125,0.09667969,0.046875,5.684962,18.601204,-57.108887,-9.711622,0.4052124,-0.32537842,0.8574219,-0.03515625,0.029296875,0.041015625,6.8809667,16.547983,-128.45367,-0.075963974,0.0,0.0,0.0,0.0,0.0,0.0,0.0,20.897371,-128.5988,19.448103,0.0,0.0,0.0,0.0,0.0,0.0,0.0,1.5378832,44.969936,0.93485117,
0.7812499883584679,40,-0.035827637,0.8024292,0.46466064,0.09863281,0.080078125,0.045898438,0.0,0.0,0.0,0.0,0.0,0.0,0.0,0.0,0.0,0.0,0.0,-0.7698337,0.012317689,0.63835824,-0.956604,0.13232422,0.20367432,0.0146484375,-0.07324219,0.051757812,10.020225,-15.937943,0.25501436,13.215995,0.96502686,-0.2727661,-0.19451904,0.04296875,-0.0029296875,0.0,11.553329,-10.81907,-56.21455,19.095171,-0.5988159,-0.25543213,0.76623535,-0.06933594,0.09863281,0.03515625,12.4432125,-17.683693,-127.78714,23.112396,0.0,0.0,0.0,0.0,0.0,0.0,0.0,-15.891253,-131.23221,42.71428,0.0,0.0,0.0,0.0,0.0,0.0,0.0,0.7698337,-0.012317689,-0.63835824,-0.94281006,0.02166748,-0.31695557,-0.00390625,0.015625,-0.00390625,6.5081596,15.937943,-0.25501436,-13.215995,1.0432129,-0.13293457,-0.15899658,-0.07714844,0.059570312,0.046875,5.7084603,18.588285,-57.09599,-9.781359,0.40533447,-0.30541992,0.859375,-0.03515625,0.029296875,0.041015625,6.830873,16.489029,-128.4439,-0.22739697,0.0,0.0,0.0,0.0,0.0,0.0,0.0,20.844406,-128.59569,19.294327,0.0,0.0,0.0,0.0,0.0,0.0,0.0,1.4905486,44.972378,0.9297579,
0.8007812380674296,41,-0.044006348,0.8394165,0.46514893,0.09667969,0.041992188,0.045898438,0.0,0.0,0.0,0.0,0.0,0.0,0.0,0.0,0.0,0.0,0.0,-0.7683291,0.011392118,0.6401696,-0.9815674,0.101745605,0.2479248,-0.00390625,-0.16796875,0.0126953125,10.145769,-15.906794,0.23585217,13.253496,0.9901123,-0.24127197,-0.22851562,0.061523438,-0.041015625,9.765625E-4,11.77003,-10.554382,-56.20806,19.199074,-0.5784912,-0.2442627,0.76916504,-0.0126953125,0.09667969,0.036132812,12.228128,-17.397133,-127.78868,23.254316,0.0,0.0,0.0,0.0,0.0,0.0,0.0,-15.611404,-131.14844,42.87142,0.0,0.0,0.0,0.0,0.0,0.0,0.0,0.7683291,-0.011392118,-0.6401696,-0.9276123,0.026306152,-0.35821533,0.03515625,0.09277344,0.016601562,6.323783,15.906794,-0.23585217,-13.253496,0.98773193,-0.121154785,-0.14416504,-0.078125,0.09667969,0.046875,5.6452456,18.47203,-57.086983,-9.86813,0.40509033,-0.33642578,0.8692627,-0.0546875,0.029296875,0.022460938,6.8177385,16.370453,-128.44667,-0.37223244,0.0,0.0,0.0,0.0,0.0,0.0,0.0,20.723734,-128.60571,19.149466,0.0,0.0,0.0,0.0,0.0,0.0,0.0,1.4187475,44.9748,0.9024275,
0.8203124877763913,42,-0.030944824,0.80218506,0.45056152,-0.00390625,-0.032226562,0.047851562,0.0,0.0,0.0,0.0,0.0,0.0,0.0,0.0,0.0,0.0,0.0,-0.7673145,0.011547677,0.64139986,-0.95532227,0.12902832,0.16577148,-0.041992188,-0.16796875,-0.0068359375,10.399962,-15.88579,0.23907268,13.278965,0.9530029,-0.23101807,-0.20721436,-0.033203125,-0.020507812,-0.001953125,12.0359125,-10.268383,-56.17258,19.29376,-0.6154785,-0.23034668,0.77508545,-0.05078125,0.09765625,0.016601562,11.921951,-17.08486,-127.7495,23.309376,0.0,0.0,0.0,0.0,0.0,0.0,0.0,-15.280037,-131.00974,42.939957,0.0,0.0,0.0,0.0,0.0,0.0,0.0,0.7673145,-0.011547677,-0.64139986,-0.92962646,0.030151367,-0.31396484,0.034179688,-0.043945312,0.036132812,6.250561,15.88579,-0.23907268,-13.278965,1.0151978,-0.15148926,-0.15631104,0.018554688,0.09472656,0.064453125,5.6311326,18.382542,-57.09788,-9.9455595,0.41137695,-0.3293457,0.8446045,-0.036132812,0.009765625,0.041015625,6.848366,16.267761,-128.46065,-0.45475483,0.0,0.0,0.0,0.0,0.0,0.0,0.0,20.621113,-128.63057,19.067165,0.0,0.0,0.0,0.0,0.0,0.0,0.0,1.431965,44.97486,0.903356,
0.839843737485353,43,-0.06323242,0.82995605,0.45959473,-0.041992188,-0.01171875,0.048828125,0.0,0.0,0.0,0.0,0.0,0.0,0.0,0.0,0.0,0.0,0.0,-0.76676,0.012004903,0.6421362,-0.9421997,0.13439941,0.18182373,-0.060546875,-0.016601562,0.033203125,10.463318,-15.874309,0.24853873,13.29421,0.96954346,-0.255188,-0.21343994,-0.051757812,-0.001953125,0.016601562,12.076559,-10.214633,-56.153435,19.32796,-0.60583496,-0.25524902,0.77020264,0.0068359375,0.059570312,0.018554688,11.70804,-17.02859,-127.729744,23.368702,0.0,0.0,0.0,0.0,0.0,0.0,0.0,-15.2089815,-130.90265,43.012226,0.0,0.0,0.0,0.0,0.0,0.0,0.0,0.76676,-0.012004903,-0.6421362,-0.9116821,0.018737793,-0.30133057,-0.099609375,-0.040039062,0.017578125,6.2488675,15.874309,-0.24853873,-13.29421,0.9972534,-0.09741211,-0.18597412,0.0390625,0.0390625,0.045898438,5.6275125,18.382927,-57.10444,-9.999594,0.42468262,-0.32183838,0.86621094,-0.0546875,0.0107421875,0.00390625,6.7631497,16.229916,-128.48138,-0.63426113,0.0,0.0,0.0,0.0,0.0,0.0,0.0,20.588999,-128.66286,18.887474,0.0,0.0,0.0,0.0,0.0,0.0,0.0,1.4567764,44.976532,0.89865506,
0.8593749871943147,44,-0.042114258,0.82336426,0.45404053,-0.099609375,0.02734375,0.05078125,0.0,0.0,0.0,0.0,0.0,0.0,0.0,0.0,0.0,0.0,0.0,-0.76549864,0.012741141,0.64331496,-0.97424316,0.12231445,0.23632812,0.034179688,-0.09277344,0.051757812,10.629139,-15.848194,0.26378116,13.318614,0.97003174,-0.26983643,-0.24542236,-0.013671875,0.036132812,-0.001953125,12.208571,-10.095403,-56.119667,19.447529,-0.5842285,-0.22827148,0.7503052,-0.03125,0.060546875,0.017578125,11.537324,-16.948013,-127.69024,23.551064,0.0,0.0,0.0,0.0,0.0,0.0,0.0,-15.118002,-130.77528,43.20912,0.0,0.0,0.0,0.0,0.0,0.0,0.0,0.76549864,-0.012741141,-0.64331496,-0.90844727,0.032958984,-0.32476807,0.034179688,-0.024414062,0.016601562,6.244285,15.848194,-0.26378116,-13.318614,1.0067749,-0.105529785,-0.2107544,-0.15527344,0.09765625,0.10449219,5.5842314,18.3647,-57.128204,-10.079183,0.428833,-0.32177734,0.8543701,-0.0546875,0.0107421875,0.041992188,6.724354,16.24112,-128.52148,-0.84734917,0.0,0.0,0.0,0.0,0.0,0.0,0.0,20.60618,-128.70964,18.672039,0.0,0.0,0.0,0.0,0.0,0.0,0.0,1.4971001,44.966373,0.89086264,
0.8789062369032764,45,-0.024169922,0.87158203,0.45196533,-0.0625,-0.030273438,0.06738281,0.0,0.0,0.0,0.0,0.0,0.0,0.0,0.0,0.0,0.0,0.0,-0.7649213,0.014178064,0.6441521,-0.9351196,0.13134766,0.18273926,0.07128906,-0.18652344,-0.0068359375,10.9548645,-15.836244,0.29352993,13.335946,0.9425049,-0.23828125,-0.25299072,-0.013671875,0.016601562,0.017578125,12.526339,-9.843617,-56.05324,19.56815,-0.5906372,-0.2498169,0.7642212,-0.0126953125,0.078125,-9.765625E-4,11.392711,-16.765635,-127.61479,23.661913,0.0,0.0,0.0,0.0,0.0,0.0,0.0,-14.938168,-130.63013,43.331017,0.0,0.0,0.0,0.0,0.0,0.0,0.0,0.7649213,-0.014178064,-0.6441521,-0.92626953,0.05407715,-0.33544922,0.2265625,0.10644531,0.013671875,6.157815,15.836244,-0.29352993,-13.335946,1.0392456,-0.14581299,-0.14996338,-0.13671875,0.13378906,0.06640625,5.5721455,18.275675,-57.17117,-10.2465515,0.4194336,-0.3397827,0.87316895,-0.07421875,0.0107421875,0.041992188,6.8039737,16.224905,-128.56348,-1.0198116,0.0,0.0,0.0,0.0,0.0,0.0,0.0,20.582245,-128.75398,18.501558,0.0,0.0,0.0,0.0,0.0,0.0,0.0,1.5814812,44.96878,0.88820374,
0.8984374866122381,46,-0.036132812,0.8261719,0.44891357,0.09375,-0.053710938,0.06347656,0.0,0.0,0.0,0.0,0.0,0.0,0.0,0.0,0.0,0.0,0.0,-0.76579094,0.012768332,0.6431861,-0.91741943,0.1463623,0.14221191,0.072265625,-0.034179688,-0.024414062,10.941702,-15.854246,0.26434407,13.3159485,0.9491577,-0.25524902,-0.24816895,-0.087890625,0.016601562,0.072265625,12.625513,-9.819586,-56.083454,19.538996,-0.58807373,-0.2154541,0.77008057,-0.0126953125,0.060546875,-9.765625E-4,11.20646,-16.828897,-127.64058,23.662737,0.0,0.0,0.0,0.0,0.0,0.0,0.0,-14.990431,-130.56143,43.344738,0.0,0.0,0.0,0.0,0.0,0.0,0.0,0.76579094,-0.012768332,-0.6431861,-0.8953247,0.04107666,-0.3463745,0.13085938,0.109375,0.036132812,5.897774,15.854246,-0.26434407,-13.3159485,1.0309448,-0.1517334,-0.17047119,0.038085938,0.13183594,0.044921875,5.507763,18.097923,-57.149124,-10.345324,0.42980957,-0.32385254,0.85931396,-0.055664062,-0.0087890625,0.041015625,6.898532,16.114384,-128.53052,-1.0368538,0.0,0.0,0.0,0.0,0.0,0.0,0.0,20.47894,-128.72203,18.483868,0.0,0.0,0.0,0.0,0.0,0.0,0.0,1.5175059,44.971584,0.91401255,
0.9179687363211998,47,-0.01739502,0.8105469,0.4085083,0.19335938,-0.018554688,0.0068359375,0.0,0.0,0.0,0.0,0.0,0.0,0.0,0.0,0.0,0.0,0.0,-0.76629996,0.00941984,0.6427132,-0.94537354,0.14282227,0.20581055,0.015625,0.059570312,0.052734375,10.767481,-15.864783,0.19501987,13.306155,0.96569824,-0.24420166,-0.22729492,0.0068359375,-0.0029296875,0.056640625,12.589935,-9.875267,-56.154526,19.527977,-0.5895386,-0.24682617,0.75531006,-0.03125,0.060546875,-9.765625E-4,11.032746,-16.901493,-127.706795,23.68052,0.0,0.0,0.0,0.0,0.0,0.0,0.0,-15.077913,-130.53275,43.375774,0.0,0.0,0.0,0.0,0.0,0.0,0.0,0.76629996,-0.00941984,-0.6427132,-0.9320679,0.070373535,-0.3166504,-0.0029296875,0.015625,-0.024414062,5.747503,15.864783,-0.19501987,-13.306155,1.0230713,-0.10772705,-0.18640137,0.038085938,0.11328125,0.0078125,5.429283,18.079147,-57.086006,-10.330341,0.41345215,-0.31756592,0.8623047,-0.055664062,-0.0087890625,0.060546875,6.88752,16.143381,-128.47833,-1.0708084,0.0,0.0,0.0,0.0,0.0,0.0,0.0,20.509079,-128.67262,18.448406,0.0,0.0,0.0,0.0,0.0,0.0,0.0,1.3412457,44.978844,0.93992627,
0.9374999860301615,48,-0.024902344,0.8189697,0.45654297,0.11621094,0.041015625,0.02734375,0.0,0.0,0.0,0.0,0.0,0.0,0.0,0.0,0.0,0.0,0.0,-0.7658738,0.007098166,0.64324445,-0.9864502,0.12237549,0.24224854,0.0146484375,-0.053710938,0.033203125,10.7800865,-15.85596,0.14695403,13.317154,0.9619751,-0.23327637,-0.22125244,-0.051757812,0.036132812,-0.0029296875,12.689227,-9.785458,-56.182713,19.639412,-0.59228516,-0.23095703,0.7463989,-0.01171875,0.024414062,0.018554688,10.811173,-16.802917,-127.73636,23.79422,0.0,0.0,0.0,0.0,0.0,0.0,0.0,-14.98632,-130.46846,43.505157,0.0,0.0,0.0,0.0,0.0,0.0,0.0,0.7658738,-0.007098166,-0.64324445,-0.94525146,0.06097412,-0.32159424,0.03515625,0.09277344,-0.00390625,5.6450725,15.85596,-0.14695403,-13.317154,1.0036621,-0.084472656,-0.16345215,-0.13671875,0.13378906,0.046875,5.2933908,18.054672,-57.035748,-10.316046,0.40509033,-0.33343506,0.86828613,-0.07324219,0.030273438,0.00390625,6.8596406,16.208101,-128.44089,-1.158927,0.0,0.0,0.0,0.0,0.0,0.0,0.0,20.579334,-128.64265,18.35878,0.0,0.0,0.0,0.0,0.0,0.0,0.0,1.2089907,44.982346,0.9430973,
0.9570312357391232,49,-0.039916992,0.83135986,0.46899414,-0.08105469,0.0078125,0.03125,0.0,0.0,0.0,0.0,0.0,0.0,0.0,0.0,0.0,0.0,0.0,-0.7642547,0.008512739,0.6450211,-0.96276855,0.1418457,0.22070312,0.034179688,-0.072265625,0.013671875,10.928668,-15.822441,0.17624012,13.353937,0.9460449,-0.262146,-0.20428467,-0.08984375,0.018554688,-0.00390625,12.786433,-9.672171,-56.140858,19.733059,-0.61328125,-0.22631836,0.7394409,-0.01171875,0.024414062,0.018554688,10.622527,-16.69965,-127.69388,23.902454,0.0,0.0,0.0,0.0,0.0,0.0,0.0,-14.861482,-130.34293,43.623657,0.0,0.0,0.0,0.0,0.0,0.0,0.0,0.7642547,-0.008512739,-0.6450211,-0.96777344,0.030822754,-0.31195068,-0.1171875,0.13671875,-0.022460938,5.6389236,15.822441,-0.17624012,-13.353937,1.0303955,-0.16168213,-0.13482666,-0.1171875,0.13378906,0.06542969,5.119253,17.925285,-57.065857,-10.335606,0.40930176,-0.3373413,0.84558105,-0.0546875,0.0107421875,0.060546875,6.9368105,16.257437,-128.47675,-1.153595,0.0,0.0,0.0,0.0,0.0,0.0,0.0,20.640963,-128.67857,18.360472,0.0,0.0,0.0,0.0,0.0,0.0,0.0,1.2818677,44.976948,0.9252353,
0.9765624854480849,50,-0.053955078,0.85272217,0.48242188,-0.041992188,-0.0126953125,0.030273438,0.0,0.0,0.0,0.0,0.0,0.0,0.0,0.0,0.0,0.0,0.0,-0.76346177,0.010145009,0.6458422,-0.9421997,0.1449585,0.19091797,0.015625,0.00390625,0.0146484375,11.035887,-15.806026,0.21003313,13.370936,0.9807129,-0.2909546,-0.2086792,0.0068359375,0.03515625,0.055664062,12.799928,-9.624628,-56.09665,19.771793,-0.5923462,-0.23492432,0.75427246,-0.049804688,0.025390625,0.0546875,10.510825,-16.643774,-127.63905,24.021275,0.0,0.0,0.0,0.0,0.0,0.0,0.0,-14.810667,-130.20691,43.75379,0.0,0.0,0.0,0.0,0.0,0.0,0.0,0.76346177,-0.010145009,-0.6458422,-0.92767334,0.023620605,-0.3287964,0.015625,-0.0234375,0.016601562,5.643753,15.806026,-0.21003313,-13.370936,0.9920044,-0.1451416,-0.11541748,0.017578125,0.13183594,0.0078125,5.085808,17.865662,-57.102844,-10.389988,0.42138672,-0.37145996,0.84161377,-0.016601562,0.028320312,0.041015625,7.0123243,16.36959,-128.50342,-1.0877056,0.0,0.0,0.0,0.0,0.0,0.0,0.0,20.747377,-128.69203,18.428652,0.0,0.0,0.0,0.0,0.0,0.0,0.0,1.3690393,44.971928,0.91193885,
0.9960937351570466,51,-0.021118164,0.803833,0.43041992,0.115234375,-0.015625,0.044921875,0.0,0.0,0.0,0.0,0.0,0.0,0.0,0.0,0.0,0.0,0.0,-0.763129,0.0095303375,0.64632404,-0.9760742,0.14562988,0.2387085,0.0146484375,-0.091796875,0.013671875,11.130186,-15.799137,0.19730753,13.380911,0.9621582,-0.2677002,-0.19647217,0.043945312,0.015625,0.018554688,12.841758,-9.548142,-56.092335,19.871725,-0.59472656,-0.25354004,0.75634766,-0.049804688,0.043945312,0.017578125,10.357918,-16.52409,-127.63754,24.2019,0.0,0.0,0.0,0.0,0.0,0.0,0.0,-14.702416,-130.12029,43.94599,0.0,0.0,0.0,0.0,0.0,0.0,0.0,0.763129,-0.0095303375,-0.64632404,-0.94628906,0.061828613,-0.27539062,-0.0029296875,0.1328125,-0.00390625,5.599652,15.799137,-0.19730753,-13.380911,1.0321045,-0.10876465,-0.11352539,0.076171875,0.11230469,0.0068359375,4.970156,17.834843,-57.095642,-10.413193,0.4175415,-0.3236084,0.859375,-0.016601562,0.029296875,0.00390625,7.0582747,16.59082,-128.49512,-1.064168,0.0,0.0,0.0,0.0,0.0,0.0,0.0,20.95682,-128.68846,18.454536,0.0,0.0,0.0,0.0,0.0,0.0,0.0,1.3402797,44.974953,0.9193219,
1.0156249848660084,52,-0.040771484,0.80059814,0.46972656,0.055664062,-0.0146484375,0.046875,0.0,0.0,0.0,0.0,0.0,0.0,0.0,0.0,0.0,0.0,0.0,-0.76176476,0.009026522,0.64797044,-0.96917725,0.13275146,0.24645996,-0.00390625,-0.20605469,-0.0068359375,11.314857,-15.770892,0.186877,13.414995,0.98223877,-0.26843262,-0.22753906,-0.0146484375,0.017578125,-0.020507812,13.052455,-9.326893,-56.06677,20.043324,-0.6043091,-0.22766113,0.7562866,-0.01171875,0.060546875,0.017578125,10.213921,-16.293285,-127.60812,24.410595,0.0,0.0,0.0,0.0,0.0,0.0,0.0,-14.471265,-130.0165,44.16443,0.0,0.0,0.0,0.0,0.0,0.0,0.0,0.76176476,-0.009026522,-0.64797044,-1.0078125,0.043029785,-0.3010254,-0.061523438,-0.001953125,0.038085938,5.564684,15.770892,-0.186877,-13.414995,1.0166016,-0.09552002,-0.0925293,-0.0390625,0.11425781,0.083984375,4.8162546,17.80092,-57.0801,-10.419558,0.4204712,-0.3416748,0.8623047,-0.015625,0.047851562,0.00390625,7.036731,16.767078,-128.48915,-1.0993748,0.0,0.0,0.0,0.0,0.0,0.0,0.0,21.131046,-128.6802,18.420221,0.0,0.0,0.0,0.0,0.0,0.0,0.0,1.2993938,44.977455,0.90103257,
1.03515623457497,53,-0.05419922,0.817749,0.45428467,-0.0625,-0.030273438,0.048828125,0.0,0.0,0.0,0.0,0.0,0.0,0.0,0.0,0.0,0.0,0.0,-0.7600498,0.010352708,0.6501032,-0.9065552,0.14855957,0.17810059,-0.022460938,-0.11035156,-0.025390625,11.575868,-15.735388,0.21433312,13.459153,0.9706421,-0.24829102,-0.234375,-0.051757812,-0.001953125,0.016601562,13.298933,-9.08363,-56.002747,20.19665,-0.6095581,-0.24029541,0.75531006,-0.0126953125,0.078125,-9.765625E-4,10.042047,-16.064182,-127.54281,24.563843,0.0,0.0,0.0,0.0,0.0,0.0,0.0,-14.210695,-129.89627,44.322495,0.0,0.0,0.0,0.0,0.0,0.0,0.0,0.7600498,-0.010352708,-0.6501032,-0.97387695,0.024230957,-0.27667236,-0.04296875,-0.17773438,0.037109375,5.771732,15.735388,-0.21433312,-13.459153,1.0199585,-0.10559082,-0.13104248,-0.078125,0.09667969,0.046875,4.882667,18.023708,-57.099403,-10.458783,0.41949463,-0.3326416,0.8583374,-0.03515625,0.029296875,0.022460938,7.040577,17.131754,-128.51192,-1.179966,0.0,0.0,0.0,0.0,0.0,0.0,0.0,21.477325,-128.70302,18.344511,0.0,0.0,0.0,0.0,0.0,0.0,0.0,1.3595792,44.98037,0.8732141,
1.0546874842839318,54,-0.061340332,0.8039551,0.44543457,-0.044921875,-0.08886719,0.047851562,0.0,0.0,0.0,0.0,0.0,0.0,0.0,0.0,0.0,0.0,0.0,-0.75753045,0.01321535,0.65290385,-0.93859863,0.13739014,0.23461914,-0.041015625,-0.015625,0.033203125,11.722152,-15.6832285,0.27359867,13.517133,0.9482422,-0.29058838,-0.2253418,-0.0703125,0.036132812,0.015625,13.313504,-9.021207,-55.934906,20.309399,-0.59051514,-0.24383545,0.7543335,-0.0126953125,0.078125,0.017578125,9.917146,-16.009834,-127.47242,24.754803,0.0,0.0,0.0,0.0,0.0,0.0,0.0,-14.14283,-129.75668,44.519897,0.0,0.0,0.0,0.0,0.0,0.0,0.0,0.75753045,-0.01321535,-0.65290385,-0.9433594,0.054016113,-0.27941895,0.015625,-0.0234375,0.037109375,5.9422426,15.6832285,-0.27359867,-13.517133,0.99591064,-0.14117432,-0.1204834,-0.09667969,0.09667969,0.06640625,4.9532957,18.080105,-57.152676,-10.521684,0.41949463,-0.34362793,0.8554077,-0.036132812,0.009765625,0.022460938,7.0682173,17.227993,-128.56177,-1.2182283,0.0,0.0,0.0,0.0,0.0,0.0,0.0,21.5836,-128.75717,18.303558,0.0,0.0,0.0,0.0,0.0,0.0,0.0,1.5034107,44.974133,0.8340134,
1.0742187339928935,55,-0.048339844,0.8314209,0.4413452,0.053710938,-0.09082031,0.064453125,0.0,0.0,0.0,0.0,0.0,0.0,0.0,0.0,0.0,0.0,0.0,-0.756025,0.013111744,0.6546861,-0.98223877,0.12927246,0.23443604,0.0146484375,-0.12988281,0.0126953125,11.868734,-15.652063,0.27145374,13.554032,0.9764404,-0.25738525,-0.23547363,-0.0146484375,0.036132812,-0.021484375,13.441215,-8.867472,-55.913326,20.397842,-0.5968628,-0.26239014,0.7593384,0.0068359375,0.07714844,-0.01953125,9.816543,-15.862295,-127.44766,24.889309,0.0,0.0,0.0,0.0,0.0,0.0,0.0,-13.99969,-129.66603,44.660706,0.0,0.0,0.0,0.0,0.0,0.0,0.0,0.756025,-0.013111744,-0.6546861,-0.93359375,0.034851074,-0.30212402,0.072265625,-0.083984375,0.036132812,5.968246,15.652063,-0.27145374,-13.554032,1.0307007,-0.11175537,-0.13812256,-0.01953125,0.040039062,0.046875,4.998614,18.070576,-57.15177,-10.570458,0.43170166,-0.34698486,0.8701782,0.001953125,0.009765625,0.022460938,7.07604,17.205814,-128.55956,-1.2424326,0.0,0.0,0.0,0.0,0.0,0.0,0.0,21.572727,-128.75525,18.276249,0.0,0.0,0.0,0.0,0.0,0.0,0.0,1.512356,44.974724,0.8457213,
1.0937499837018552,56,-0.04425049,0.8442993,0.45129395,0.09277344,-0.091796875,0.044921875,0.0,0.0,0.0,0.0,0.0,0.0,0.0,0.0,0.0,0.0,0.0,-0.75517625,0.011886401,0.6556408,-0.9425659,0.11651611,0.20440674,0.0146484375,-0.12988281,-0.005859375,12.022,-15.634491,0.24608539,13.573796,0.96606445,-0.23248291,-0.22131348,-0.05078125,0.036132812,0.03515625,13.648708,-8.654001,-55.913197,20.462444,-0.60131836,-0.22680664,0.7671509,0.043945312,0.09472656,-0.038085938,9.642246,-15.650215,-127.447754,24.941319,0.0,0.0,0.0,0.0,0.0,0.0,0.0,-13.773771,-129.60892,44.718277,0.0,0.0,0.0,0.0,0.0,0.0,0.0,0.75517625,-0.011886401,-0.6556408,-0.95428467,0.060668945,-0.34417725,0.072265625,-0.083984375,0.056640625,5.987233,15.634491,-0.24608539,-13.573796,1.0290527,-0.13372803,-0.17156982,-0.0390625,0.095703125,0.06542969,5.0115705,18.08263,-57.123146,-10.560465,0.41534424,-0.3446045,0.8633423,0.001953125,0.0087890625,0.059570312,7.0298696,17.163425,-128.53036,-1.2624779,0.0,0.0,0.0,0.0,0.0,0.0,0.0,21.549139,-128.72359,18.25259,0.0,0.0,0.0,0.0,0.0,0.0,0.0,1.4636223,44.97446,0.87045884,
1.1132812334108169,57,-0.034179688,0.84698486,0.44805908,0.034179688,-0.072265625,0.009765625,0.0,0.0,0.0,0.0,0.0,0.0,0.0,0.0,0.0,0.0,0.0,-0.75452286,0.011259226,0.65641505,-0.9425049,0.13006592,0.20861816,0.015625,-0.03515625,0.013671875,12.142718,-15.620964,0.23310092,13.589826,0.9366455,-0.27252197,-0.21221924,-0.06933594,0.036132812,0.053710938,13.739878,-8.557996,-55.90843,20.508003,-0.614624,-0.24603271,0.7474365,0.0068359375,0.11425781,-9.765625E-4,9.548884,-15.560932,-127.44031,25.005028,0.0,0.0,0.0,0.0,0.0,0.0,0.0,-13.662265,-129.54799,44.78543,0.0,0.0,0.0,0.0,0.0,0.0,0.0,0.75452286,-0.011259226,-0.65641505,-0.94628906,0.058288574,-0.3314209,0.034179688,-0.06347656,0.09765625,6.006748,15.620964,-0.23310092,-13.589826,1.0133057,-0.111572266,-0.17138672,0.018554688,0.09472656,0.045898438,4.960884,18.003616,-57.113686,-10.53665,0.4296875,-0.34777832,0.8554077,-0.0546875,0.029296875,0.060546875,7.0619426,17.053596,-128.52463,-1.2312565,0.0,0.0,0.0,0.0,0.0,0.0,0.0,21.428997,-128.71733,18.286388,0.0,0.0,0.0,0.0,0.0,0.0,0.0,1.4651136,44.973915,0.91266984,
1.1328124831197786,58,-0.04168701,0.8310547,0.41131592,0.055664062,-0.015625,0.009765625,0.0,0.0,0.0,0.0,0.0,0.0,0.0,0.0,0.0,0.0,0.0,-0.754989,0.010420709,0.6557126,-0.9378052,0.12738037,0.2514038,0.07128906,-0.072265625,0.013671875,12.190147,-15.630611,0.21574101,13.575283,0.963501,-0.25201416,-0.21240234,-0.033203125,-0.001953125,-0.001953125,13.7906275,-8.504836,-55.90822,20.510855,-0.58532715,-0.23413086,0.7572632,-0.0126953125,0.078125,-0.01953125,9.48021,-15.497845,-127.44305,25.044346,0.0,0.0,0.0,0.0,0.0,0.0,0.0,-13.6120825,-129.49458,44.83174,0.0,0.0,0.0,0.0,0.0,0.0,0.0,0.754989,-0.010420709,-0.6557126,-0.9414673,0.044311523,-0.324646,-0.08105469,-0.07910156,0.05859375,5.9824185,15.630611,-0.21574101,-13.575283,1.0148926,-0.12158203,-0.19012451,-0.001953125,0.1875,0.044921875,4.869851,17.96133,-57.08947,-10.490545,0.40509033,-0.3334961,0.8712158,-0.0546875,0.029296875,0.060546875,7.0900536,17.047258,-128.49857,-1.2120876,0.0,0.0,0.0,0.0,0.0,0.0,0.0,21.42022,-128.69142,18.305178,0.0,0.0,0.0,0.0,0.0,0.0,0.0,1.4316366,44.96924,0.9337299,
1.1523437328287403,59,-0.045166016,0.85131836,0.45928955,0.1328125,-0.07421875,0.043945312,0.0,0.0,0.0,0.0,0.0,0.0,0.0,0.0,0.0,0.0,0.0,-0.7544319,0.009656031,0.6566082,-0.97216797,0.14154053,0.24859619,0.09082031,-0.1484375,-0.005859375,12.307366,-15.6190815,0.19990975,13.593827,0.9564209,-0.25372314,-0.21331787,-0.0703125,0.036132812,0.015625,13.991781,-8.3178215,-55.891376,20.633236,-0.6057129,-0.25128174,0.76031494,0.0068359375,0.059570312,-0.01953125,9.366742,-15.31312,-127.42099,25.17398,0.0,0.0,0.0,0.0,0.0,0.0,0.0,-13.43211,-129.412,44.969666,0.0,0.0,0.0,0.0,0.0,0.0,0.0,0.7544319,-0.009656031,-0.6566082,-0.90802,0.06732178,-0.3314209,-0.041992188,-0.0029296875,0.078125,5.8545094,15.6190815,-0.19990975,-13.593827,1.0341797,-0.14190674,-0.22296143,0.018554688,0.13183594,0.064453125,4.8270617,17.9026,-57.08338,-10.523663,0.4215088,-0.34368896,0.8613281,-0.07421875,0.0107421875,0.060546875,7.1183023,16.99382,-128.49571,-1.2801514,0.0,0.0,0.0,0.0,0.0,0.0,0.0,21.382046,-128.69435,18.234848,0.0,0.0,0.0,0.0,0.0,0.0,0.0,1.364958,44.97905,0.9068557,
1.171874982537702,60,-0.070739746,0.84783936,0.4310913,0.13085938,-0.13085938,0.043945312,0.0,0.0,0.0,0.0,0.0,0.0,0.0,0.0,0.0,0.0,0.0,-0.75356436,0.0076609855,0.65747,-0.9333496,0.14910889,0.22589111,0.052734375,-0.09082031,-0.043945312,12.327057,-15.601116,0.15860614,13.611667,0.9562988,-0.2576294,-0.21136475,-0.07128906,-0.020507812,0.015625,14.163102,-8.133249,-55.90314,20.733154,-0.6176758,-0.2479248,0.7523804,-0.01171875,0.0234375,-0.01953125,9.222941,-15.102472,-127.43779,25.255106,0.0,0.0,0.0,0.0,0.0,0.0,0.0,-13.214333,-129.36833,45.05662,0.0,0.0,0.0,0.0,0.0,0.0,0.0,0.75356436,-0.0076609855,-0.65747,-0.899292,0.044006348,-0.3433838,0.07324219,0.111328125,0.056640625,5.5930333,15.601116,-0.15860614,-13.611667,1.0150146,-0.103637695,-0.1921997,-0.001953125,0.16894531,0.026367188,4.746233,17.782106,-57.04829,-10.592512,0.4081421,-0.3414917,0.86431885,-0.0546875,0.0107421875,0.060546875,7.1577964,16.927338,-128.4677,-1.3884468,0.0,0.0,0.0,0.0,0.0,0.0,0.0,21.318935,-128.6702,18.124805,0.0,0.0,0.0,0.0,0.0,0.0,0.0,1.2211308,44.97907,0.8755027,
1.1914062322466636,61,-0.03668213,0.82592773,0.4081421,0.091796875,-0.12988281,0.044921875,0.0,0.0,0.0,0.0,0.0,0.0,0.0,0.0,0.0,0.0,0.0,-0.75204134,0.0046724803,0.65932435,-0.9508667,0.12585449,0.23638916,0.052734375,-0.091796875,-0.005859375,12.277129,-15.569588,0.09673481,13.650059,0.9857788,-0.25500488,-0.18963623,-0.06933594,0.017578125,0.03515625,14.204928,-8.037004,-55.952457,20.784279,-0.61169434,-0.24627686,0.77612305,0.026367188,0.041015625,0.018554688,9.053733,-14.976505,-127.48624,25.32043,0.0,0.0,0.0,0.0,0.0,0.0,0.0,-13.084225,-129.35083,45.128193,0.0,0.0,0.0,0.0,0.0,0.0,0.0,0.75204134,-0.0046724803,-0.65932435,-0.90826416,0.04663086,-0.36499023,0.015625,0.07421875,0.016601562,5.393069,15.569588,-0.09673481,-13.650059,1.0146484,-0.10864258,-0.21191406,0.017578125,0.16894531,0.026367188,4.6307087,17.617586,-56.988693,-10.661547,0.42156982,-0.3237915,0.86724854,-0.07519531,-0.046875,0.07910156,7.1807275,16.814686,-128.4126,-1.5036106,0.0,0.0,0.0,0.0,0.0,0.0,0.0,21.200825,-128.61319,18.010695,0.0,0.0,0.0,0.0,0.0,0.0,0.0,1.0758321,44.98464,0.90832424,
1.2109374819556253,62,-0.028503418,0.8168335,0.41381836,0.091796875,-0.111328125,0.0087890625,0.0,0.0,0.0,0.0,0.0,0.0,0.0,0.0,0.0,0.0,0.0,-0.750467,0.0027135229,0.66102964,-0.9663696,0.12841797,0.27227783,0.08984375,-0.22460938,-0.0068359375,12.502461,-15.536994,0.05617833,13.685364,0.9628906,-0.23724365,-0.2232666,-0.08984375,0.056640625,-0.00390625,14.490178,-7.7580757,-55.945614,20.918207,-0.6055908,-0.24536133,0.7573242,0.025390625,0.041015625,-0.018554688,8.991583,-14.715826,-127.47591,25.445063,0.0,0.0,0.0,0.0,0.0,0.0,0.0,-12.834402,-129.28574,45.258694,0.0,0.0,0.0,0.0,0.0,0.0,0.0,0.750467,-0.0027135229,-0.66102964,-0.9154053,0.040283203,-0.33947754,-0.0029296875,0.19140625,-0.0234375,5.240338,15.536994,-0.05617833,-13.685364,1.0133667,-0.07965088,-0.18145752,-0.13769531,0.24511719,0.0078125,4.4771094,17.427763,-56.961155,-10.750455,0.40533447,-0.30737305,0.85839844,-0.09375,-0.02734375,0.07910156,7.113009,16.763962,-128.39273,-1.6411295,0.0,0.0,0.0,0.0,0.0,0.0,0.0,21.17191,-128.55893,17.868408,0.0,0.0,0.0,0.0,0.0,0.0,0.0,1.003057,44.982487,0.9541178,
1.230468731664587,63,-0.048461914,0.84832764,0.44049072,0.11328125,-0.0546875,0.0087890625,0.0,0.0,0.0,0.0,0.0,0.0,0.0,0.0,0.0,0.0,0.0,-0.7489276,4.1998364E-4,0.6628493,-0.9251709,0.13189697,0.20172119,0.09082031,-0.12890625,-0.005859375,12.637819,-15.505121,0.008694978,13.723036,0.9492798,-0.2553711,-0.215271,-0.14550781,-9.765625E-4,0.051757812,14.717567,-7.518119,-55.961548,21.017687,-0.6217041,-0.24676514,0.7415161,0.0068359375,0.059570312,-9.765625E-4,8.922974,-14.473605,-127.50013,25.515648,0.0,0.0,0.0,0.0,0.0,0.0,0.0,-12.565723,-129.26456,45.331886,0.0,0.0,0.0,0.0,0.0,0.0,0.0,0.7489276,-4.1998364E-4,-0.6628493,-0.89624023,0.047058105,-0.35021973,0.09277344,0.22753906,-0.025390625,4.967396,15.505121,-0.008694978,-13.723036,1.0314941,-0.13574219,-0.14099121,-0.07910156,0.20703125,0.045898438,4.2855544,17.086771,-56.924236,-10.85629,0.4298706,-0.3237915,0.8514404,-0.09472656,-0.045898438,0.07910156,7.1195974,16.639746,-128.35887,-1.7142801,0.0,0.0,0.0,0.0,0.0,0.0,0.0,21.07296,-128.49033,17.79029,0.0,0.0,0.0,0.0,0.0,0.0,0.0,0.9020231,44.985947,0.9906575,
1.2499999813735487,64,-0.0075683594,0.8270874,0.3944702,0.11328125,-0.07324219,0.044921875,0.0,0.0,0.0,0.0,0.0,0.0,0.0,0.0,0.0,0.0,0.0,-0.7487886,-0.0028042346,0.6630269,-0.93865967,0.12957764,0.23547363,0.109375,-0.072265625,-0.005859375,12.581252,-15.502247,-0.05805634,13.726714,0.9970093,-0.28674316,-0.21380615,-0.0703125,-0.040039062,0.0546875,14.790891,-7.454673,-56.01881,21.02848,-0.60009766,-0.21984863,0.7434082,0.0068359375,0.059570312,-0.01953125,8.895563,-14.44496,-127.55029,25.593248,0.0,0.0,0.0,0.0,0.0,0.0,0.0,-12.515644,-129.27388,45.409565,0.0,0.0,0.0,0.0,0.0,0.0,0.0,0.7487886,0.0028042346,-0.6630269,-0.9244385,0.0423584,-0.33746338,-0.1171875,0.15625,-0.022460938,4.768756,15.502247,0.05805634,-13.726714,1.00354,-0.13537598,-0.1463623,0.036132812,0.2607422,-0.0126953125,4.1581707,16.850388,-56.860497,-10.88422,0.41333008,-0.33746338,0.85546875,-0.13183594,-0.0068359375,0.041992188,7.0969124,16.61885,-128.28204,-1.679245,0.0,0.0,0.0,0.0,0.0,0.0,0.0,21.07103,-128.36922,17.820688,0.0,0.0,0.0,0.0,0.0,0.0,0.0,0.74647593,44.988625,1.0333084,
1.2695312310825104,65,8.544922E-4,0.8300171,0.42211914,0.055664062,-0.034179688,0.009765625,0.0,0.0,0.0,0.0,0.0,0.0,0.0,0.0,0.0,0.0,0.0,-0.7499125,-0.004844205,0.66154397,-0.96533203,0.13128662,0.274292,0.09082031,-0.1484375,-0.005859375,12.6845455,-15.525515,-0.100290075,13.696012,0.9783325,-0.26434326,-0.2185669,-0.0703125,0.036132812,0.015625,14.931937,-7.3539257,-56.026825,21.063171,-0.6086426,-0.24719238,0.7474365,0.044921875,0.05859375,-0.018554688,8.829507,-14.351961,-127.55187,25.66055,0.0,0.0,0.0,0.0,0.0,0.0,0.0,-12.429581,-129.22026,45.481255,0.0,0.0,0.0,0.0,0.0,0.0,0.0,0.7499125,0.004844205,-0.66154397,-0.9121704,0.055603027,-0.369812,0.0546875,0.22949219,-0.024414062,4.5984473,15.525515,0.100290075,-13.696012,1.022644,-0.107666016,-0.14886475,0.07421875,0.27929688,-0.013671875,4.0695305,16.630127,-56.832447,-10.923483,0.42163086,-0.32556152,0.8475342,-0.13183594,-0.0068359375,0.060546875,7.0787835,16.662733,-128.25632,-1.6893005,0.0,0.0,0.0,0.0,0.0,0.0,0.0,21.119198,-128.31015,17.809502,0.0,0.0,0.0,0.0,0.0,0.0,0.0,0.66204816,44.982903,1.0798748,
1.2890624807914721,66,-0.022216797,0.86450195,0.44189453,0.015625,-0.033203125,0.0107421875,0.0,0.0,0.0,0.0,0.0,0.0,0.0,0.0,0.0,0.0,0.0,-0.7503463,-0.005995787,0.6613273,-0.9606323,0.15350342,0.22192383,0.08984375,-0.22460938,0.01171875,12.915336,-15.534493,-0.124131374,13.691526,0.94836426,-0.25146484,-0.20526123,-0.12792969,0.038085938,-0.0048828125,15.192106,-7.132901,-56.004803,21.147335,-0.62768555,-0.24658203,0.7424927,0.025390625,0.041015625,0.0,8.739118,-14.131596,-127.53081,25.716839,0.0,0.0,0.0,0.0,0.0,0.0,0.0,-12.191985,-129.15686,45.538734,0.0,0.0,0.0,0.0,0.0,0.0,0.0,0.7503463,0.005995787,-0.6613273,-0.9526367,0.034973145,-0.3345337,-0.021484375,0.29003906,-0.043945312,4.4008183,15.534493,0.124131374,-13.691526,1.0083618,-0.095458984,-0.11114502,0.07421875,0.27929688,-0.013671875,4.0445266,16.313927,-56.818523,-11.019907,0.42163086,-0.33648682,0.8377075,-0.16894531,0.013671875,0.0048828125,6.976117,16.67014,-128.23418,-1.7457695,0.0,0.0,0.0,0.0,0.0,0.0,0.0,21.151884,-128.24504,17.748196,0.0,0.0,0.0,0.0,0.0,0.0,0.0,0.62472093,44.991016,1.1167142,
1.3085937305004338,67,-0.0065307617,0.84198,0.4005127,0.057617188,0.0234375,0.046875,0.0,0.0,0.0,0.0,0.0,0.0,0.0,0.0,0.0,0.0,0.0,-0.7504493,-0.007289254,0.6611915,-0.9199829,0.15026855,0.20501709,0.052734375,-0.111328125,0.032226562,13.0405035,-15.536627,-0.15091015,13.688715,0.9769287,-0.2800293,-0.2076416,-0.0703125,0.017578125,0.015625,15.31939,-7.028204,-56.010387,21.19712,-0.61932373,-0.22808838,0.7404785,-0.0126953125,0.059570312,-0.038085938,8.709442,-14.038548,-127.53821,25.78798,0.0,0.0,0.0,0.0,0.0,0.0,0.0,-12.082213,-129.12486,45.611935,0.0,0.0,0.0,0.0,0.0,0.0,0.0,0.7504493,0.007289254,-0.6611915,-0.90338135,0.039367676,-0.31195068,-0.21289062,0.19824219,-0.0625,4.3428016,15.536627,0.15091015,-13.688715,1.0083618,-0.095458984,-0.11114502,0.07421875,0.27929688,-0.013671875,4.0074124,16.032171,-56.79686,-11.0256815,0.43780518,-0.37286377,0.84747314,-0.16894531,0.033203125,-0.033203125,6.8137965,16.388384,-128.21251,-1.751544,0.0,0.0,0.0,0.0,0.0,0.0,0.0,20.886118,-128.16878,17.739292,0.0,0.0,0.0,0.0,0.0,0.0,0.0,0.5888596,44.990116,1.1643429,
1.3281249802093955,68,-0.0045776367,0.8309326,0.39337158,0.17578125,0.059570312,0.08105469,0.0,0.0,0.0,0.0,0.0,0.0,0.0,0.0,0.0,0.0,0.0,-0.75071347,-0.011192845,0.6607675,-0.9367676,0.15704346,0.28173828,0.0146484375,-0.14941406,0.0126953125,13.076944,-15.542098,-0.2317266,13.679936,0.973938,-0.27490234,-0.23950195,0.0625,0.034179688,0.01953125,15.469841,-6.897629,-56.062,21.253853,-0.6055908,-0.24334717,0.74938965,-0.01171875,0.024414062,0.018554688,8.698701,-13.919165,-127.5838,25.894552,0.0,0.0,0.0,0.0,0.0,0.0,0.0,-11.977909,-129.1264,45.724255,0.0,0.0,0.0,0.0,0.0,0.0,0.0,0.75071347,0.011192845,-0.6607675,-0.9222412,0.053222656,-0.34429932,-0.1171875,0.2734375,-0.04296875,4.3109345,15.542098,0.2317266,-13.679936,1.0092163,-0.1003418,-0.055847168,0.09472656,0.2607422,0.024414062,4.1377263,15.80708,-56.71271,-11.015735,0.4420166,-0.34802246,0.8513794,-0.09375,-0.045898438,0.041992188,6.83581,16.854431,-128.10039,-1.5513391,0.0,0.0,0.0,0.0,0.0,0.0,0.0,21.370592,-128.01869,17.933308,0.0,0.0,0.0,0.0,0.0,0.0,0.0,0.40775988,44.988434,1.2253318,
1.3476562299183572,69,-0.011352539,0.8143921,0.41137695,0.11621094,0.041015625,0.045898438,0.0,0.0,0.0,0.0,0.0,0.0,0.0,0.0,0.0,0.0,0.0,-0.75001574,-0.013856297,0.66151565,-0.9567871,0.1482544,0.23876953,-0.0234375,-0.26367188,0.03125,13.266366,-15.527651,-0.28686827,13.695424,0.95770264,-0.20269775,-0.23803711,0.04296875,0.053710938,-9.765625E-4,15.812538,-6.6069336,-56.05929,21.384491,-0.63049316,-0.23553467,0.71972656,-0.03125,0.024414062,-9.765625E-4,8.605899,-13.664284,-127.584366,25.982449,0.0,0.0,0.0,0.0,0.0,0.0,0.0,-11.728244,-129.0931,45.815987,0.0,0.0,0.0,0.0,0.0,0.0,0.0,0.75001574,0.013856297,-0.66151565,-0.95458984,0.037719727,-0.32470703,0.017578125,0.40625,-0.0234375,4.226051,15.527651,0.28686827,-13.695424,1.0209961,-0.13745117,-0.045959473,0.11425781,0.24121094,0.04296875,4.369464,15.527543,-56.661297,-11.094075,0.4055786,-0.2802124,0.8377075,-0.091796875,0.03125,-0.10839844,6.876889,16.97437,-128.02423,-1.5178957,0.0,0.0,0.0,0.0,0.0,0.0,0.0,21.502258,-127.93219,17.965118,0.0,0.0,0.0,0.0,0.0,0.0,0.0,0.27459455,44.988865,1.2536805,
1.367187479627319,70,-0.03326416,0.83496094,0.4399414,0.017578125,0.025390625,0.083984375,0.0,0.0,0.0,0.0,0.0,0.0,0.0,0.0,0.0,0.0,0.0,-0.74913967,-0.0147338975,0.6623553,-0.9342041,0.13885498,0.20178223,-0.060546875,-0.09277344,0.051757812,13.360272,-15.509514,-0.30503738,13.712807,0.96191406,-0.23516846,-0.23822021,-0.03125,0.03515625,0.036132812,15.971728,-6.4637585,-56.057583,21.41782,-0.616333,-0.22918701,0.7414551,-0.03125,0.024414062,0.017578125,8.485935,-13.546104,-127.57475,25.976177,0.0,0.0,0.0,0.0,0.0,0.0,0.0,-11.580519,-129.05095,45.809914,0.0,0.0,0.0,0.0,0.0,0.0,0.0,0.74913967,0.0147338975,-0.6623553,-0.99975586,0.041809082,-0.29614258,-0.2890625,0.18066406,-0.061523438,4.2466235,15.509514,0.30503738,-13.712807,1.0256348,-0.10949707,-0.018554688,0.171875,0.25878906,0.00390625,4.614649,15.340976,-56.646523,-11.106915,0.4356079,-0.4017334,0.84259033,-0.16796875,0.033203125,-0.0703125,6.7562733,17.20129,-127.97957,-1.3706312,0.0,0.0,0.0,0.0,0.0,0.0,0.0,21.743622,-127.81073,18.108997,0.0,0.0,0.0,0.0,0.0,0.0,0.0,0.24329764,44.984444,1.2758412,
1.3867187293362806,71,-0.042541504,0.83013916,0.4222412,0.016601562,-0.0126953125,0.083984375,0.0,0.0,0.0,0.0,0.0,0.0,0.0,0.0,0.0,0.0,0.0,-0.7483276,-0.014837394,0.6633014,-0.9649658,0.14349365,0.23968506,-0.041015625,-0.015625,0.0146484375,13.373744,-15.4927,-0.30718002,13.732395,0.97875977,-0.2808838,-0.2614746,-0.0126953125,0.036132812,0.017578125,15.989033,-6.444524,-56.069782,21.38755,-0.595459,-0.24359131,0.73651123,-0.049804688,0.0078125,0.036132812,8.4946785,-13.576294,-127.584366,25.980537,0.0,0.0,0.0,0.0,0.0,0.0,0.0,-11.6212225,-129.02126,45.81778,0.0,0.0,0.0,0.0,0.0,0.0,0.0,0.7483276,0.014837394,-0.6633014,-0.973938,0.023376465,-0.24127197,-0.42382812,-0.06933594,-0.060546875,4.454302,15.4927,0.30718002,-13.732395,0.9938965,-0.11505127,-0.0060424805,0.19238281,0.16601562,0.04296875,4.646587,15.45947,-56.634148,-10.967533,0.4041748,-0.3480835,0.8288574,-0.09277344,0.030273438,0.00390625,6.801667,17.707764,-127.93226,-1.0629139,0.0,0.0,0.0,0.0,0.0,0.0,0.0,22.26363,-127.74041,18.412441,0.0,0.0,0.0,0.0,0.0,0.0,0.0,0.2663678,44.984352,1.306768,
1.4062499790452423,72,-0.037719727,0.8438721,0.41131592,0.05859375,0.0625,0.06542969,0.0,0.0,0.0,0.0,0.0,0.0,0.0,0.0,0.0,0.0,0.0,-0.74735796,-0.014735647,0.6642553,-0.97351074,0.111206055,0.25805664,0.052734375,-0.091796875,-0.005859375,13.436659,-15.472625,-0.30507356,13.752146,0.95043945,-0.2444458,-0.2600708,0.08203125,0.053710938,0.01953125,16.135212,-6.315568,-56.045242,21.384485,-0.6173096,-0.22332764,0.7602539,0.0068359375,0.0234375,0.018554688,8.462831,-13.50657,-127.557556,25.976587,0.0,0.0,0.0,0.0,0.0,0.0,0.0,-11.565042,-128.95364,45.816025,0.0,0.0,0.0,0.0,0.0,0.0,0.0,0.74735796,0.014735647,-0.6642553,-0.9637451,0.033569336,-0.30706787,-0.060546875,0.056640625,-0.0029296875,4.4997582,15.472625,0.30507356,-13.752146,1.0095825,-0.11529541,-0.0211792,0.09472656,0.18652344,0.043945312,4.763125,15.580764,-56.639015,-10.946938,0.40100098,-0.3491211,0.84368896,-0.16796875,0.033203125,-0.0703125,6.77882,18.188622,-127.90276,-0.90571404,0.0,0.0,0.0,0.0,0.0,0.0,0.0,22.77483,-127.655846,18.562561,0.0,0.0,0.0,0.0,0.0,0.0,0.0,0.2694826,44.980297,1.3010265,
1.425781228754204,73,-0.05670166,0.8673706,0.4309082,0.036132812,-0.013671875,0.06542969,0.0,0.0,0.0,0.0,0.0,0.0,0.0,0.0,0.0,0.0,0.0,-0.74700063,-0.0146026695,0.66479576,-0.9503784,0.1315918,0.18371582,0.015625,-0.072265625,-0.005859375,13.440715,-15.465229,-0.30232054,13.763332,0.94921875,-0.25427246,-0.23718262,-0.049804688,0.0546875,0.03515625,16.248447,-6.22071,-56.034363,21.341434,-0.6326294,-0.23760986,0.7543335,-0.03125,0.024414062,-9.765625E-4,8.335174,-13.443095,-127.55429,25.85939,0.0,0.0,0.0,0.0,0.0,0.0,0.0,-11.471909,-128.91386,45.700596,0.0,0.0,0.0,0.0,0.0,0.0,0.0,0.74700063,0.0146026695,-0.66479576,-0.98095703,0.024963379,-0.26190186,0.034179688,-0.0048828125,0.07714844,4.444353,15.465229,0.30232054,-13.763332,1.0254517,-0.107543945,-0.030456543,-0.05859375,0.11425781,0.06542969,4.870535,15.739171,-56.63739,-11.010063,0.36834717,-0.33251953,0.84381104,-0.12988281,0.05078125,0.00390625,6.7374654,18.61041,-127.88908,-0.91106987,0.0,0.0,0.0,0.0,0.0,0.0,0.0,23.194843,-127.59504,18.557611,0.0,0.0,0.0,0.0,0.0,0.0,0.0,0.26265007,44.98491,1.2832506,
1.4453124784631657,74,-0.020507812,0.84246826,0.41479492,-0.0234375,-0.05078125,0.030273438,0.0,0.0,0.0,0.0,0.0,0.0,0.0,0.0,0.0,0.0,0.0,-0.7471982,-0.015050622,0.6645664,-0.9324341,0.144104,0.23675537,-0.059570312,0.09863281,-0.00390625,13.351004,-15.46932,-0.31159452,13.758584,0.97302246,-0.27197266,-0.22747803,-0.068359375,0.09375,0.034179688,16.145275,-6.2694635,-56.05816,21.27486,-0.614563,-0.23913574,0.7503662,-0.01171875,0.060546875,0.017578125,8.413236,-13.445951,-127.56379,25.834076,0.0,0.0,0.0,0.0,0.0,0.0,0.0,-11.477561,-128.89441,45.676277,0.0,0.0,0.0,0.0,0.0,0.0,0.0,0.7471982,0.015050622,-0.6645664,-0.9807739,0.036254883,-0.28344727,-0.04296875,-0.15820312,0.016601562,4.534016,15.46932,0.31159452,-13.758584,1.0015869,-0.07727051,-0.044006348,-0.07714844,0.078125,0.06640625,4.807909,16.05473,-56.631138,-10.972219,0.40118408,-0.32910156,0.8387451,-0.07421875,0.0107421875,0.022460938,6.817451,19.04601,-127.86032,-0.81869316,0.0,0.0,0.0,0.0,0.0,0.0,0.0,23.622501,-127.569786,18.651426,0.0,0.0,0.0,0.0,0.0,0.0,0.0,0.2416924,44.984894,1.2905297,
1.4648437281721274,75,-0.026611328,0.8465576,0.41003418,-0.00390625,-0.051757812,0.0107421875,0.0,0.0,0.0,0.0,0.0,0.0,0.0,0.0,0.0,0.0,0.0,-0.74658453,-0.015568059,0.66517746,-0.93896484,0.12896729,0.27331543,-0.059570312,0.19238281,0.07324219,13.329853,-15.4566145,-0.32230705,13.771236,0.9625244,-0.2539673,-0.20239258,0.0078125,0.091796875,0.055664062,15.99549,-6.29939,-56.075092,21.29233,-0.6055298,-0.2442627,0.732605,0.0068359375,0.041992188,0.018554688,8.383329,-13.356185,-127.597626,25.92773,0.0,0.0,0.0,0.0,0.0,0.0,0.0,-11.351711,-128.91562,45.76808,0.0,0.0,0.0,0.0,0.0,0.0,0.0,0.74658453,0.015568059,-0.66517746,-0.9243164,0.04840088,-0.34527588,0.16796875,-0.0087890625,0.055664062,4.5471306,15.4566145,0.32230705,-13.771236,0.9968262,-0.109191895,-0.07727051,-0.15429688,0.060546875,0.0859375,4.78299,16.138548,-56.615135,-11.014605,0.3887329,-0.3449707,0.8496094,-0.015625,0.047851562,0.00390625,6.7916536,19.100626,-127.85159,-0.8811531,0.0,0.0,0.0,0.0,0.0,0.0,0.0,23.673508,-127.56098,18.590626,0.0,0.0,0.0,0.0,0.0,0.0,0.0,0.22976711,44.98239,1.3106713,
1.484374977881089,76,-0.03265381,0.82281494,0.40600586,-0.020507812,0.04296875,-0.005859375,0.0,0.0,0.0,0.0,0.0,0.0,0.0,0.0,0.0,0.0,0.0,-0.746838,-0.01613307,0.6649269,-0.9639282,0.1204834,0.33789062,-0.060546875,0.021484375,0.052734375,13.406071,-15.46186,-0.33400458,13.7660475,0.9762573,-0.26519775,-0.23248291,-0.049804688,0.11230469,0.034179688,15.955363,-6.239463,-56.07049,21.367893,-0.6166992,-0.2508545,0.7435303,0.0068359375,0.059570312,0.018554688,8.419839,-13.153356,-127.596375,26.068916,0.0,0.0,0.0,0.0,0.0,0.0,0.0,-11.144068,-128.89035,45.911476,0.0,0.0,0.0,0.0,0.0,0.0,0.0,0.746838,0.01613307,-0.6649269,-0.9077759,0.0836792,-0.35882568,0.12988281,-0.0078125,0.03515625,4.491785,15.46186,0.33400458,-13.7660475,1.0200806,-0.10961914,-0.121154785,-0.15429688,0.060546875,0.0859375,4.813976,16.109915,-56.608467,-11.051718,0.4083252,-0.333313,0.8436279,-0.016601562,0.009765625,0.07910156,6.8097653,18.989697,-127.85172,-0.91848946,0.0,0.0,0.0,0.0,0.0,0.0,0.0,23.558964,-127.573586,18.553232,0.0,0.0,0.0,0.0,0.0,0.0,0.0,0.19681543,44.98391,1.3125021,
1.5039062275900508,77,-0.034729004,0.850708,0.41027832,-0.061523438,-0.0126953125,0.0126953125,0.0,0.0,0.0,0.0,0.0,0.0,0.0,0.0,0.0,0.0,0.0,-0.7466186,-0.016443383,0.6652444,-0.9428711,0.15142822,0.27368164,-0.00390625,-0.03515625,0.033203125,13.499637,-15.45732,-0.340429,13.772622,0.9645386,-0.25305176,-0.20739746,-0.01171875,0.09277344,0.036132812,15.983787,-6.136718,-56.044582,21.470547,-0.6281738,-0.21502686,0.74243164,0.0068359375,0.060546875,0.037109375,8.391127,-12.948299,-127.58113,26.2448,0.0,0.0,0.0,0.0,0.0,0.0,0.0,-10.92639,-128.84029,46.085136,0.0,0.0,0.0,0.0,0.0,0.0,0.0,0.7466186,0.016443383,-0.6652444,-0.8930054,0.06121826,-0.37371826,-0.00390625,-0.0625,0.037109375,4.458785,15.45732,0.340429,-13.772622,1.0515137,-0.14099121,-0.13342285,-0.15527344,0.11621094,0.06640625,4.8301044,16.025078,-56.598225,-11.044523,0.40100098,-0.34918213,0.8475952,-0.016601562,0.028320312,0.07910156,6.8096213,18.866337,-127.840866,-0.89195824,0.0,0.0,0.0,0.0,0.0,0.0,0.0,23.428013,-127.557144,18.580523,0.0,0.0,0.0,0.0,0.0,0.0,0.0,0.16208073,44.986954,1.2938856,
1.5234374772990125,78,-0.038330078,0.8814087,0.37780762,-0.00390625,-0.033203125,0.01171875,0.0,0.0,0.0,0.0,0.0,0.0,0.0,0.0,0.0,0.0,0.0,-0.74746263,-0.016799083,0.6643774,-0.9265137,0.15234375,0.25976562,-0.022460938,0.041015625,0.0146484375,13.51778,-15.474793,-0.3477931,13.754671,0.9581909,-0.265625,-0.18945312,0.026367188,0.072265625,0.055664062,15.966713,-6.103174,-56.038246,21.502338,-0.6204834,-0.23303223,0.74938965,-0.0126953125,0.060546875,-9.765625E-4,8.325108,-12.831749,-127.56746,26.359715,0.0,0.0,0.0,0.0,0.0,0.0,0.0,-10.791686,-128.8013,46.199917,0.0,0.0,0.0,0.0,0.0,0.0,0.0,0.74746263,0.016799083,-0.6643774,-0.8931885,0.047790527,-0.383667,-0.099609375,-9.765625E-4,0.017578125,4.4575987,15.474793,0.3477931,-13.754671,1.0234985,-0.12567139,-0.14874268,-0.0390625,0.11425781,0.045898438,4.811249,15.966997,-56.592953,-10.981754,0.41326904,-0.3534546,0.852478,-0.0546875,0.0107421875,0.00390625,6.838449,18.81066,-127.8392,-0.8285217,0.0,0.0,0.0,0.0,0.0,0.0,0.0,23.359325,-127.55988,18.64843,0.0,0.0,0.0,0.0,0.0,0.0,0.0,0.121331975,44.99034,1.2741067,
1.5429687270079742,79,-0.03265381,0.8467407,0.41314697,0.057617188,0.022460938,0.0107421875,0.0,0.0,0.0,0.0,0.0,0.0,0.0,0.0,0.0,0.0,0.0,-0.7475232,-0.01786049,0.664132,-0.9411621,0.13635254,0.30133057,0.015625,-0.03515625,0.013671875,13.564643,-15.476046,-0.36976755,13.749592,0.9505615,-0.24664307,-0.19726562,0.005859375,0.0546875,0.017578125,16.010677,-6.0263243,-56.040897,21.541687,-0.6003418,-0.2345581,0.73950195,-0.03125,0.061523438,0.036132812,8.296283,-12.70764,-127.57645,26.437511,0.0,0.0,0.0,0.0,0.0,0.0,0.0,-10.679096,-128.77806,46.280815,0.0,0.0,0.0,0.0,0.0,0.0,0.0,0.7475232,0.01786049,-0.664132,-0.9326782,0.025634766,-0.36706543,-0.022460938,0.055664062,0.016601562,4.426203,15.476046,0.36976755,-13.749592,1.0484619,-0.12390137,-0.08013916,-9.765625E-4,0.15039062,0.064453125,4.852926,15.945373,-56.574184,-11.0072,0.39691162,-0.35601807,0.8427124,-0.091796875,0.06933594,-0.0146484375,6.824812,18.86843,-127.81262,-0.8753567,0.0,0.0,0.0,0.0,0.0,0.0,0.0,23.438927,-127.52905,18.595139,0.0,0.0,0.0,0.0,0.0,0.0,0.0,0.06536779,44.985725,1.283376,
1.5624999767169359,80,-0.026489258,0.8585205,0.42303467,0.07714844,0.022460938,0.028320312,0.0,0.0,0.0,0.0,0.0,0.0,0.0,0.0,0.0,0.0,0.0,-0.74772704,-0.019581478,0.66381973,-0.9315796,0.15240479,0.2617798,0.052734375,-0.111328125,0.032226562,13.619328,-15.480269,-0.4053973,13.743125,0.9470215,-0.26513672,-0.20129395,-0.013671875,0.0546875,-0.001953125,16.125416,-5.885412,-56.045593,21.615856,-0.62054443,-0.23895264,0.74645996,-0.01171875,0.041992188,-9.765625E-4,8.227122,-12.507593,-127.58494,26.534199,0.0,0.0,0.0,0.0,0.0,0.0,0.0,-10.467622,-128.76146,46.3787,0.0,0.0,0.0,0.0,0.0,0.0,0.0,0.74772704,0.019581478,-0.66381973,-0.9215088,0.032836914,-0.31103516,0.015625,0.07421875,0.037109375,4.3866873,15.480269,0.4053973,-13.743125,1.0166016,-0.12445068,-0.08050537,0.038085938,0.13183594,0.044921875,4.923622,15.943016,-56.535732,-11.013392,0.42053223,-0.35339355,0.8327637,-0.072265625,0.08691406,0.022460938,6.8588686,18.973255,-127.770294,-0.84399223,0.0,0.0,0.0,0.0,0.0,0.0,0.0,23.540956,-127.480804,18.627956,0.0,0.0,0.0,0.0,0.0,0.0,0.0,-0.04629633,44.984974,1.274827,
1.5820312264258976,81,-0.05895996,0.8543701,0.40893555,0.037109375,0.00390625,0.0107421875,0.0,0.0,0.0,0.0,0.0,0.0,0.0,0.0,0.0,0.0,0.0,-0.74805677,-0.019609436,0.66347635,-0.9224243,0.1350708,0.24359131,0.034179688,-0.053710938,0.033203125,13.620458,-15.487096,-0.40597612,13.736016,0.9644165,-0.25701904,-0.20440674,-0.0126953125,0.0546875,0.036132812,16.202076,-5.817683,-56.025818,21.630535,-0.6364746,-0.23156738,0.7484131,-0.0126953125,0.060546875,-9.765625E-4,8.164045,-12.439875,-127.56705,26.570488,0.0,0.0,0.0,0.0,0.0,0.0,0.0,-10.377282,-128.72537,46.413406,0.0,0.0,0.0,0.0,0.0,0.0,0.0,0.74805677,0.019609436,-0.66347635,-0.93640137,0.0491333,-0.324646,-0.15625,9.765625E-4,-0.001953125,4.38508,15.487096,0.40597612,-13.736016,1.0332642,-0.095703125,-0.04449463,0.038085938,0.13183594,0.044921875,4.8871593,15.990094,-56.53328,-10.956321,0.43780518,-0.3579712,0.8612671,-0.1484375,0.10839844,-0.033203125,6.823461,19.179972,-127.7601,-0.815053,0.0,0.0,0.0,0.0,0.0,0.0,0.0,23.77056,-127.45931,18.650845,0.0,0.0,0.0,0.0,0.0,0.0,0.0,-0.08414897,44.986897,1.2347381,
1.6015624761348592,82,-0.028686523,0.8206787,0.39892578,-0.022460938,-0.013671875,-0.0068359375,0.0,0.0,0.0,0.0,0.0,0.0,0.0,0.0,0.0,0.0,0.0,-0.7475787,-0.019589901,0.6639867,-0.9429321,0.13781738,0.27148438,0.015625,0.059570312,0.052734375,13.620298,-15.477196,-0.4055717,13.746582,0.96954346,-0.25421143,-0.21942139,0.06347656,0.072265625,0.038085938,16.238325,-5.786318,-56.021698,21.648418,-0.62384033,-0.25457764,0.7425537,-0.03125,0.060546875,-0.01953125,8.118224,-12.426985,-127.56918,26.59492,0.0,0.0,0.0,0.0,0.0,0.0,0.0,-10.366219,-128.70738,46.44005,0.0,0.0,0.0,0.0,0.0,0.0,0.0,0.7475787,0.019589901,-0.6639867,-0.9399414,0.011474609,-0.3032837,0.015625,0.03515625,0.016601562,4.3505063,15.477196,0.4055717,-13.746582,1.0289917,-0.124572754,-0.0491333,-0.0390625,0.1328125,0.064453125,4.968106,16.069052,-56.533375,-10.992271,0.4050293,-0.3612671,0.8535156,-0.16699219,0.10839844,0.0048828125,6.7156863,19.471256,-127.7496,-0.8138809,0.0,0.0,0.0,0.0,0.0,0.0,0.0,24.105663,-127.39141,18.640894,0.0,0.0,0.0,0.0,0.0,0.0,0.0,-0.0940914,44.986385,1.2213168,
1.621093725843821,83,-0.005493164,0.8210449,0.39733887,0.038085938,0.041992188,-0.0078125,0.0,0.0,0.0,0.0,0.0,0.0,0.0,0.0,0.0,0.0,0.0,-0.7467513,-0.01963681,0.6650283,-0.9614258,0.1281128,0.2852173,-0.00390625,-0.016601562,0.052734375,13.711566,-15.460068,-0.40654284,13.7681465,0.9906616,-0.22271729,-0.22247314,0.005859375,0.0546875,0.017578125,16.345842,-5.700123,-56.000336,21.721668,-0.61065674,-0.25097656,0.73657227,-0.0126953125,0.078125,0.017578125,7.980918,-12.346041,-127.53381,26.58704,0.0,0.0,0.0,0.0,0.0,0.0,0.0,-10.28026,-128.65569,46.434753,0.0,0.0,0.0,0.0,0.0,0.0,0.0,0.7467513,0.01963681,-0.6650283,-0.95739746,0.05706787,-0.27246094,0.053710938,0.053710938,0.036132812,4.436987,15.460068,0.40654284,-13.7681465,1.0094604,-0.11529541,-0.030090332,-0.05859375,0.07714844,0.08496094,4.962029,16.18922,-56.5249,-10.947299,0.39678955,-0.36016846,0.8555298,-0.09277344,0.030273438,0.00390625,6.6671805,19.760984,-127.71712,-0.6937847,0.0,0.0,0.0,0.0,0.0,0.0,0.0,24.401821,-127.31054,18.757587,0.0,0.0,0.0,0.0,0.0,0.0,0.0,-0.093401924,44.989697,1.223566,
1.6406249755527826,84,-0.020812988,0.83532715,0.38891602,0.09667969,0.041015625,0.009765625,0.0,0.0,0.0,0.0,0.0,0.0,0.0,0.0,0.0,0.0,0.0,-0.74638164,-0.0209431,0.6653642,-0.9491577,0.12902832,0.28027344,-0.00390625,-0.015625,0.033203125,13.691742,-15.452414,-0.43358713,13.775103,0.96765137,-0.25427246,-0.1795044,-0.08691406,0.0546875,0.072265625,16.380922,-5.626217,-56.01784,21.745487,-0.6255493,-0.23773193,0.7355957,0.0068359375,0.09667969,0.036132812,7.9401565,-12.218883,-127.568954,26.579609,0.0,0.0,0.0,0.0,0.0,0.0,0.0,-10.156881,-128.68843,46.42408,0.0,0.0,0.0,0.0,0.0,0.0,0.0,0.74638164,0.0209431,-0.6653642,-0.96069336,0.034240723,-0.25793457,-0.119140625,-0.09765625,0.038085938,4.516919,15.452414,0.43358713,-13.775103,1.0171509,-0.11242676,-0.049987793,0.0,0.0390625,0.06542969,4.868161,16.319784,-56.49926,-10.871974,0.4091797,-0.36523438,0.83776855,-0.053710938,0.06738281,0.022460938,6.6830163,19.93369,-127.69034,-0.589221,0.0,0.0,0.0,0.0,0.0,0.0,0.0,24.56572,-127.27793,18.864914,0.0,0.0,0.0,0.0,0.0,0.0,0.0,-0.17615207,44.988415,1.2184608,
1.6601562252617443,85,-0.00592041,0.8447876,0.3746338,0.016601562,-0.0146484375,0.0107421875,0.0,0.0,0.0,0.0,0.0,0.0,0.0,0.0,0.0,0.0,0.0,-0.7460537,-0.021783192,0.6657988,-0.9349365,0.12408447,0.27227783,-0.041015625,0.060546875,0.034179688,13.68773,-15.445624,-0.45097962,13.784101,0.9904785,-0.26989746,-0.18878174,-0.030273438,0.053710938,0.07324219,16.360544,-5.588793,-56.03025,21.77658,-0.6256714,-0.246521,0.7266846,-0.0126953125,0.09667969,0.036132812,7.929568,-12.111994,-127.58792,26.624893,0.0,0.0,0.0,0.0,0.0,0.0,0.0,-10.031063,-128.71675,46.470955,0.0,0.0,0.0,0.0,0.0,0.0,0.0,0.7460537,0.021783192,-0.6657988,-0.9215698,0.028320312,-0.3248291,0.072265625,-0.005859375,0.056640625,4.5272717,15.445624,0.45097962,-13.784101,1.0290527,-0.10961914,-0.05419922,-0.057617188,0.021484375,0.06640625,4.8579288,16.449358,-56.48022,-10.884813,0.42559814,-0.36047363,0.8317871,-0.07324219,0.030273438,0.00390625,6.7482567,20.032581,-127.657486,-0.5477848,0.0,0.0,0.0,0.0,0.0,0.0,0.0,24.680817,-127.25205,18.902956,0.0,0.0,0.0,0.0,0.0,0.0,0.0,-0.22430158,44.990955,1.2206475,
1.679687474970706,86,-0.033691406,0.8546753,0.41229248,0.017578125,0.0234375,-0.0068359375,0.0,0.0,0.0,0.0,0.0,0.0,0.0,0.0,0.0,0.0,0.0,-0.7464184,-0.022560652,0.66537607,-0.96746826,0.14172363,0.29241943,-0.060546875,0.0029296875,0.052734375,13.7329445,-15.453175,-0.4670754,13.775346,0.97509766,-0.23980713,-0.19451904,-0.01171875,0.03515625,0.055664062,16.368204,-5.557454,-56.02789,21.83296,-0.60461426,-0.24926758,0.7415161,0.0068359375,0.07910156,0.07421875,7.9100122,-12.015223,-127.594315,26.6846,0.0,0.0,0.0,0.0,0.0,0.0,0.0,-9.949497,-128.7333,46.531433,0.0,0.0,0.0,0.0,0.0,0.0,0.0,0.7464184,0.022560652,-0.66537607,-0.91638184,0.040771484,-0.31884766,-0.00390625,-0.00390625,0.057617188,4.5107574,15.453175,0.4670754,-13.775346,1.0368652,-0.09777832,-0.06921387,-0.057617188,0.040039062,0.08496094,4.8424997,16.489565,-56.459415,-10.89851,0.40100098,-0.34521484,0.8515625,-0.03515625,0.047851562,0.060546875,6.7388625,20.048351,-127.64235,-0.58699226,0.0,0.0,0.0,0.0,0.0,0.0,0.0,24.712246,-127.23941,18.860043,0.0,0.0,0.0,0.0,0.0,0.0,0.0,-0.26559132,44.990906,1.2275492,
1.6992187246796677,87,-0.036865234,0.83776855,0.3953247,9.765625E-4,0.10058594,0.030273438,0.0,0.0,0.0,0.0,0.0,0.0,0.0,0.0,0.0,0.0,0.0,-0.7463112,-0.02227949,0.6653481,-0.94628906,0.14013672,0.31036377,-0.07910156,-0.09277344,0.051757812,13.86795,-15.450954,-0.46125457,13.774769,0.9495239,-0.25164795,-0.16540527,-0.05078125,0.036132812,0.015625,16.509325,-5.414815,-55.980667,21.952755,-0.6446533,-0.24102783,0.7227173,-0.049804688,0.09863281,0.0546875,7.86397,-11.830641,-127.54327,26.805233,0.0,0.0,0.0,0.0,0.0,0.0,0.0,-9.755002,-128.69562,46.649906,0.0,0.0,0.0,0.0,0.0,0.0,0.0,0.7463112,0.02227949,-0.6653481,-0.9505615,0.039916992,-0.2962036,-0.1953125,-0.15429688,0.018554688,4.515792,15.450954,0.46125457,-13.774769,0.9972534,-0.09320068,-0.056640625,-0.095703125,0.00390625,0.0859375,4.720159,16.593332,-56.461384,-10.85431,0.41644287,-0.34936523,0.83673096,-0.03515625,0.029296875,0.022460938,6.7143717,20.123495,-127.653076,-0.595541,0.0,0.0,0.0,0.0,0.0,0.0,0.0,24.786606,-127.256004,18.851707,0.0,0.0,0.0,0.0,0.0,0.0,0.0,-0.28539467,44.987167,1.1862932,
1.7187499743886294,88,-0.05114746,0.8709717,0.39697266,0.018554688,0.04296875,0.029296875,0.0,0.0,0.0,0.0,0.0,0.0,0.0,0.0,0.0,0.0,0.0,-0.7460097,-0.02234981,0.66572315,-0.9194336,0.1618042,0.26989746,-0.09765625,-0.03515625,0.033203125,13.974864,-15.444712,-0.46271035,13.782533,0.95428467,-0.25854492,-0.20233154,0.043945312,0.015625,0.038085938,16.619568,-5.30997,-55.94034,22.058231,-0.630249,-0.2189331,0.7434082,-0.049804688,0.080078125,0.07324219,7.834011,-11.704553,-127.50381,26.923704,0.0,0.0,0.0,0.0,0.0,0.0,0.0,-9.616798,-128.66945,46.76687,0.0,0.0,0.0,0.0,0.0,0.0,0.0,0.7460097,0.02234981,-0.66572315,-0.91186523,0.07788086,-0.31951904,-0.00390625,-0.04296875,0.057617188,4.5434675,15.444712,0.46271035,-13.782533,1.0361938,-0.12976074,-0.09765625,0.0,0.0390625,0.06542969,4.6671133,16.671066,-56.460358,-10.818053,0.42749023,-0.3727417,0.8554077,0.0029296875,0.047851562,0.022460938,6.7082057,20.097427,-127.657814,-0.51010704,0.0,0.0,0.0,0.0,0.0,0.0,0.0,24.771885,-127.25289,18.93414,0.0,0.0,0.0,0.0,0.0,0.0,0.0,-0.30757725,44.988735,1.1657009,
1.7382812240975911,89,-0.027404785,0.85913086,0.3564453,0.038085938,0.043945312,0.06542969,0.0,0.0,0.0,0.0,0.0,0.0,0.0,0.0,0.0,0.0,0.0,-0.7469658,-0.023438837,0.66450256,-0.90838623,0.14221191,0.27056885,-0.060546875,-0.03515625,0.051757812,13.959654,-15.464507,-0.48525664,13.757263,0.9678345,-0.24841309,-0.17352295,0.099609375,0.015625,0.001953125,16.61097,-5.299447,-55.953983,22.080294,-0.6234741,-0.23291016,0.7414551,-0.03125,0.09765625,0.0546875,7.798201,-11.642387,-127.5228,27.000805,0.0,0.0,0.0,0.0,0.0,0.0,0.0,-9.56162,-128.70482,46.843697,0.0,0.0,0.0,0.0,0.0,0.0,0.0,0.7469658,0.023438837,-0.66450256,-0.9501343,0.07293701,-0.32641602,0.053710938,0.07324219,0.036132812,4.512581,15.464507,0.48525664,-13.757263,1.0350952,-0.13372803,-0.1015625,0.01953125,0.020507812,0.083984375,4.6936483,16.670837,-56.431114,-10.796752,0.43585205,-0.34985352,0.84747314,-0.053710938,0.048828125,-0.0146484375,6.776968,19.955698,-127.62158,-0.42911625,0.0,0.0,0.0,0.0,0.0,0.0,0.0,24.64145,-127.23324,19.013126,0.0,0.0,0.0,0.0,0.0,0.0,0.0,-0.380205,44.985054,1.1593593,
1.7578124738065528,90,-0.038146973,0.8297119,0.3753662,0.0390625,0.0625,0.047851562,0.0,0.0,0.0,0.0,0.0,0.0,0.0,0.0,0.0,0.0,0.0,-0.7478422,-0.024112891,0.66363025,-0.9420166,0.1328125,0.27734375,-0.060546875,-0.111328125,0.032226562,13.987714,-15.48265,-0.4992116,13.739203,0.9827881,-0.2508545,-0.21453857,0.061523438,-0.022460938,9.765625E-4,16.682613,-5.229602,-55.948517,22.09581,-0.6368408,-0.25402832,0.7197876,-0.049804688,0.0625,0.0546875,7.790899,-11.547422,-127.520325,27.038963,0.0,0.0,0.0,0.0,0.0,0.0,0.0,-9.477741,-128.71732,46.88045,0.0,0.0,0.0,0.0,0.0,0.0,0.0,0.7478422,0.024112891,-0.66363025,-0.93426514,0.058898926,-0.3265381,-0.080078125,-0.020507812,-0.0029296875,4.5045877,15.48265,0.4992116,-13.739203,1.0350952,-0.13372803,-0.1015625,0.01953125,0.020507812,0.083984375,4.677134,16.664455,-56.417366,-10.755428,0.40411377,-0.34814453,0.8397217,-0.07324219,0.030273438,0.022460938,6.7621346,19.949316,-127.607834,-0.3877926,0.0,0.0,0.0,0.0,0.0,0.0,0.0,24.642195,-127.213585,19.05337,0.0,0.0,0.0,0.0,0.0,0.0,0.0,-0.43368632,44.989044,1.14595,
1.7773437235155145,91,-0.044799805,0.8759155,0.42071533,0.01953125,0.06347656,0.08496094,0.0,0.0,0.0,0.0,0.0,0.0,0.0,0.0,0.0,0.0,0.0,-0.7481631,-0.0243897,0.66319764,-0.93499756,0.1373291,0.293396,-0.060546875,-0.2265625,0.06933594,14.18702,-15.489296,-0.50494236,13.730248,0.9625244,-0.25097656,-0.21832275,0.061523438,-0.0029296875,9.765625E-4,16.927563,-5.0036373,-55.900623,22.145264,-0.6466675,-0.24389648,0.7237549,-0.049804688,0.080078125,0.0546875,7.7618985,-11.308464,-127.47551,27.055511,0.0,0.0,0.0,0.0,0.0,0.0,0.0,-9.233973,-128.69334,46.896183,0.0,0.0,0.0,0.0,0.0,0.0,0.0,0.7481631,0.0243897,-0.66319764,-0.94750977,0.042785645,-0.33843994,-0.080078125,-9.765625E-4,0.038085938,4.5521245,15.489296,0.50494236,-13.730248,0.9970093,-0.10119629,-0.07141113,-0.05859375,0.11425781,0.06542969,4.6013856,16.687607,-56.40987,-10.69924,0.42059326,-0.32958984,0.84851074,-0.053710938,0.048828125,0.041992188,6.7433724,19.831137,-127.60692,-0.329319,0.0,0.0,0.0,0.0,0.0,0.0,0.0,24.52246,-127.2139,19.110361,0.0,0.0,0.0,0.0,0.0,0.0,0.0,-0.4499594,44.98705,1.1468339,
1.7968749732244762,92,-0.03717041,0.8475952,0.37451172,-0.020507812,0.06347656,0.048828125,0.0,0.0,0.0,0.0,0.0,0.0,0.0,0.0,0.0,0.0,0.0,-0.7485702,-0.024782041,0.6627599,-0.93084717,0.12799072,0.26831055,-0.041992188,-0.111328125,0.051757812,14.297418,-15.497724,-0.5130651,13.721184,0.9706421,-0.25231934,-0.21142578,-0.0126953125,-0.0029296875,0.036132812,17.126633,-4.861081,-55.86905,22.206264,-0.6262207,-0.2199707,0.73846436,-0.049804688,0.09863281,0.0546875,7.778519,-11.200583,-127.44233,27.108412,0.0,0.0,0.0,0.0,0.0,0.0,0.0,-9.117796,-128.67703,46.94803,0.0,0.0,0.0,0.0,0.0,0.0,0.0,0.7485702,0.024782041,-0.6627599,-0.92230225,0.049987793,-0.29022217,-0.041992188,0.016601562,0.017578125,4.550532,15.497724,0.5130651,-13.721184,1.0285034,-0.12762451,-0.081726074,-0.09667969,0.059570312,0.08496094,4.5824027,16.718304,-56.398167,-10.66576,0.40405273,-0.3651123,0.8397217,-0.07421875,0.0107421875,0.060546875,6.7633815,19.77004,-127.59465,-0.26251602,0.0,0.0,0.0,0.0,0.0,0.0,0.0,24.457579,-127.20678,19.179562,0.0,0.0,0.0,0.0,0.0,0.0,0.0,-0.48960537,44.988167,1.1292093,
1.816406222933438,93,-0.041931152,0.8309326,0.39239502,0.021484375,0.119140625,0.030273438,0.0,0.0,0.0,0.0,0.0,0.0,0.0,0.0,0.0,0.0,0.0,-0.74962926,-0.024603559,0.6614877,-0.9309082,0.12683105,0.27630615,-0.041992188,-0.03515625,0.051757812,14.277684,-15.51965,-0.5093699,13.694845,0.98620605,-0.2755127,-0.20770264,0.025390625,0.015625,0.056640625,17.19155,-4.8409863,-55.854397,22.223286,-0.62854004,-0.24053955,0.7246704,0.0068359375,0.09765625,0.12988281,7.8485045,-11.196523,-127.42168,27.135,0.0,0.0,0.0,0.0,0.0,0.0,0.0,-9.121152,-128.6784,46.973053,0.0,0.0,0.0,0.0,0.0,0.0,0.0,0.74962926,0.024603559,-0.6614877,-0.921875,0.08062744,-0.3430786,-0.041992188,-0.0029296875,0.017578125,4.4927444,15.51965,0.5093699,-13.694845,1.032898,-0.113708496,-0.060180664,-0.038085938,0.05859375,0.08496094,4.606364,16.7477,-56.40266,-10.624867,0.4194336,-0.36541748,0.8377075,-0.016601562,0.009765625,0.041015625,6.8098516,19.71257,-127.5954,-0.15309048,0.0,0.0,0.0,0.0,0.0,0.0,0.0,24.409775,-127.21014,19.286587,0.0,0.0,0.0,0.0,0.0,0.0,0.0,-0.5269599,44.98664,1.07607,
1.8359374726423996,94,-0.014526367,0.868103,0.4138794,0.038085938,0.041992188,0.0107421875,0.0,0.0,0.0,0.0,0.0,0.0,0.0,0.0,0.0,0.0,0.0,-0.7507714,-0.024551978,0.6601734,-0.9470825,0.14630127,0.29052734,-0.060546875,-0.03515625,0.051757812,14.279761,-15.543298,-0.50830203,13.667637,0.95648193,-0.25073242,-0.21429443,-0.033203125,0.036132812,-0.0029296875,17.255642,-4.8169336,-55.839054,22.235699,-0.647583,-0.23699951,0.7266846,0.0068359375,0.09667969,0.0546875,7.8926225,-11.172028,-127.40813,27.126816,0.0,0.0,0.0,0.0,0.0,0.0,0.0,-9.122744,-128.67468,46.96795,0.0,0.0,0.0,0.0,0.0,0.0,0.0,0.7507714,0.024551978,-0.6601734,-0.93237305,0.047668457,-0.30792236,-0.022460938,0.036132812,0.037109375,4.4421487,15.543298,0.50830203,-13.667637,1.0360718,-0.13574219,-0.1015625,-0.057617188,0.040039062,0.08496094,4.6081495,16.773209,-56.407253,-10.596031,0.4133911,-0.33843994,0.8485718,-0.07519531,-0.02734375,0.060546875,6.82165,19.655449,-127.594055,-0.105439186,0.0,0.0,0.0,0.0,0.0,0.0,0.0,24.33833,-127.214554,19.338657,0.0,0.0,0.0,0.0,0.0,0.0,0.0,-0.5579463,44.98657,1.0385438,
1.8554687223513613,95,-0.037963867,0.85668945,0.39648438,0.057617188,0.041992188,0.028320312,0.0,0.0,0.0,0.0,0.0,0.0,0.0,0.0,0.0,0.0,0.0,-0.7504345,-0.024369644,0.660799,-0.9439697,0.14935303,0.2816162,-0.060546875,0.0029296875,0.033203125,14.278404,-15.536321,-0.5045272,13.680588,0.9532471,-0.25549316,-0.2232666,-0.033203125,-0.001953125,-0.001953125,17.302034,-4.7899065,-55.819347,22.26826,-0.6345825,-0.23937988,0.7227173,0.0078125,0.061523438,0.111328125,7.8568783,-11.163673,-127.38956,27.14333,0.0,0.0,0.0,0.0,0.0,0.0,0.0,-9.118093,-128.64673,46.98356,0.0,0.0,0.0,0.0,0.0,0.0,0.0,0.7504345,0.024369644,-0.660799,-0.9429321,0.08654785,-0.32928467,0.015625,0.0546875,0.016601562,4.446203,15.536321,0.5045272,-13.680588,1.0360718,-0.13574219,-0.1015625,-0.057617188,0.040039062,0.08496094,4.570933,16.763264,-56.403725,-10.571098,0.40905762,-0.37231445,0.8515625,0.001953125,-0.009765625,0.059570312,6.809362,19.645504,-127.59053,-0.080506325,0.0,0.0,0.0,0.0,0.0,0.0,0.0,24.323647,-127.207115,19.36443,0.0,0.0,0.0,0.0,0.0,0.0,0.0,-0.56890833,44.99402,1.0132581,
1.874999972060323,96,-0.0690918,0.8376465,0.40014648,0.01953125,0.061523438,0.01171875,0.0,0.0,0.0,0.0,0.0,0.0,0.0,0.0,0.0,0.0,0.0,-0.7495924,-0.023794008,0.66171104,-0.9491577,0.14819336,0.2965088,-0.060546875,-0.0546875,0.033203125,14.259311,-15.5188875,-0.4926097,13.6994705,0.9795532,-0.25653076,-0.22747803,0.024414062,-0.0029296875,0.038085938,17.352076,-4.7508707,-55.802612,22.305696,-0.63134766,-0.2286377,0.7286377,-0.03125,0.080078125,0.07324219,7.8511806,-11.159792,-127.36614,27.194874,0.0,0.0,0.0,0.0,0.0,0.0,0.0,-9.109787,-128.61761,47.03614,0.0,0.0,0.0,0.0,0.0,0.0,0.0,0.7495924,0.023794008,-0.66171104,-0.944458,0.047302246,-0.324646,-0.060546875,0.037109375,0.038085938,4.4065113,15.5188875,0.4926097,-13.6994705,1.024292,-0.14355469,-0.08746338,-0.13476562,0.041992188,0.0859375,4.5042825,16.748123,-56.41543,-10.569151,0.43377686,-0.36169434,0.8366699,0.021484375,0.0087890625,0.059570312,6.7563896,19.581482,-127.62016,-0.12613297,0.0,0.0,0.0,0.0,0.0,0.0,0.0,24.241146,-127.24085,19.322285,0.0,0.0,0.0,0.0,0.0,0.0,0.0,-0.5754483,44.993076,0.96600145,
1.8945312217692847,97,-0.040893555,0.8796997,0.41070557,-0.020507812,0.0625,0.0126953125,0.0,0.0,0.0,0.0,0.0,0.0,0.0,0.0,0.0,0.0,0.0,-0.7500024,-0.02338865,0.66109765,-0.93078613,0.1529541,0.28668213,-0.041992188,-0.07324219,0.033203125,14.275399,-15.527376,-0.48421755,13.68677,0.93792725,-0.25976562,-0.22613525,0.005859375,0.015625,0.037109375,17.458263,-4.706464,-55.777462,22.337322,-0.64727783,-0.22027588,0.72766113,-0.01171875,0.07910156,0.0546875,7.8505297,-11.166369,-127.33305,27.22544,0.0,0.0,0.0,0.0,0.0,0.0,0.0,-9.10463,-128.5813,47.065178,0.0,0.0,0.0,0.0,0.0,0.0,0.0,0.7500024,0.02338865,-0.66109765,-0.91918945,0.05871582,-0.33050537,-0.11816406,0.01953125,0.038085938,4.4014416,15.527376,0.48421755,-13.68677,1.0125122,-0.113464355,-0.09234619,-0.05859375,0.05859375,0.046875,4.469885,16.748852,-56.42513,-10.500805,0.3968506,-0.3600464,0.8427124,0.05859375,-0.01171875,0.078125,6.765904,19.548447,-127.61923,-0.0285635,0.0,0.0,0.0,0.0,0.0,0.0,0.0,24.194973,-127.237656,19.422424,0.0,0.0,0.0,0.0,0.0,0.0,0.0,-0.59159625,44.98896,0.9204881,
1.9140624714782464,98,-0.05456543,0.8554077,0.43572998,0.017578125,0.0048828125,0.029296875,0.0,0.0,0.0,0.0,0.0,0.0,0.0,0.0,0.0,0.0,0.0,-0.7493187,-0.022895046,0.6620406,-0.9133911,0.14819336,0.26672363,-0.022460938,-0.053710938,0.013671875,14.289575,-15.513222,-0.47399843,13.706293,0.9257202,-0.26416016,-0.2220459,0.0078125,0.015625,0.07519531,17.531809,-4.6635695,-55.761528,22.383284,-0.63946533,-0.22943115,0.7345581,0.0068359375,0.041992188,0.018554688,7.790319,-11.17767,-127.31629,27.286957,0.0,0.0,0.0,0.0,0.0,0.0,0.0,-9.083575,-128.54507,47.125034,0.0,0.0,0.0,0.0,0.0,0.0,0.0,0.7493187,0.022895046,-0.6620406,-0.9116211,0.020629883,-0.33862305,0.07324219,0.091796875,0.036132812,4.3106623,15.513222,0.47399843,-13.706293,1.0405273,-0.09387207,-0.09399414,0.0,0.0390625,0.083984375,4.4861126,16.713264,-56.439747,-10.569391,0.42156982,-0.3435669,0.8446045,0.05859375,-0.01171875,0.059570312,6.73991,19.429716,-127.644455,-0.12852097,0.0,0.0,0.0,0.0,0.0,0.0,0.0,24.055225,-127.26813,19.327839,0.0,0.0,0.0,0.0,0.0,0.0,0.0,-0.5890488,44.994114,0.8893066,
1.933593721187208,99,-0.052856445,0.847229,0.41070557,0.038085938,0.04296875,0.029296875,0.0,0.0,0.0,0.0,0.0,0.0,0.0,0.0,0.0,0.0,0.0,-0.7489075,-0.022752501,0.6625928,-0.91259766,0.13720703,0.28045654,-0.09765625,0.07910156,0.053710938,14.247035,-15.504706,-0.47104737,13.717727,0.9702759,-0.26605225,-0.20648193,0.005859375,0.015625,0.037109375,17.54312,-4.6606855,-55.76109,22.390991,-0.6422119,-0.21740723,0.7177124,-0.03125,0.060546875,0.017578125,7.814745,-11.208107,-127.31258,27.322308,0.0,0.0,0.0,0.0,0.0,0.0,0.0,-9.123787,-128.5307,47.16146,0.0,0.0,0.0,0.0,0.0,0.0,0.0,0.7489075,0.022752501,-0.6625928,-0.92041016,0.04046631,-0.34240723,-0.022460938,0.055664062,0.037109375,4.2123113,15.504706,0.47104737,-13.717727,1.0009155,-0.07531738,-0.089416504,-0.13574219,0.060546875,0.0859375,4.4784656,16.593536,-56.44712,-10.634558,0.42565918,-0.34954834,0.8406372,0.020507812,0.0078125,0.11621094,6.624925,19.256271,-127.66644,-0.28553295,0.0,0.0,0.0,0.0,0.0,0.0,0.0,23.854012,-127.27829,19.17749,0.0,0.0,0.0,0.0,0.0,0.0,0.0,-0.6029461,44.99688,0.8636389,
1.9531249708961698,100,-0.049072266,0.86694336,0.39886475,-0.060546875,0.026367188,0.03125,0.0,0.0,0.0,0.0,0.0,0.0,0.0,0.0,0.0,0.0,0.0,-0.7485436,-0.022512678,0.66296625,-0.94403076,0.13964844,0.27850342,-0.041015625,0.059570312,0.072265625,14.203327,-15.497174,-0.46608222,13.725456,0.9579468,-0.27044678,-0.2144165,0.005859375,0.015625,0.037109375,17.514727,-4.688635,-55.767433,22.39077,-0.6414795,-0.23321533,0.71875,-0.03125,0.060546875,-9.765625E-4,7.8281713,-11.251772,-127.31644,27.332636,0.0,0.0,0.0,0.0,0.0,0.0,0.0,-9.176638,-128.53087,47.172997,0.0,0.0,0.0,0.0,0.0,0.0,0.0,0.7485436,0.022512678,-0.66296625,-0.9433594,0.054626465,-0.30297852,-0.080078125,0.038085938,0.017578125,4.2134266,15.497174,0.46608222,-13.725456,1.0288086,-0.11364746,-0.06994629,-0.17382812,0.060546875,0.0859375,4.417033,16.606054,-56.449986,-10.62496,0.43395996,-0.3258667,0.852417,-0.07324219,0.068359375,0.060546875,6.608654,19.273224,-127.67297,-0.3283863,0.0,0.0,0.0,0.0,0.0,0.0,0.0,23.88009,-127.29206,19.133093,0.0,0.0,0.0,0.0,0.0,0.0,0.0,-0.6009841,44.99581,0.8493849,
1.9726562206051315,101,-0.046142578,0.8518677,0.3876953,-0.07910156,0.045898438,0.032226562,0.0,0.0,0.0,0.0,0.0,0.0,0.0,0.0,0.0,0.0,0.0,-0.74873173,-0.022400822,0.66250485,-0.9370117,0.13452148,0.28735352,-0.022460938,-0.015625,0.033203125,14.205067,-15.501066,-0.46376646,13.715905,0.97320557,-0.2680664,-0.2175293,0.0068359375,0.03515625,0.037109375,17.532534,-4.681099,-55.761078,22.396011,-0.65686035,-0.24859619,0.7406006,-0.049804688,0.080078125,0.016601562,7.796766,-11.251243,-127.305626,27.352242,0.0,0.0,0.0,0.0,0.0,0.0,0.0,-9.159832,-128.52708,47.19333,0.0,0.0,0.0,0.0,0.0,0.0,0.0,0.74873173,0.022400822,-0.66250485,-0.9180298,0.068725586,-0.3392334,0.16894531,0.14746094,0.0146484375,4.1051774,15.501066,0.46376646,-13.715905,1.0224609,-0.15545654,-0.0715332,-0.07714844,0.078125,0.08496094,4.530602,16.553509,-56.45522,-10.701332,0.4091797,-0.34143066,0.86138916,-0.0546875,0.029296875,0.060546875,6.639562,19.215965,-127.678116,-0.38038254,0.0,0.0,0.0,0.0,0.0,0.0,0.0,23.819576,-127.30059,19.080374,0.0,0.0,0.0,0.0,0.0,0.0,0.0,-0.60660964,44.98846,0.8356022,
1.9921874703140932,102,-0.056884766,0.8344116,0.40875244,-0.020507812,0.06347656,0.048828125,0.0,0.0,0.0,0.0,0.0,0.0,0.0,0.0,0.0,0.0,0.0,-0.74856424,-0.022118539,0.6629719,-0.9399414,0.16363525,0.29681396,0.0146484375,-0.03515625,0.033203125,14.211802,-15.497601,-0.45792237,13.7255745,0.98150635,-0.26257324,-0.20562744,0.024414062,-0.0029296875,0.038085938,17.565437,-4.648593,-55.739693,22.43636,-0.64959717,-0.23791504,0.725708,-0.068359375,0.026367188,0.036132812,7.8069043,-11.220518,-127.28464,27.424812,0.0,0.0,0.0,0.0,0.0,0.0,0.0,-9.127959,-128.50798,47.260788,0.0,0.0,0.0,0.0,0.0,0.0,0.0,0.74856424,0.022118539,-0.6629719,-0.9537964,0.09802246,-0.31048584,-0.00390625,0.03515625,0.016601562,4.0394874,15.497601,0.45792237,-13.7255745,0.9932251,-0.13208008,-0.04345703,0.0,0.057617188,0.083984375,4.674914,16.436213,-56.46653,-10.728922,0.43182373,-0.34869385,0.8405762,-0.09277344,0.01171875,0.022460938,6.7276487,19.063726,-127.670784,-0.26843643,0.0,0.0,0.0,0.0,0.0,0.0,0.0,23.677439,-127.28941,19.189835,0.0,0.0,0.0,0.0,0.0,0.0,0.0,-0.61764604,44.996895,0.8038317,
2.011718720023055,103,-0.024658203,0.85943604,0.4100952,0.018554688,0.043945312,0.06640625,0.0,0.0,0.0,0.0,0.0,0.0,0.0,0.0,0.0,0.0,0.0,-0.74789244,-0.02173236,0.66356254,-0.91973877,0.14007568,0.29144287,0.0146484375,-0.015625,0.033203125,14.262458,-15.483691,-0.44992727,13.7378025,0.94525146,-0.25421143,-0.21722412,0.06347656,0.0146484375,0.057617188,17.640871,-4.600087,-55.718887,22.495937,-0.6522217,-0.2142334,0.73254395,-0.03125,0.04296875,0.036132812,7.8221254,-11.212191,-127.25756,27.503227,0.0,0.0,0.0,0.0,0.0,0.0,0.0,-9.116889,-128.48816,47.33928,0.0,0.0,0.0,0.0,0.0,0.0,0.0,0.74789244,0.02173236,-0.66356254,-0.9403076,0.05493164,-0.3187256,-0.13769531,0.0,0.018554688,4.099831,15.483691,0.44992727,-13.7378025,1.0303345,-0.11767578,-0.09564209,0.0,0.0390625,0.06542969,4.609127,16.384117,-56.467354,-10.65774,0.40820312,-0.35125732,0.84265137,-0.0546875,0.0107421875,0.041992188,6.7398524,18.95861,-127.67054,-0.17475891,0.0,0.0,0.0,0.0,0.0,0.0,0.0,23.560188,-127.29034,19.288395,0.0,0.0,0.0,0.0,0.0,0.0,0.0,-0.61007637,44.99194,0.7859238,
2.0312499697320168,104,-0.02508545,0.84625244,0.3741455,-0.001953125,0.025390625,0.047851562,0.0,0.0,0.0,0.0,0.0,0.0,0.0,0.0,0.0,0.0,0.0,-0.7478851,-0.021993183,0.6636422,-0.9144287,0.1673584,0.28497314,-0.041015625,0.040039062,0.072265625,14.28008,-15.48354,-0.45532703,13.739451,0.96398926,-0.27062988,-0.2263794,0.043945312,-0.00390625,0.057617188,17.690994,-4.5885773,-55.71508,22.55251,-0.6342163,-0.21875,0.7374878,-0.049804688,0.025390625,0.036132812,7.800089,-11.226608,-127.25339,27.554008,0.0,0.0,0.0,0.0,0.0,0.0,0.0,-9.13377,-128.47205,47.3929,0.0,0.0,0.0,0.0,0.0,0.0,0.0,0.7478851,0.021993183,-0.6636422,-0.93603516,0.075927734,-0.3008423,0.015625,0.09375,-0.00390625,4.097442,15.48354,0.45532703,-13.739451,1.0153198,-0.093444824,-0.050048828,-0.038085938,0.05859375,0.08496094,4.6187215,16.397976,-56.461506,-10.649684,0.40820312,-0.35125732,0.84265137,-0.0546875,0.0107421875,0.041992188,6.758827,18.998554,-127.662476,-0.14361572,0.0,0.0,0.0,0.0,0.0,0.0,0.0,23.600132,-127.28227,19.319538,0.0,0.0,0.0,0.0,0.0,0.0,0.0,-0.6338773,44.994164,0.77676994,
2.0507812194409785,105,-0.043151855,0.8189697,0.37542725,-0.05859375,0.083984375,0.068359375,0.0,0.0,0.0,0.0,0.0,0.0,0.0,0.0,0.0,0.0,0.0,-0.74820393,-0.021643806,0.66325974,-0.93811035,0.15356445,0.31652832,-0.060546875,0.021484375,0.052734375,14.329147,-15.49014,-0.44809392,13.731533,0.95062256,-0.24267578,-0.21917725,0.005859375,0.015625,0.037109375,17.781742,-4.540577,-55.684406,22.620394,-0.6329956,-0.26409912,0.7337036,-0.030273438,0.043945312,0.07421875,7.810801,-11.186943,-127.223206,27.598986,0.0,0.0,0.0,0.0,0.0,0.0,0.0,-9.118045,-128.43642,47.43995,0.0,0.0,0.0,0.0,0.0,0.0,0.0,0.74820393,0.021643806,-0.66325974,-0.9672241,0.07208252,-0.31951904,-0.080078125,0.018554688,-0.0029296875,4.095195,15.49014,0.44809392,-13.731533,1.0408936,-0.13372803,-0.05029297,-0.057617188,0.05859375,0.06640625,4.6090846,16.365608,-56.46659,-10.594018,0.41326904,-0.36920166,0.8288574,-0.0546875,0.029296875,0.041992188,6.78995,19.01738,-127.65939,-0.06158638,0.0,0.0,0.0,0.0,0.0,0.0,0.0,23.603506,-127.27972,19.404371,0.0,0.0,0.0,0.0,0.0,0.0,0.0,-0.6472106,44.99359,0.73815274,
2.07031246914994,106,-0.053955078,0.861145,0.4069214,-0.021484375,0.026367188,0.06738281,0.0,0.0,0.0,0.0,0.0,0.0,0.0,0.0,0.0,0.0,0.0,-0.74793667,-0.02071632,0.66359335,-0.911438,0.14898682,0.27667236,-0.09765625,0.040039062,0.072265625,14.400878,-15.484607,-0.4288921,13.7384405,0.96240234,-0.25585938,-0.21734619,-0.0126953125,-0.0029296875,0.036132812,17.836657,-4.5090303,-55.650665,22.66557,-0.6503296,-0.22015381,0.725647,-0.049804688,0.0078125,0.055664062,7.801573,-11.182058,-127.18048,27.659645,0.0,0.0,0.0,0.0,0.0,0.0,0.0,-9.103406,-128.38855,47.498474,0.0,0.0,0.0,0.0,0.0,0.0,0.0,0.74793667,0.02071632,-0.66359335,-0.93444824,0.043701172,-0.30303955,-0.080078125,-0.040039062,0.017578125,4.145623,15.484607,0.4288921,-13.7384405,1.0457153,-0.10986328,-0.06933594,0.0390625,0.0390625,0.083984375,4.5688753,16.377758,-56.48353,-10.531901,0.4296875,-0.35180664,0.85443115,-0.016601562,0.009765625,0.022460938,6.8472776,18.98051,-127.66703,0.050480843,0.0,0.0,0.0,0.0,0.0,0.0,0.0,23.562809,-127.296776,19.517303,0.0,0.0,0.0,0.0,0.0,0.0,0.0,-0.60561574,44.99451,0.7220665,
2.089843718858902,107,-0.041992188,0.86376953,0.40063477,-0.059570312,0.046875,0.0859375,0.0,0.0,0.0,0.0,0.0,0.0,0.0,0.0,0.0,0.0,0.0,-0.74785745,-0.02081555,0.6637577,-0.9296875,0.17895508,0.30303955,-0.13574219,0.09765625,0.072265625,14.396456,-15.48297,-0.43094644,13.741841,0.9499512,-0.2672119,-0.2033081,0.043945312,-0.00390625,0.038085938,17.79253,-4.5653677,-55.651638,22.72549,-0.6364136,-0.2333374,0.71380615,-0.068359375,0.026367188,0.0546875,7.7400966,-11.236118,-127.185425,27.73801,0.0,0.0,0.0,0.0,0.0,0.0,0.0,-9.143194,-128.39236,47.574543,0.0,0.0,0.0,0.0,0.0,0.0,0.0,0.74785745,0.02081555,-0.6637577,-0.9283447,0.051086426,-0.33050537,0.0546875,0.13085938,0.016601562,4.139998,15.48297,0.43094644,-13.741841,1.0326538,-0.120666504,-0.07293701,-0.057617188,0.040039062,0.08496094,4.6121435,16.34151,-56.479946,-10.541977,0.4338379,-0.34973145,0.84155273,-0.016601562,0.009765625,0.041015625,6.8915057,18.887215,-127.65851,0.08995247,0.0,0.0,0.0,0.0,0.0,0.0,0.0,23.48286,-127.293564,19.553339,0.0,0.0,0.0,0.0,0.0,0.0,0.0,-0.61012304,44.996758,0.7236786,
2.1093749685678636,108,-0.074279785,0.8765869,0.40454102,-0.080078125,0.02734375,0.068359375,0.0,0.0,0.0,0.0,0.0,0.0,0.0,0.0,0.0,0.0,0.0,-0.7482112,-0.020550784,0.6633854,-0.92907715,0.13702393,0.30633545,-0.09765625,0.059570312,0.072265625,14.431165,-15.4902935,-0.42546493,13.734134,0.970459,-0.26019287,-0.19451904,0.026367188,0.034179688,0.056640625,17.749832,-4.6252384,-55.644424,22.811584,-0.6744995,-0.22149658,0.7385254,-0.03125,0.04296875,0.036132812,7.733221,-11.280722,-127.17116,27.862974,0.0,0.0,0.0,0.0,0.0,0.0,0.0,-9.198457,-128.36974,47.701454,0.0,0.0,0.0,0.0,0.0,0.0,0.0,0.7482112,0.020550784,-0.6633854,-0.93914795,0.06829834,-0.3048706,0.03515625,0.053710938,0.016601562,4.1347914,15.4902935,0.42546493,-13.734134,1.0220337,-0.13952637,-0.107177734,-0.07714844,0.041015625,0.06640625,4.6204605,16.254557,-56.489994,-10.532377,0.4031372,-0.3322754,0.8535156,-0.037109375,-0.028320312,0.060546875,6.901005,18.764439,-127.67505,0.09565163,0.0,0.0,0.0,0.0,0.0,0.0,0.0,23.36382,-127.31683,19.559324,0.0,0.0,0.0,0.0,0.0,0.0,0.0,-0.5984256,44.997536,0.71901774,
