TOTAL_TIME,0m19s
TOTAL_FRAMES,990
SELECTED_FRAMES,990
NO_OF_JOINTS,12
FREQUENCY,51.2
DESCRIPTION,Capture 17
TIME_STAMP,Nov 1, 2010

Time,Frame,Pelvis_accelX_Pelvis,Pelvis_accelY_Pelvis,Pelvis_accelZ_Pelvis,Pelvis_gyroX_Pelvis,Pelvis_gyroY_Pelvis,Pelvis_gyroZ_Pelvis,Pelvis_Joint angle_Pelvis,Pelvis_Relative pos X_Pelvis,Pelvis_Relative pos Y_Pelvis,Pelvis_Relative pos Z_Pelvis,RightPelvis_accelX_RightPelvis,RightPelvis_accelY_RightPelvis,RightPelvis_accelZ_RightPelvis,RightPelvis_gyroX_RightPelvis,RightPelvis_gyroY_RightPelvis,RightPelvis_gyroZ_RightPelvis,RightPelvis_Joint angle_RightPelvis,RightPelvis_Relative pos X_RightPelvis,RightPelvis_Relative pos Y_RightPelvis,RightPelvis_Relative pos Z_RightPelvis,RightUpLeg_accelX_RightUpLeg,RightUpLeg_accelY_RightUpLeg,RightUpLeg_accelZ_RightUpLeg,RightUpLeg_gyroX_RightUpLeg,RightUpLeg_gyroY_RightUpLeg,RightUpLeg_gyroZ_RightUpLeg,RightUpLeg_Joint angle_RightUpLeg,RightUpLeg_Relative pos X_RightUpLeg,RightUpLeg_Relative pos Y_RightUpLeg,RightUpLeg_Relative pos Z_RightUpLeg,RightLeg_accelX_RightLeg,RightLeg_accelY_RightLeg,RightLeg_accelZ_RightLeg,RightLeg_gyroX_RightLeg,RightLeg_gyroY_RightLeg,RightLeg_gyroZ_RightLeg,RightLeg_Joint angle_RightLeg,RightLeg_Relative pos X_RightLeg,RightLeg_Relative pos Y_RightLeg,RightLeg_Relative pos Z_RightLeg,RightFoot_accelX_RightFoot,RightFoot_accelY_RightFoot,RightFoot_accelZ_RightFoot,RightFoot_gyroX_RightFoot,RightFoot_gyroY_RightFoot,RightFoot_gyroZ_RightFoot,RightFoot_Joint angle_RightFoot,RightFoot_Relative pos X_RightFoot,RightFoot_Relative pos Y_RightFoot,RightFoot_Relative pos Z_RightFoot,RightFootEnd_accelX_RightFootEnd,RightFootEnd_accelY_RightFootEnd,RightFootEnd_accelZ_RightFootEnd,RightFootEnd_gyroX_RightFootEnd,RightFootEnd_gyroY_RightFootEnd,RightFootEnd_gyroZ_RightFootEnd,RightFootEnd_Joint angle_RightFootEnd,RightFootEnd_Relative pos X_RightFootEnd,RightFootEnd_Relative pos Y_RightFootEnd,RightFootEnd_Relative pos Z_RightFootEnd,LeftPelvis_accelX_LeftPelvis,LeftPelvis_accelY_LeftPelvis,LeftPelvis_accelZ_LeftPelvis,LeftPelvis_gyroX_LeftPelvis,LeftPelvis_gyroY_LeftPelvis,LeftPelvis_gyroZ_LeftPelvis,LeftPelvis_Joint angle_LeftPelvis,LeftPelvis_Relative pos X_LeftPelvis,LeftPelvis_Relative pos Y_LeftPelvis,LeftPelvis_Relative pos Z_LeftPelvis,LeftUpLeg_accelX_LeftUpLeg,LeftUpLeg_accelY_LeftUpLeg,LeftUpLeg_accelZ_LeftUpLeg,LeftUpLeg_gyroX_LeftUpLeg,LeftUpLeg_gyroY_LeftUpLeg,LeftUpLeg_gyroZ_LeftUpLeg,LeftUpLeg_Joint angle_LeftUpLeg,LeftUpLeg_Relative pos X_LeftUpLeg,LeftUpLeg_Relative pos Y_LeftUpLeg,LeftUpLeg_Relative pos Z_LeftUpLeg,LeftLeg_accelX_LeftLeg,LeftLeg_accelY_LeftLeg,LeftLeg_accelZ_LeftLeg,LeftLeg_gyroX_LeftLeg,LeftLeg_gyroY_LeftLeg,LeftLeg_gyroZ_LeftLeg,LeftLeg_Joint angle_LeftLeg,LeftLeg_Relative pos X_LeftLeg,LeftLeg_Relative pos Y_LeftLeg,LeftLeg_Relative pos Z_LeftLeg,LeftFoot_accelX_LeftFoot,LeftFoot_accelY_LeftFoot,LeftFoot_accelZ_LeftFoot,LeftFoot_gyroX_LeftFoot,LeftFoot_gyroY_LeftFoot,LeftFoot_gyroZ_LeftFoot,LeftFoot_Joint angle_LeftFoot,LeftFoot_Relative pos X_LeftFoot,LeftFoot_Relative pos Y_LeftFoot,LeftFoot_Relative pos Z_LeftFoot,LeftFootEnd_accelX_LeftFootEnd,LeftFootEnd_accelY_LeftFootEnd,LeftFootEnd_accelZ_LeftFootEnd,LeftFootEnd_gyroX_LeftFootEnd,LeftFootEnd_gyroY_LeftFootEnd,LeftFootEnd_gyroZ_LeftFootEnd,LeftFootEnd_Joint angle_LeftFootEnd,LeftFootEnd_Relative pos X_LeftFootEnd,LeftFootEnd_Relative pos Y_LeftFootEnd,LeftFootEnd_Relative pos Z_LeftFootEnd,Spine_accelX_Spine,Spine_accelY_Spine,Spine_accelZ_Spine,Spine_gyroX_Spine,Spine_gyroY_Spine,Spine_gyroZ_Spine,Spine_Joint angle_Spine,Spine_Relative pos X_Spine,Spine_Relative pos Y_Spine,Spine_Relative pos Z_Spine,
0.0,0,-0.14428711,0.8482666,0.8201294,-9.765625E-4,0.6738281,0.875,0.0,0.0,0.0,0.0,0.0,0.0,0.0,0.0,0.0,0.0,0.0,0.034419924,-0.8907554,-0.45033652,-1.1914062,0.2555542,0.8446655,0.31054688,-2.9277344,-0.109375,92.45229,0.71259964,-18.441397,-9.323361,1.4169312,-0.758667,0.5670166,1.0039062,-3.1142578,-0.57128906,37.47914,9.062106,-74.66681,-5.0261207,-0.5487671,-0.5944824,0.8897705,-1.4472656,6.2773438,2.131836,44.800686,52.35684,-124.53024,23.670132,0.0,0.0,0.0,0.0,0.0,0.0,0.0,55.38293,-133.50716,6.082361,0.0,0.0,0.0,0.0,0.0,0.0,0.0,-0.034419924,0.8907554,0.45033652,-2.0,0.38153076,-2.0,0.6464844,-2.6220703,1.8447266,75.23368,-0.71259964,18.441397,9.323361,0.36090088,-0.016540527,-0.17382812,1.4902344,-1.0947266,1.0029297,51.810093,-11.350942,-36.516556,-1.4646788,-0.68670654,0.42504883,-0.0037841797,-0.4248047,-0.359375,-3.0810547,60.82707,-5.675601,-93.15583,42.456326,0.0,0.0,0.0,0.0,0.0,0.0,0.0,-23.518917,-98.98856,35.608723,0.0,0.0,0.0,0.0,0.0,0.0,0.0,44.45426,4.266573,-5.041477,
0.0195312497089617,1,-0.14428711,0.8482666,0.8201294,-9.765625E-4,0.6738281,0.875,0.0,0.0,0.0,0.0,0.0,0.0,0.0,0.0,0.0,0.0,0.0,0.034419924,-0.8907554,-0.45033652,-1.1914062,0.2555542,0.8446655,0.31054688,-2.9277344,-0.109375,92.45229,0.71259964,-18.441397,-9.323361,1.4169312,-0.758667,0.5670166,1.0039062,-3.1142578,-0.57128906,37.47914,9.062106,-74.66681,-5.0261207,-0.5487671,-0.5944824,0.8897705,-1.4472656,6.2773438,2.131836,44.800686,52.35684,-124.53024,23.670132,0.0,0.0,0.0,0.0,0.0,0.0,0.0,55.38293,-133.50716,6.082361,0.0,0.0,0.0,0.0,0.0,0.0,0.0,-0.034419924,0.8907554,0.45033652,-2.0,0.38153076,-2.0,0.6464844,-2.6220703,1.8447266,75.23368,-0.71259964,18.441397,9.323361,0.36090088,-0.016540527,-0.17382812,1.4902344,-1.0947266,1.0029297,51.810093,-11.350942,-36.516556,-1.4646788,-0.68670654,0.42504883,-0.0037841797,-0.4248047,-0.359375,-3.0810547,60.82707,-5.675601,-93.15583,42.456326,0.0,0.0,0.0,0.0,0.0,0.0,0.0,-23.518917,-98.98856,35.608723,0.0,0.0,0.0,0.0,0.0,0.0,0.0,44.45426,4.266573,-5.041477,
0.0390624994179234,2,-0.14428711,0.8482666,0.8201294,-9.765625E-4,0.6738281,0.875,0.0,0.0,0.0,0.0,0.0,0.0,0.0,0.0,0.0,0.0,0.0,0.034419924,-0.8907554,-0.45033652,-1.1914062,0.2555542,0.8446655,0.31054688,-2.9277344,-0.109375,92.45229,0.71259964,-18.441397,-9.323361,1.4169312,-0.758667,0.5670166,1.0039062,-3.1142578,-0.57128906,37.47914,9.062106,-74.66681,-5.0261207,-0.5487671,-0.5944824,0.8897705,-1.4472656,6.2773438,2.131836,44.800686,52.35684,-124.53024,23.670132,0.0,0.0,0.0,0.0,0.0,0.0,0.0,55.38293,-133.50716,6.082361,0.0,0.0,0.0,0.0,0.0,0.0,0.0,-0.034419924,0.8907554,0.45033652,-2.0,0.38153076,-2.0,0.6464844,-2.6220703,1.8447266,75.23368,-0.71259964,18.441397,9.323361,0.36090088,-0.016540527,-0.17382812,1.4902344,-1.0947266,1.0029297,51.810093,-11.350942,-36.516556,-1.4646788,-0.68670654,0.42504883,-0.0037841797,-0.4248047,-0.359375,-3.0810547,60.82707,-5.675601,-93.15583,42.456326,0.0,0.0,0.0,0.0,0.0,0.0,0.0,-23.518917,-98.98856,35.608723,0.0,0.0,0.0,0.0,0.0,0.0,0.0,44.45426,4.266573,-5.041477,
0.0585937491268851,3,-0.03503418,0.7848511,0.5181885,0.016601562,-0.013671875,0.047851562,0.0,0.0,0.0,0.0,0.0,0.0,0.0,0.0,0.0,0.0,0.0,0.5129467,0.06277151,-0.8561895,-0.9890747,0.0446167,0.0,0.015625,1.1757812,0.63671875,4.8668327,10.619588,1.2995647,-17.725777,0.98773193,-0.15222168,-0.1593628,0.0048828125,-0.0029296875,0.017578125,1.8295968,13.1182575,-55.638374,-16.36131,-0.46972656,-0.33642578,0.80682373,-0.05078125,0.115234375,-0.020507812,7.358315,13.429778,-127.65361,-16.306723,0.0,0.0,0.0,0.0,0.0,0.0,0.0,-3.9551039,-126.29468,-26.079185,0.0,0.0,0.0,0.0,0.0,0.0,0.0,-0.5129467,-0.06277151,0.8561895,-0.9480591,0.004699707,-0.34069824,-0.060546875,-0.021484375,-0.0234375,8.295833,-10.619588,-1.2995647,17.725777,1.0569458,-0.061157227,-0.07873535,-0.07714844,0.00390625,0.029296875,3.5677116,-11.6469,-58.29146,18.6783,0.4196167,-0.30181885,0.8770752,-0.068359375,0.6328125,1.1152344,11.441982,-18.382187,-129.9973,19.270947,0.0,0.0,0.0,0.0,0.0,0.0,0.0,-36.52057,-130.7903,10.87392,0.0,0.0,0.0,0.0,0.0,0.0,0.0,-5.65911,44.645203,-0.1172359,
0.0781249988358468,4,-0.035217285,0.7838135,0.505249,-0.001953125,0.0048828125,-0.0068359375,0.0,0.0,0.0,0.0,0.0,0.0,0.0,0.0,0.0,0.0,0.0,0.512522,0.062366284,-0.8566602,-0.9920044,0.057373047,-0.0028076172,-0.022460938,0.8730469,0.4814453,3.6611576,10.610794,1.2911754,-17.735521,0.9790039,-0.17541504,-0.16137695,-0.051757812,-0.001953125,0.016601562,2.7111554,14.18195,-55.60065,-17.041384,-0.47381592,-0.34509277,0.79003906,-0.03125,-0.01171875,-0.01953125,7.2634997,14.445939,-127.61127,-17.006712,0.0,0.0,0.0,0.0,0.0,0.0,0.0,-2.9341726,-126.257744,-26.789629,0.0,0.0,0.0,0.0,0.0,0.0,0.0,-0.512522,-0.062366284,0.8566602,-0.92108154,-0.010803223,-0.36639404,-0.041992188,-0.021484375,-0.0234375,8.319209,-10.610794,-1.2911754,17.735521,1.0205688,-0.05670166,-0.11462402,-0.09667969,0.041015625,0.029296875,3.4995587,-11.671341,-58.282,18.70409,0.40008545,-0.3104248,0.87615967,-0.05078125,0.5185547,0.98339844,11.599874,-18.356451,-129.9812,19.26674,0.0,0.0,0.0,0.0,0.0,0.0,0.0,-36.40113,-130.53545,10.651963,0.0,0.0,0.0,0.0,0.0,0.0,0.0,-5.652398,44.653267,-0.13088083,
0.09765624854480849,5,-0.059265137,0.8133545,0.526062,-0.040039062,0.045898438,0.06738281,0.0,0.0,0.0,0.0,0.0,0.0,0.0,0.0,0.0,0.0,0.0,0.5123292,0.06244025,-0.856812,-1.0004272,0.03765869,0.018798828,-0.0029296875,0.3828125,0.15136719,3.0407295,10.606804,1.2927068,-17.738665,0.9960327,-0.14874268,-0.1385498,0.024414062,0.03515625,0.018554688,3.3279023,14.74386,-55.56381,-17.422289,-0.45361328,-0.33306885,0.82263184,-0.049804688,0.080078125,0.016601562,7.1782413,14.934722,-127.577835,-17.429834,0.0,0.0,0.0,0.0,0.0,0.0,0.0,-2.4387407,-126.23813,-27.225222,0.0,0.0,0.0,0.0,0.0,0.0,0.0,-0.5123292,-0.06244025,0.856812,-0.8960571,-0.017333984,-0.3595581,-0.07910156,0.11621094,-0.0234375,8.191127,-10.606804,-1.2927068,17.738665,1.0164795,-0.07659912,-0.11242676,-0.11621094,0.022460938,0.06738281,3.547734,-11.562453,-58.285557,18.620007,0.42181396,-0.2857666,0.86328125,-0.0703125,0.3876953,0.66308594,11.884167,-18.182598,-130.00133,19.131374,0.0,0.0,0.0,0.0,0.0,0.0,0.0,-36.153423,-130.3988,10.354414,0.0,0.0,0.0,0.0,0.0,0.0,0.0,-5.6396666,44.656544,-0.11787915,
0.11718749825377019,6,-0.031921387,0.76794434,0.5209961,-0.059570312,0.064453125,0.03125,0.0,0.0,0.0,0.0,0.0,0.0,0.0,0.0,0.0,0.0,0.0,0.5132214,0.06291025,-0.85623133,-1.0125122,0.016906738,-0.010498047,-0.041015625,0.09863281,-0.00390625,2.9883893,10.625274,1.3024372,-17.726645,0.9937134,-0.16040039,-0.13653564,0.043945312,0.053710938,0.018554688,3.4675221,14.863918,-55.543545,-17.382832,-0.4907837,-0.336792,0.80389404,0.0068359375,0.0234375,0.0,7.106939,15.007325,-127.55965,-17.392141,0.0,0.0,0.0,0.0,0.0,0.0,0.0,-2.3561563,-126.23013,-27.205547,0.0,0.0,0.0,0.0,0.0,0.0,0.0,-0.5132214,-0.06291025,0.85623133,-0.9182129,-0.016113281,-0.3104248,-0.060546875,0.017578125,-0.064453125,8.200207,-10.625274,-1.3024372,17.726645,1.0087891,-0.059509277,-0.1005249,-0.07714844,-0.033203125,0.0107421875,3.5478444,-11.54183,-58.294643,18.608938,0.42163086,-0.31677246,0.8701782,-0.0703125,0.25683594,0.24902344,11.903868,-18.103962,-130.01277,19.035309,0.0,0.0,0.0,0.0,0.0,0.0,0.0,-36.06112,-130.32526,10.227537,0.0,0.0,0.0,0.0,0.0,0.0,0.0,-5.677682,44.65124,-0.12249863,
0.1367187479627319,7,-0.018615723,0.7944946,0.5397339,-0.021484375,0.005859375,0.030273438,0.0,0.0,0.0,0.0,0.0,0.0,0.0,0.0,0.0,0.0,0.0,0.51531565,0.06349904,-0.85477924,-1.003418,0.028320312,-3.0517578E-4,-0.022460938,0.080078125,-0.00390625,2.98662,10.668631,1.314627,-17.696579,0.9770508,-0.17443848,-0.14245605,-0.0703125,0.037109375,-0.00390625,3.5733597,14.958002,-55.52648,-17.299349,-0.4899292,-0.34570312,0.8059082,-0.03125,0.060546875,-9.765625E-4,7.027414,15.03218,-127.53773,-17.327366,0.0,0.0,0.0,0.0,0.0,0.0,0.0,-2.3259,-126.21321,-27.15189,0.0,0.0,0.0,0.0,0.0,0.0,0.0,-0.51531565,-0.06349904,0.85477924,-0.9227905,0.013549805,-0.3612671,-0.0029296875,0.11328125,-0.044921875,8.178918,-10.668631,-1.314627,17.696579,1.0325317,-0.06982422,-0.105895996,-0.05859375,0.021484375,0.009765625,3.6262822,-11.522982,-58.30845,18.5268,0.40112305,-0.31341553,0.8712158,0.0029296875,0.028320312,0.022460938,11.823534,-18.107738,-130.02179,18.91252,0.0,0.0,0.0,0.0,0.0,0.0,0.0,-36.09652,-130.33241,10.171151,0.0,0.0,0.0,0.0,0.0,0.0,0.0,-5.7129564,44.640915,-0.12789333,
0.1562499976716936,8,-0.051513672,0.7692261,0.4876709,-0.059570312,0.044921875,0.03125,0.0,0.0,0.0,0.0,0.0,0.0,0.0,0.0,0.0,0.0,0.0,0.5142539,0.06357602,-0.8552946,-0.98706055,0.059936523,0.015197754,-0.041015625,0.07910156,0.0146484375,2.9853742,10.64665,1.3162205,-17.70725,0.975647,-0.18603516,-0.16241455,-0.07128906,-0.020507812,0.015625,3.5798194,14.917164,-55.5278,-17.31221,-0.47357178,-0.32940674,0.8018799,-0.03125,0.024414062,-9.765625E-4,6.9557586,14.958781,-127.541435,-17.35423,0.0,0.0,0.0,0.0,0.0,0.0,0.0,-2.38622,-126.226326,-27.20071,0.0,0.0,0.0,0.0,0.0,0.0,0.0,-0.5142539,-0.06357602,0.8552946,-0.95965576,0.036987305,-0.3718872,0.18847656,0.18554688,0.0146484375,7.9085727,-10.64665,-1.3162205,17.70725,1.0292358,-0.056762695,-0.0703125,-0.078125,0.059570312,0.028320312,3.8462892,-11.265326,-58.31563,18.350288,0.38061523,-0.3012085,0.89001465,0.022460938,0.028320312,0.00390625,11.696557,-17.84582,-130.02794,18.707935,0.0,0.0,0.0,0.0,0.0,0.0,0.0,-35.865387,-130.34756,10.029037,0.0,0.0,0.0,0.0,0.0,0.0,0.0,-5.694894,44.638702,-0.10601103,
0.1757812473806553,9,-0.06512451,0.80267334,0.53704834,-0.07910156,0.045898438,0.049804688,0.0,0.0,0.0,0.0,0.0,0.0,0.0,0.0,0.0,0.0,0.0,0.5134223,0.06468293,-0.8555878,-0.9666748,0.05596924,1.8310547E-4,-0.022460938,0.07910156,0.034179688,3.0786068,10.629433,1.3391373,-17.713318,0.9968872,-0.18688965,-0.17358398,-0.032226562,-0.001953125,0.016601562,3.5454154,14.858885,-55.50785,-17.317657,-0.48358154,-0.32617188,0.8048706,-0.03125,0.005859375,-0.01953125,6.997959,14.891937,-127.52054,-17.386547,0.0,0.0,0.0,0.0,0.0,0.0,0.0,-2.4555779,-126.208855,-27.23169,0.0,0.0,0.0,0.0,0.0,0.0,0.0,-0.5134223,-0.06468293,0.8555878,-0.967041,0.012207031,-0.31311035,-0.15722656,-0.11621094,-0.022460938,7.953125,-10.629433,-1.3391373,17.713318,1.0187378,-0.06561279,-0.09869385,-0.07714844,0.022460938,0.029296875,3.8181345,-11.242506,-58.341976,18.352169,0.38494873,-0.2810669,0.86242676,-0.016601562,0.028320312,0.041015625,11.551062,-17.778675,-130.06033,18.667461,0.0,0.0,0.0,0.0,0.0,0.0,0.0,-35.821903,-130.39554,10.039963,0.0,0.0,0.0,0.0,0.0,0.0,0.0,-5.730971,44.62937,-0.06504285,
0.19531249708961698,10,-0.05340576,0.80914307,0.50897217,-0.0625,-0.030273438,0.06738281,0.0,0.0,0.0,0.0,0.0,0.0,0.0,0.0,0.0,0.0,0.0,0.5123926,0.06481178,-0.8562647,-0.99298096,0.038269043,-0.022033691,-0.022460938,0.07910156,0.034179688,2.9946713,10.608115,1.3418049,-17.727331,0.9819946,-0.18054199,-0.13952637,-0.032226562,0.036132812,0.016601562,3.6325405,14.913626,-55.50089,-17.34126,-0.4827881,-0.3380127,0.8078613,-0.01171875,0.005859375,-0.018554688,6.965706,14.933373,-127.512085,-17.417742,0.0,0.0,0.0,0.0,0.0,0.0,0.0,-2.397685,-126.204346,-27.2891,0.0,0.0,0.0,0.0,0.0,0.0,0.0,-0.5123926,-0.06481178,0.8562647,-0.91241455,-0.03668213,-0.31549072,-0.19433594,-0.076171875,-0.06347656,8.090051,-10.608115,-1.3418049,17.727331,1.0010376,-0.04937744,-0.09350586,-0.07714844,0.022460938,0.029296875,3.6477094,-11.357059,-58.342125,18.471056,0.40112305,-0.31140137,0.86828613,0.001953125,0.009765625,0.022460938,11.425271,-17.836979,-130.0639,18.759754,0.0,0.0,0.0,0.0,0.0,0.0,0.0,-35.906784,-130.41217,10.186413,0.0,0.0,0.0,0.0,0.0,0.0,0.0,-5.7241516,44.632973,-0.047029972,
0.21484374679857868,11,-0.019165039,0.7683716,0.4937744,-0.04296875,-0.03125,0.048828125,0.0,0.0,0.0,0.0,0.0,0.0,0.0,0.0,0.0,0.0,0.0,0.51142347,0.06419273,-0.85689056,-0.98791504,0.022827148,-0.034240723,-0.059570312,0.1171875,0.034179688,2.8435862,10.588053,1.3289886,-17.740292,0.9994507,-0.17047119,-0.13763428,-0.013671875,0.036132812,-0.001953125,3.772007,15.016489,-55.50161,-17.311842,-0.4827881,-0.3380127,0.8078613,-0.01171875,0.005859375,-0.018554688,6.9584928,15.019425,-127.52093,-17.421535,0.0,0.0,0.0,0.0,0.0,0.0,0.0,-2.311633,-126.21319,-27.292894,0.0,0.0,0.0,0.0,0.0,0.0,0.0,-0.51142347,-0.06419273,0.85689056,-0.8902588,-0.032470703,-0.38519287,0.2265625,0.20410156,-0.005859375,7.8525796,-10.588053,-1.3289886,17.740292,1.0084229,-0.057556152,-0.12719727,0.0,0.020507812,0.046875,3.8072464,-11.1363125,-58.332108,18.435843,0.40319824,-0.30950928,0.8741455,-0.015625,0.047851562,0.022460938,11.303555,-17.563274,-130.0607,18.656736,0.0,0.0,0.0,0.0,0.0,0.0,0.0,-35.64884,-130.42624,10.121281,0.0,0.0,0.0,0.0,0.0,0.0,0.0,-5.699667,44.636093,-0.05791962,
0.23437499650754037,12,-0.015075684,0.7921753,0.50183105,-0.022460938,-0.0126953125,0.030273438,0.0,0.0,0.0,0.0,0.0,0.0,0.0,0.0,0.0,0.0,0.0,0.5095636,0.06328648,-0.8580521,-0.9789429,0.057922363,0.012145996,-0.022460938,0.07910156,0.034179688,2.771846,10.549545,1.3102264,-17.764336,0.99139404,-0.16705322,-0.16748047,-0.032226562,0.036132812,0.016601562,3.7886338,14.999632,-55.519802,-17.337872,-0.48913574,-0.35754395,0.8069458,-0.01171875,0.005859375,-0.038085938,6.885526,15.009743,-127.53633,-17.478607,0.0,0.0,0.0,0.0,0.0,0.0,0.0,-2.2992916,-126.24259,-27.394073,0.0,0.0,0.0,0.0,0.0,0.0,0.0,-0.5095636,-0.06328648,0.8580521,-0.9359131,0.0072631836,-0.37408447,0.07421875,0.22851562,-0.024414062,7.558189,-10.549545,-1.3102264,17.764336,1.0092773,-0.03753662,-0.08190918,-0.05859375,0.021484375,0.009765625,4.019221,-10.864247,-58.31775,18.305098,0.40527344,-0.3085327,0.87316895,-0.016601562,0.009765625,0.00390625,11.155827,-17.276798,-130.05112,18.501965,0.0,0.0,0.0,0.0,0.0,0.0,0.0,-35.393562,-130.41745,10.028698,0.0,0.0,0.0,0.0,0.0,0.0,0.0,-5.6618743,44.640377,-0.06987071,
0.2539062462165021,13,-0.043029785,0.82592773,0.53570557,-0.041992188,0.0068359375,0.048828125,0.0,0.0,0.0,0.0,0.0,0.0,0.0,0.0,0.0,0.0,0.0,0.50931424,0.06330953,-0.8582864,-0.9838867,0.040893555,-0.013000488,-0.00390625,0.07910156,0.034179688,2.7877605,10.544385,1.3107035,-17.769188,0.9725342,-0.15460205,-0.14331055,-0.03125,0.03515625,0.036132812,3.759371,14.98592,-55.519474,-17.363886,-0.48388672,-0.34197998,0.81085205,-0.03125,-0.01171875,-0.038085938,6.899669,15.020788,-127.53497,-17.507677,0.0,0.0,0.0,0.0,0.0,0.0,0.0,-2.275074,-126.248764,-27.4438,0.0,0.0,0.0,0.0,0.0,0.0,0.0,-0.50931424,-0.06330953,0.8582864,-0.940979,0.007080078,-0.36328125,-0.13769531,-0.038085938,-0.04296875,7.5222745,-10.544385,-1.3107035,17.769188,1.0167236,-0.08154297,-0.09362793,-0.07714844,0.041015625,0.047851562,4.022143,-10.8190975,-58.318108,18.19546,0.39697266,-0.30749512,0.8880005,0.0029296875,0.028320312,0.041015625,10.996765,-17.190313,-130.05803,18.367579,0.0,0.0,0.0,0.0,0.0,0.0,0.0,-35.32943,-130.4379,9.945326,0.0,0.0,0.0,0.0,0.0,0.0,0.0,-5.6703377,44.642727,-0.071857214,
0.2734374959254638,14,-0.06530762,0.80059814,0.52215576,-0.021484375,0.0068359375,0.06640625,0.0,0.0,0.0,0.0,0.0,0.0,0.0,0.0,0.0,0.0,0.0,0.50894666,0.063330695,-0.8584177,-1.0144043,0.0029296875,-0.046569824,-0.041015625,0.15527344,0.015625,2.6403425,10.536774,1.3111415,-17.771908,1.0180054,-0.16345215,-0.114868164,-0.032226562,0.016601562,0.036132812,3.96136,15.134062,-55.50684,-17.287119,-0.46362305,-0.3336792,0.80682373,-0.01171875,-0.030273438,-0.037109375,6.8860674,15.115318,-127.518845,-17.40002,0.0,0.0,0.0,0.0,0.0,0.0,0.0,-2.1805725,-126.234474,-27.337416,0.0,0.0,0.0,0.0,0.0,0.0,0.0,-0.50894666,-0.063330695,0.8584177,-0.9099121,-3.6621094E-4,-0.36138916,-0.13769531,-0.07714844,-0.022460938,7.5706415,-10.536774,-1.3111415,17.771908,1.0146484,-0.053588867,-0.11254883,-0.05859375,0.021484375,0.009765625,3.930741,-10.863473,-58.31959,18.1765,0.40527344,-0.3045044,0.8741455,-0.016601562,0.028320312,0.041015625,10.92119,-17.18475,-130.06038,18.330479,0.0,0.0,0.0,0.0,0.0,0.0,0.0,-35.33813,-130.45822,9.941683,0.0,0.0,0.0,0.0,0.0,0.0,0.0,-5.6674395,44.63979,-0.06681609,
0.2929687456344255,15,-0.046325684,0.7810669,0.5015869,-0.00390625,-0.05078125,0.06640625,0.0,0.0,0.0,0.0,0.0,0.0,0.0,0.0,0.0,0.0,0.0,0.50821984,0.06314487,-0.8588483,-1.0023193,0.058166504,0.018127441,-0.022460938,0.060546875,-0.00390625,2.5575724,10.521727,1.3072948,-17.780823,0.99346924,-0.16522217,-0.15252686,-0.013671875,0.036132812,-0.001953125,4.0554543,15.178419,-55.507538,-17.250841,-0.4708252,-0.34716797,0.7871094,-0.03125,-0.030273438,-0.037109375,6.864814,15.121314,-127.52314,-17.397636,0.0,0.0,0.0,0.0,0.0,0.0,0.0,-2.1730738,-126.23512,-27.337936,0.0,0.0,0.0,0.0,0.0,0.0,0.0,-0.50821984,-0.06314487,0.8588483,-0.9116821,-0.05645752,-0.30773926,-0.080078125,0.057617188,-0.0234375,7.5554624,-10.521727,-1.3072948,17.780823,1.0221558,-0.087646484,-0.12530518,0.0,0.020507812,0.0087890625,3.9026928,-10.863164,-58.314804,18.26165,0.4083252,-0.3125,0.86431885,-0.016601562,0.028320312,0.041015625,10.809936,-17.161566,-130.05215,18.388985,0.0,0.0,0.0,0.0,0.0,0.0,0.0,-35.333748,-130.46526,10.037893,0.0,0.0,0.0,0.0,0.0,0.0,0.0,-5.6405888,44.642673,-0.055543423,
0.3124999953433872,16,-0.030944824,0.7838135,0.5210571,0.036132812,-0.033203125,0.046875,0.0,0.0,0.0,0.0,0.0,0.0,0.0,0.0,0.0,0.0,0.0,0.5074264,0.06303092,-0.8593061,-0.9656372,0.07232666,0.011413574,0.034179688,0.041015625,0.034179688,2.6426396,10.5053,1.3049356,-17.7903,0.98791504,-0.1463623,-0.1663208,-0.032226562,0.036132812,0.016601562,3.9529471,15.055766,-55.522224,-17.28559,-0.49487305,-0.34057617,0.8059082,-0.01171875,-0.0126953125,-0.037109375,6.851773,14.98855,-127.53751,-17.406525,0.0,0.0,0.0,0.0,0.0,0.0,0.0,-2.291483,-126.26112,-27.371994,0.0,0.0,0.0,0.0,0.0,0.0,0.0,-0.5074264,-0.06303092,0.8593061,-0.92822266,-0.015991211,-0.3496704,0.03515625,0.11230469,-0.044921875,7.511049,-10.5053,-1.3049356,17.7903,1.0247192,-0.064697266,-0.097839355,0.0,0.0390625,0.046875,3.9365156,-10.818136,-58.311672,18.303532,0.4052124,-0.3154297,0.86724854,0.0029296875,0.028320312,0.041015625,10.759929,-17.11905,-130.056,18.398205,0.0,0.0,0.0,0.0,0.0,0.0,0.0,-35.312874,-130.47395,10.099339,0.0,0.0,0.0,0.0,0.0,0.0,0.0,-5.626298,44.643723,-0.047709465,
0.3320312450523489,17,-0.004760742,0.77508545,0.51434326,0.0146484375,-0.07128906,0.046875,0.0,0.0,0.0,0.0,0.0,0.0,0.0,0.0,0.0,0.0,0.0,0.5076565,0.06255089,-0.85927653,-0.97473145,0.053344727,-0.00982666,-0.041015625,0.09863281,0.034179688,2.6544645,10.510061,1.2949973,-17.789688,0.98620605,-0.17480469,-0.14154053,-0.033203125,0.017578125,-0.001953125,3.9658558,15.058021,-55.52557,-17.320591,-0.4841919,-0.3605957,0.7999878,0.0068359375,-0.0126953125,-0.018554688,6.8041754,14.970993,-127.543,-17.477036,0.0,0.0,0.0,0.0,0.0,0.0,0.0,-2.2992935,-126.27372,-27.461357,0.0,0.0,0.0,0.0,0.0,0.0,0.0,-0.5076565,-0.06255089,0.85927653,-0.9265747,0.027648926,-0.41619873,0.0546875,0.22851562,0.016601562,7.3138366,-10.510061,-1.2949973,17.789688,1.0246582,-0.0637207,-0.10479736,0.07714844,0.056640625,-0.0107421875,4.1004996,-10.617036,-58.30575,18.001509,0.4043579,-0.28552246,0.8741455,0.0029296875,0.009765625,0.00390625,10.66616,-16.8756,-130.05428,18.0475,0.0,0.0,0.0,0.0,0.0,0.0,0.0,-35.086807,-130.47816,9.783293,0.0,0.0,0.0,0.0,0.0,0.0,0.0,-5.644322,44.64417,-0.08477354,
0.3515624947613106,18,-0.021118164,0.77246094,0.49884033,0.016601562,-0.013671875,0.047851562,0.0,0.0,0.0,0.0,0.0,0.0,0.0,0.0,0.0,0.0,0.0,0.508427,0.062146306,-0.85878426,-1.022583,-0.0028686523,-0.04071045,-0.09765625,0.07910156,-0.00390625,2.5325003,10.526014,1.2866211,-17.779495,1.0351562,-0.16308594,-0.13195801,-0.032226562,-0.001953125,0.016601562,4.1755605,15.23155,-55.522007,-17.209845,-0.47772217,-0.33520508,0.80682373,-0.01171875,-0.048828125,-0.018554688,6.7077675,15.087309,-127.537766,-17.346054,0.0,0.0,0.0,0.0,0.0,0.0,0.0,-2.1726208,-126.2764,-27.350555,0.0,0.0,0.0,0.0,0.0,0.0,0.0,-0.508427,-0.062146306,0.85878426,-0.9592285,-0.0078125,-0.3397827,-0.080078125,-0.11816406,-0.0234375,7.3189054,-10.526014,-1.2866211,17.779495,1.0203857,-0.045715332,-0.1295166,0.038085938,0.076171875,-0.0107421875,4.0837016,-10.611112,-58.29418,17.948368,0.4031372,-0.31750488,0.87615967,0.0029296875,0.028320312,0.041015625,10.539691,-16.820744,-130.04582,18.000132,0.0,0.0,0.0,0.0,0.0,0.0,0.0,-35.048874,-130.48479,9.775736,0.0,0.0,0.0,0.0,0.0,0.0,0.0,-5.6656504,44.638805,-0.123934746,
0.37109374447027227,19,-0.019714355,0.7626343,0.5266113,0.017578125,0.005859375,0.047851562,0.0,0.0,0.0,0.0,0.0,0.0,0.0,0.0,0.0,0.0,0.0,0.50756687,0.06183336,-0.85941213,-0.9963989,0.04626465,0.026916504,-0.022460938,0.041015625,0.034179688,2.4992018,10.508206,1.2801423,-17.792494,0.9894409,-0.13085938,-0.13238525,-0.0703125,0.037109375,-0.00390625,4.2704463,15.256122,-55.52308,-17.174389,-0.475708,-0.33618164,0.79400635,0.0078125,-0.030273438,0.01953125,6.6553454,15.046021,-127.53919,-17.243998,0.0,0.0,0.0,0.0,0.0,0.0,0.0,-2.2151155,-126.27622,-27.245832,0.0,0.0,0.0,0.0,0.0,0.0,0.0,-0.50756687,-0.06183336,0.85941213,-0.92492676,-0.068725586,-0.31567383,-0.23339844,-0.07519531,-0.041992188,7.4590883,-10.508206,-1.2801423,17.792494,1.022644,-0.03778076,-0.116760254,-0.01953125,0.021484375,0.046875,3.8838313,-10.727642,-58.287804,18.133179,0.39520264,-0.27337646,0.87713623,-0.03515625,0.047851562,0.060546875,10.435921,-16.852608,-130.04251,18.189606,0.0,0.0,0.0,0.0,0.0,0.0,0.0,-35.079033,-130.50829,9.964052,0.0,0.0,0.0,0.0,0.0,0.0,0.0,-5.668667,44.642155,-0.13596821,
0.39062499417923396,20,-0.0357666,0.80493164,0.5452881,-0.061523438,-0.0107421875,0.0859375,0.0,0.0,0.0,0.0,0.0,0.0,0.0,0.0,0.0,0.0,0.0,0.50781983,0.06206672,-0.85920477,-0.97576904,0.06378174,0.008300781,0.09082031,-0.034179688,0.013671875,2.6316545,10.513445,1.2849735,-17.788202,0.9641113,-0.16699219,-0.15026855,-0.08886719,0.017578125,0.034179688,4.1181326,15.13809,-55.528557,-17.201101,-0.4656372,-0.33465576,0.810791,-0.01171875,0.0068359375,0.037109375,6.650688,14.957865,-127.53983,-17.244373,0.0,0.0,0.0,0.0,0.0,0.0,0.0,-2.305046,-126.27195,-27.24036,0.0,0.0,0.0,0.0,0.0,0.0,0.0,-0.50781983,-0.06206672,0.85920477,-0.8812256,-0.034179688,-0.4019165,0.20800781,0.22460938,-0.005859375,7.298664,-10.513445,-1.2849735,17.788202,1.0404663,-0.08190918,-0.10101318,-0.05859375,0.05859375,0.046875,4.0273495,-10.5591135,-58.29011,18.101284,0.39715576,-0.28344727,0.88305664,0.021484375,0.0087890625,0.0029296875,10.274869,-16.644577,-130.05405,18.115263,0.0,0.0,0.0,0.0,0.0,0.0,0.0,-34.89912,-130.52312,9.948904,0.0,0.0,0.0,0.0,0.0,0.0,0.0,-5.6799054,44.639137,-0.13240576,
0.41015624388819566,21,-0.045715332,0.77142334,0.54626465,-0.022460938,-0.0126953125,0.048828125,0.0,0.0,0.0,0.0,0.0,0.0,0.0,0.0,0.0,0.0,0.0,0.5083388,0.0617744,-0.85884696,-0.9767456,0.031311035,-0.028076172,-0.00390625,0.059570312,0.052734375,2.6381176,10.524189,1.2789215,-17.780794,1.0090942,-0.1875,-0.14379883,-0.032226562,-0.0029296875,0.036132812,4.1157546,15.13925,-55.539497,-17.19773,-0.4857788,-0.3359375,0.8029175,-0.01171875,0.005859375,0.0,6.6384096,14.950339,-127.55149,-17.263268,0.0,0.0,0.0,0.0,0.0,0.0,0.0,-2.3165827,-126.27805,-27.253021,0.0,0.0,0.0,0.0,0.0,0.0,0.0,-0.5083388,-0.0617744,0.85884696,-0.92822266,-0.018188477,-0.380188,0.18847656,0.18554688,0.03515625,6.937574,-10.524189,-1.2789215,17.780794,1.008728,-0.047546387,-0.11242676,-0.01953125,0.040039062,0.028320312,4.3626003,-10.211002,-58.287617,17.947569,0.39916992,-0.29241943,0.87316895,-0.015625,0.047851562,0.041015625,10.250544,-16.267231,-130.04784,17.951263,0.0,0.0,0.0,0.0,0.0,0.0,0.0,-34.523876,-130.53386,9.791841,0.0,0.0,0.0,0.0,0.0,0.0,0.0,-5.6802783,44.636227,-0.15151703,
0.42968749359715736,22,-0.0029907227,0.7729492,0.49536133,0.0546875,-0.052734375,0.064453125,0.0,0.0,0.0,0.0,0.0,0.0,0.0,0.0,0.0,0.0,0.0,0.5090635,0.061510738,-0.8586022,-1.0283813,0.02368164,-0.053222656,-0.041015625,0.09863281,0.015625,2.5165286,10.539193,1.2734629,-17.775728,1.0300293,-0.16381836,-0.13989258,-0.0703125,-0.001953125,0.015625,4.278419,15.289589,-55.52884,-17.126833,-0.48284912,-0.34100342,0.80981445,0.0068359375,0.0234375,0.0,6.577811,15.0724,-127.54309,-17.166842,0.0,0.0,0.0,0.0,0.0,0.0,0.0,-2.1884165,-126.27303,-27.167654,0.0,0.0,0.0,0.0,0.0,0.0,0.0,-0.5090635,-0.061510738,0.8586022,-0.9382324,-0.012756348,-0.31329346,-0.27148438,-0.13183594,-0.041992188,7.034528,-10.539193,-1.2734629,17.775728,1.0083008,-0.048583984,-0.14007568,-0.09667969,0.041015625,0.047851562,4.2090087,-10.314852,-58.27955,17.977629,0.39611816,-0.2805786,0.8948364,-0.015625,0.047851562,0.041015625,10.098354,-16.290169,-130.04837,17.950598,0.0,0.0,0.0,0.0,0.0,0.0,0.0,-34.559708,-130.54456,9.823805,0.0,0.0,0.0,0.0,0.0,0.0,0.0,-5.6870723,44.641727,-0.17369509,
0.44921874330611905,23,-0.027770996,0.7807617,0.5309448,-0.0234375,-0.032226562,0.030273438,0.0,0.0,0.0,0.0,0.0,0.0,0.0,0.0,0.0,0.0,0.0,0.5080954,0.061072223,-0.8591825,-0.9725952,0.07354736,0.0014648438,0.015625,-0.015625,0.0146484375,2.5093627,10.519149,1.2643842,-17.78774,0.977478,-0.15472412,-0.17523193,-0.0703125,0.017578125,0.015625,4.2468543,15.270289,-55.540016,-17.161867,-0.49371338,-0.3317871,0.810791,0.0068359375,0.005859375,0.018554688,6.621669,15.09162,-127.554306,-17.204014,0.0,0.0,0.0,0.0,0.0,0.0,0.0,-2.1652422,-126.28144,-27.211689,0.0,0.0,0.0,0.0,0.0,0.0,0.0,-0.5080954,-0.061072223,0.8591825,-0.88916016,-0.02319336,-0.36450195,0.034179688,-0.043945312,-0.024414062,7.12618,-10.519149,-1.2643842,17.78774,1.036499,-0.06390381,-0.11193848,-0.057617188,0.040039062,0.06640625,4.0700116,-10.385344,-58.26963,18.076954,0.38684082,-0.30114746,0.86932373,-0.016601562,0.009765625,0.041015625,9.95564,-16.29554,-130.04187,18.00245,0.0,0.0,0.0,0.0,0.0,0.0,0.0,-34.576138,-130.55444,9.902303,0.0,0.0,0.0,0.0,0.0,0.0,0.0,-5.6874113,44.64068,-0.1902299,
0.46874999301508075,24,-0.040771484,0.80010986,0.5473633,-0.040039062,0.045898438,0.06738281,0.0,0.0,0.0,0.0,0.0,0.0,0.0,0.0,0.0,0.0,0.0,0.50834846,0.061036125,-0.85911775,-0.95928955,0.061157227,-0.02557373,0.072265625,0.022460938,0.0146484375,2.5702455,10.524389,1.2636371,-17.7864,0.98547363,-0.15997314,-0.168396,-0.049804688,0.03515625,0.0546875,4.1435914,15.224517,-55.545406,-17.215471,-0.46600342,-0.35430908,0.8098755,-0.01171875,0.005859375,0.0,6.6921654,15.108769,-127.55835,-17.293865,0.0,0.0,0.0,0.0,0.0,0.0,0.0,-2.135808,-126.28789,-27.320524,0.0,0.0,0.0,0.0,0.0,0.0,0.0,-0.50834846,-0.061036125,0.85911775,-0.92333984,-0.027404785,-0.40679932,0.16894531,0.16699219,0.0146484375,6.8857255,-10.524389,-1.2636371,17.7864,1.0284424,-0.059814453,-0.11669922,-0.09667969,0.041015625,0.06640625,4.2694373,-10.131607,-58.271008,18.029726,0.40527344,-0.30548096,0.87023926,-0.0546875,0.0107421875,0.022460938,9.859395,-15.966052,-130.04704,17.909203,0.0,0.0,0.0,0.0,0.0,0.0,0.0,-34.25569,-130.57481,9.827754,0.0,0.0,0.0,0.0,0.0,0.0,0.0,-5.7033463,44.641792,-0.20314431,
0.48828124272404244,25,-0.028747559,0.8126831,0.54315186,0.017578125,0.005859375,0.06542969,0.0,0.0,0.0,0.0,0.0,0.0,0.0,0.0,0.0,0.0,0.0,0.5077373,0.06062428,-0.85944146,-0.9816284,0.04333496,-0.043823242,-0.00390625,0.07910156,0.053710938,2.51956,10.511735,1.2551104,-17.793102,0.9940796,-0.14367676,-0.15441895,-0.051757812,0.017578125,-0.0029296875,4.180576,15.258992,-55.550125,-17.229076,-0.4840088,-0.35083008,0.8098755,0.0068359375,-0.0126953125,0.0,6.6987267,15.157138,-127.56478,-17.325743,0.0,0.0,0.0,0.0,0.0,0.0,0.0,-2.0764132,-126.30001,-27.371943,0.0,0.0,0.0,0.0,0.0,0.0,0.0,-0.5077373,-0.06062428,0.85944146,-0.93011475,-0.006713867,-0.36828613,-0.11816406,0.0,-0.001953125,6.8072014,-10.511735,-1.2551104,17.793102,1.0244751,-0.077697754,-0.10961914,-0.07714844,0.041015625,0.06640625,4.351992,-10.039652,-58.26142,17.939537,0.38464355,-0.29742432,0.9038086,0.001953125,0.009765625,0.022460938,9.848939,-15.880631,-130.03806,17.798101,0.0,0.0,0.0,0.0,0.0,0.0,0.0,-34.187595,-130.5654,9.754106,0.0,0.0,0.0,0.0,0.0,0.0,0.0,-5.7029085,44.63916,-0.22033167,
0.5078124924330042,26,-0.037109375,0.7908325,0.51434326,0.07519531,-0.0146484375,0.045898438,0.0,0.0,0.0,0.0,0.0,0.0,0.0,0.0,0.0,0.0,0.0,0.5064846,0.06005297,-0.86020434,-1.0172119,0.0033569336,-0.06744385,-0.060546875,0.07910156,0.034179688,2.391874,10.485804,1.2432827,-17.808897,0.99212646,-0.17889404,-0.15356445,-0.0126953125,0.015625,0.055664062,4.2864685,15.324595,-55.554737,-17.204308,-0.46264648,-0.3347168,0.8147583,-0.01171875,-0.01171875,0.0,6.634214,15.209802,-127.56915,-17.31063,0.0,0.0,0.0,0.0,0.0,0.0,0.0,-2.0161505,-126.306496,-27.37215,0.0,0.0,0.0,0.0,0.0,0.0,0.0,-0.5064846,-0.06005297,0.86020434,-0.92126465,-0.02331543,-0.33502197,-0.11816406,-0.078125,-0.0234375,6.87552,-10.485804,-1.2432827,17.808897,1.0367432,-0.043945312,-0.10614014,-0.038085938,0.021484375,0.046875,4.2028623,-10.123109,-58.24904,17.983795,0.40325928,-0.30151367,0.8751221,-0.016601562,0.009765625,0.022460938,9.793601,-15.914213,-130.03806,17.828989,0.0,0.0,0.0,0.0,0.0,0.0,0.0,-34.226006,-130.57843,9.798394,0.0,0.0,0.0,0.0,0.0,0.0,0.0,-5.670764,44.642628,-0.22231066,
0.5273437421419659,27,-0.032836914,0.8097534,0.5372925,-0.061523438,-0.01171875,0.03125,0.0,0.0,0.0,0.0,0.0,0.0,0.0,0.0,0.0,0.0,0.0,0.5060634,0.059385996,-0.86041874,-0.9880371,0.05328369,0.0061035156,-0.00390625,0.041015625,0.0146484375,2.391956,10.477081,1.2294743,-17.813335,0.99157715,-0.16229248,-0.14154053,-0.0126953125,0.07421875,0.016601562,4.298514,15.300239,-55.5731,-17.18269,-0.48010254,-0.36065674,0.79107666,0.0078125,-0.01171875,0.038085938,6.590082,15.152561,-127.58824,-17.2819,0.0,0.0,0.0,0.0,0.0,0.0,0.0,-2.0709648,-126.328926,-27.349226,0.0,0.0,0.0,0.0,0.0,0.0,0.0,-0.5060634,-0.059385996,0.86041874,-0.8838501,-0.00592041,-0.3968506,0.07324219,0.13085938,-0.0048828125,6.8199534,-10.477081,-1.2294743,17.813335,1.0363159,-0.061950684,-0.12475586,-0.057617188,0.0029296875,0.06640625,4.2132874,-10.072871,-58.23869,17.94928,0.41967773,-0.3017578,0.8701782,-0.016601562,0.009765625,0.00390625,9.760619,-15.825256,-130.0319,17.75987,0.0,0.0,0.0,0.0,0.0,0.0,0.0,-34.146187,-130.58006,9.750839,0.0,0.0,0.0,0.0,0.0,0.0,0.0,-5.6583996,44.640953,-0.24692786,
0.5468749918509276,28,-0.0289917,0.805603,0.52319336,-0.080078125,0.02734375,0.049804688,0.0,0.0,0.0,0.0,0.0,0.0,0.0,0.0,0.0,0.0,0.0,0.50579304,0.060049463,-0.8605014,-0.9851074,0.047302246,0.010986328,0.015625,0.00390625,0.0146484375,2.5794435,10.471484,1.24321,-17.815048,0.9790039,-0.14117432,-0.1453247,-0.08886719,-0.020507812,0.034179688,4.180435,15.1834135,-55.566364,-17.198614,-0.46710205,-0.36212158,0.8059082,-0.01171875,0.005859375,0.0,6.5505357,15.038829,-127.58252,-17.264301,0.0,0.0,0.0,0.0,0.0,0.0,0.0,-2.1733046,-126.33322,-27.35145,0.0,0.0,0.0,0.0,0.0,0.0,0.0,-0.50579304,-0.060049463,0.8605014,-0.9283447,-0.025390625,-0.36547852,0.0546875,0.13085938,0.016601562,6.735486,-10.471484,-1.24321,17.815048,1.0030518,-0.028503418,-0.10064697,0.0,0.0390625,0.083984375,4.36906,-9.901579,-58.249817,17.858923,0.40124512,-0.29138184,0.86828613,-0.036132812,0.009765625,0.060546875,9.7993,-15.641188,-130.0381,17.62734,0.0,0.0,0.0,0.0,0.0,0.0,0.0,-33.96044,-130.60873,9.618942,0.0,0.0,0.0,0.0,0.0,0.0,0.0,-5.7197323,44.631954,-0.2473861,
0.5664062415598893,29,-0.047058105,0.8150635,0.5336914,0.037109375,0.025390625,0.083984375,0.0,0.0,0.0,0.0,0.0,0.0,0.0,0.0,0.0,0.0,0.0,0.5057445,0.059962805,-0.8605399,-0.99993896,0.02520752,-0.05316162,-0.00390625,0.041015625,0.034179688,2.607895,10.470479,1.241416,-17.815844,0.9970703,-0.18511963,-0.12670898,-0.0703125,0.036132812,0.015625,4.1457653,15.154084,-55.56942,-17.197536,-0.46972656,-0.3383789,0.7949829,0.0078125,-0.030273438,0.038085938,6.492533,15.017681,-127.58563,-17.267204,0.0,0.0,0.0,0.0,0.0,0.0,0.0,-2.1938324,-126.33595,-27.355,0.0,0.0,0.0,0.0,0.0,0.0,0.0,-0.5057445,-0.059962805,0.8605399,-0.9352417,-0.014038086,-0.34277344,-0.13769531,-0.11621094,-0.022460938,6.7333603,-10.470479,-1.241416,17.815844,1.0089111,-0.047546387,-0.101623535,-0.0390625,0.07714844,0.06542969,4.352667,-9.900121,-58.247486,17.928007,0.41345215,-0.3086548,0.8682251,-0.0546875,0.029296875,0.060546875,9.665523,-15.616472,-130.03598,17.696732,0.0,0.0,0.0,0.0,0.0,0.0,0.0,-33.952797,-130.6058,9.723459,0.0,0.0,0.0,0.0,0.0,0.0,0.0,-5.7202287,44.63202,-0.25183356,
0.585937491268851,30,-0.009033203,0.7930298,0.5046387,0.037109375,0.024414062,0.06542969,0.0,0.0,0.0,0.0,0.0,0.0,0.0,0.0,0.0,0.0,0.0,0.5052332,0.058818437,-0.8609285,-1.0040283,0.03387451,-0.044006348,-0.07910156,0.041015625,-0.00390625,2.5031931,10.459893,1.217724,-17.823887,1.0230103,-0.19378662,-0.17883301,0.0048828125,-0.0029296875,0.017578125,4.245286,15.217281,-55.587307,-17.123293,-0.49591064,-0.34057617,0.8029175,-0.01171875,-0.01171875,0.018554688,6.4149346,15.061099,-127.601105,-17.230112,0.0,0.0,0.0,0.0,0.0,0.0,0.0,-2.1387224,-126.35605,-27.337488,0.0,0.0,0.0,0.0,0.0,0.0,0.0,-0.5052332,-0.058818437,0.8609285,-0.89105225,-0.013671875,-0.31237793,-0.060546875,0.037109375,-0.0029296875,6.7397065,-10.459893,-1.217724,17.823887,1.0247192,-0.051757812,-0.1048584,-0.057617188,0.040039062,0.06640625,4.28025,-9.9293785,-58.225002,17.943172,0.4248047,-0.296875,0.8691406,-0.016601562,0.009765625,0.060546875,9.594131,-15.604283,-130.01546,17.698929,0.0,0.0,0.0,0.0,0.0,0.0,0.0,-33.944294,-130.59256,9.737251,0.0,0.0,0.0,0.0,0.0,0.0,0.0,-5.692849,44.635647,-0.29133427,
0.6054687409778127,31,-0.013000488,0.7802124,0.5036621,-9.765625E-4,0.043945312,0.030273438,0.0,0.0,0.0,0.0,0.0,0.0,0.0,0.0,0.0,0.0,0.0,0.50482917,0.05764751,-0.86122465,-0.975647,0.08898926,0.014709473,-0.041015625,-0.03515625,0.013671875,2.5640695,10.451529,1.1934823,-17.83002,0.9924927,-0.16522217,-0.14953613,-0.013671875,0.016601562,0.017578125,4.144442,15.118216,-55.61978,-17.169231,-0.48394775,-0.34588623,0.81085205,-0.01171875,0.005859375,0.018554688,6.44336,14.971557,-127.631836,-17.29802,0.0,0.0,0.0,0.0,0.0,0.0,0.0,-2.222478,-126.387695,-27.417404,0.0,0.0,0.0,0.0,0.0,0.0,0.0,-0.50482917,-0.05764751,0.86122465,-0.9349365,0.0045166016,-0.38391113,0.15039062,0.1484375,-0.0048828125,6.6128964,-10.451529,-1.1934823,17.83002,1.0240479,-0.05670166,-0.08404541,-0.057617188,0.040039062,0.06640625,4.3531623,-9.807242,-58.201817,17.885193,0.38885498,-0.28948975,0.902771,-0.036132812,0.009765625,0.041015625,9.531205,-15.432062,-129.99472,17.636284,0.0,0.0,0.0,0.0,0.0,0.0,0.0,-33.783073,-130.58028,9.696495,0.0,0.0,0.0,0.0,0.0,0.0,0.0,-5.678196,44.636383,-0.34061086,
0.6249999906867744,32,-0.01171875,0.80322266,0.5296631,-0.040039062,0.064453125,0.049804688,0.0,0.0,0.0,0.0,0.0,0.0,0.0,0.0,0.0,0.0,0.0,0.5037693,0.056806114,-0.86204547,-0.9707031,0.061828613,0.0053100586,-0.00390625,0.0029296875,0.033203125,2.6245046,10.429586,1.1760626,-17.847013,0.9768677,-0.18127441,-0.14941406,-0.032226562,-0.021484375,0.036132812,4.030995,15.003584,-55.64493,-17.255943,-0.463562,-0.3307495,0.810791,-0.01171875,0.041992188,0.017578125,6.5093045,14.875292,-127.65759,-17.400988,0.0,0.0,0.0,0.0,0.0,0.0,0.0,-2.3217907,-126.40932,-27.513245,0.0,0.0,0.0,0.0,0.0,0.0,0.0,-0.5037693,-0.056806114,0.86204547,-0.90393066,-0.0036621094,-0.3526001,-0.11816406,-0.0390625,-0.022460938,6.574948,-10.429586,-1.1760626,17.847013,1.0055542,-0.057373047,-0.05407715,-0.07714844,0.059570312,0.046875,4.3826222,-9.768906,-58.182713,17.863386,0.38885498,-0.2854004,0.895874,-0.016601562,0.028320312,0.041015625,9.529059,-15.410746,-129.97772,17.605503,0.0,0.0,0.0,0.0,0.0,0.0,0.0,-33.77121,-130.56978,9.692901,0.0,0.0,0.0,0.0,0.0,0.0,0.0,-5.6586676,44.644325,-0.36493742,
0.6445312403957361,33,-0.028320312,0.7965088,0.49725342,0.020507812,0.10058594,0.047851562,0.0,0.0,0.0,0.0,0.0,0.0,0.0,0.0,0.0,0.0,0.0,0.5037482,0.057130773,-0.86200565,-1.0049438,0.02734375,-0.05810547,-0.041015625,0.07910156,0.034179688,2.56613,10.42915,1.1827841,-17.84619,1.0123901,-0.17980957,-0.13183594,0.0068359375,0.03515625,0.055664062,4.092899,15.036769,-55.63311,-17.225588,-0.47509766,-0.3579712,0.8138428,-0.01171875,0.024414062,0.0,6.4249525,14.878987,-127.65165,-17.398905,0.0,0.0,0.0,0.0,0.0,0.0,0.0,-2.3122416,-126.41264,-27.522535,0.0,0.0,0.0,0.0,0.0,0.0,0.0,-0.5037482,-0.057130773,0.86200565,-0.9147339,0.01373291,-0.37506104,-0.19433594,0.021484375,-0.021484375,6.6151795,-10.42915,-1.1827841,17.84619,1.0405273,-0.073913574,-0.10205078,0.0,0.020507812,0.028320312,4.351677,-9.834685,-58.191124,17.791174,0.39294434,-0.29943848,0.8909302,-0.0546875,0.029296875,0.041992188,9.573352,-15.520515,-129.98114,17.521738,0.0,0.0,0.0,0.0,0.0,0.0,0.0,-33.900093,-130.575,9.654502,0.0,0.0,0.0,0.0,0.0,0.0,0.0,-5.636254,44.646194,-0.3347788,
0.6640624901046978,34,-0.014831543,0.78533936,0.5196533,0.040039062,0.1015625,0.083984375,0.0,0.0,0.0,0.0,0.0,0.0,0.0,0.0,0.0,0.0,0.0,0.5047242,0.057537094,-0.86138487,-1.017273,0.031066895,-0.039123535,-0.07910156,0.041015625,0.0146484375,2.5016284,10.449356,1.1911962,-17.833338,1.0145264,-0.17492676,-0.15075684,-0.0126953125,-0.0029296875,0.036132812,4.180201,15.10782,-55.62409,-17.120249,-0.44628906,-0.319458,0.81365967,-0.01171875,0.005859375,-0.018554688,6.4283695,14.915596,-127.640366,-17.287586,0.0,0.0,0.0,0.0,0.0,0.0,0.0,-2.277195,-126.39546,-27.408258,0.0,0.0,0.0,0.0,0.0,0.0,0.0,-0.5047242,-0.057537094,0.86138487,-0.9702759,-0.009338379,-0.38891602,0.09277344,0.12988281,0.015625,6.5301776,-10.449356,-1.1911962,17.833338,1.020874,-0.049682617,-0.09686279,0.0,0.057617188,0.06542969,4.3899903,-9.797277,-58.198338,17.74611,0.383667,-0.30914307,0.88116455,0.022460938,0.028320312,0.00390625,9.42742,-15.457857,-129.99458,17.505392,0.0,0.0,0.0,0.0,0.0,0.0,0.0,-33.864838,-130.58232,9.696583,0.0,0.0,0.0,0.0,0.0,0.0,0.0,-5.614996,44.648182,-0.30775762,
0.6835937398136595,35,-0.037109375,0.8048096,0.5184326,0.038085938,0.04296875,0.029296875,0.0,0.0,0.0,0.0,0.0,0.0,0.0,0.0,0.0,0.0,0.0,0.5042102,0.05745006,-0.86177003,-0.9789429,0.07128906,0.02734375,-0.041015625,-0.03515625,0.033203125,2.5891385,10.438716,1.1893944,-17.841312,0.9815674,-0.1609497,-0.12945557,-0.0126953125,0.03515625,0.036132812,4.091463,14.989972,-55.632366,-17.174456,-0.4864502,-0.31817627,0.7998657,0.0068359375,0.0234375,0.018554688,6.429925,14.765577,-127.64711,-17.326633,0.0,0.0,0.0,0.0,0.0,0.0,0.0,-2.428402,-126.39809,-27.442797,0.0,0.0,0.0,0.0,0.0,0.0,0.0,-0.5042102,-0.05745006,0.86177003,-0.92022705,-0.019592285,-0.32910156,-0.041992188,-0.060546875,0.016601562,6.502643,-10.438716,-1.1893944,17.841312,1.0169067,-0.049621582,-0.095825195,-0.05859375,0.05859375,0.046875,4.390436,-9.775873,-58.193558,17.769999,0.38885498,-0.2923584,0.8919678,-0.015625,0.047851562,0.00390625,9.395153,-15.424607,-129.9917,17.499659,0.0,0.0,0.0,0.0,0.0,0.0,0.0,-33.83652,-130.59079,9.707523,0.0,0.0,0.0,0.0,0.0,0.0,0.0,-5.6036158,44.652714,-0.30181968,
0.7031249895226211,36,-0.06011963,0.82543945,0.54211426,0.0,0.08105469,0.01171875,0.0,0.0,0.0,0.0,0.0,0.0,0.0,0.0,0.0,0.0,0.0,0.50468767,0.058440812,-0.8613323,-0.96850586,0.06311035,-0.017578125,-0.00390625,-0.015625,0.033203125,2.663078,10.448599,1.209906,-17.83225,0.99328613,-0.17407227,-0.14459229,-0.05078125,0.016601562,0.03515625,4.015077,14.9129715,-55.622547,-17.205095,-0.44732666,-0.32330322,0.79589844,0.0068359375,0.0234375,0.0,6.377597,14.669944,-127.63611,-17.37196,0.0,0.0,0.0,0.0,0.0,0.0,0.0,-2.5234003,-126.38554,-27.488081,0.0,0.0,0.0,0.0,0.0,0.0,0.0,-0.50468767,-0.058440812,0.8613323,-0.9061279,-0.018615723,-0.380188,-0.23339844,-0.055664062,-9.765625E-4,6.5712786,-10.448599,-1.209906,17.83225,1.0155029,-0.087524414,-0.105407715,-0.07714844,0.059570312,0.046875,4.290761,-9.878473,-58.216522,17.810635,0.4083252,-0.2937622,0.8928833,-0.015625,0.047851562,0.041015625,9.367351,-15.517611,-130.00851,17.502424,0.0,0.0,0.0,0.0,0.0,0.0,0.0,-33.937225,-130.61928,9.726326,0.0,0.0,0.0,0.0,0.0,0.0,0.0,-5.589915,44.6512,-0.24579263,
0.7226562392315828,37,-0.035217285,0.7927246,0.5053711,0.01953125,0.0625,0.047851562,0.0,0.0,0.0,0.0,0.0,0.0,0.0,0.0,0.0,0.0,0.0,0.505355,0.05882972,-0.8608579,-1.0012207,0.017150879,-0.032348633,-0.07910156,0.022460938,0.0146484375,2.6599157,10.462415,1.2179575,-17.822428,1.0024414,-0.17047119,-0.16259766,-0.0126953125,0.016601562,0.036132812,4.0264254,14.919945,-55.61185,-17.151274,-0.4796753,-0.335083,0.7949829,0.0068359375,0.0234375,0.018554688,6.353324,14.662271,-127.62416,-17.343603,0.0,0.0,0.0,0.0,0.0,0.0,0.0,-2.5237322,-126.36717,-27.472094,0.0,0.0,0.0,0.0,0.0,0.0,0.0,-0.505355,-0.05882972,0.8608579,-0.91741943,-0.035339355,-0.36853027,0.13085938,0.12890625,0.036132812,6.4484396,-10.462415,-1.2179575,17.822428,1.0322876,-0.08081055,-0.11663818,-0.038085938,0.040039062,0.06640625,4.3538365,-9.790831,-58.222652,17.788536,0.4177246,-0.29266357,0.8602905,-0.015625,0.047851562,0.00390625,9.3107395,-15.380769,-130.02216,17.4412,0.0,0.0,0.0,0.0,0.0,0.0,0.0,-33.798985,-130.64479,9.664291,0.0,0.0,0.0,0.0,0.0,0.0,0.0,-5.5740447,44.651108,-0.22077918,
0.7421874889405445,38,-0.029174805,0.80352783,0.51123047,0.018554688,0.044921875,0.083984375,0.0,0.0,0.0,0.0,0.0,0.0,0.0,0.0,0.0,0.0,0.0,0.50604314,0.05791352,-0.8604963,-1.0061035,0.0491333,-0.022888184,-0.09765625,-0.03515625,-0.0048828125,2.6645477,10.476661,1.1989894,-17.814941,0.9939575,-0.18383789,-0.1675415,-0.013671875,0.016601562,-0.001953125,4.004137,14.912298,-55.63356,-17.082134,-0.46374512,-0.33966064,0.8167114,-0.01171875,0.041992188,0.017578125,6.375844,14.667898,-127.64528,-17.30247,0.0,0.0,0.0,0.0,0.0,0.0,0.0,-2.5150986,-126.38222,-27.437454,0.0,0.0,0.0,0.0,0.0,0.0,0.0,-0.50604314,-0.05791352,0.8604963,-0.9100342,-0.010803223,-0.3762207,0.015625,-0.0234375,-0.00390625,6.370183,-10.476661,-1.1989894,17.814941,0.9888916,-0.039245605,-0.10913086,-0.038085938,0.040039062,0.06640625,4.4014416,-9.742822,-58.2006,17.786049,0.40319824,-0.29956055,0.8800659,-0.016601562,0.029296875,0.022460938,9.363028,-15.313675,-129.99933,17.401278,0.0,0.0,0.0,0.0,0.0,0.0,0.0,-33.72979,-130.63792,9.619854,0.0,0.0,0.0,0.0,0.0,0.0,0.0,-5.559553,44.651917,-0.26429415,
0.7617187386495062,39,-0.039123535,0.8128052,0.522522,0.018554688,0.04296875,0.029296875,0.0,0.0,0.0,0.0,0.0,0.0,0.0,0.0,0.0,0.0,0.0,0.5054809,0.057740267,-0.8609205,-0.9727173,0.06768799,0.0043945312,-0.041015625,-0.03515625,0.013671875,2.7159164,10.465022,1.1954025,-17.823723,0.9960327,-0.14575195,-0.15447998,-0.013671875,0.0546875,-0.001953125,3.9427783,14.83374,-55.63775,-17.09841,-0.473938,-0.35205078,0.79797363,-0.01171875,0.04296875,0.037109375,6.3395143,14.581496,-127.6504,-17.316679,0.0,0.0,0.0,0.0,0.0,0.0,0.0,-2.5953264,-126.38887,-27.461424,0.0,0.0,0.0,0.0,0.0,0.0,0.0,-0.5054809,-0.057740267,0.8609205,-0.92523193,-0.017822266,-0.39788818,-0.11816406,-0.0390625,-0.022460938,6.3647327,-10.465022,-1.1954025,17.823723,0.9949341,-0.044311523,-0.10333252,-0.0390625,0.040039062,0.046875,4.343027,-9.738125,-58.201283,17.759539,0.40515137,-0.3314209,0.866272,-0.052734375,0.068359375,-0.07128906,9.159484,-15.244329,-130.00012,17.348763,0.0,0.0,0.0,0.0,0.0,0.0,0.0,-33.678642,-130.632,9.609049,0.0,0.0,0.0,0.0,0.0,0.0,0.0,-5.5486574,44.656494,-0.26281524,
0.7812499883584679,40,-0.052490234,0.795166,0.49987793,-0.01953125,0.08300781,0.06738281,0.0,0.0,0.0,0.0,0.0,0.0,0.0,0.0,0.0,0.0,0.0,0.5053519,0.057398748,-0.8611165,-0.9593506,0.06011963,-0.01965332,-0.041015625,0.0029296875,0.0146484375,2.7855127,10.462351,1.188332,-17.827782,0.98864746,-0.15820312,-0.15441895,-0.06933594,0.055664062,0.015625,3.822696,14.737757,-55.655308,-17.117249,-0.46569824,-0.33758545,0.8117676,-0.01171875,0.024414062,0.018554688,6.393104,14.516259,-127.673706,-17.333931,0.0,0.0,0.0,0.0,0.0,0.0,0.0,-2.657508,-126.41632,-27.485804,0.0,0.0,0.0,0.0,0.0,0.0,0.0,-0.5053519,-0.057398748,0.8611165,-0.9312134,-0.016052246,-0.38604736,0.07324219,0.111328125,-0.0048828125,6.294447,-10.462351,-1.188332,17.827782,1.032898,-0.053833008,-0.08917236,-0.05859375,0.05859375,0.046875,4.362241,-9.684269,-58.190434,17.748056,0.38897705,-0.28527832,0.87713623,-0.07128906,0.06933594,-0.16503906,8.955084,-15.150557,-129.99507,17.358137,0.0,0.0,0.0,0.0,0.0,0.0,0.0,-33.61097,-130.63284,9.680894,0.0,0.0,0.0,0.0,0.0,0.0,0.0,-5.5330524,44.66219,-0.27009702,
0.8007812380674296,41,-0.034973145,0.78985596,0.5262451,-0.018554688,0.1015625,0.048828125,0.0,0.0,0.0,0.0,0.0,0.0,0.0,0.0,0.0,0.0,0.0,0.50561833,0.058275584,-0.86089104,-0.9998779,0.026245117,-0.05706787,-0.060546875,0.022460938,0.0146484375,2.7598147,10.467869,1.2064852,-17.823114,1.0256958,-0.16937256,-0.1807251,-0.03125,0.03515625,0.036132812,3.847867,14.778681,-55.633026,-17.069653,-0.47381592,-0.34124756,0.80389404,-0.01171875,0.041992188,0.017578125,6.470782,14.583936,-127.64831,-17.327599,0.0,0.0,0.0,0.0,0.0,0.0,0.0,-2.5966215,-126.388596,-27.468382,0.0,0.0,0.0,0.0,0.0,0.0,0.0,-0.50561833,-0.058275584,0.86089104,-0.960022,0.0095825195,-0.33081055,-0.11816406,0.01953125,-0.022460938,6.3198137,-10.467869,-1.2064852,17.823114,1.0245972,-0.07373047,-0.101745605,0.01953125,0.0390625,0.06542969,4.354242,-9.723191,-58.210842,17.719881,0.39300537,-0.3012085,0.86535645,-0.091796875,0.06933594,-0.052734375,9.052865,-15.2226925,-130.02213,17.329071,0.0,0.0,0.0,0.0,0.0,0.0,0.0,-33.684166,-130.68498,9.65926,0.0,0.0,0.0,0.0,0.0,0.0,0.0,-5.5284567,44.66262,-0.2236625,
0.8203124877763913,42,-0.048095703,0.8240967,0.53582764,0.0390625,0.0625,0.06542969,0.0,0.0,0.0,0.0,0.0,0.0,0.0,0.0,0.0,0.0,0.0,0.5055831,0.059102975,-0.86076874,-0.9957886,0.074157715,-0.0154418945,-0.07910156,-0.015625,0.0146484375,2.731655,10.467136,1.2236148,-17.820581,1.0214233,-0.18011475,-0.15679932,0.005859375,0.07324219,0.017578125,3.8698397,14.7944145,-55.61818,-17.068233,-0.46154785,-0.3307495,0.7959595,-0.01171875,0.024414062,0.0,6.467023,14.598714,-127.63512,-17.365208,0.0,0.0,0.0,0.0,0.0,0.0,0.0,-2.5830336,-126.37129,-27.501478,0.0,0.0,0.0,0.0,0.0,0.0,0.0,-0.5055831,-0.059102975,0.86076874,-0.92822266,-0.017700195,-0.31921387,-0.21386719,-0.13378906,-0.041992188,6.489875,-10.467136,-1.2236148,17.820581,1.031311,-0.044799805,-0.07043457,0.0,0.0390625,0.06542969,4.162407,-9.922286,-58.22811,17.747852,0.3951416,-0.27941895,0.8811035,-0.09082031,0.05078125,-0.12792969,8.922049,-15.432602,-130.03696,17.37589,0.0,0.0,0.0,0.0,0.0,0.0,0.0,-33.92018,-130.69838,9.771423,0.0,0.0,0.0,0.0,0.0,0.0,0.0,-5.508418,44.661953,-0.16881299,
0.839843737485353,43,-0.019104004,0.79626465,0.5059204,0.016601562,-0.0126953125,0.083984375,0.0,0.0,0.0,0.0,0.0,0.0,0.0,0.0,0.0,0.0,0.0,0.50531816,0.05864827,-0.8609931,-0.97351074,0.07183838,-0.011474609,-0.041992188,-0.09277344,0.032226562,2.8037243,10.461651,1.2142011,-17.825226,0.9807129,-0.18621826,-0.17041016,0.005859375,0.03515625,0.017578125,3.7427711,14.689879,-55.635788,-17.124954,-0.46984863,-0.34716797,0.7871094,-0.01171875,0.041992188,0.017578125,6.507858,14.532131,-127.64835,-17.500298,0.0,0.0,0.0,0.0,0.0,0.0,0.0,-2.6415749,-126.38539,-27.648363,0.0,0.0,0.0,0.0,0.0,0.0,0.0,-0.50531816,-0.05864827,0.8609931,-0.93078613,0.0178833,-0.3307495,-0.0029296875,0.0546875,-0.00390625,6.5043316,-10.461651,-1.2142011,17.825226,1.0045166,-0.061462402,-0.11920166,-0.057617188,0.021484375,0.06640625,4.139572,-9.944014,-58.22296,17.76473,0.40942383,-0.2876587,0.8800659,-0.09082031,0.06933594,-0.07128906,8.91989,-15.458625,-130.02202,17.378103,0.0,0.0,0.0,0.0,0.0,0.0,0.0,-33.95327,-130.69267,9.788759,0.0,0.0,0.0,0.0,0.0,0.0,0.0,-5.498246,44.66461,-0.1845088,
0.8593749871943147,44,-0.013183594,0.80200195,0.49487305,0.01953125,0.06347656,0.08496094,0.0,0.0,0.0,0.0,0.0,0.0,0.0,0.0,0.0,0.0,0.0,0.5058912,0.057005,-0.8606284,-0.96954346,0.063964844,-0.009643555,-0.07910156,0.0029296875,0.033203125,2.831652,10.4735155,1.1801803,-17.817677,0.9911499,-0.17590332,-0.16052246,0.06347656,0.0146484375,0.0390625,3.6586967,14.621169,-55.67329,-17.153915,-0.4706421,-0.3324585,0.79992676,-0.03125,0.04296875,-9.765625E-4,6.465173,14.470268,-127.68857,-17.58502,0.0,0.0,0.0,0.0,0.0,0.0,0.0,-2.6966667,-126.42978,-27.745443,0.0,0.0,0.0,0.0,0.0,0.0,0.0,-0.5058912,-0.057005,0.8606284,-0.9234619,0.03778076,-0.35028076,-0.060546875,0.037109375,-0.043945312,6.485976,-10.4735155,-1.1801803,17.817677,1.0326538,-0.033935547,-0.11798096,-0.0390625,0.07714844,0.06542969,4.091942,-9.967404,-58.18725,17.772655,0.41357422,-0.29260254,0.866272,-0.016601562,0.029296875,0.00390625,8.8208475,-15.437395,-130.00102,17.373543,0.0,0.0,0.0,0.0,0.0,0.0,0.0,-33.938564,-130.67766,9.798441,0.0,0.0,0.0,0.0,0.0,0.0,0.0,-5.471112,44.662186,-0.25774157,
0.8789062369032764,45,-0.030578613,0.7854614,0.47332764,0.020507812,0.10253906,0.103515625,0.0,0.0,0.0,0.0,0.0,0.0,0.0,0.0,0.0,0.0,0.0,0.50777,0.05560846,-0.85967314,-1.0122681,0.016479492,-0.0423584,-0.19238281,0.041015625,0.0146484375,2.772976,10.512412,1.1512675,-17.7979,0.9644165,-0.15527344,-0.15118408,0.08300781,0.033203125,0.057617188,3.700946,14.663588,-55.70279,-17.076557,-0.47601318,-0.3577881,0.77923584,-0.01171875,0.024414062,0.0,6.52017,14.484321,-127.717445,-17.54711,0.0,0.0,0.0,0.0,0.0,0.0,0.0,-2.6755934,-126.46183,-27.722769,0.0,0.0,0.0,0.0,0.0,0.0,0.0,-0.50777,-0.05560846,0.85967314,-0.9248657,0.0076904297,-0.31903076,-0.27148438,-0.13183594,-0.041992188,6.5736356,-10.512412,-1.1512675,17.7979,1.0150146,-0.08959961,-0.13696289,-0.057617188,0.021484375,0.047851562,3.924209,-10.142196,-58.160767,17.755499,0.38885498,-0.30725098,0.8781738,-0.016601562,0.029296875,0.00390625,8.704051,-15.570425,-129.96921,17.293673,0.0,0.0,0.0,0.0,0.0,0.0,0.0,-34.08169,-130.65073,9.745731,0.0,0.0,0.0,0.0,0.0,0.0,0.0,-5.4297366,44.669197,-0.31764638,
0.8984374866122381,46,-0.0051879883,0.7988281,0.49169922,0.060546875,0.12011719,0.10253906,0.0,0.0,0.0,0.0,0.0,0.0,0.0,0.0,0.0,0.0,0.0,0.50829405,0.053664513,-0.859345,-0.9888916,0.062194824,-7.324219E-4,-0.2109375,0.041015625,-0.0234375,2.6651354,10.523262,1.1110219,-17.791105,0.99005127,-0.14758301,-0.12750244,0.099609375,0.034179688,9.765625E-4,3.737536,14.687609,-55.741177,-17.02159,-0.46209717,-0.36035156,0.8118286,-0.01171875,0.024414062,0.0,6.6052704,14.4910555,-127.754196,-17.48734,0.0,0.0,0.0,0.0,0.0,0.0,0.0,-2.6762037,-126.503845,-27.649954,0.0,0.0,0.0,0.0,0.0,0.0,0.0,-0.50829405,-0.053664513,0.859345,-0.91607666,-0.011657715,-0.33496094,-0.09863281,0.038085938,-0.06347656,6.53909,-10.523262,-1.1110219,17.791105,1.0142822,-0.061645508,-0.13323975,-0.038085938,0.040039062,0.06640625,3.8115644,-10.2020645,-58.117447,17.7244,0.39709473,-0.29736328,0.8721924,-0.0546875,0.0107421875,0.041992188,8.529909,-15.548807,-129.93,17.210464,0.0,0.0,0.0,0.0,0.0,0.0,0.0,-34.06681,-130.62134,9.6804905,0.0,0.0,0.0,0.0,0.0,0.0,0.0,-5.3574944,44.671913,-0.3792262,
0.9179687363211998,47,-0.024169922,0.7854614,0.49902344,0.04296875,0.17773438,0.08496094,0.0,0.0,0.0,0.0,0.0,0.0,0.0,0.0,0.0,0.0,0.0,0.51061344,0.052588824,-0.8579993,-0.9884033,0.051574707,0.049865723,-0.1171875,-0.03515625,0.013671875,2.7631462,10.571282,1.0887518,-17.763247,0.9892578,-0.13269043,-0.16729736,0.025390625,0.03515625,0.037109375,3.5798743,14.567221,-55.770863,-16.987337,-0.46765137,-0.33258057,0.81274414,-0.049804688,0.025390625,0.017578125,6.683368,14.35004,-127.78526,-17.396933,0.0,0.0,0.0,0.0,0.0,0.0,0.0,-2.8224525,-126.5385,-27.55141,0.0,0.0,0.0,0.0,0.0,0.0,0.0,-0.51061344,-0.052588824,0.8579993,-0.92193604,0.0017700195,-0.36138916,0.0546875,0.19042969,-0.024414062,6.362268,-10.571282,-1.0887518,17.763247,1.0325928,-0.073791504,-0.10089111,-0.057617188,0.040039062,0.046875,3.9244585,-10.132816,-58.09621,17.67295,0.41955566,-0.30993652,0.88690186,-0.016601562,0.028320312,0.041015625,8.462575,-15.472966,-129.91568,17.105364,0.0,0.0,0.0,0.0,0.0,0.0,0.0,-33.998764,-130.607,9.596146,0.0,0.0,0.0,0.0,0.0,0.0,0.0,-5.3054547,44.676365,-0.41906726,
0.9374999860301615,48,-0.039367676,0.8017578,0.5005493,0.00390625,0.19726562,0.0859375,0.0,0.0,0.0,0.0,0.0,0.0,0.0,0.0,0.0,0.0,0.0,0.5136781,0.05230183,-0.85615903,-0.94555664,0.028442383,7.9345703E-4,-0.09765625,0.041015625,-0.00390625,2.8094435,10.6347275,1.0828102,-17.725147,0.9796753,-0.18719482,-0.1694336,0.005859375,0.03515625,0.017578125,3.4922218,14.508125,-55.791298,-16.933086,-0.46868896,-0.3383789,0.78808594,0.0068359375,0.005859375,0.018554688,6.6043205,14.250075,-127.80241,-17.335268,0.0,0.0,0.0,0.0,0.0,0.0,0.0,-2.9208422,-126.56038,-27.492016,0.0,0.0,0.0,0.0,0.0,0.0,0.0,-0.5136781,-0.05230183,0.85615903,-0.94970703,0.030578613,-0.3581543,-0.1171875,0.13671875,-0.04296875,6.1730146,-10.6347275,-1.0828102,17.725147,1.0090332,-0.041503906,-0.095703125,0.01953125,0.020507812,0.02734375,4.075397,-10.068587,-58.089718,17.481411,0.39715576,-0.2972412,0.85943604,-0.016601562,0.009765625,0.060546875,8.504776,-15.441329,-129.90686,16.886791,0.0,0.0,0.0,0.0,0.0,0.0,0.0,-33.975353,-130.59875,9.397802,0.0,0.0,0.0,0.0,0.0,0.0,0.0,-5.2436457,44.682644,-0.4164667,
0.9570312357391232,49,-0.061523438,0.81433105,0.5101929,0.080078125,0.13964844,0.12011719,0.0,0.0,0.0,0.0,0.0,0.0,0.0,0.0,0.0,0.0,0.0,0.5162765,0.05174082,-0.8548065,-1.0264282,4.272461E-4,-0.059570312,-0.15429688,0.060546875,-0.00390625,2.708555,10.688525,1.0711955,-17.697145,1.0248413,-0.16955566,-0.1348877,0.0625,0.034179688,0.01953125,3.5791082,14.58213,-55.797188,-16.824465,-0.47454834,-0.32843018,0.8048706,0.0078125,-0.030273438,0.0,6.550146,14.263759,-127.81005,-17.238605,0.0,0.0,0.0,0.0,0.0,0.0,0.0,-2.9034796,-126.571785,-27.403114,0.0,0.0,0.0,0.0,0.0,0.0,0.0,-0.5162765,-0.05174082,0.8548065,-0.9368286,0.015380859,-0.34552002,-0.27148438,-0.0146484375,-0.061523438,6.1233344,-10.688525,-1.0711955,17.697145,1.0228882,-0.047729492,-0.09790039,0.038085938,0.057617188,0.045898438,4.0220456,-10.150062,-58.074154,17.372553,0.3930664,-0.2991333,0.8574829,0.001953125,0.0087890625,0.059570312,8.401791,-15.489068,-129.88747,16.79116,0.0,0.0,0.0,0.0,0.0,0.0,0.0,-34.03383,-130.57085,9.326035,0.0,0.0,0.0,0.0,0.0,0.0,0.0,-5.174672,44.697536,-0.41983104,
0.9765624854480849,50,-0.058654785,0.7852783,0.4869995,0.01953125,0.064453125,0.12109375,0.0,0.0,0.0,0.0,0.0,0.0,0.0,0.0,0.0,0.0,0.0,0.5177445,0.051256124,-0.85392785,-1.0003662,0.04168701,0.01184082,-0.13574219,0.0029296875,-0.0048828125,2.5977426,10.718916,1.0611608,-17.678955,1.0119629,-0.15618896,-0.15563965,0.0048828125,0.0546875,-0.020507812,3.6109152,14.646609,-55.80301,-16.739573,-0.49206543,-0.352417,0.79107666,-0.01171875,-0.01171875,0.018554688,6.566502,14.343448,-127.81488,-17.120142,0.0,0.0,0.0,0.0,0.0,0.0,0.0,-2.8252954,-126.57907,-27.281065,0.0,0.0,0.0,0.0,0.0,0.0,0.0,-0.5177445,-0.051256124,0.85392785,-0.9526367,-0.03753662,-0.32922363,-0.13769531,-0.07714844,-0.06347656,6.1149087,-10.718916,-1.0611608,17.678955,1.0368652,-0.06982422,-0.08227539,0.0390625,0.0390625,0.06542969,3.9588873,-10.268168,-58.064716,17.402044,0.40338135,-0.26568604,0.8898926,-0.053710938,0.030273438,-0.034179688,8.490332,-15.638619,-129.8837,16.884466,0.0,0.0,0.0,0.0,0.0,0.0,0.0,-34.184883,-130.57199,9.420715,0.0,0.0,0.0,0.0,0.0,0.0,0.0,-5.105389,44.70482,-0.41208565,
0.9960937351570466,51,-0.06439209,0.8045044,0.51519775,0.0,0.064453125,0.103515625,0.0,0.0,0.0,0.0,0.0,0.0,0.0,0.0,0.0,0.0,0.0,0.51917374,0.051125154,-0.85306615,-0.973999,0.07098389,0.041259766,-0.041015625,-0.015625,-0.0048828125,2.6918821,10.748506,1.0584491,-17.661112,0.9647827,-0.13848877,-0.17706299,0.005859375,0.015625,0.037109375,3.434959,14.545218,-55.814743,-16.755955,-0.49291992,-0.3416748,0.8157959,-0.01171875,-0.030273438,0.018554688,6.6957693,14.280134,-127.83026,-17.082708,0.0,0.0,0.0,0.0,0.0,0.0,0.0,-2.8855114,-126.59487,-27.24822,0.0,0.0,0.0,0.0,0.0,0.0,0.0,-0.51917374,-0.051125154,0.85306615,-0.9303589,-0.028076172,-0.37335205,-0.0029296875,0.07421875,-0.024414062,6.04387,-10.748506,-1.0584491,17.661112,1.0252075,-0.057678223,-0.070251465,0.09667969,0.01953125,0.045898438,4.020195,-10.264899,-58.066467,17.44281,0.4013672,-0.2565918,0.88793945,-0.016601562,0.029296875,0.00390625,8.552558,-15.670328,-129.87552,16.976406,0.0,0.0,0.0,0.0,0.0,0.0,0.0,-34.217575,-130.57324,9.521067,0.0,0.0,0.0,0.0,0.0,0.0,0.0,-5.0810175,44.70754,-0.4129238,
1.0156249848660084,52,-0.053527832,0.8200073,0.5020752,-0.001953125,0.026367188,0.12109375,0.0,0.0,0.0,0.0,0.0,0.0,0.0,0.0,0.0,0.0,0.0,0.5207763,0.050173193,-0.852179,-0.9686279,0.041748047,-0.019958496,-0.09765625,0.059570312,0.034179688,2.6849651,10.781683,1.0387406,-17.642746,0.9979248,-0.14971924,-0.16345215,0.0068359375,0.03515625,0.055664062,3.3943644,14.547419,-55.838566,-16.718586,-0.4616089,-0.33087158,0.82263184,-0.01171875,-0.01171875,0.037109375,6.8207874,14.305711,-127.84839,-17.065845,0.0,0.0,0.0,0.0,0.0,0.0,0.0,-2.8698034,-126.6084,-27.214413,0.0,0.0,0.0,0.0,0.0,0.0,0.0,-0.5207763,-0.050173193,0.852179,-0.93377686,-0.05517578,-0.3430786,-0.15625,-0.038085938,-0.04296875,5.9705777,-10.781683,-1.0387406,17.642746,1.0090332,-0.029541016,-0.101745605,0.07714844,0.038085938,0.045898438,4.0687604,-10.259126,-58.047,17.490726,0.37261963,-0.28277588,0.86047363,-0.07714844,-0.14160156,0.041015625,8.506946,-15.676244,-129.85732,17.048473,0.0,0.0,0.0,0.0,0.0,0.0,0.0,-34.223965,-130.58246,9.591714,0.0,0.0,0.0,0.0,0.0,0.0,0.0,-5.055111,44.711338,-0.45679498,
1.03515623457497,53,-0.022094727,0.807312,0.50909424,0.017578125,0.025390625,0.083984375,0.0,0.0,0.0,0.0,0.0,0.0,0.0,0.0,0.0,0.0,0.0,0.52223384,0.048509635,-0.85136104,-1.0309448,-0.005126953,-0.014831543,-0.19238281,0.060546875,-0.00390625,2.64301,10.811861,1.0042999,-17.625813,1.0003662,-0.13812256,-0.14154053,0.0625,0.034179688,0.01953125,3.4592683,14.579824,-55.871002,-16.60912,-0.48565674,-0.3300171,0.7989502,-0.01171875,-0.029296875,0.037109375,6.810802,14.27793,-127.88603,-16.921207,0.0,0.0,0.0,0.0,0.0,0.0,0.0,-2.894248,-126.64546,-27.077246,0.0,0.0,0.0,0.0,0.0,0.0,0.0,-0.52223384,-0.048509635,0.85136104,-0.9104004,-0.032714844,-0.32037354,-0.25195312,-0.09375,-0.041992188,6.080057,-10.811861,-1.0042999,17.625813,1.0012817,-0.057373047,-0.07373047,0.01953125,0.020507812,0.046875,3.9458566,-10.431265,-58.011993,17.517977,0.40527344,-0.30950928,0.8712158,-0.020507812,-0.18164062,0.11621094,8.53426,-15.872301,-129.82104,17.1099,0.0,0.0,0.0,0.0,0.0,0.0,0.0,-34.4169,-130.53235,9.648246,0.0,0.0,0.0,0.0,0.0,0.0,0.0,-5.024321,44.71311,-0.5342668,
1.0546874842839318,54,-0.02758789,0.7923584,0.47229004,0.038085938,0.043945312,0.10253906,0.0,0.0,0.0,0.0,0.0,0.0,0.0,0.0,0.0,0.0,0.0,0.5227042,0.04646335,-0.85123146,-1.0134888,0.045776367,0.012939453,-0.15429688,0.0029296875,-0.0048828125,2.6063182,10.821596,0.9619354,-17.62313,0.9961548,-0.14385986,-0.13250732,-0.033203125,0.036132812,-0.0029296875,3.4841952,14.562137,-55.912964,-16.525509,-0.4779663,-0.3461914,0.8375244,0.0078125,-0.01171875,0.038085938,6.802417,14.21229,-127.925964,-16.803879,0.0,0.0,0.0,0.0,0.0,0.0,0.0,-2.9632778,-126.67646,-26.9524,0.0,0.0,0.0,0.0,0.0,0.0,0.0,-0.5227042,-0.04646335,0.85123146,-0.9328613,0.009094238,-0.37213135,0.034179688,-0.043945312,-0.024414062,6.0614243,-10.821596,-0.9619354,17.62313,1.0516357,-0.066101074,-0.09442139,0.09765625,-0.017578125,0.06542969,3.9543343,-10.471294,-57.967354,17.527718,0.42181396,-0.30456543,0.8406372,0.055664062,-0.14550781,0.13476562,8.679418,-15.960661,-129.772,17.103966,0.0,0.0,0.0,0.0,0.0,0.0,0.0,-34.48552,-130.48705,9.591774,0.0,0.0,0.0,0.0,0.0,0.0,0.0,-4.9762845,44.71918,-0.61478186,
1.0742187339928935,55,-0.02508545,0.79748535,0.5100708,-0.020507812,0.045898438,0.08496094,0.0,0.0,0.0,0.0,0.0,0.0,0.0,0.0,0.0,0.0,0.0,0.5238978,0.04525326,-0.8504931,-0.98516846,0.053833008,0.029052734,-0.07910156,-0.03515625,0.013671875,2.6952248,10.846312,0.93688285,-17.607843,0.986145,-0.14056396,-0.12841797,0.0068359375,0.03515625,0.037109375,3.383156,14.469618,-55.946102,-16.529396,-0.46984863,-0.347229,0.79992676,0.0068359375,-0.0126953125,0.018554688,6.786801,14.08971,-127.958145,-16.78359,0.0,0.0,0.0,0.0,0.0,0.0,0.0,-3.0877361,-126.71047,-26.93076,0.0,0.0,0.0,0.0,0.0,0.0,0.0,-0.5238978,-0.04525326,0.8504931,-0.94921875,-0.008361816,-0.366333,-0.099609375,-0.040039062,-0.0234375,6.0753155,-10.846312,-0.93688285,17.607843,1.0276489,-0.048828125,-0.10986328,0.09765625,-0.036132812,0.045898438,3.923311,-10.516044,-57.944565,17.510067,0.3788452,-0.2868042,0.8486328,0.1328125,-0.14648438,0.09667969,8.658345,-15.992025,-129.75319,17.078829,0.0,0.0,0.0,0.0,0.0,0.0,0.0,-34.498848,-130.46646,9.522112,0.0,0.0,0.0,0.0,0.0,0.0,0.0,-4.9613714,44.717262,-0.6768424,
1.0937499837018552,56,-0.039123535,0.8208008,0.52459717,-0.059570312,0.046875,0.10449219,0.0,0.0,0.0,0.0,0.0,0.0,0.0,0.0,0.0,0.0,0.0,0.5259769,0.044369094,-0.84925,-0.97491455,0.041503906,9.765625E-4,-0.07910156,0.022460938,0.0146484375,2.8018386,10.889352,0.9185778,-17.582108,1.0045166,-0.16864014,-0.15264893,-0.032226562,0.016601562,0.016601562,3.296575,14.42341,-55.971935,-16.538141,-0.48199463,-0.34796143,0.8138428,-0.01171875,0.005859375,0.018554688,6.7862806,14.031258,-127.98624,-16.79245,0.0,0.0,0.0,0.0,0.0,0.0,0.0,-3.1427555,-126.74217,-26.943823,0.0,0.0,0.0,0.0,0.0,0.0,0.0,-0.5259769,-0.044369094,0.84925,-0.8921509,-0.02368164,-0.34191895,-0.2529297,-0.15234375,-0.021484375,6.217067,-10.889352,-0.9185778,17.582108,1.0064087,-0.028564453,-0.14117432,9.765625E-4,-0.016601562,0.06640625,3.7424574,-10.673785,-57.929512,17.54842,0.41363525,-0.27972412,0.8751221,0.09472656,-0.10839844,0.15332031,8.75183,-16.063923,-129.74251,17.088428,0.0,0.0,0.0,0.0,0.0,0.0,0.0,-34.53866,-130.49011,9.458227,0.0,0.0,0.0,0.0,0.0,0.0,0.0,-4.980067,44.713837,-0.74829274,
1.1132812334108169,57,-0.024353027,0.81921387,0.4953003,-0.018554688,0.10253906,0.0859375,0.0,0.0,0.0,0.0,0.0,0.0,0.0,0.0,0.0,0.0,0.0,0.5269916,0.043071702,-0.84867644,-0.9984131,-0.003540039,-0.020751953,-0.13574219,0.022460938,-0.0048828125,2.7264907,10.910361,0.89171773,-17.570234,0.9970093,-0.14978027,-0.13452148,0.0625,-0.00390625,0.01953125,3.381709,14.468817,-55.992554,-16.450895,-0.47894287,-0.34320068,0.8286133,-0.01171875,0.0068359375,0.037109375,6.7344084,14.022117,-128.00278,-16.699049,0.0,0.0,0.0,0.0,0.0,0.0,0.0,-3.1481752,-126.75876,-26.855654,0.0,0.0,0.0,0.0,0.0,0.0,0.0,-0.5269916,-0.043071702,0.84867644,-0.9133301,-0.029296875,-0.37634277,-0.13769531,-0.05859375,-0.001953125,6.2713857,-10.910361,-0.89171773,17.570234,1.0003662,-0.02947998,-0.14697266,9.765625E-4,0.001953125,0.06542969,3.5711672,-10.799579,-57.898296,17.5964,0.41748047,-0.31378174,0.8751221,0.11425781,-0.0703125,0.13476562,8.670112,-16.098358,-129.71738,17.063221,0.0,0.0,0.0,0.0,0.0,0.0,0.0,-34.554417,-130.47037,9.389429,0.0,0.0,0.0,0.0,0.0,0.0,0.0,-4.940279,44.716957,-0.7982432,
1.1328124831197786,58,-0.019348145,0.77923584,0.48095703,-0.020507812,0.064453125,0.06738281,0.0,0.0,0.0,0.0,0.0,0.0,0.0,0.0,0.0,0.0,0.0,0.52622736,0.041274875,-0.84926254,-0.9953003,0.033935547,0.004760742,-0.17285156,-0.015625,-0.0048828125,2.6411576,10.894538,0.85451794,-17.582367,1.0089111,-0.1550293,-0.16259766,0.00390625,0.016601562,-0.020507812,3.3869157,14.448786,-56.031693,-16.385483,-0.47973633,-0.3361206,0.8048706,-0.01171875,0.041992188,0.017578125,6.8029933,14.009982,-128.04657,-16.603176,0.0,0.0,0.0,0.0,0.0,0.0,0.0,-3.1631422,-126.79926,-26.75681,0.0,0.0,0.0,0.0,0.0,0.0,0.0,-0.52622736,-0.041274875,0.84926254,-0.93518066,-0.012268066,-0.3762207,0.053710938,0.053710938,0.036132812,6.169552,-10.894538,-0.85451794,17.582367,1.0042114,-0.053527832,-0.14294434,-0.057617188,0.0029296875,0.047851562,3.5026343,-10.764304,-57.86534,17.623745,0.40338135,-0.2814331,0.8633423,0.13378906,-0.08984375,0.15332031,8.743724,-15.940781,-129.6949,16.973799,0.0,0.0,0.0,0.0,0.0,0.0,0.0,-34.36267,-130.4807,9.222021,0.0,0.0,0.0,0.0,0.0,0.0,0.0,-4.8695326,44.724754,-0.8436408,
1.1523437328287403,59,-0.044921875,0.8260498,0.5437012,-0.01953125,0.083984375,0.103515625,0.0,0.0,0.0,0.0,0.0,0.0,0.0,0.0,0.0,0.0,0.0,0.5286016,0.040939156,-0.8478177,-0.973999,0.051818848,0.024047852,-0.060546875,-0.07324219,0.033203125,2.730795,10.943692,0.8475675,-17.552454,0.979126,-0.13323975,-0.16723633,0.005859375,-0.0029296875,0.037109375,3.1937146,14.394153,-56.045906,-16.381943,-0.496521,-0.32086182,0.80584717,-0.01171875,0.0068359375,0.07421875,7.026074,14.055952,-128.05804,-16.561987,0.0,0.0,0.0,0.0,0.0,0.0,0.0,-3.1171265,-126.80702,-26.713087,0.0,0.0,0.0,0.0,0.0,0.0,0.0,-0.5286016,-0.040939156,0.8478177,-0.9423218,-0.021606445,-0.39001465,-0.00390625,0.03515625,0.016601562,6.109585,-10.943692,-0.8475675,17.552454,1.0356445,-0.075927734,-0.16119385,0.0,0.020507812,0.046875,3.4939594,-10.76126,-57.858944,17.60271,0.41973877,-0.2878418,0.8760376,0.15234375,-0.09082031,0.15332031,8.776574,-15.847824,-129.69556,16.848713,0.0,0.0,0.0,0.0,0.0,0.0,0.0,-34.24366,-130.50714,9.036407,0.0,0.0,0.0,0.0,0.0,0.0,0.0,-4.8596387,44.725883,-0.8702021,
1.171874982537702,60,-0.02923584,0.80352783,0.5062866,-0.01953125,0.08300781,0.06738281,0.0,0.0,0.0,0.0,0.0,0.0,0.0,0.0,0.0,0.0,0.0,0.52908236,0.040473957,-0.8475714,-0.9796753,0.040161133,-0.032958984,-0.060546875,0.022460938,0.0146484375,2.741026,10.953644,0.8379363,-17.547356,0.9971924,-0.1751709,-0.1675415,-0.06933594,0.017578125,0.03515625,3.1155217,14.372301,-56.052464,-16.358011,-0.47979736,-0.34106445,0.8029175,0.0068359375,0.005859375,0.037109375,7.105255,14.114155,-128.06621,-16.570024,0.0,0.0,0.0,0.0,0.0,0.0,0.0,-3.0518875,-126.81651,-26.735094,0.0,0.0,0.0,0.0,0.0,0.0,0.0,-0.52908236,-0.040473957,0.8475714,-0.90802,-0.010803223,-0.37719727,-0.080078125,-9.765625E-4,-0.0234375,6.0181594,-10.953644,-0.8379363,17.547356,1.0150146,-0.02178955,-0.16802979,0.038085938,0.057617188,0.045898438,3.4843078,-10.6832485,-57.846157,17.528763,0.42193604,-0.27374268,0.8602905,0.15234375,-0.07128906,0.171875,8.887476,-15.65003,-129.68419,16.723434,0.0,0.0,0.0,0.0,0.0,0.0,0.0,-34.00476,-130.54065,8.818647,0.0,0.0,0.0,0.0,0.0,0.0,0.0,-4.8430448,44.72855,-0.887274,
1.1914062322466636,61,-0.040771484,0.8145752,0.47583008,0.018554688,0.044921875,0.083984375,0.0,0.0,0.0,0.0,0.0,0.0,0.0,0.0,0.0,0.0,0.0,0.52806187,0.04011106,-0.8481761,-1.0001221,0.011474609,-0.043395996,-0.09765625,0.041015625,0.0146484375,2.6506271,10.932518,0.83042336,-17.559877,1.0131836,-0.18060303,-0.18566895,0.024414062,0.03515625,0.018554688,3.145165,14.401936,-56.060028,-16.308344,-0.46655273,-0.32678223,0.82263184,-0.01171875,0.005859375,0.0,7.189192,14.216092,-128.07568,-16.581177,0.0,0.0,0.0,0.0,0.0,0.0,0.0,-2.945325,-126.82209,-26.753147,0.0,0.0,0.0,0.0,0.0,0.0,0.0,-0.52806187,-0.04011106,0.8481761,-0.9180908,-0.010375977,-0.34674072,-0.099609375,-9.765625E-4,-0.0029296875,5.9397683,-10.932518,-0.83042336,17.559877,1.0048828,-0.04547119,-0.10546875,-0.0390625,0.05859375,0.046875,3.4466805,-10.6275215,-57.841408,17.545803,0.41351318,-0.28875732,0.8790283,0.09667969,-0.05078125,0.09667969,8.834066,-15.499732,-129.68462,16.722471,0.0,0.0,0.0,0.0,0.0,0.0,0.0,-33.839996,-130.55785,8.786156,0.0,0.0,0.0,0.0,0.0,0.0,0.0,-4.8098907,44.73042,-0.87922263,
1.2109374819556253,62,-0.044555664,0.796875,0.49072266,0.057617188,0.0234375,0.046875,0.0,0.0,0.0,0.0,0.0,0.0,0.0,0.0,0.0,0.0,0.0,0.5274234,0.039638877,-0.8487284,-1.0012207,0.04876709,-0.001953125,-0.09765625,0.041015625,-0.00390625,2.5941234,10.9193,0.8206476,-17.571308,1.005127,-0.14807129,-0.14758301,0.025390625,0.03515625,0.037109375,3.1649587,14.386467,-56.069057,-16.288334,-0.47668457,-0.33422852,0.8009033,-0.01171875,-0.01171875,0.018554688,7.2176805,14.184694,-128.08145,-16.556936,0.0,0.0,0.0,0.0,0.0,0.0,0.0,-2.9745445,-126.820145,-26.729921,0.0,0.0,0.0,0.0,0.0,0.0,0.0,-0.5274234,-0.039638877,0.8487284,-0.9406738,-0.046569824,-0.33026123,-0.041992188,0.037109375,-0.0234375,5.8368053,-10.9193,-0.8206476,17.571308,1.0222168,-0.06072998,-0.13336182,0.0,0.001953125,0.046875,3.4728255,-10.597963,-57.828007,17.689623,0.4197998,-0.2836914,0.8602905,0.05859375,-0.01171875,0.11621094,8.891565,-15.447889,-129.67297,16.802395,0.0,0.0,0.0,0.0,0.0,0.0,0.0,-33.769844,-130.55318,8.826847,0.0,0.0,0.0,0.0,0.0,0.0,0.0,-4.7623606,44.740788,-0.8698962,
1.230468731664587,63,-0.047424316,0.80200195,0.50177,0.017578125,0.005859375,0.06542969,0.0,0.0,0.0,0.0,0.0,0.0,0.0,0.0,0.0,0.0,0.0,0.5267171,0.03981739,-0.84907013,-0.98809814,0.053222656,0.010070801,0.015625,0.00390625,-0.0048828125,2.6293478,10.904677,0.8243435,-17.578384,0.9935913,-0.1270752,-0.14239502,-0.032226562,0.036132812,0.016601562,3.0476747,14.3085,-56.067516,-16.314957,-0.48480225,-0.3380127,0.81085205,-0.01171875,-0.030273438,0.018554688,7.272974,14.155275,-128.0842,-16.530687,0.0,0.0,0.0,0.0,0.0,0.0,0.0,-2.9963036,-126.82498,-26.718962,0.0,0.0,0.0,0.0,0.0,0.0,0.0,-0.5267171,-0.03981739,0.84907013,-0.94403076,4.272461E-4,-0.3682251,-0.0029296875,0.07421875,-0.024414062,5.7872305,-10.904677,-0.8243435,17.578384,1.0318604,-0.07788086,-0.14428711,-9.765625E-4,0.076171875,0.02734375,3.4524133,-10.573452,-57.833435,17.725992,0.40441895,-0.27947998,0.86724854,0.07714844,-0.03125,0.11621094,8.815902,-15.368537,-129.68164,16.789251,0.0,0.0,0.0,0.0,0.0,0.0,0.0,-33.680634,-130.56017,8.78756,0.0,0.0,0.0,0.0,0.0,0.0,0.0,-4.7390027,44.740414,-0.8417058,
1.2499999813735487,64,-0.04333496,0.81781006,0.51275635,-0.020507812,0.06347656,0.048828125,0.0,0.0,0.0,0.0,0.0,0.0,0.0,0.0,0.0,0.0,0.0,0.5264026,0.03961881,-0.84926695,-0.98394775,0.040893555,-0.012023926,-0.00390625,0.041015625,0.034179688,2.6326213,10.898166,0.8202322,-17.582458,0.9932251,-0.17803955,-0.13562012,-0.05078125,0.036132812,0.03515625,3.0488305,14.274437,-56.07133,-16.319153,-0.47265625,-0.3324585,0.81573486,-0.049804688,0.0068359375,-9.765625E-4,7.23633,14.097073,-128.08687,-16.569613,0.0,0.0,0.0,0.0,0.0,0.0,0.0,-3.0600147,-126.82086,-26.74556,0.0,0.0,0.0,0.0,0.0,0.0,0.0,-0.5264026,-0.03961881,0.84926695,-0.9321289,-0.009338379,-0.38012695,-0.07910156,0.09667969,-0.0234375,5.655686,-10.898166,-0.8202322,17.582458,1.0206909,-0.02178955,-0.12176514,0.0,0.057617188,0.06542969,3.5232008,-10.438627,-57.829914,17.611095,0.38793945,-0.28131104,0.8840332,0.05859375,-0.01171875,0.078125,8.753155,-15.185793,-129.6825,16.655031,0.0,0.0,0.0,0.0,0.0,0.0,0.0,-33.490807,-130.55435,8.639725,0.0,0.0,0.0,0.0,0.0,0.0,0.0,-4.719714,44.742233,-0.83817714,
1.2695312310825104,65,-0.020324707,0.7852783,0.4869995,-0.041015625,0.025390625,0.03125,0.0,0.0,0.0,0.0,0.0,0.0,0.0,0.0,0.0,0.0,0.0,0.5265027,0.039409623,-0.8492178,-1.0197144,0.003479004,-0.013671875,-0.07910156,0.022460938,0.0146484375,2.6012816,10.900238,0.8159013,-17.581442,1.0094604,-0.17572021,-0.14074707,-0.0126953125,0.03515625,0.036132812,3.1301281,14.295954,-56.078327,-16.273767,-0.49169922,-0.32891846,0.8078613,-0.049804688,0.0068359375,-9.765625E-4,7.141003,14.066251,-128.09192,-16.554829,0.0,0.0,0.0,0.0,0.0,0.0,0.0,-3.0788107,-126.8258,-26.750668,0.0,0.0,0.0,0.0,0.0,0.0,0.0,-0.5265027,-0.039409623,0.8492178,-0.9168701,0.005493164,-0.3564453,-0.119140625,-0.05859375,0.038085938,5.65915,-10.900238,-0.8159013,17.581442,1.022522,-0.045776367,-0.12164307,-0.07714844,0.022460938,0.047851562,3.4825654,-10.457977,-57.825226,17.60632,0.43829346,-0.28503418,0.85827637,-0.015625,0.0859375,0.041015625,8.666577,-15.173596,-129.68051,16.63708,0.0,0.0,0.0,0.0,0.0,0.0,0.0,-33.48129,-130.55376,8.626289,0.0,0.0,0.0,0.0,0.0,0.0,0.0,-4.7076116,44.743557,-0.8422384,
1.2890624807914721,66,-0.019226074,0.79522705,0.49401855,-0.0029296875,-0.013671875,0.01171875,0.0,0.0,0.0,0.0,0.0,0.0,0.0,0.0,0.0,0.0,0.0,0.5271273,0.0395809,-0.84883225,-1.003418,0.049316406,0.022949219,-0.022460938,-0.015625,0.0146484375,2.6549807,10.913168,0.81944734,-17.57346,0.9918823,-0.15246582,-0.13848877,-0.0126953125,0.036132812,0.017578125,3.090095,14.249261,-56.073143,-16.24644,-0.44903564,-0.35888672,0.82666016,-0.01171875,0.024414062,0.0,7.147511,14.000956,-128.09058,-16.509798,0.0,0.0,0.0,0.0,0.0,0.0,0.0,-3.1447773,-126.81533,-26.70494,0.0,0.0,0.0,0.0,0.0,0.0,0.0,-0.5271273,-0.0395809,0.84883225,-0.9064331,-0.038391113,-0.33117676,-0.00390625,0.03515625,0.016601562,5.663651,-10.913168,-0.81944734,17.57346,1.0283813,-0.049865723,-0.12762451,-0.09667969,0.059570312,0.06640625,3.4370103,-10.502778,-57.827095,17.690252,0.40545654,-0.265625,0.8829956,-0.03515625,0.047851562,0.022460938,8.645156,-15.175278,-129.68974,16.699797,0.0,0.0,0.0,0.0,0.0,0.0,0.0,-33.484898,-130.57211,8.696379,0.0,0.0,0.0,0.0,0.0,0.0,0.0,-4.700848,44.744827,-0.83279663,
1.3085937305004338,67,-0.030456543,0.7954712,0.484375,-0.020507812,0.06347656,0.030273438,0.0,0.0,0.0,0.0,0.0,0.0,0.0,0.0,0.0,0.0,0.0,0.5272052,0.0393456,-0.8488187,-0.98535156,0.042114258,0.033813477,0.034179688,-0.034179688,-0.0048828125,2.716349,10.914781,0.81457585,-17.57318,0.9777832,-0.14794922,-0.15032959,-0.06933594,0.017578125,0.03515625,2.9678807,14.156979,-56.08344,-16.26205,-0.47973633,-0.33514404,0.8018799,-0.01171875,0.024414062,0.018554688,7.1795797,13.930646,-128.09914,-16.485239,0.0,0.0,0.0,0.0,0.0,0.0,0.0,-3.206771,-126.82374,-26.695042,0.0,0.0,0.0,0.0,0.0,0.0,0.0,-0.5272052,-0.0393456,0.8488187,-0.9100952,-0.015197754,-0.35656738,0.09277344,0.11035156,0.015625,5.556543,-10.914781,-0.81457585,17.57318,1.0162964,-0.060668945,-0.1293335,-0.15527344,0.07910156,0.06640625,3.4657147,-10.433297,-57.821404,17.719006,0.39715576,-0.30126953,0.8604126,-0.016601562,0.028320312,0.060546875,8.625368,-15.048473,-129.68684,16.743422,0.0,0.0,0.0,0.0,0.0,0.0,0.0,-33.363567,-130.57939,8.750877,0.0,0.0,0.0,0.0,0.0,0.0,0.0,-4.676168,44.74838,-0.83015203,
1.3281249802093955,68,-0.038330078,0.81073,0.5065918,-0.040039062,0.064453125,0.049804688,0.0,0.0,0.0,0.0,0.0,0.0,0.0,0.0,0.0,0.0,0.0,0.5272596,0.039011072,-0.84876865,-0.98394775,0.028381348,-0.022216797,0.034179688,0.022460938,0.033203125,2.6846006,10.915907,0.80765015,-17.572142,0.9951782,-0.17706299,-0.15057373,-0.05078125,0.036132812,0.015625,2.9679465,14.152628,-56.08937,-16.22685,-0.46350098,-0.3258667,0.817688,-0.01171875,0.024414062,0.018554688,7.1671085,13.939197,-128.10269,-16.456549,0.0,0.0,0.0,0.0,0.0,0.0,0.0,-3.1972742,-126.83241,-26.667976,0.0,0.0,0.0,0.0,0.0,0.0,0.0,-0.5272596,-0.039011072,0.84876865,-0.91986084,0.007385254,-0.39276123,-0.0029296875,0.0546875,-0.024414062,5.464469,-10.915907,-0.80765015,17.572142,1.0142212,-0.08654785,-0.12512207,-0.09667969,0.059570312,0.047851562,3.5137408,-10.374418,-57.817585,17.668541,0.42578125,-0.29797363,0.8800049,-0.03515625,0.029296875,0.00390625,8.724586,-14.983196,-129.6827,16.669188,0.0,0.0,0.0,0.0,0.0,0.0,0.0,-33.296726,-130.58923,8.674819,0.0,0.0,0.0,0.0,0.0,0.0,0.0,-4.643866,44.750557,-0.8279703,
1.3476562299183572,69,-0.039367676,0.81274414,0.50561523,0.018554688,0.04296875,0.029296875,0.0,0.0,0.0,0.0,0.0,0.0,0.0,0.0,0.0,0.0,0.0,0.52700764,0.0389238,-0.8491241,-1.005188,0.026916504,-0.032226562,-0.041015625,0.060546875,0.0146484375,2.6168113,10.910691,0.80584335,-17.579502,1.0026245,-0.16363525,-0.16253662,-0.05078125,0.036132812,0.03515625,3.0208354,14.1920805,-56.09065,-16.209562,-0.4798584,-0.3449707,0.7999878,0.0068359375,0.0234375,0.018554688,7.1236467,13.983708,-128.10468,-16.458488,0.0,0.0,0.0,0.0,0.0,0.0,0.0,-3.1459875,-126.84043,-26.68353,0.0,0.0,0.0,0.0,0.0,0.0,0.0,-0.52700764,-0.0389238,0.8491241,-0.9412842,-0.01727295,-0.36834717,-0.022460938,-0.0029296875,-0.00390625,5.4281282,-10.910691,-0.80584335,17.579502,1.0162354,-0.049682617,-0.14123535,-0.11621094,0.078125,0.06640625,3.5003417,-10.365273,-57.81347,17.690046,0.42181396,-0.27392578,0.8790283,-0.072265625,0.068359375,-0.0146484375,8.704028,-14.953732,-129.67609,16.719587,0.0,0.0,0.0,0.0,0.0,0.0,0.0,-33.2685,-130.58797,8.729328,0.0,0.0,0.0,0.0,0.0,0.0,0.0,-4.6227484,44.76043,-0.8172862,
1.367187479627319,70,-0.056518555,0.82611084,0.5081787,-0.001953125,0.024414062,0.030273438,0.0,0.0,0.0,0.0,0.0,0.0,0.0,0.0,0.0,0.0,0.0,0.5265708,0.03890913,-0.8494062,-0.97888184,0.06750488,0.01928711,-0.022460938,0.0029296875,0.052734375,2.5861127,10.901648,0.80553967,-17.58534,0.97735596,-0.15960693,-0.17327881,-0.05078125,0.036132812,0.015625,3.0142832,14.191854,-56.09287,-16.210072,-0.47808838,-0.35687256,0.8019409,-0.01171875,0.024414062,0.0,7.205274,14.014961,-128.111,-16.479977,0.0,0.0,0.0,0.0,0.0,0.0,0.0,-3.1153488,-126.845985,-26.703693,0.0,0.0,0.0,0.0,0.0,0.0,0.0,-0.5265708,-0.03890913,0.8494062,-0.9161377,-0.0134887695,-0.3408203,0.015625,0.07421875,0.037109375,5.39474,-10.901648,-0.80553967,17.58534,1.0323486,-0.06384277,-0.11975098,-0.11621094,0.059570312,0.06640625,3.505819,-10.356568,-57.80987,17.729345,0.42578125,-0.30194092,0.87701416,-0.07324219,0.030273438,-0.0146484375,8.837068,-14.953688,-129.67538,16.805977,0.0,0.0,0.0,0.0,0.0,0.0,0.0,-33.272854,-130.59256,8.824818,0.0,0.0,0.0,0.0,0.0,0.0,0.0,-4.6029754,44.763134,-0.80302906,
1.3867187293362806,71,-0.035217285,0.8275757,0.5185547,-0.041992188,0.0068359375,0.030273438,0.0,0.0,0.0,0.0,0.0,0.0,0.0,0.0,0.0,0.0,0.0,0.52724344,0.039091848,-0.84891057,-0.9768677,0.04449463,-0.0020141602,0.015625,0.041992188,0.0146484375,2.6237586,10.915573,0.80932236,-17.57508,0.9735718,-0.15161133,-0.17321777,-0.0126953125,0.0546875,0.016601562,2.912957,14.163126,-56.090557,-16.226562,-0.48620605,-0.35968018,0.82373047,0.0068359375,0.0048828125,-0.018554688,7.302588,14.058993,-128.10233,-16.50301,0.0,0.0,0.0,0.0,0.0,0.0,0.0,-3.0626574,-126.84151,-26.741678,0.0,0.0,0.0,0.0,0.0,0.0,0.0,-0.52724344,-0.039091848,0.84891057,-0.92633057,-0.026428223,-0.3635254,-0.0029296875,0.07421875,-0.00390625,5.369399,-10.915573,-0.80932236,17.57508,1.0288086,-0.047790527,-0.101989746,-0.057617188,0.05859375,0.06640625,3.5596352,-10.353485,-57.816307,17.747904,0.42175293,-0.29382324,0.87213135,-0.036132812,-0.028320312,0.041015625,8.839247,-14.986417,-129.67752,16.802574,0.0,0.0,0.0,0.0,0.0,0.0,0.0,-33.312435,-130.59981,8.8388405,0.0,0.0,0.0,0.0,0.0,0.0,0.0,-4.600723,44.7608,-0.7962187,
1.4062499790452423,72,-0.020080566,0.8261719,0.5181885,0.017578125,0.005859375,0.06542969,0.0,0.0,0.0,0.0,0.0,0.0,0.0,0.0,0.0,0.0,0.0,0.52623296,0.038879942,-0.84942955,-0.9831543,0.027038574,-3.0517578E-4,-0.00390625,0.041015625,0.052734375,2.6121695,10.894652,0.8049353,-17.585827,0.9995117,-0.16748047,-0.15161133,-0.05078125,0.036132812,0.015625,2.9042075,14.120491,-56.0934,-16.22911,-0.45959473,-0.33288574,0.81573486,-0.01171875,0.024414062,0.0,7.289707,14.005657,-128.10522,-16.50618,0.0,0.0,0.0,0.0,0.0,0.0,0.0,-3.1184711,-126.84363,-26.740908,0.0,0.0,0.0,0.0,0.0,0.0,0.0,-0.52623296,-0.038879942,0.84942955,-0.93670654,0.024047852,-0.338562,-0.060546875,-0.021484375,-0.0234375,5.3466873,-10.894652,-0.8049353,17.585827,1.008667,-0.04156494,-0.11743164,-0.0390625,0.05859375,0.06542969,3.5772479,-10.352509,-57.813797,17.78271,0.40344238,-0.26953125,0.8770752,-0.016601562,0.028320312,0.041015625,8.906599,-15.037327,-129.67903,16.88718,0.0,0.0,0.0,0.0,0.0,0.0,0.0,-33.36302,-130.60889,8.925787,0.0,0.0,0.0,0.0,0.0,0.0,0.0,-4.5715375,44.759506,-0.7834044,
1.425781228754204,73,-0.03668213,0.7895508,0.47052002,-9.765625E-4,0.044921875,0.06640625,0.0,0.0,0.0,0.0,0.0,0.0,0.0,0.0,0.0,0.0,0.0,0.5256742,0.03904959,-0.8497964,-1.0177612,-0.0015258789,-0.0087890625,-0.041015625,0.07910156,0.0146484375,2.5487561,10.883086,0.8084476,-17.593418,1.0099487,-0.15612793,-0.14562988,-0.03125,0.03515625,0.036132812,2.983472,14.160176,-56.087162,-16.183432,-0.4817505,-0.33410645,0.8088379,-0.01171875,0.024414062,0.018554688,7.250252,14.031805,-128.1035,-16.462072,0.0,0.0,0.0,0.0,0.0,0.0,0.0,-3.0827103,-126.837265,-26.710207,0.0,0.0,0.0,0.0,0.0,0.0,0.0,-0.5256742,-0.03904959,0.8497964,-0.95739746,-0.020141602,-0.31628418,-0.060546875,-0.001953125,-0.0029296875,5.37549,-10.883086,-0.8084476,17.593418,1.0166626,-0.06060791,-0.10559082,-0.0390625,0.05859375,0.046875,3.5382288,-10.411015,-57.81802,17.866432,0.42193604,-0.25793457,0.8789673,-0.03515625,0.029296875,0.022460938,9.004204,-15.119159,-129.68066,16.993647,0.0,0.0,0.0,0.0,0.0,0.0,0.0,-33.443115,-130.62408,9.028074,0.0,0.0,0.0,0.0,0.0,0.0,0.0,-4.551267,44.763103,-0.7584207,
1.4453124784631657,74,-0.015136719,0.7921753,0.4998169,-0.041015625,0.026367188,0.06738281,0.0,0.0,0.0,0.0,0.0,0.0,0.0,0.0,0.0,0.0,0.0,0.5254195,0.038816467,-0.8500071,-0.9932251,0.05029297,0.015991211,-0.041015625,0.00390625,-0.0048828125,2.6003785,10.877811,0.8036212,-17.597782,1.0053711,-0.13726807,-0.15948486,0.0048828125,0.016601562,-9.765625E-4,2.9272358,14.093921,-56.093765,-16.152344,-0.4666748,-0.33465576,0.81970215,-0.01171875,0.024414062,0.018554688,7.350258,13.973075,-128.10521,-16.401657,0.0,0.0,0.0,0.0,0.0,0.0,0.0,-3.1501245,-126.83665,-26.636108,0.0,0.0,0.0,0.0,0.0,0.0,0.0,-0.5254195,-0.038816467,0.8500071,-0.9581909,-0.005004883,-0.33581543,-0.00390625,-0.04296875,0.016601562,5.4006214,-10.877811,-0.8036212,17.597782,1.0430298,-0.06903076,-0.13568115,-0.038085938,0.040039062,0.06640625,3.510061,-10.451803,-57.811676,17.92572,0.40441895,-0.2854004,0.86035156,-0.053710938,0.06738281,0.022460938,8.987911,-15.158021,-129.67029,17.019184,0.0,0.0,0.0,0.0,0.0,0.0,0.0,-33.488678,-130.62317,9.069138,0.0,0.0,0.0,0.0,0.0,0.0,0.0,-4.5400524,44.765816,-0.7620891,
1.4648437281721274,75,-0.009277344,0.7909546,0.4847412,-0.10058594,0.0087890625,0.068359375,0.0,0.0,0.0,0.0,0.0,0.0,0.0,0.0,0.0,0.0,0.0,0.5260715,0.03878362,-0.84953046,-0.9779663,0.05102539,0.016052246,-0.00390625,-0.03515625,0.033203125,2.7504365,10.89131,0.80294114,-17.587915,0.9661255,-0.1640625,-0.16619873,-0.0126953125,0.03515625,0.036132812,2.7973638,14.000633,-56.104107,-16.179693,-0.4855957,-0.32617188,0.81274414,-0.049804688,0.025390625,-9.765625E-4,7.319656,13.899185,-128.11731,-16.422573,0.0,0.0,0.0,0.0,0.0,0.0,0.0,-3.2174664,-126.85392,-26.666483,0.0,0.0,0.0,0.0,0.0,0.0,0.0,-0.5260715,-0.03878362,0.84953046,-0.9251709,-0.016906738,-0.39489746,-0.041992188,0.037109375,-0.0029296875,5.4577947,-10.89131,-0.80294114,17.587915,0.9967041,-0.04937744,-0.117126465,-0.07714844,0.041015625,0.06640625,3.5015163,-10.4606695,-57.80904,17.924076,0.40429688,-0.30145264,0.866272,-0.0546875,0.029296875,0.041992188,8.986446,-15.142437,-129.67122,16.997303,0.0,0.0,0.0,0.0,0.0,0.0,0.0,-33.467545,-130.63353,9.0358515,0.0,0.0,0.0,0.0,0.0,0.0,0.0,-4.58503,44.757763,-0.79595166,
1.484374977881089,76,-0.0335083,0.7855835,0.47937012,-0.041015625,0.026367188,0.048828125,0.0,0.0,0.0,0.0,0.0,0.0,0.0,0.0,0.0,0.0,0.0,0.5258089,0.03836436,-0.8497896,-0.99102783,0.034240723,-0.017089844,-0.022460938,0.022460938,-0.0048828125,2.7310817,10.885876,0.79426116,-17.59328,0.9694214,-0.15539551,-0.15924072,-0.049804688,0.0546875,0.03515625,2.7621543,13.96624,-56.113132,-16.204695,-0.4696045,-0.3305664,0.8147583,-0.01171875,0.0068359375,0.037109375,7.397462,13.884192,-128.12494,-16.486496,0.0,0.0,0.0,0.0,0.0,0.0,0.0,-3.2377367,-126.85376,-26.720964,0.0,0.0,0.0,0.0,0.0,0.0,0.0,-0.5258089,-0.03836436,0.8497896,-0.9091797,-0.023010254,-0.39886475,-0.041992188,0.07519531,-0.0029296875,5.3451114,-10.885876,-0.79426116,17.59328,1.0244751,-0.057739258,-0.119628906,-0.07714844,0.041015625,0.06640625,3.5331342,-10.381835,-57.798016,17.8775,0.41363525,-0.27575684,0.87609863,-0.053710938,0.068359375,-0.0146484375,8.888737,-15.022884,-129.6553,16.932808,0.0,0.0,0.0,0.0,0.0,0.0,0.0,-33.359467,-130.61972,9.000647,0.0,0.0,0.0,0.0,0.0,0.0,0.0,-4.549124,44.76445,-0.793856,
1.5039062275900508,77,-0.015319824,0.78808594,0.48486328,0.038085938,0.04296875,0.029296875,0.0,0.0,0.0,0.0,0.0,0.0,0.0,0.0,0.0,0.0,0.0,0.5254306,0.038241487,-0.8500123,-1.0072632,0.018127441,-0.030334473,-0.078125,0.080078125,-0.041992188,2.6305385,10.878042,0.7917173,-17.59789,0.98883057,-0.15338135,-0.13250732,0.0048828125,-0.0029296875,0.017578125,2.8906956,14.059793,-56.107548,-16.151993,-0.47076416,-0.34136963,0.8078613,-0.01171875,0.005859375,0.018554688,7.387588,13.960485,-128.11823,-16.43104,0.0,0.0,0.0,0.0,0.0,0.0,0.0,-3.1618156,-126.84643,-26.667746,0.0,0.0,0.0,0.0,0.0,0.0,0.0,-0.5254306,-0.038241487,0.8500123,-0.92840576,-0.030090332,-0.3723755,-0.041992188,-0.021484375,0.017578125,5.2923536,-10.878042,-0.7917173,17.59789,1.0323486,-0.049865723,-0.1296997,-0.05859375,0.11425781,0.06542969,3.5684798,-10.326936,-57.796024,17.863943,0.40130615,-0.2854004,0.8682251,-0.016601562,0.029296875,0.00390625,8.864326,-14.960942,-129.65211,16.926268,0.0,0.0,0.0,0.0,0.0,0.0,0.0,-33.298557,-130.62233,8.995914,0.0,0.0,0.0,0.0,0.0,0.0,0.0,-4.5423956,44.76449,-0.79393363,
1.5234374772990125,78,-0.03564453,0.8015137,0.4776001,0.037109375,0.024414062,0.046875,0.0,0.0,0.0,0.0,0.0,0.0,0.0,0.0,0.0,0.0,0.0,0.52542436,0.037675276,-0.85008806,-0.9884033,0.038269043,0.03173828,-0.041015625,0.022460938,0.033203125,2.6212208,10.877913,0.779995,-17.599459,0.9852905,-0.13354492,-0.15032959,-0.0126953125,0.036132812,0.017578125,2.8324122,14.024263,-56.119835,-16.137842,-0.46765137,-0.3345337,0.80682373,-0.01171875,0.005859375,0.0,7.528428,13.941636,-128.13358,-16.35572,0.0,0.0,0.0,0.0,0.0,0.0,0.0,-3.1868353,-126.85722,-26.580734,0.0,0.0,0.0,0.0,0.0,0.0,0.0,-0.52542436,-0.037675276,0.85008806,-0.9505005,-0.028808594,-0.32714844,0.053710938,0.053710938,0.015625,5.273809,-10.877913,-0.779995,17.599459,1.0036621,-0.057434082,-0.11230469,-0.07714844,0.059570312,0.046875,3.575496,-10.362095,-57.784004,17.93318,0.4053955,-0.27764893,0.8859863,-0.016601562,0.009765625,0.00390625,8.822362,-15.031698,-129.64594,17.002148,0.0,0.0,0.0,0.0,0.0,0.0,0.0,-33.382202,-130.61429,9.101522,0.0,0.0,0.0,0.0,0.0,0.0,0.0,-4.5065193,44.769768,-0.8012364,
1.5429687270079742,79,-0.053344727,0.7932739,0.5117798,-0.041992188,-0.01171875,0.048828125,0.0,0.0,0.0,0.0,0.0,0.0,0.0,0.0,0.0,0.0,0.0,0.5258664,0.03844494,-0.84974825,-0.97802734,0.049072266,0.015991211,0.034179688,-0.015625,-0.0048828125,2.6918821,10.887066,0.7959295,-17.592424,0.99664307,-0.16247559,-0.14453125,-0.08886719,0.017578125,0.034179688,2.7502942,13.966419,-56.11348,-16.131048,-0.48986816,-0.34362793,0.7861328,-0.01171875,0.024414062,0.037109375,7.555307,13.905087,-128.12491,-16.332949,0.0,0.0,0.0,0.0,0.0,0.0,0.0,-3.2215395,-126.85044,-26.56184,0.0,0.0,0.0,0.0,0.0,0.0,0.0,-0.5258664,-0.03844494,0.84974825,-0.92840576,-0.031188965,-0.3291626,-0.00390625,0.0546875,0.016601562,5.2703896,-10.887066,-0.7959295,17.592424,1.0324097,-0.061828613,-0.11779785,-0.07714844,0.059570312,0.06640625,3.5544057,-10.386293,-57.79945,17.985165,0.3970337,-0.28570557,0.9086304,-0.016601562,0.009765625,0.022460938,8.75118,-15.030432,-129.66391,17.061573,0.0,0.0,0.0,0.0,0.0,0.0,0.0,-33.38716,-130.64189,9.176996,0.0,0.0,0.0,0.0,0.0,0.0,0.0,-4.502366,44.769665,-0.7607851,
1.5624999767169359,80,-0.052490234,0.8239746,0.5070801,-0.041015625,0.026367188,0.048828125,0.0,0.0,0.0,0.0,0.0,0.0,0.0,0.0,0.0,0.0,0.0,0.5256468,0.039179374,-0.8498163,-1.0004272,0.007080078,-0.014587402,-0.00390625,0.022460938,0.033203125,2.6888263,10.88252,0.8111344,-17.59383,0.99139404,-0.16912842,-0.14654541,-0.05078125,0.036132812,0.015625,2.8097918,13.989607,-56.093517,-16.07625,-0.46813965,-0.35827637,0.82470703,-0.01171875,0.024414062,0.0,7.476352,13.92801,-128.10878,-16.302849,0.0,0.0,0.0,0.0,0.0,0.0,0.0,-3.19802,-126.836945,-26.534332,0.0,0.0,0.0,0.0,0.0,0.0,0.0,-0.5256468,-0.039179374,0.8498163,-0.9249878,4.8828125E-4,-0.3859253,-0.11816406,-0.0390625,0.017578125,5.3160706,-10.88252,-0.8111344,17.59383,1.0130615,-0.020629883,-0.1038208,-0.057617188,0.05859375,0.06640625,3.4876776,-10.42639,-57.815907,17.954426,0.43304443,-0.29400635,0.8641968,0.001953125,0.0087890625,0.041015625,8.712261,-15.053349,-129.67897,17.040497,0.0,0.0,0.0,0.0,0.0,0.0,0.0,-33.409584,-130.6641,9.15591,0.0,0.0,0.0,0.0,0.0,0.0,0.0,-4.5044956,44.76878,-0.7222283,
1.5820312264258976,81,-0.033203125,0.78570557,0.50323486,0.016601562,-0.013671875,0.06542969,0.0,0.0,0.0,0.0,0.0,0.0,0.0,0.0,0.0,0.0,0.0,0.52619576,0.039657436,-0.8495161,-1.0043335,0.037109375,-0.0021362305,-0.060546875,0.022460938,0.0146484375,2.6844547,10.893884,0.82103187,-17.587616,0.99591064,-0.15264893,-0.14550781,-0.033203125,0.017578125,-0.001953125,2.858006,14.034424,-56.079197,-16.034113,-0.46240234,-0.3218994,0.803833,-0.01171875,0.005859375,0.018554688,7.516063,13.977037,-128.09029,-16.27299,0.0,0.0,0.0,0.0,0.0,0.0,0.0,-3.1483002,-126.81134,-26.500633,0.0,0.0,0.0,0.0,0.0,0.0,0.0,-0.52619576,-0.039657436,0.8495161,-0.9119873,-0.0040893555,-0.36828613,0.034179688,-0.0048828125,0.016601562,5.282904,-10.893884,-0.82103187,17.587616,1.0322266,-0.06488037,-0.12860107,-0.038085938,0.021484375,0.06640625,3.5438688,-10.3856325,-57.825073,17.905554,0.4249878,-0.28173828,0.85339355,-0.015625,0.06640625,0.060546875,8.757372,-15.033796,-129.68958,16.995716,0.0,0.0,0.0,0.0,0.0,0.0,0.0,-33.397636,-130.68167,9.126604,0.0,0.0,0.0,0.0,0.0,0.0,0.0,-4.517486,44.770065,-0.7081869,
1.6015624761348592,82,-0.02355957,0.80615234,0.47729492,0.016601562,-0.013671875,0.06542969,0.0,0.0,0.0,0.0,0.0,0.0,0.0,0.0,0.0,0.0,0.0,0.52624345,0.03966952,-0.8494057,-0.99224854,0.058776855,0.030090332,-0.060546875,-0.016601562,0.033203125,2.7678177,10.89487,0.82128215,-17.585331,0.9815674,-0.15789795,-0.14642334,-0.032226562,-0.001953125,0.016601562,2.74944,13.945635,-56.084377,-16.072828,-0.49493408,-0.33972168,0.8226929,-0.01171875,0.024414062,0.037109375,7.460825,13.894722,-128.09961,-16.298779,0.0,0.0,0.0,0.0,0.0,0.0,0.0,-3.2198372,-126.82388,-26.54686,0.0,0.0,0.0,0.0,0.0,0.0,0.0,-0.52624345,-0.03966952,0.8494057,-0.93359375,-0.043823242,-0.32824707,0.015625,-0.00390625,0.016601562,5.271022,-10.89487,-0.82128215,17.585331,1.0482178,-0.062072754,-0.125,-0.0390625,0.040039062,0.046875,3.579218,-10.376808,-57.82613,17.985561,0.42175293,-0.2819214,0.88098145,0.001953125,0.0087890625,0.059570312,8.82648,-15.0270405,-129.68665,17.055735,0.0,0.0,0.0,0.0,0.0,0.0,0.0,-33.385414,-130.69165,9.17666,0.0,0.0,0.0,0.0,0.0,0.0,0.0,-4.5219936,44.76648,-0.71085507,
1.621093725843821,83,-0.007019043,0.79693604,0.5026245,-0.10058594,-0.0107421875,0.068359375,0.0,0.0,0.0,0.0,0.0,0.0,0.0,0.0,0.0,0.0,0.0,0.52555823,0.039535455,-0.84977764,-0.9748535,0.049194336,0.005065918,-0.00390625,0.022460938,0.0146484375,2.8053994,10.880685,0.8185066,-17.593033,0.99920654,-0.17822266,-0.15362549,-0.051757812,0.017578125,0.016601562,2.7175736,13.892393,-56.090015,-16.07491,-0.4638672,-0.3446045,0.824646,-0.030273438,-0.029296875,0.0,7.4816,13.847214,-128.10385,-16.31199,0.0,0.0,0.0,0.0,0.0,0.0,0.0,-3.2679405,-126.82549,-26.55748,0.0,0.0,0.0,0.0,0.0,0.0,0.0,-0.52555823,-0.039535455,0.84977764,-0.91326904,-0.025878906,-0.35766602,-0.041992188,-0.001953125,-0.0029296875,5.2715793,-10.880685,-0.8185066,17.593033,1.0164185,-0.049682617,-0.12939453,-0.07714844,0.059570312,0.046875,3.5618343,-10.370123,-57.82215,18.05721,0.40338135,-0.272583,0.8810425,0.040039062,-0.0107421875,0.041015625,8.795915,-14.984596,-129.68907,17.125757,0.0,0.0,0.0,0.0,0.0,0.0,0.0,-33.336742,-130.69012,9.231125,0.0,0.0,0.0,0.0,0.0,0.0,0.0,-4.520629,44.764336,-0.71321595,
1.6406249755527826,84,-0.0051879883,0.8027954,0.49267578,-0.061523438,0.0068359375,0.0126953125,0.0,0.0,0.0,0.0,0.0,0.0,0.0,0.0,0.0,0.0,0.0,0.5264362,0.039596997,-0.8492471,-1.0123901,0.0056762695,-0.035583496,-0.060546875,0.00390625,-0.0048828125,2.7884626,10.89886,0.81978047,-17.582047,0.98553467,-0.16003418,-0.14941406,-0.049804688,0.0546875,0.03515625,2.8023975,13.956015,-56.08141,-16.00524,-0.48364258,-0.3291626,0.817688,-0.01171875,0.0068359375,0.055664062,7.4479523,13.897405,-128.09676,-16.26024,0.0,0.0,0.0,0.0,0.0,0.0,0.0,-3.2149706,-126.81332,-26.509327,0.0,0.0,0.0,0.0,0.0,0.0,0.0,-0.5264362,-0.039596997,0.8492471,-0.92297363,-0.0014648438,-0.3486328,-0.00390625,-0.00390625,0.016601562,5.2874274,-10.89886,-0.81978047,17.582047,0.9970703,-0.055358887,-0.08947754,-0.07714844,0.022460938,0.06640625,3.560515,-10.384986,-57.824745,18.043308,0.4300537,-0.28582764,0.8553467,0.022460938,0.06542969,0.041015625,8.767595,-14.994467,-129.6885,17.112314,0.0,0.0,0.0,0.0,0.0,0.0,0.0,-33.348656,-130.69347,9.226893,0.0,0.0,0.0,0.0,0.0,0.0,0.0,-4.5346036,44.763367,-0.7237992,
1.6601562252617443,85,-0.023376465,0.814209,0.4942627,0.017578125,0.0048828125,0.029296875,0.0,0.0,0.0,0.0,0.0,0.0,0.0,0.0,0.0,0.0,0.0,0.5264741,0.039535765,-0.8492963,-1.0033569,0.044677734,0.0119018555,-0.059570312,0.022460938,-0.0048828125,2.7488701,10.899647,0.8185129,-17.583065,1.0011597,-0.14801025,-0.12957764,-0.032226562,0.036132812,0.016601562,2.8720126,14.001074,-56.081116,-15.96714,-0.47772217,-0.33813477,0.7989502,-0.01171875,0.024414062,0.0,7.4541416,13.90647,-128.09686,-16.187101,0.0,0.0,0.0,0.0,0.0,0.0,0.0,-3.2118254,-126.80788,-26.427382,0.0,0.0,0.0,0.0,0.0,0.0,0.0,-0.5264741,-0.039535765,0.8492963,-0.92523193,-0.016601562,-0.3270874,-0.00390625,0.015625,0.016601562,5.2478857,-10.899647,-0.8185129,17.583065,1.0131226,-0.0435791,-0.087890625,-0.057617188,0.05859375,0.06640625,3.6114037,-10.352603,-57.821957,18.04744,0.43621826,-0.27313232,0.875,-0.015625,0.047851562,-0.015625,8.78161,-14.973402,-129.68503,17.074299,0.0,0.0,0.0,0.0,0.0,0.0,0.0,-33.3284,-130.70233,9.187824,0.0,0.0,0.0,0.0,0.0,0.0,0.0,-4.5301123,44.766495,-0.72425765,
1.679687474970706,86,-0.0513916,0.8180542,0.5109863,0.016601562,-0.013671875,0.047851562,0.0,0.0,0.0,0.0,0.0,0.0,0.0,0.0,0.0,0.0,0.0,0.522929,0.028409978,-0.84767294,-0.99035645,0.031677246,0.018676758,0.0146484375,-0.03515625,0.033203125,1.7442821,10.826251,0.5881746,-17.54946,0.98809814,-0.14050293,-0.15338135,-0.05078125,0.036132812,0.03515625,2.7265625,13.825639,-56.31703,-15.954317,-0.47180176,-0.34039307,0.82366943,0.0068359375,0.005859375,0.018554688,7.4912977,13.7706995,-128.33028,-16.12862,0.0,0.0,0.0,0.0,0.0,0.0,0.0,-3.3370447,-127.04363,-26.385183,0.0,0.0,0.0,0.0,0.0,0.0,0.0,-0.522929,-0.028409978,0.84767294,-0.9404297,-0.026367188,-0.35565186,0.03515625,0.034179688,0.016601562,4.113565,-10.826251,-0.5881746,17.54946,1.0482178,-0.066101074,-0.12597656,-0.057617188,0.040039062,0.06640625,3.6154675,-10.29073,-57.592735,18.063635,0.43011475,-0.28186035,0.8572998,-0.017578125,-0.009765625,0.041015625,8.837913,-14.903297,-129.45567,17.061422,0.0,0.0,0.0,0.0,0.0,0.0,0.0,-33.25255,-130.48563,9.167777,0.0,0.0,0.0,0.0,0.0,0.0,0.0,-3.6191983,44.68561,-0.73503184,
1.6992187246796677,87,-0.035217285,0.80670166,0.510437,-0.10058594,0.0087890625,0.068359375,0.0,0.0,0.0,0.0,0.0,0.0,0.0,0.0,0.0,0.0,0.0,0.5245828,0.026947068,-0.8498154,-0.97406006,0.021057129,-3.6621094E-4,0.034179688,0.00390625,-0.0048828125,1.6372162,10.86049,0.5578879,-17.593815,0.980896,-0.14416504,-0.15631104,-0.08886719,0.036132812,0.034179688,2.6254737,13.818005,-56.347507,-15.997391,-0.48156738,-0.32336426,0.81970215,0.0068359375,0.005859375,0.018554688,7.5334835,13.826738,-128.3629,-16.117794,0.0,0.0,0.0,0.0,0.0,0.0,0.0,-3.2825813,-127.07151,-26.372091,0.0,0.0,0.0,0.0,0.0,0.0,0.0,-0.5245828,-0.026947068,0.8498154,-0.9515381,-0.03363037,-0.37042236,-0.041992188,0.017578125,-0.0029296875,3.9318864,-10.86049,-0.5578879,17.593815,1.0140991,-0.07159424,-0.13708496,-0.01953125,0.05859375,0.046875,3.6429288,-10.300575,-57.5614,18.148897,0.43426514,-0.2640381,0.868103,0.05859375,-0.030273438,0.059570312,8.8652115,-14.889609,-129.42494,17.109001,0.0,0.0,0.0,0.0,0.0,0.0,0.0,-33.237514,-130.46916,9.210726,0.0,0.0,0.0,0.0,0.0,0.0,0.0,-3.5076914,44.81399,-0.7442425,
1.7187499743886294,88,-0.042419434,0.80981445,0.50268555,-0.08105469,-0.0107421875,0.049804688,0.0,0.0,0.0,0.0,0.0,0.0,0.0,0.0,0.0,0.0,0.0,0.52483106,0.027466878,-0.8505182,-1.0113525,0.016357422,-0.034362793,-0.041015625,0.00390625,-0.0048828125,1.6437773,10.865628,0.56864953,-17.608364,1.0137329,-0.16607666,-0.14770508,-0.049804688,0.03515625,0.0546875,2.732873,13.885466,-56.33189,-15.956549,-0.47973633,-0.33422852,0.8128052,-0.01171875,0.005859375,0.018554688,7.4193125,13.857217,-128.34369,-16.076061,0.0,0.0,0.0,0.0,0.0,0.0,0.0,-3.248372,-127.05234,-26.335577,0.0,0.0,0.0,0.0,0.0,0.0,0.0,-0.52483106,-0.027466878,0.8505182,-0.91729736,-0.026367188,-0.3340454,-0.11816406,-0.05859375,-0.0029296875,3.9854107,-10.865628,-0.56864953,17.608364,1.0166626,-0.056640625,-0.10961914,-0.057617188,0.05859375,0.06640625,3.6029356,-10.32275,-57.575413,18.184261,0.42803955,-0.2857666,0.852417,0.021484375,0.0087890625,0.041015625,8.805267,-14.870963,-129.44226,17.143278,0.0,0.0,0.0,0.0,0.0,0.0,0.0,-33.216576,-130.4871,9.239006,0.0,0.0,0.0,0.0,0.0,0.0,0.0,-3.5412998,44.844982,-0.73700064,
1.7382812240975911,89,-0.019165039,0.7992554,0.50097656,-0.022460938,-0.0126953125,0.030273438,0.0,0.0,0.0,0.0,0.0,0.0,0.0,0.0,0.0,0.0,0.0,0.5253212,0.027819736,-0.8504492,-0.9902344,0.052001953,0.026000977,-0.060546875,-0.091796875,-0.005859375,1.6870203,10.875777,0.5759548,-17.606934,1.0158691,-0.16021729,-0.17364502,0.005859375,0.03515625,0.017578125,2.7246232,13.892025,-56.32656,-15.929734,-0.473938,-0.34625244,0.817749,-0.01171875,0.005859375,0.018554688,7.520135,13.890092,-128.34196,-16.050802,0.0,0.0,0.0,0.0,0.0,0.0,0.0,-3.219554,-127.04508,-26.30412,0.0,0.0,0.0,0.0,0.0,0.0,0.0,-0.5253212,-0.027819736,0.8504492,-0.91119385,-0.019165039,-0.3536377,0.034179688,-0.024414062,0.016601562,4.0070214,-10.875777,-0.5759548,17.606934,1.0222168,-0.06573486,-0.13336182,-0.0390625,0.05859375,0.06542969,3.622501,-10.326384,-57.57688,18.21216,0.4208374,-0.2727661,0.8671875,-0.016601562,0.047851562,0.060546875,8.85408,-14.865402,-129.44258,17.132753,0.0,0.0,0.0,0.0,0.0,0.0,0.0,-33.20495,-130.504,9.217061,0.0,0.0,0.0,0.0,0.0,0.0,0.0,-3.566321,44.85243,-0.73570704,
1.7578124738065528,90,-0.035705566,0.8114624,0.47766113,-0.061523438,-0.01171875,0.06738281,0.0,0.0,0.0,0.0,0.0,0.0,0.0,0.0,0.0,0.0,0.0,0.5243106,0.02757637,-0.8510872,-0.98205566,0.042419434,0.010925293,-0.00390625,-0.034179688,-0.0048828125,1.7542391,10.8548565,0.57091635,-17.620146,1.0003662,-0.1361084,-0.16241455,-0.087890625,0.036132812,0.052734375,2.5963106,13.802055,-56.334663,-15.962803,-0.46350098,-0.3248291,0.8078003,-0.01171875,0.024414062,0.018554688,7.672914,13.867693,-128.35103,-16.054842,0.0,0.0,0.0,0.0,0.0,0.0,0.0,-3.24502,-127.05001,-26.30104,0.0,0.0,0.0,0.0,0.0,0.0,0.0,-0.5243106,-0.02757637,0.8510872,-0.9185791,-0.045654297,-0.34503174,0.03515625,0.053710938,0.016601562,4.0308976,-10.8548565,-0.57091635,17.620146,0.9907837,-0.04827881,-0.113098145,-0.05859375,0.07714844,0.046875,3.6523762,-10.306518,-57.574703,18.298508,0.3953247,-0.26031494,0.8692627,0.001953125,0.0087890625,0.059570312,8.801272,-14.837254,-129.44441,17.179905,0.0,0.0,0.0,0.0,0.0,0.0,0.0,-33.18302,-130.50499,9.279334,0.0,0.0,0.0,0.0,0.0,0.0,0.0,-3.5870328,44.850685,-0.75656193,
1.7773437235155145,91,-0.03314209,0.7877197,0.5092163,-0.099609375,0.046875,0.05078125,0.0,0.0,0.0,0.0,0.0,0.0,0.0,0.0,0.0,0.0,0.0,0.5233494,0.02814252,-0.8515911,-0.9881592,0.028137207,-0.0022583008,0.015625,0.041992188,0.0146484375,1.8149911,10.834956,0.5826375,-17.630579,0.96520996,-0.16113281,-0.16119385,-0.05078125,0.036132812,0.03515625,2.5685694,13.782499,-56.325756,-16.016197,-0.48059082,-0.32440186,0.81970215,0.0068359375,-0.0126953125,0.0,7.639309,13.861073,-128.33972,-16.1147,0.0,0.0,0.0,0.0,0.0,0.0,0.0,-3.2439213,-127.03777,-26.374218,0.0,0.0,0.0,0.0,0.0,0.0,0.0,-0.5233494,-0.02814252,0.8515911,-0.9411011,-0.0037841797,-0.35845947,-0.022460938,0.055664062,0.016601562,4.128819,-10.834956,-0.5826375,17.630579,1.0400391,-0.0579834,-0.14361572,-0.0390625,0.05859375,0.046875,3.6030443,-10.296291,-57.58439,18.30635,0.41357422,-0.29162598,0.866272,0.020507812,-0.0107421875,0.07910156,8.6985655,-14.757744,-129.44904,17.149565,0.0,0.0,0.0,0.0,0.0,0.0,0.0,-33.09565,-130.51485,9.231172,0.0,0.0,0.0,0.0,0.0,0.0,0.0,-3.6553493,44.84239,-0.7645069,
1.7968749732244762,92,-0.04345703,0.80877686,0.4977417,-0.0234375,-0.03125,0.06640625,0.0,0.0,0.0,0.0,0.0,0.0,0.0,0.0,0.0,0.0,0.0,0.52311516,0.02873577,-0.85174197,-1.0145264,0.0036621094,-0.02960205,-0.022460938,0.022460938,0.0146484375,1.8464199,10.830106,0.5949195,-17.6337,1.0255737,-0.17834473,-0.14788818,-0.03125,0.03515625,0.0546875,2.678542,13.833523,-56.307896,-15.942945,-0.47039795,-0.31488037,0.83251953,-0.049804688,-0.0107421875,-9.765625E-4,7.598198,13.885779,-128.32579,-16.052933,0.0,0.0,0.0,0.0,0.0,0.0,0.0,-3.2145662,-127.018776,-26.318651,0.0,0.0,0.0,0.0,0.0,0.0,0.0,-0.52311516,-0.02873577,0.85174197,-0.9057617,0.0087890625,-0.34069824,-0.080078125,-9.765625E-4,-0.0029296875,4.196147,-10.830106,-0.5949195,17.6337,1.0042114,-0.045532227,-0.14691162,-0.0390625,0.040039062,0.046875,3.5569386,-10.297104,-57.600395,18.237923,0.4177246,-0.291687,0.86328125,0.001953125,0.0087890625,0.059570312,8.730032,-14.740098,-129.46878,17.08165,0.0,0.0,0.0,0.0,0.0,0.0,0.0,-33.067337,-130.53232,9.138062,0.0,0.0,0.0,0.0,0.0,0.0,0.0,-3.6997623,44.839855,-0.75949526,
1.816406222933438,93,-0.01940918,0.80908203,0.48614502,-0.001953125,0.025390625,0.047851562,0.0,0.0,0.0,0.0,0.0,0.0,0.0,0.0,0.0,0.0,0.0,0.51882005,0.017795516,-0.850725,-0.989563,0.047546387,0.059753418,-0.022460938,0.0029296875,0.033203125,0.95429116,10.741184,0.36842233,-17.612644,1.001831,-0.15679932,-0.15057373,-0.05078125,0.036132812,0.015625,2.697693,13.7266,-56.534126,-15.881405,-0.4755249,-0.32250977,0.8117676,-0.01171875,0.005859375,0.018554688,7.540383,13.762595,-128.55045,-15.997291,0.0,0.0,0.0,0.0,0.0,0.0,0.0,-3.335946,-127.23696,-26.26752,0.0,0.0,0.0,0.0,0.0,0.0,0.0,-0.51882005,-0.017795516,0.850725,-0.93927,-0.014526367,-0.3614502,0.03515625,0.034179688,-0.00390625,3.094147,-10.741184,-0.36842233,17.612644,1.0406494,-0.049987793,-0.1081543,-9.765625E-4,0.09472656,0.045898438,3.5966806,-10.204621,-57.374622,18.24064,0.4210205,-0.23797607,0.88391113,0.021484375,0.0087890625,0.07910156,8.835845,-14.685314,-129.24677,17.084267,0.0,0.0,0.0,0.0,0.0,0.0,0.0,-33.004242,-130.3205,9.123804,0.0,0.0,0.0,0.0,0.0,0.0,0.0,-2.8242912,44.751354,-0.7863007,
1.8359374726423996,94,-0.04046631,0.8265991,0.4998169,-0.021484375,0.005859375,0.030273438,0.0,0.0,0.0,0.0,0.0,0.0,0.0,0.0,0.0,0.0,0.0,0.51984197,0.016226145,-0.8535141,-0.9628296,0.042114258,0.010925293,0.015625,-0.03515625,0.013671875,0.8740209,10.762341,0.3359315,-17.670387,0.98706055,-0.14349365,-0.13745117,-0.05078125,0.036132812,0.03515625,2.6467102,13.675005,-56.57166,-15.961716,-0.4857788,-0.3388672,0.7989502,-0.01171875,-0.01171875,0.018554688,7.4877605,13.684467,-128.58195,-16.09039,0.0,0.0,0.0,0.0,0.0,0.0,0.0,-3.407219,-127.26778,-26.369732,0.0,0.0,0.0,0.0,0.0,0.0,0.0,-0.51984197,-0.016226145,0.8535141,-0.9666748,-0.033813477,-0.3114624,-0.00390625,0.03515625,-0.00390625,2.9030616,-10.762341,-0.3359315,17.670387,1.0203247,-0.040649414,-0.07421875,-0.0390625,0.07714844,0.06542969,3.635127,-10.223772,-57.337708,18.38331,0.40960693,-0.2597046,0.8800049,0.040039062,0.0078125,0.041015625,8.909466,-14.714646,-129.21205,17.237682,0.0,0.0,0.0,0.0,0.0,0.0,0.0,-33.027836,-130.29956,9.263902,0.0,0.0,0.0,0.0,0.0,0.0,0.0,-2.6911469,44.889706,-0.7856743,
1.8554687223513613,95,-0.02722168,0.78356934,0.50006104,-0.021484375,0.026367188,0.06738281,0.0,0.0,0.0,0.0,0.0,0.0,0.0,0.0,0.0,0.0,0.0,0.5171536,0.0061401967,-0.85201216,-0.9848633,0.046691895,-0.0119018555,0.015625,0.060546875,0.0146484375,0.89131266,10.706683,0.12712108,-17.639294,1.0072632,-0.17852783,-0.15466309,-0.049804688,0.0546875,0.03515625,2.6538744,13.635867,-56.78374,-15.947758,-0.47821045,-0.362854,0.8197632,0.0068359375,-0.0126953125,0.0,7.525196,13.651926,-128.8028,-16.092821,0.0,0.0,0.0,0.0,0.0,0.0,0.0,-3.441965,-127.48498,-26.369848,0.0,0.0,0.0,0.0,0.0,0.0,0.0,-0.5171536,-0.0061401967,0.85201216,-0.91308594,-0.009155273,-0.31921387,-0.080078125,0.018554688,-0.0029296875,1.8989855,-10.706683,-0.12712108,17.639294,1.0085449,-0.0625,-0.11730957,0.0,0.0390625,0.046875,3.6128128,-10.216614,-57.12707,18.350973,0.42578125,-0.3098755,0.8691406,0.040039062,0.0078125,0.078125,8.896204,-14.736275,-128.99173,17.20047,0.0,0.0,0.0,0.0,0.0,0.0,0.0,-33.05075,-130.05756,9.229515,0.0,0.0,0.0,0.0,0.0,0.0,0.0,-1.8517754,44.806087,-0.8010851,
1.874999972060323,96,-0.027160645,0.7885132,0.50213623,-0.021484375,0.025390625,0.048828125,0.0,0.0,0.0,0.0,0.0,0.0,0.0,0.0,0.0,0.0,0.0,0.51895803,0.005418107,-0.85412264,-1.022644,0.017089844,-0.012451172,-0.041015625,0.00390625,-0.0048828125,1.0044416,10.7440405,0.112171605,-17.682987,1.0062256,-0.14318848,-0.15753174,-0.01171875,0.03515625,0.055664062,2.6924639,13.703504,-56.7922,-15.973946,-0.4675293,-0.3267212,0.81866455,0.0068359375,0.005859375,0.0,7.509272,13.725962,-128.81004,-16.136732,0.0,0.0,0.0,0.0,0.0,0.0,0.0,-3.360506,-127.49716,-26.427406,0.0,0.0,0.0,0.0,0.0,0.0,0.0,-0.51895803,-0.005418107,0.85412264,-0.9481201,-0.0018310547,-0.35253906,-0.080078125,-9.765625E-4,-0.0029296875,1.8360035,-10.7440405,-0.112171605,17.682987,1.0203247,-0.049743652,-0.13244629,-0.0390625,0.05859375,0.06542969,3.5570488,-10.297987,-57.11649,18.41328,0.41992188,-0.25286865,0.8731079,0.05859375,-0.01171875,0.059570312,8.930434,-14.79622,-128.98383,17.28406,0.0,0.0,0.0,0.0,0.0,0.0,0.0,-33.099895,-130.05522,9.287481,0.0,0.0,0.0,0.0,0.0,0.0,0.0,-1.7757537,44.932533,-0.79390526,
1.8945312217692847,97,-0.032470703,0.8184204,0.4925537,-0.041992188,0.0078125,0.06738281,0.0,0.0,0.0,0.0,0.0,0.0,0.0,0.0,0.0,0.0,0.0,0.5194545,0.0058607236,-0.8545337,-0.9871826,0.062561035,0.032165527,-0.09765625,0.022460938,0.0146484375,0.9396196,10.75432,0.12133517,-17.691498,0.99383545,-0.15045166,-0.1763916,-0.0126953125,0.0546875,0.016601562,2.6876614,13.694906,-56.78671,-15.983814,-0.4796753,-0.33319092,0.810791,-0.03125,0.07910156,-9.765625E-4,7.50969,13.711826,-128.80528,-16.16647,0.0,0.0,0.0,0.0,0.0,0.0,0.0,-3.3808746,-127.492714,-26.448677,0.0,0.0,0.0,0.0,0.0,0.0,0.0,-0.5194545,-0.0058607236,0.8545337,-0.93829346,-0.019836426,-0.34381104,-0.022460938,0.016601562,0.037109375,1.913564,-10.75432,-0.12133517,17.691498,1.036499,-0.053894043,-0.11395264,-0.07714844,0.059570312,0.06640625,3.5267,-10.330051,-57.124256,18.474968,0.4055786,-0.26934814,0.8494873,0.021484375,0.0087890625,0.059570312,8.914515,-14.802978,-128.98804,17.388618,0.0,0.0,0.0,0.0,0.0,0.0,0.0,-33.10218,-130.062,9.382485,0.0,0.0,0.0,0.0,0.0,0.0,0.0,-1.8261096,44.957928,-0.8017179,
1.9140624714782464,98,-0.009887695,0.7871704,0.51257324,-0.041992188,0.0068359375,0.048828125,0.0,0.0,0.0,0.0,0.0,0.0,0.0,0.0,0.0,0.0,0.0,0.5195782,0.006777469,-0.8545157,-0.9862671,0.04034424,0.021850586,-0.022460938,0.0029296875,0.033203125,0.81493366,10.756881,0.14031462,-17.691122,0.97784424,-0.14196777,-0.17419434,0.0068359375,0.03515625,0.055664062,2.6051915,13.639117,-56.766457,-15.993353,-0.47784424,-0.3392334,0.8217163,0.0068359375,0.005859375,0.018554688,7.617184,13.680718,-128.78137,-16.149319,0.0,0.0,0.0,0.0,0.0,0.0,0.0,-3.418418,-127.465256,-26.416958,0.0,0.0,0.0,0.0,0.0,0.0,0.0,-0.5195782,-0.006777469,0.8545157,-0.92749023,-0.033447266,-0.3154297,0.053710938,0.034179688,0.015625,2.049277,-10.756881,-0.14031462,17.691122,1.0325317,-0.06982422,-0.105895996,-0.057617188,0.05859375,0.06640625,3.5678213,-10.353835,-57.13968,18.5023,0.4321289,-0.26019287,0.88391113,0.0029296875,0.028320312,0.07910156,9.023147,-14.865295,-129.00842,17.351229,0.0,0.0,0.0,0.0,0.0,0.0,0.0,-33.15274,-130.08957,9.319468,0.0,0.0,0.0,0.0,0.0,0.0,0.0,-1.91822,44.95641,-0.8097859,
1.933593721187208,99,-0.019042969,0.82818604,0.5201416,-0.021484375,0.026367188,0.06738281,0.0,0.0,0.0,0.0,0.0,0.0,0.0,0.0,0.0,0.0,0.0,0.51973104,0.007484408,-0.8543956,-0.98828125,0.025939941,0.010620117,0.015625,0.041015625,0.034179688,0.7149112,10.760044,0.15495044,-17.688639,0.99816895,-0.1439209,-0.1385498,-0.06933594,0.036132812,0.034179688,2.5924628,13.628371,-56.758068,-15.996791,-0.45385742,-0.35168457,0.7969971,-0.01171875,0.024414062,0.018554688,7.625166,13.650361,-128.77193,-16.128233,0.0,0.0,0.0,0.0,0.0,0.0,0.0,-3.4500303,-127.45729,-26.395182,0.0,0.0,0.0,0.0,0.0,0.0,0.0,-0.51973104,-0.007484408,0.8543956,-0.94195557,0.009887695,-0.35736084,-0.041992188,0.055664062,0.038085938,2.1588516,-10.760044,-0.15495044,17.688639,1.0085449,-0.07348633,-0.109313965,0.0,0.057617188,0.10253906,3.5931947,-10.337186,-57.156155,18.479425,0.409729,-0.23577881,0.88494873,-0.016601562,0.009765625,0.060546875,9.1036215,-14.863915,-129.02634,17.313354,0.0,0.0,0.0,0.0,0.0,0.0,0.0,-33.141705,-130.12408,9.260563,0.0,0.0,0.0,0.0,0.0,0.0,0.0,-2.0159402,44.9509,-0.8325367,
1.9531249708961698,100,-0.02130127,0.78533936,0.48999023,0.017578125,0.024414062,0.047851562,0.0,0.0,0.0,0.0,0.0,0.0,0.0,0.0,0.0,0.0,0.0,0.519097,0.008557435,-0.85480225,-1.0075073,0.012023926,-0.012512207,-0.059570312,0.041992188,-0.0234375,0.745461,10.746917,0.17716548,-17.697056,1.0109863,-0.15722656,-0.12872314,-0.049804688,0.016601562,0.0546875,2.647006,13.614265,-56.73077,-15.933212,-0.48010254,-0.35772705,0.7960205,0.026367188,0.0048828125,0.01953125,7.5266557,13.60067,-128.74664,-16.04634,0.0,0.0,0.0,0.0,0.0,0.0,0.0,-3.4985046,-127.434265,-26.316525,0.0,0.0,0.0,0.0,0.0,0.0,0.0,-0.519097,-0.008557435,0.85480225,-0.9269409,0.0016479492,-0.35150146,-0.11816406,-0.01953125,-0.022460938,2.292601,-10.746917,-0.17716548,17.697056,1.0165405,-0.03765869,-0.12451172,-0.057617188,0.021484375,0.047851562,3.5534692,-10.341637,-57.179543,18.462294,0.41174316,-0.2526245,0.8671875,9.765625E-4,-0.047851562,0.041015625,9.134414,-14.855213,-129.04648,17.306273,0.0,0.0,0.0,0.0,0.0,0.0,0.0,-33.12651,-130.16353,9.243976,0.0,0.0,0.0,0.0,0.0,0.0,0.0,-2.1057742,44.94806,-0.82880104,
1.9726562206051315,101,-0.045410156,0.79693604,0.5006714,-0.021484375,0.025390625,0.048828125,0.0,0.0,0.0,0.0,0.0,0.0,0.0,0.0,0.0,0.0,0.0,0.51906717,0.009686658,-0.854802,-0.98535156,0.032409668,0.029663086,-0.041015625,0.022460938,-0.0048828125,0.75277483,10.7463,0.20054385,-17.697052,0.99749756,-0.16741943,-0.14361572,-0.013671875,0.016601562,0.017578125,2.6809525,13.610437,-56.710407,-15.922366,-0.47509766,-0.35412598,0.8256836,-0.01171875,0.024414062,0.0,7.529054,13.5488615,-128.72324,-16.03326,0.0,0.0,0.0,0.0,0.0,0.0,0.0,-3.5604715,-127.40727,-26.283655,0.0,0.0,0.0,0.0,0.0,0.0,0.0,-0.51906717,-0.009686658,0.854802,-0.90527344,-0.026489258,-0.3380127,-0.00390625,-0.00390625,0.016601562,2.404036,-10.7463,-0.20054385,17.697052,1.020813,-0.039733887,-0.10583496,-0.07714844,0.059570312,0.06640625,3.5416028,-10.363933,-57.203266,18.509642,0.41168213,-0.2616577,0.8711548,0.059570312,0.0078125,0.041015625,9.142649,-14.8602495,-129.067,17.34997,0.0,0.0,0.0,0.0,0.0,0.0,0.0,-33.127903,-130.20155,9.27844,0.0,0.0,0.0,0.0,0.0,0.0,0.0,-2.1811695,44.94447,-0.81517315,
1.9921874703140932,102,-0.040649414,0.7927246,0.47662354,-0.021484375,0.0068359375,0.06640625,0.0,0.0,0.0,0.0,0.0,0.0,0.0,0.0,0.0,0.0,0.0,0.51860213,0.010618627,-0.8550626,-0.98010254,0.048095703,0.019958496,0.015625,-0.034179688,-0.0048828125,0.74755794,10.736673,0.2198385,-17.702446,0.98498535,-0.14434814,-0.14538574,-0.06933594,0.036132812,0.053710938,2.603162,13.524209,-56.692204,-15.939238,-0.4584961,-0.32696533,0.8078003,-0.01171875,0.005859375,-0.018554688,7.5102654,13.456869,-128.70412,-16.024319,0.0,0.0,0.0,0.0,0.0,0.0,0.0,-3.6521912,-127.385284,-26.276325,0.0,0.0,0.0,0.0,0.0,0.0,0.0,-0.51860213,-0.010618627,0.8550626,-0.9293823,-0.02722168,-0.3694458,0.015625,0.0546875,0.057617188,2.4968512,-10.736673,-0.2198385,17.702446,1.0148926,-0.043640137,-0.101745605,-0.057617188,0.05859375,0.06640625,3.5423214,-10.362555,-57.22228,18.542398,0.40142822,-0.25952148,0.87609863,0.001953125,0.0087890625,0.059570312,9.1658325,-14.851649,-129.08899,17.37807,0.0,0.0,0.0,0.0,0.0,0.0,0.0,-33.114445,-130.23366,9.299318,0.0,0.0,0.0,0.0,0.0,0.0,0.0,-2.2503288,44.940807,-0.8067429,
2.011718720023055,103,-0.04321289,0.79797363,0.5135498,-0.061523438,0.0078125,0.06738281,0.0,0.0,0.0,0.0,0.0,0.0,0.0,0.0,0.0,0.0,0.0,0.5185883,0.011968045,-0.85505396,-0.9923096,0.0146484375,-0.008483887,-0.00390625,0.0029296875,0.0146484375,0.82019913,10.736384,0.24777569,-17.70227,1.0010986,-0.14697266,-0.14849854,-0.013671875,0.016601562,0.017578125,2.614042,13.519672,-56.665764,-15.9130535,-0.48651123,-0.32208252,0.7959595,-0.049804688,0.0068359375,-9.765625E-4,7.447057,13.445364,-128.68106,-15.988442,0.0,0.0,0.0,0.0,0.0,0.0,0.0,-3.6565838,-127.35981,-26.251846,0.0,0.0,0.0,0.0,0.0,0.0,0.0,-0.5185883,-0.011968045,0.85505396,-0.9291382,-0.012268066,-0.38208008,-0.060546875,0.017578125,-0.0029296875,2.580809,-10.736384,-0.24777569,17.70227,1.0126953,-0.05657959,-0.10949707,-0.0390625,0.040039062,0.046875,3.5490582,-10.352698,-57.24715,18.525995,0.42913818,-0.25701904,0.8730469,-0.016601562,0.009765625,0.00390625,9.2284155,-14.853049,-129.11516,17.36993,0.0,0.0,0.0,0.0,0.0,0.0,0.0,-33.10976,-130.27896,9.281147,0.0,0.0,0.0,0.0,0.0,0.0,0.0,-2.3247082,44.93751,-0.78094757,
2.0312499697320168,104,-0.026916504,0.7996216,0.526062,-0.040039062,0.064453125,0.049804688,0.0,0.0,0.0,0.0,0.0,0.0,0.0,0.0,0.0,0.0,0.0,0.51960653,0.01303371,-0.8543975,-1.0085449,0.016723633,-0.0015258789,-0.059570312,0.060546875,-0.00390625,0.90395635,10.757466,0.26983824,-17.688679,1.0085449,-0.13452148,-0.14160156,-0.0126953125,0.036132812,0.017578125,2.7000139,13.603201,-56.637367,-15.823223,-0.47387695,-0.34423828,0.8147583,-0.01171875,0.024414062,0.018554688,7.412168,13.52822,-128.65022,-15.877323,0.0,0.0,0.0,0.0,0.0,0.0,0.0,-3.5718603,-127.32899,-26.143333,0.0,0.0,0.0,0.0,0.0,0.0,0.0,-0.51960653,-0.01303371,0.8543975,-0.9161377,-0.016357422,-0.3447876,-0.061523438,-0.021484375,0.017578125,2.702188,-10.757466,-0.26983824,17.688679,1.0284424,-0.057800293,-0.11773682,-0.0390625,0.05859375,0.06542969,3.5293083,-10.380385,-57.27168,18.499731,0.41156006,-0.2796631,0.87609863,-0.03515625,0.0107421875,0.00390625,9.209806,-14.867579,-129.13443,17.340288,0.0,0.0,0.0,0.0,0.0,0.0,0.0,-33.125557,-130.30708,9.257033,0.0,0.0,0.0,0.0,0.0,0.0,0.0,-2.414163,44.931892,-0.7827571,
2.0507812194409785,105,-0.027160645,0.7955322,0.50616455,-0.021484375,0.025390625,0.048828125,0.0,0.0,0.0,0.0,0.0,0.0,0.0,0.0,0.0,0.0,0.0,0.52040267,0.014119063,-0.8539017,-0.99035645,0.038391113,0.025756836,-0.022460938,-0.034179688,-0.0048828125,0.96611094,10.773949,0.2923084,-17.67841,0.9879761,-0.14447021,-0.15039062,-0.0126953125,0.016601562,0.036132812,2.665576,13.559605,-56.618553,-15.806263,-0.49395752,-0.3446045,0.8098755,0.0068359375,0.041992188,0.018554688,7.3621535,13.44811,-128.63394,-15.833342,0.0,0.0,0.0,0.0,0.0,0.0,0.0,-3.649497,-127.314224,-26.103878,0.0,0.0,0.0,0.0,0.0,0.0,0.0,-0.52040267,-0.014119063,0.8539017,-0.9266968,-0.050354004,-0.34698486,0.053710938,0.0146484375,0.015625,2.7875497,-10.773949,-0.2923084,17.67841,1.0501099,-0.06512451,-0.12994385,-0.07714844,0.059570312,0.08496094,3.5906327,-10.371498,-57.291317,18.556488,0.4116211,-0.2677002,0.8751221,-0.03515625,0.029296875,0.041015625,9.249942,-14.864609,-129.16025,17.382324,0.0,0.0,0.0,0.0,0.0,0.0,0.0,-33.12202,-130.34572,9.299574,0.0,0.0,0.0,0.0,0.0,0.0,0.0,-2.5040236,44.9272,-0.7831938,
2.07031246914994,106,-0.02545166,0.80426025,0.4873047,-0.041015625,0.026367188,0.048828125,0.0,0.0,0.0,0.0,0.0,0.0,0.0,0.0,0.0,0.0,0.0,0.5205365,0.015147053,-0.85378313,-0.973999,0.042175293,0.016906738,-0.00390625,0.0029296875,0.0146484375,1.0292661,10.776718,0.31359094,-17.675959,0.98547363,-0.16192627,-0.16040039,-0.06933594,0.017578125,0.03515625,2.5914056,13.501539,-56.60238,-15.824829,-0.45739746,-0.32214355,0.81866455,0.0068359375,0.0048828125,-0.018554688,7.3781,13.408843,-128.62167,-15.853535,0.0,0.0,0.0,0.0,0.0,0.0,0.0,-3.6927557,-127.30292,-26.115974,0.0,0.0,0.0,0.0,0.0,0.0,0.0,-0.5205365,-0.015147053,0.85378313,-0.92230225,-0.022155762,-0.34088135,0.015625,0.015625,0.016601562,2.8819466,-10.776718,-0.31359094,17.675959,1.0315552,-0.039916992,-0.118896484,-0.0390625,0.040039062,0.046875,3.6005983,-10.374088,-57.313507,18.5958,0.41357422,-0.27282715,0.8898926,-0.053710938,0.06738281,0.022460938,9.247136,-14.848789,-129.18448,17.41037,0.0,0.0,0.0,0.0,0.0,0.0,0.0,-33.09815,-130.37735,9.308876,0.0,0.0,0.0,0.0,0.0,0.0,0.0,-2.5794783,44.922314,-0.77569103,
2.089843718858902,107,-0.021240234,0.78930664,0.49499512,-0.021484375,0.025390625,0.048828125,0.0,0.0,0.0,0.0,0.0,0.0,0.0,0.0,0.0,0.0,0.0,0.5214995,0.016132863,-0.8531665,-0.98828125,0.029785156,0.013671875,-0.00390625,0.022460938,0.033203125,1.1095933,10.796658,0.33400026,-17.663193,0.9857788,-0.15020752,-0.16534424,-0.013671875,0.016601562,0.017578125,2.5914056,13.502186,-56.576004,-15.799236,-0.4906006,-0.3258667,0.7910156,0.0068359375,0.0234375,0.018554688,7.3943577,13.400725,-128.59348,-15.833746,0.0,0.0,0.0,0.0,0.0,0.0,0.0,-3.7021456,-127.27733,-26.09617,0.0,0.0,0.0,0.0,0.0,0.0,0.0,-0.5214995,-0.016132863,0.8531665,-0.94104004,9.1552734E-4,-0.3505249,-0.041992188,0.036132812,0.017578125,2.9991784,-10.796658,-0.33400026,17.663193,1.0220337,-0.070739746,-0.14019775,-0.057617188,0.040039062,0.046875,3.602501,-10.396201,-57.333405,18.574066,0.42919922,-0.26776123,0.8444824,-0.016601562,0.028320312,0.041015625,9.298594,-14.864668,-129.2024,17.354645,0.0,0.0,0.0,0.0,0.0,0.0,0.0,-33.107132,-130.41368,9.238978,0.0,0.0,0.0,0.0,0.0,0.0,0.0,-2.6693933,44.91654,-0.7823269,
