TOTAL_TIME,0m9s
TOTAL_FRAMES,465
SELECTED_FRAMES,465
NO_OF_JOINTS,12
FREQUENCY,51.2
DESCRIPTION,Capture 12
TIME_STAMP,Nov 1, 2010

Time,Frame,Pelvis_accelX_Pelvis,Pelvis_accelY_Pelvis,Pelvis_accelZ_Pelvis,Pelvis_gyroX_Pelvis,Pelvis_gyroY_Pelvis,Pelvis_gyroZ_Pelvis,Pelvis_Joint angle_Pelvis,Pelvis_Relative pos X_Pelvis,Pelvis_Relative pos Y_Pelvis,Pelvis_Relative pos Z_Pelvis,RightPelvis_accelX_RightPelvis,RightPelvis_accelY_RightPelvis,RightPelvis_accelZ_RightPelvis,RightPelvis_gyroX_RightPelvis,RightPelvis_gyroY_RightPelvis,RightPelvis_gyroZ_RightPelvis,RightPelvis_Joint angle_RightPelvis,RightPelvis_Relative pos X_RightPelvis,RightPelvis_Relative pos Y_RightPelvis,RightPelvis_Relative pos Z_RightPelvis,RightUpLeg_accelX_RightUpLeg,RightUpLeg_accelY_RightUpLeg,RightUpLeg_accelZ_RightUpLeg,RightUpLeg_gyroX_RightUpLeg,RightUpLeg_gyroY_RightUpLeg,RightUpLeg_gyroZ_RightUpLeg,RightUpLeg_Joint angle_RightUpLeg,RightUpLeg_Relative pos X_RightUpLeg,RightUpLeg_Relative pos Y_RightUpLeg,RightUpLeg_Relative pos Z_RightUpLeg,RightLeg_accelX_RightLeg,RightLeg_accelY_RightLeg,RightLeg_accelZ_RightLeg,RightLeg_gyroX_RightLeg,RightLeg_gyroY_RightLeg,RightLeg_gyroZ_RightLeg,RightLeg_Joint angle_RightLeg,RightLeg_Relative pos X_RightLeg,RightLeg_Relative pos Y_RightLeg,RightLeg_Relative pos Z_RightLeg,RightFoot_accelX_RightFoot,RightFoot_accelY_RightFoot,RightFoot_accelZ_RightFoot,RightFoot_gyroX_RightFoot,RightFoot_gyroY_RightFoot,RightFoot_gyroZ_RightFoot,RightFoot_Joint angle_RightFoot,RightFoot_Relative pos X_RightFoot,RightFoot_Relative pos Y_RightFoot,RightFoot_Relative pos Z_RightFoot,RightFootEnd_accelX_RightFootEnd,RightFootEnd_accelY_RightFootEnd,RightFootEnd_accelZ_RightFootEnd,RightFootEnd_gyroX_RightFootEnd,RightFootEnd_gyroY_RightFootEnd,RightFootEnd_gyroZ_RightFootEnd,RightFootEnd_Joint angle_RightFootEnd,RightFootEnd_Relative pos X_RightFootEnd,RightFootEnd_Relative pos Y_RightFootEnd,RightFootEnd_Relative pos Z_RightFootEnd,LeftPelvis_accelX_LeftPelvis,LeftPelvis_accelY_LeftPelvis,LeftPelvis_accelZ_LeftPelvis,LeftPelvis_gyroX_LeftPelvis,LeftPelvis_gyroY_LeftPelvis,LeftPelvis_gyroZ_LeftPelvis,LeftPelvis_Joint angle_LeftPelvis,LeftPelvis_Relative pos X_LeftPelvis,LeftPelvis_Relative pos Y_LeftPelvis,LeftPelvis_Relative pos Z_LeftPelvis,LeftUpLeg_accelX_LeftUpLeg,LeftUpLeg_accelY_LeftUpLeg,LeftUpLeg_accelZ_LeftUpLeg,LeftUpLeg_gyroX_LeftUpLeg,LeftUpLeg_gyroY_LeftUpLeg,LeftUpLeg_gyroZ_LeftUpLeg,LeftUpLeg_Joint angle_LeftUpLeg,LeftUpLeg_Relative pos X_LeftUpLeg,LeftUpLeg_Relative pos Y_LeftUpLeg,LeftUpLeg_Relative pos Z_LeftUpLeg,LeftLeg_accelX_LeftLeg,LeftLeg_accelY_LeftLeg,LeftLeg_accelZ_LeftLeg,LeftLeg_gyroX_LeftLeg,LeftLeg_gyroY_LeftLeg,LeftLeg_gyroZ_LeftLeg,LeftLeg_Joint angle_LeftLeg,LeftLeg_Relative pos X_LeftLeg,LeftLeg_Relative pos Y_LeftLeg,LeftLeg_Relative pos Z_LeftLeg,LeftFoot_accelX_LeftFoot,LeftFoot_accelY_LeftFoot,LeftFoot_accelZ_LeftFoot,LeftFoot_gyroX_LeftFoot,LeftFoot_gyroY_LeftFoot,LeftFoot_gyroZ_LeftFoot,LeftFoot_Joint angle_LeftFoot,LeftFoot_Relative pos X_LeftFoot,LeftFoot_Relative pos Y_LeftFoot,LeftFoot_Relative pos Z_LeftFoot,LeftFootEnd_accelX_LeftFootEnd,LeftFootEnd_accelY_LeftFootEnd,LeftFootEnd_accelZ_LeftFootEnd,LeftFootEnd_gyroX_LeftFootEnd,LeftFootEnd_gyroY_LeftFootEnd,LeftFootEnd_gyroZ_LeftFootEnd,LeftFootEnd_Joint angle_LeftFootEnd,LeftFootEnd_Relative pos X_LeftFootEnd,LeftFootEnd_Relative pos Y_LeftFootEnd,LeftFootEnd_Relative pos Z_LeftFootEnd,Spine_accelX_Spine,Spine_accelY_Spine,Spine_accelZ_Spine,Spine_gyroX_Spine,Spine_gyroY_Spine,Spine_gyroZ_Spine,Spine_Joint angle_Spine,Spine_Relative pos X_Spine,Spine_Relative pos Y_Spine,Spine_Relative pos Z_Spine,
0.0,0,-0.027893066,0.8230591,0.45965576,0.16113281,0.19238281,0.045898438,0.0,0.0,0.0,0.0,0.0,0.0,0.0,0.0,0.0,0.0,0.0,0.08238873,-0.14300776,-0.9860919,-1.0189209,1.2207031E-4,0.010131836,-0.15429688,0.07910156,0.034179688,12.100661,1.7057017,-2.9607036,-20.41516,1.0101929,-0.15130615,-0.12866211,-0.034179688,-0.001953125,-0.021484375,3.0116193,2.668692,-59.947464,-19.314497,-0.47424316,-0.30975342,0.81073,-0.01171875,0.005859375,0.018554688,7.8773127,3.9786606,-131.79977,-14.710756,0.0,0.0,0.0,0.0,0.0,0.0,0.0,-13.887318,-130.44719,-23.56277,0.0,0.0,0.0,0.0,0.0,0.0,0.0,-0.08238873,0.14300776,0.9860919,-0.89746094,0.028015137,-0.45355225,-0.13671875,0.09765625,-0.04296875,12.745771,-1.7057017,2.9607036,20.41516,1.0117798,-0.08355713,-0.15374756,0.0,-0.016601562,0.028320312,4.4841914,-2.8188932,-53.994354,18.109802,0.4052124,-0.3085327,0.8751221,0.022460938,0.028320312,-0.015625,10.347199,-9.308488,-125.71071,18.902834,0.0,0.0,0.0,0.0,0.0,0.0,0.0,-28.045467,-126.33106,11.931395,0.0,0.0,0.0,0.0,0.0,0.0,0.0,7.300687,44.018032,-5.7737265,
0.0195312497089617,1,-0.027893066,0.8230591,0.45965576,0.16113281,0.19238281,0.045898438,0.0,0.0,0.0,0.0,0.0,0.0,0.0,0.0,0.0,0.0,0.0,0.08238873,-0.14300776,-0.9860919,-1.0189209,1.2207031E-4,0.010131836,-0.15429688,0.07910156,0.034179688,12.100661,1.7057017,-2.9607036,-20.41516,1.0101929,-0.15130615,-0.12866211,-0.034179688,-0.001953125,-0.021484375,3.0116193,2.668692,-59.947464,-19.314497,-0.47424316,-0.30975342,0.81073,-0.01171875,0.005859375,0.018554688,7.8773127,3.9786606,-131.79977,-14.710756,0.0,0.0,0.0,0.0,0.0,0.0,0.0,-13.887318,-130.44719,-23.56277,0.0,0.0,0.0,0.0,0.0,0.0,0.0,-0.08238873,0.14300776,0.9860919,-0.89746094,0.028015137,-0.45355225,-0.13671875,0.09765625,-0.04296875,12.745771,-1.7057017,2.9607036,20.41516,1.0117798,-0.08355713,-0.15374756,0.0,-0.016601562,0.028320312,4.4841914,-2.8188932,-53.994354,18.109802,0.4052124,-0.3085327,0.8751221,0.022460938,0.028320312,-0.015625,10.347199,-9.308488,-125.71071,18.902834,0.0,0.0,0.0,0.0,0.0,0.0,0.0,-28.045467,-126.33106,11.931395,0.0,0.0,0.0,0.0,0.0,0.0,0.0,7.300687,44.018032,-5.7737265,
0.0390624994179234,2,-0.027893066,0.8230591,0.45965576,0.16113281,0.19238281,0.045898438,0.0,0.0,0.0,0.0,0.0,0.0,0.0,0.0,0.0,0.0,0.0,0.08238873,-0.14300776,-0.9860919,-1.0189209,1.2207031E-4,0.010131836,-0.15429688,0.07910156,0.034179688,12.100661,1.7057017,-2.9607036,-20.41516,1.0101929,-0.15130615,-0.12866211,-0.034179688,-0.001953125,-0.021484375,3.0116193,2.668692,-59.947464,-19.314497,-0.47424316,-0.30975342,0.81073,-0.01171875,0.005859375,0.018554688,7.8773127,3.9786606,-131.79977,-14.710756,0.0,0.0,0.0,0.0,0.0,0.0,0.0,-13.887318,-130.44719,-23.56277,0.0,0.0,0.0,0.0,0.0,0.0,0.0,-0.08238873,0.14300776,0.9860919,-0.89746094,0.028015137,-0.45355225,-0.13671875,0.09765625,-0.04296875,12.745771,-1.7057017,2.9607036,20.41516,1.0117798,-0.08355713,-0.15374756,0.0,-0.016601562,0.028320312,4.4841914,-2.8188932,-53.994354,18.109802,0.4052124,-0.3085327,0.8751221,0.022460938,0.028320312,-0.015625,10.347199,-9.308488,-125.71071,18.902834,0.0,0.0,0.0,0.0,0.0,0.0,0.0,-28.045467,-126.33106,11.931395,0.0,0.0,0.0,0.0,0.0,0.0,0.0,7.300687,44.018032,-5.7737265,
0.0585937491268851,3,0.14215088,0.40771484,0.52142334,-0.40527344,-0.31445312,0.60253906,0.0,0.0,0.0,0.0,0.0,0.0,0.0,0.0,0.0,0.0,0.0,0.47557008,0.072400935,0.87679905,-1.0939331,0.044433594,0.40112305,-0.099609375,0.6220703,0.6699219,29.965847,9.845775,1.4989238,18.152456,1.3654785,-0.00970459,-0.43347168,1.96875,-3.1757812,-0.009765625,28.029305,15.719698,-52.780117,34.555595,-1.8505859,-0.47070312,1.2520752,-0.38671875,4.2060547,2.4541016,152.98438,23.93,-123.102905,21.371344,0.0,0.0,0.0,0.0,0.0,0.0,0.0,34.127495,-110.41761,9.769432,0.0,0.0,0.0,0.0,0.0,0.0,0.0,-0.47557008,-0.072400935,-0.87679905,-0.704834,0.020080566,0.05230713,2.086914,1.5742188,-0.06640625,39.363403,-9.845775,-1.4989238,-18.152456,0.8754883,-0.47961426,0.049072266,0.3623047,-0.72558594,0.7480469,17.661854,5.216606,-52.97691,1.163744,0.5027466,-0.4899292,0.8345337,-0.10644531,0.6142578,1.0966797,64.171036,5.346732,-114.796005,38.10916,0.0,0.0,0.0,0.0,0.0,0.0,0.0,-9.750228,-112.61125,51.049137,0.0,0.0,0.0,0.0,0.0,0.0,0.0,18.303709,38.955997,-13.144571,
0.0781249988358468,4,0.11767578,0.36938477,0.49389648,-0.22753906,-0.25976562,0.6904297,0.0,0.0,0.0,0.0,0.0,0.0,0.0,0.0,0.0,0.0,0.0,0.43889612,0.053739347,0.8923049,-1.2475586,-0.07879639,0.09515381,-0.4033203,-0.6923828,0.5810547,31.469236,9.086512,1.112571,18.473478,1.319519,0.12768555,-0.7584839,1.0126953,-2.4765625,0.032226562,31.082336,14.317759,-53.151474,35.13895,-0.6934204,-1.15979,1.3583374,-1.0839844,3.2666016,2.3408203,19.332886,21.513988,-122.85201,18.534157,0.0,0.0,0.0,0.0,0.0,0.0,0.0,11.681638,-125.34776,35.00567,0.0,0.0,0.0,0.0,0.0,0.0,0.0,-0.43889612,-0.053739347,-0.8923049,-0.93377686,0.5345459,-0.3279419,1.0351562,1.7421875,0.08984375,40.62534,-9.086512,-1.112571,-18.473478,1.0446167,-0.16271973,-0.051208496,1.7548828,-1.0439453,0.33984375,18.985176,5.092842,-53.41927,-0.8389263,0.6325073,-0.5969238,0.79174805,-0.068359375,0.5761719,0.9267578,63.507298,3.7832024,-115.214294,36.11505,0.0,0.0,0.0,0.0,0.0,0.0,0.0,-11.598183,-112.66831,48.628708,0.0,0.0,0.0,0.0,0.0,0.0,0.0,19.786871,38.362644,-12.042929,
0.09765624854480849,5,-0.04724121,0.5820923,0.4482422,0.034179688,-0.07421875,0.72265625,0.0,0.0,0.0,0.0,0.0,0.0,0.0,0.0,0.0,0.0,0.0,0.3993622,0.03308683,0.9121815,-1.4075317,-0.0423584,-0.2649536,-0.4248047,-2.1738281,0.2421875,33.55272,8.268035,0.6849993,18.884985,0.97857666,-0.013366699,-1.0061035,-0.7294922,-2.0283203,-0.11621094,35.30576,13.486345,-53.014492,37.305374,-0.90148926,-0.8604126,1.4556885,-0.5673828,2.178711,1.8193359,16.23714,20.290665,-121.9996,17.807634,0.0,0.0,0.0,0.0,0.0,0.0,0.0,10.34482,-127.58336,33.05188,0.0,0.0,0.0,0.0,0.0,0.0,0.0,-0.3993622,-0.03308683,-0.9121815,-1.2543945,0.2290039,-0.27392578,-0.7236328,1.8916016,0.27441406,40.917084,-8.268035,-0.6849993,-18.884985,1.1270142,0.15332031,-0.15661621,0.2841797,-0.89160156,0.43066406,20.563805,4.305359,-53.809494,-2.449726,0.5583496,-0.4520874,0.8421631,0.0078125,0.5185547,0.73828125,62.67637,0.41719913,-115.11368,35.03816,0.0,0.0,0.0,0.0,0.0,0.0,0.0,-15.214114,-112.285,47.175106,0.0,0.0,0.0,0.0,0.0,0.0,0.0,21.150745,38.07298,-10.640997,
0.11718749825377019,6,-0.22912598,0.93811035,0.53948975,-0.7392578,0.30371094,0.5966797,0.0,0.0,0.0,0.0,0.0,0.0,0.0,0.0,0.0,0.0,0.0,0.35326564,0.033372052,0.93203104,-1.5003662,0.15338135,-0.25378418,-0.2919922,-2.8896484,-0.28027344,36.186058,7.3136935,0.6909052,19.295935,1.1325684,-0.22839355,-1.0093384,-0.83496094,-1.5126953,-0.10546875,40.36475,13.306522,-51.883125,40.51188,-0.6244507,-1.4786377,1.2850342,-0.8486328,0.6894531,0.67089844,15.851908,20.01731,-120.12909,18.536978,0.0,0.0,0.0,0.0,0.0,0.0,0.0,9.913643,-128.58783,32.534714,0.0,0.0,0.0,0.0,0.0,0.0,0.0,-0.35326564,-0.033372052,-0.93203104,-1.0467529,-0.08935547,-0.3413086,-0.09765625,0.54589844,0.080078125,41.096516,-7.3136935,-0.6909052,-19.295935,0.9486084,-0.2043457,-0.057861328,-0.7597656,-0.7451172,0.74316406,20.496243,4.190476,-54.249165,-3.512619,0.45025635,-0.37963867,0.80114746,0.10546875,0.4248047,0.15429688,63.648407,-0.9856324,-116.053314,33.094894,0.0,0.0,0.0,0.0,0.0,0.0,0.0,-16.84904,-113.22325,44.945137,0.0,0.0,0.0,0.0,0.0,0.0,0.0,22.035725,37.8712,-9.7081585,
0.1367187479627319,7,-0.27349854,1.3379517,0.73895264,-0.8154297,-0.25683594,0.22851562,0.0,0.0,0.0,0.0,0.0,0.0,0.0,0.0,0.0,0.0,0.0,0.32210082,0.03174112,0.94314784,-1.4464722,0.12799072,-0.054992676,0.19921875,-2.8652344,-0.5292969,39.75941,6.668484,0.65714,19.526087,1.1558228,-0.20928955,-0.8768921,0.06738281,-0.70703125,-0.10644531,44.609756,13.737181,-50.594044,43.470253,0.21026611,-0.8998413,0.9628296,-0.013671875,0.14941406,-0.07714844,19.293886,20.170065,-118.39249,20.049297,0.0,0.0,0.0,0.0,0.0,0.0,0.0,10.188414,-129.10693,32.824226,0.0,0.0,0.0,0.0,0.0,0.0,0.0,-0.32210082,-0.03174112,-0.94314784,-0.83618164,0.028259277,-0.30718994,0.51464844,0.83984375,0.36035156,42.12199,-6.668484,-0.65714,-19.526087,1.0401001,-0.13378906,-0.10064697,-0.5683594,-0.76660156,0.515625,21.266233,4.147264,-54.691734,-5.0310526,0.42889404,-0.5112915,0.81707764,0.36914062,0.2109375,-0.017578125,63.969822,-2.2148557,-116.75748,30.929287,0.0,0.0,0.0,0.0,0.0,0.0,0.0,-18.095545,-113.99235,42.77166,0.0,0.0,0.0,0.0,0.0,0.0,0.0,23.221037,37.28062,-9.18503,
0.1562499976716936,8,-0.17401123,1.2351074,0.6001587,0.66796875,-1.1474609,-0.4140625,0.0,0.0,0.0,0.0,0.0,0.0,0.0,0.0,0.0,0.0,0.0,0.30399108,0.009326637,0.9498254,-1.3104858,-0.058776855,0.23779297,0.8408203,-3.2783203,-0.78222656,43.665394,6.293558,0.19309038,19.664331,0.95703125,-0.075683594,-0.8765259,0.16503906,0.2685547,-0.4375,47.83874,14.766999,-49.46608,46.36908,-0.27075195,-0.8442383,0.88616943,-0.22265625,-0.23046875,-0.5810547,23.708954,21.428478,-117.22561,22.9052,0.0,0.0,0.0,0.0,0.0,0.0,0.0,11.696806,-129.6615,34.44809,0.0,0.0,0.0,0.0,0.0,0.0,0.0,-0.30399108,-0.009326637,-0.9498254,-0.8340454,0.11352539,-0.23480225,1.1650391,1.2294922,0.45507812,42.375187,-6.293558,-0.19309038,-19.664331,0.9761963,-0.21966553,-0.07116699,-0.8388672,-0.7441406,0.5185547,21.385756,3.5831976,-54.641293,-5.9641056,0.45422363,-0.3918457,0.8109741,0.63671875,0.22363281,-0.056640625,65.42778,-3.8798494,-117.02086,29.241415,0.0,0.0,0.0,0.0,0.0,0.0,0.0,-19.918007,-114.47486,40.921528,0.0,0.0,0.0,0.0,0.0,0.0,0.0,24.0219,37.044746,-8.051949,
0.1757812473806553,9,-0.045898438,0.85650635,0.33099365,0.7841797,-0.5878906,-0.8691406,0.0,0.0,0.0,0.0,0.0,0.0,0.0,0.0,0.0,0.0,0.0,0.27299386,-0.006128758,0.96137255,-1.1448975,-0.031982422,0.2374878,1.6132812,-3.6376953,-0.7861328,46.969917,5.651819,-0.12688443,19.903393,0.83654785,-0.06262207,-0.9680786,-0.40722656,0.85546875,-0.8408203,50.72192,15.734995,-47.781967,49.541786,-0.6542969,-0.45147705,0.72631836,-0.67285156,-0.9394531,-0.46777344,25.355515,23.370447,-115.69361,26.831738,0.0,0.0,0.0,0.0,0.0,0.0,0.0,13.484562,-128.98364,37.874496,0.0,0.0,0.0,0.0,0.0,0.0,0.0,-0.27299386,0.006128758,-0.96137255,-0.897522,0.028686523,-0.2786255,1.1855469,1.4443359,0.35351562,40.630856,-5.651819,0.12688443,-19.903393,1.0194092,-0.16937256,-0.06939697,-0.25976562,-0.7714844,0.3798828,21.763567,3.0624847,-54.820324,-7.5025635,0.4663086,-0.4260254,0.8109741,0.40820312,0.2109375,-0.16796875,66.21399,-5.4910927,-117.43646,27.025345,0.0,0.0,0.0,0.0,0.0,0.0,0.0,-21.628126,-115.13143,38.61716,0.0,0.0,0.0,0.0,0.0,0.0,0.0,23.657045,37.695602,-6.4774055,
0.19531249708961698,10,-0.09674072,0.64660645,0.3883667,-0.14355469,-0.12597656,-0.82714844,0.0,0.0,0.0,0.0,0.0,0.0,0.0,0.0,0.0,0.0,0.0,0.2594847,-0.015120566,0.96316946,-1.0050659,0.12872314,0.16967773,2.1601562,-2.9921875,-0.47460938,49.969517,5.3721366,-0.31304246,19.940594,0.7770386,-0.24273682,-0.91937256,-0.6357422,1.28125,-1.0419922,50.889996,17.428524,-46.464653,50.195503,-0.5559082,-0.34973145,0.6488037,-1.3710938,-1.5693359,-0.39746094,23.539537,26.571264,-114.61195,28.785633,0.0,0.0,0.0,0.0,0.0,0.0,0.0,16.163605,-127.64926,39.752583,0.0,0.0,0.0,0.0,0.0,0.0,0.0,-0.2594847,0.015120566,-0.96316946,-0.93878174,0.021057129,-0.29632568,1.5869141,1.2177734,0.32714844,39.55756,-5.3721366,0.31304246,-19.940594,1.0223389,-0.047546387,-0.0021362305,-0.6464844,-0.7470703,0.47851562,22.205772,2.2892642,-55.11233,-9.034422,0.40246582,-0.4649048,0.82403564,0.46484375,0.19042969,-0.16796875,65.53953,-7.3187118,-118.0703,24.576868,0.0,0.0,0.0,0.0,0.0,0.0,0.0,-23.435879,-115.936455,36.230602,0.0,0.0,0.0,0.0,0.0,0.0,0.0,23.633759,37.729183,-5.7748017,
0.21484374679857868,11,-0.1404419,0.56591797,0.4923706,-0.3955078,-0.6308594,-0.66015625,0.0,0.0,0.0,0.0,0.0,0.0,0.0,0.0,0.0,0.0,0.0,0.24914348,-0.021627694,0.96596587,-1.0251465,0.22991943,0.009033203,1.7236328,-2.9257812,0.099609375,52.53957,5.158043,-0.44776085,19.998486,0.74334717,-0.28033447,-0.98101807,0.24414062,1.6669922,-0.98339844,50.461235,18.56071,-45.58763,51.05401,-0.68395996,-0.44683838,0.57702637,-1.6357422,-1.9072266,-0.5654297,22.03537,29.2546,-114.07346,31.51876,0.0,0.0,0.0,0.0,0.0,0.0,0.0,18.202917,-126.78762,42.246872,0.0,0.0,0.0,0.0,0.0,0.0,0.0,-0.24914348,0.021627694,-0.96596587,-0.942688,0.17529297,-0.27752686,1.7011719,1.2919922,0.40820312,38.991367,-5.158043,0.44776085,-19.998486,0.9852905,-0.15588379,-0.029296875,-0.8388672,-0.7998047,0.53808594,22.54184,1.4411054,-55.336853,-10.288271,0.46081543,-0.26574707,0.8857422,0.40722656,0.15332031,-0.111328125,66.21301,-9.25112,-118.53176,22.551298,0.0,0.0,0.0,0.0,0.0,0.0,0.0,-25.522562,-116.64031,34.03237,0.0,0.0,0.0,0.0,0.0,0.0,0.0,23.998062,37.571785,-5.348398,
0.23437499650754037,12,-0.11730957,0.5095825,0.4694214,-0.32910156,-0.9921875,-0.5371094,0.0,0.0,0.0,0.0,0.0,0.0,0.0,0.0,0.0,0.0,0.0,0.24228042,-0.036387235,0.9672688,-1.0654297,0.14099121,0.1239624,1.5888672,-3.7285156,0.22558594,55.656822,5.015955,-0.7533281,20.025463,0.61987305,-0.09484863,-1.0020752,1.3134766,2.2226562,-0.97753906,49.65506,19.768211,-44.720207,52.23403,-0.5480957,-0.4790039,0.65411377,-1.4296875,-2.0292969,-1.1972656,21.578615,31.794071,-113.7345,35.553013,0.0,0.0,0.0,0.0,0.0,0.0,0.0,20.196054,-126.12119,46.082073,0.0,0.0,0.0,0.0,0.0,0.0,0.0,-0.24228042,0.036387235,-0.9672688,-1.0373535,0.30908203,-0.27349854,1.5859375,1.1396484,0.32714844,38.701504,-5.015955,0.7533281,-20.025463,1.0140991,-0.07543945,-0.008666992,-0.4921875,-0.86035156,0.25195312,22.53121,0.46464825,-55.301586,-11.19894,0.4520874,-0.3899536,0.8297119,0.2529297,0.099609375,-0.0546875,66.371574,-11.320678,-118.766815,20.750341,0.0,0.0,0.0,0.0,0.0,0.0,0.0,-27.716022,-117.0571,32.08227,0.0,0.0,0.0,0.0,0.0,0.0,0.0,24.55468,37.291885,-4.7475615,
0.2539062462165021,13,-0.043945312,0.6045532,0.40252686,-0.16015625,-0.6328125,-0.48339844,0.0,0.0,0.0,0.0,0.0,0.0,0.0,0.0,0.0,0.0,0.0,0.23321727,-0.05039841,0.96902025,-0.90771484,0.10614014,0.15447998,0.6113281,-2.9873047,0.13769531,58.7381,4.828321,-1.0434034,20.061724,0.49420166,0.07965088,-0.95544434,1.1337891,2.7958984,-0.9121094,47.143715,21.56534,-44.110638,51.68405,-0.37756348,-0.24169922,0.7906494,-1.1074219,-2.4257812,-1.7685547,22.424332,33.66422,-113.83789,38.326874,0.0,0.0,0.0,0.0,0.0,0.0,0.0,21.835033,-125.93778,48.71249,0.0,0.0,0.0,0.0,0.0,0.0,0.0,-0.23321727,0.05039841,-0.96902025,-1.012146,0.31610107,-0.1762085,0.6484375,0.50390625,0.091796875,38.765663,-4.828321,1.0434034,-20.061724,0.9904785,-0.07702637,0.0095825195,-1.0322266,-0.9082031,0.3720703,22.21208,-0.09132671,-55.146748,-11.708294,0.43377686,-0.36462402,0.8307495,0.29003906,0.060546875,-0.091796875,65.904686,-12.890546,-118.98775,19.053602,0.0,0.0,0.0,0.0,0.0,0.0,0.0,-29.336864,-117.40954,30.330051,0.0,0.0,0.0,0.0,0.0,0.0,0.0,25.078037,37.02648,-4.1098795,
0.2734374959254638,14,-0.029907227,0.8216553,0.3840332,0.328125,-0.7011719,-0.43945312,0.0,0.0,0.0,0.0,0.0,0.0,0.0,0.0,0.0,0.0,0.0,0.21450683,-0.06260319,0.9740664,-0.84887695,-0.020141602,0.15045166,0.19824219,-2.4521484,-0.0859375,61.25908,4.4409566,-1.2960806,20.166193,0.35888672,0.1272583,-0.9420166,0.17773438,3.4003906,-0.86816406,43.430035,23.131369,-44.280228,51.777897,-0.2543335,-0.18310547,0.90893555,-1.0673828,-2.899414,-2.0058594,21.410158,37.28453,-114.33412,42.903893,0.0,0.0,0.0,0.0,0.0,0.0,0.0,25.048244,-125.886566,53.577003,0.0,0.0,0.0,0.0,0.0,0.0,0.0,-0.21450683,0.06260319,-0.9740664,-0.95202637,0.1583252,-0.13220215,0.11230469,0.30566406,0.015625,38.801952,-4.4409566,1.2960806,-20.166193,0.96014404,-0.25231934,0.0024414062,-0.8769531,-0.9658203,0.37109375,22.11626,0.037490845,-54.91093,-11.767726,0.4046631,-0.41918945,0.8515625,0.328125,0.021484375,-0.09277344,66.11055,-13.845308,-118.92978,18.161705,0.0,0.0,0.0,0.0,0.0,0.0,0.0,-30.330746,-117.464294,29.394876,0.0,0.0,0.0,0.0,0.0,0.0,0.0,25.24324,37.082844,-3.175702,
0.2929687456344255,15,-0.010253906,0.92041016,0.37438965,0.18554688,-0.86621094,-0.3095703,0.0,0.0,0.0,0.0,0.0,0.0,0.0,0.0,0.0,0.0,0.0,0.17468864,-0.061960906,0.982298,-0.73565674,-0.18066406,-0.19067383,0.10644531,-1.9912109,-0.36816406,63.390507,3.616596,-1.2827826,20.336613,0.2514038,0.08251953,-0.9152832,-0.6425781,4.1152344,-0.74609375,39.74637,23.895096,-43.287987,52.87965,0.0087890625,-0.22064209,1.0767822,-0.7441406,-3.4033203,-2.5185547,20.362986,41.35984,-113.079735,49.78039,0.0,0.0,0.0,0.0,0.0,0.0,0.0,28.914131,-124.04495,60.59559,0.0,0.0,0.0,0.0,0.0,0.0,0.0,-0.17468864,0.061960906,-0.982298,-0.9075928,0.030761719,-0.111572266,0.64941406,0.9140625,0.15429688,37.450363,-3.616596,1.2827826,-20.336613,0.9529419,-0.16247559,-0.05529785,-0.21875,-1.125,0.2705078,22.208023,0.34155488,-55.01058,-12.277834,0.43170166,-0.38153076,0.82489014,0.40527344,0.0390625,-0.14941406,65.91549,-14.773884,-119.150665,16.767803,0.0,0.0,0.0,0.0,0.0,0.0,0.0,-31.283379,-117.84775,27.985992,0.0,0.0,0.0,0.0,0.0,0.0,0.0,24.60265,37.605957,-2.0031643,
0.3124999953433872,16,0.0045166016,0.8640747,0.3277588,0.17089844,-0.71484375,-0.38183594,0.0,0.0,0.0,0.0,0.0,0.0,0.0,0.0,0.0,0.0,0.0,0.13341358,-0.061475813,0.9888649,-0.59814453,-0.20544434,-0.28253174,0.015625,-1.1503906,-0.56933594,65.133316,2.7620742,-1.2727396,20.472569,0.12402344,0.06652832,-1.0128784,-1.2255859,5.0527344,-0.42871094,37.35554,24.279295,-42.416336,53.481205,-0.14941406,-0.5787964,1.192749,-0.08203125,-3.7773438,-3.4208984,27.25931,39.74935,-112.71095,55.58005,0.0,0.0,0.0,0.0,0.0,0.0,0.0,27.77355,-124.2245,65.79693,0.0,0.0,0.0,0.0,0.0,0.0,0.0,-0.13341358,0.061475813,-0.9888649,-0.91552734,0.03289795,-0.27661133,1.3955078,1.0087891,0.14453125,35.963745,-2.7620742,1.2727396,-20.472569,0.96069336,-0.064819336,-0.11828613,-0.17871094,-1.1621094,0.3642578,22.358744,0.4858954,-55.171947,-13.173909,0.4580078,-0.49316406,0.73913574,0.54003906,0.07519531,-0.2626953,64.46481,-16.008688,-119.51938,14.639802,0.0,0.0,0.0,0.0,0.0,0.0,0.0,-32.431305,-118.379875,26.000633,0.0,0.0,0.0,0.0,0.0,0.0,0.0,23.99619,38.04303,-0.87240505,
0.3320312450523489,17,0.033996582,0.75097656,0.3121338,0.7890625,-0.4296875,-0.59472656,0.0,0.0,0.0,0.0,0.0,0.0,0.0,0.0,0.0,0.0,0.0,0.11010921,-0.07111722,0.9899745,-0.42218018,-0.21862793,-0.34423828,0.6201172,-0.86035156,-0.75878906,66.64789,2.279603,-1.4723468,20.49554,-0.016540527,-0.081970215,-0.9333496,-1.8476562,5.607422,0.043945312,34.076675,24.916328,-41.999054,53.574497,-0.74035645,-0.056762695,1.2632446,0.9042969,-4.323242,-4.2783203,35.709465,38.373528,-112.24135,62.000618,0.0,0.0,0.0,0.0,0.0,0.0,0.0,26.967447,-124.42514,72.115685,0.0,0.0,0.0,0.0,0.0,0.0,0.0,-0.11010921,0.07111722,-0.9899745,-0.79901123,0.10852051,-0.2142334,1.6054688,1.0224609,0.14257812,34.578857,-2.279603,1.4723468,-20.49554,0.8137207,-0.1505127,-0.053588867,-0.5839844,-1.2109375,0.40820312,23.449907,0.18173957,-55.14062,-14.239449,0.45837402,-0.38189697,0.8109741,1.1357422,0.23339844,-0.4736328,63.46497,-18.26687,-119.16092,13.007248,0.0,0.0,0.0,0.0,0.0,0.0,0.0,-34.48866,-118.297165,24.67742,0.0,0.0,0.0,0.0,0.0,0.0,0.0,23.51083,38.296413,0.13614035,
0.3515624947613106,18,0.04498291,0.6744385,0.20172119,1.4130859,-0.5605469,-0.6640625,0.0,0.0,0.0,0.0,0.0,0.0,0.0,0.0,0.0,0.0,0.0,0.09699324,-0.094601244,0.9894432,-0.3050537,-0.19927979,-0.37963867,0.98046875,-0.01953125,-0.82714844,67.706245,2.0080612,-1.9585391,20.48454,0.053100586,-0.17736816,-0.8197632,-2.078125,5.71875,0.49414062,28.542501,25.46446,-42.327488,53.182068,-1.7797852,0.29089355,1.1429443,0.6279297,-4.9560547,-3.4707031,41.589863,40.160965,-111.06818,68.80559,0.0,0.0,0.0,0.0,0.0,0.0,0.0,29.064232,-123.654785,78.82298,0.0,0.0,0.0,0.0,0.0,0.0,0.0,-0.09699324,0.094601244,-0.9894432,-0.93518066,0.28466797,-0.31207275,1.4541016,1.1826172,0.041992188,33.18653,-2.0080612,1.9585391,-20.48454,0.9580078,-0.17675781,-0.23699951,0.4033203,-1.3564453,0.2841797,24.254297,-0.37731123,-54.772636,-15.110811,0.3652954,-0.085510254,0.9352417,0.71191406,0.07128906,-0.3203125,64.814285,-20.735659,-118.56712,11.405298,0.0,0.0,0.0,0.0,0.0,0.0,0.0,-37.231194,-118.19905,22.709044,0.0,0.0,0.0,0.0,0.0,0.0,0.0,22.985184,38.59095,1.4365101,
0.37109374447027227,19,-0.054626465,0.6842041,0.23132324,1.1523438,-0.7207031,-0.421875,0.0,0.0,0.0,0.0,0.0,0.0,0.0,0.0,0.0,0.0,0.0,0.08395165,-0.12252256,0.98773026,-0.32318115,0.022644043,-0.18566895,0.73828125,0.9140625,-0.85546875,67.91024,1.7380588,-2.536597,20.44908,0.44152832,-0.3866577,-0.72839355,-2.4472656,5.623047,0.84765625,23.473667,25.515074,-43.46312,52.220848,-2.0,-0.26904297,0.4804077,0.04296875,-5.0410156,-2.8984375,50.295074,39.537994,-110.48318,74.50303,0.0,0.0,0.0,0.0,0.0,0.0,0.0,28.51027,-123.493935,84.111404,0.0,0.0,0.0,0.0,0.0,0.0,0.0,-0.08395165,0.12252256,-0.98773026,-0.93518066,0.28466797,-0.31207275,1.4541016,1.1826172,0.041992188,32.912704,-1.7380588,2.536597,-20.44908,1.0706787,0.2965088,-0.39642334,0.94433594,-1.4580078,0.12792969,25.232529,-0.107308865,-54.194576,-15.07535,0.49993896,-0.19116211,0.9545288,0.24902344,-0.12890625,-0.1484375,64.56566,-22.7254,-117.62695,10.379965,0.0,0.0,0.0,0.0,0.0,0.0,0.0,-39.49771,-117.525925,21.27843,0.0,0.0,0.0,0.0,0.0,0.0,0.0,22.436138,38.838516,2.9107585,
0.39062499417923396,20,-0.07537842,0.7914429,0.2944336,0.8984375,-0.68652344,-0.068359375,0.0,0.0,0.0,0.0,0.0,0.0,0.0,0.0,0.0,0.0,0.0,0.07063672,-0.14827871,0.98528975,-0.6268921,0.47930908,0.41705322,0.4736328,1.5,-0.6015625,67.49987,1.4623985,-3.0698287,20.398554,1.0111694,-0.81915283,-0.32458496,-2.0830078,4.751953,1.3613281,17.989162,24.97153,-45.123856,50.884026,-2.0,-0.6851196,-0.5349121,0.7685547,-3.4277344,-3.8417969,57.902702,39.34817,-109.80263,79.07913,0.0,0.0,0.0,0.0,0.0,0.0,0.0,28.591026,-123.23516,88.4869,0.0,0.0,0.0,0.0,0.0,0.0,0.0,-0.07063672,0.14827871,-0.98528975,-1.0400391,-0.25646973,-0.19122314,-0.76660156,-0.1953125,-0.48632812,32.07506,-1.4623985,3.0698287,-20.398554,0.96698,0.3661499,-0.18151855,-1.2773438,-1.4228516,0.49414062,25.930601,-0.6541603,-53.748863,-16.152252,0.6937866,-1.2605591,1.1149902,-0.9794922,-0.40527344,0.0087890625,63.266094,-25.199858,-116.98387,8.026535,0.0,0.0,0.0,0.0,0.0,0.0,0.0,-42.03228,-116.72851,18.816427,0.0,0.0,0.0,0.0,0.0,0.0,0.0,22.236778,38.832375,4.249796,
0.41015624388819566,21,-0.07550049,0.9003906,0.24060059,1.2734375,-0.6152344,0.12402344,0.0,0.0,0.0,0.0,0.0,0.0,0.0,0.0,0.0,0.0,0.0,0.032057613,-0.15753765,0.9868958,-1.2593994,0.70477295,1.5183716,0.43164062,0.7285156,0.059570312,65.76161,0.6636914,-3.2615178,20.431805,0.93536377,-0.40014648,-0.14190674,1.8974609,3.828125,0.6064453,13.492321,23.553247,-46.29045,49.94047,-2.0,0.42907715,-0.60736084,1.1777344,-1.9160156,-3.4414062,61.91953,38.36097,-108.188446,83.62745,0.0,0.0,0.0,0.0,0.0,0.0,0.0,28.225445,-121.881195,93.39717,0.0,0.0,0.0,0.0,0.0,0.0,0.0,-0.032057613,0.15753765,-0.9868958,-1.0400391,-0.25646973,-0.19122314,-0.76660156,-0.1953125,-0.48632812,30.897367,-0.6636914,3.2615178,-20.431805,1.0968628,-0.7399292,0.26263428,-2.4208984,-1.1083984,0.6738281,27.003662,0.1445468,-53.557175,-16.185501,0.38110352,0.5342407,0.98895264,0.005859375,-0.75390625,0.078125,65.80682,-26.183933,-116.24484,7.4898376,0.0,0.0,0.0,0.0,0.0,0.0,0.0,-43.11178,-116.30224,18.129597,0.0,0.0,0.0,0.0,0.0,0.0,0.0,20.919502,39.43915,5.616118,
0.42968749359715736,22,-0.025024414,0.9981079,0.19628906,0.48535156,-0.08203125,0.0546875,0.0,0.0,0.0,0.0,0.0,0.0,0.0,0.0,0.0,0.0,0.0,-0.013726234,-0.15984416,0.9868082,-1.312439,0.41278076,1.2733765,0.4296875,-0.1484375,0.0703125,65.08571,-0.28417683,-3.3092697,20.429989,1.0765381,0.23309326,0.15124512,0.7216797,2.0322266,-0.41992188,11.520409,22.463436,-46.385983,50.03216,-2.0,0.9137573,-0.99938965,0.25195312,-1.0166016,-1.6318359,64.19165,38.400288,-106.50496,86.300125,0.0,0.0,0.0,0.0,0.0,0.0,0.0,29.011377,-120.72189,96.13491,0.0,0.0,0.0,0.0,0.0,0.0,0.0,0.013726234,0.15984416,-0.9868082,-1.0400391,-0.25646973,-0.19122314,-0.76660156,-0.1953125,-0.48632812,29.64269,0.28417683,3.3092697,-20.429989,1.0023193,0.12640381,0.031677246,1.9912109,-2.1044922,-0.4609375,27.98096,1.0924151,-53.509422,-16.183685,0.47875977,-0.18817139,1.1052856,-0.11621094,-1.2255859,-0.072265625,64.15697,-27.489513,-115.81762,5.869419,0.0,0.0,0.0,0.0,0.0,0.0,0.0,-44.608665,-115.70702,16.201382,0.0,0.0,0.0,0.0,0.0,0.0,0.0,19.463652,39.995743,6.7492847,
0.44921874330611905,23,0.09399414,1.1855469,0.3250122,0.20898438,-0.12792969,0.24316406,0.0,0.0,0.0,0.0,0.0,0.0,0.0,0.0,0.0,0.0,0.0,-0.04447514,-0.1638514,0.9847777,-0.9819946,0.25524902,0.9176636,-0.39648438,0.484375,-0.41992188,64.936676,-0.9207731,-3.3922317,20.38795,1.0401611,0.17712402,0.047729492,-0.9355469,0.5546875,-0.60546875,10.262378,21.7435,-46.758675,49.628983,-2.0,0.21234131,-1.1506348,-0.4345703,0.31933594,-0.47851562,68.01587,38.673836,-106.1459,86.6895,0.0,0.0,0.0,0.0,0.0,0.0,0.0,30.314163,-121.257416,96.20215,0.0,0.0,0.0,0.0,0.0,0.0,0.0,0.04447514,0.1638514,-0.9847777,-1.2827759,0.21765137,0.014892578,-0.8623047,-0.11425781,-0.34179688,28.496347,0.9207731,3.3922317,-20.38795,1.069458,0.22235107,0.078125,-0.7519531,-1.8574219,0.3798828,28.311623,1.4550695,-53.56593,-18.00506,0.32489014,-0.37200928,1.1010132,-0.609375,-1.921875,0.21191406,61.546406,-28.044724,-116.2816,1.5641899,0.0,0.0,0.0,0.0,0.0,0.0,0.0,-45.372345,-116.055016,11.543511,0.0,0.0,0.0,0.0,0.0,0.0,0.0,19.0156,40.050083,7.522493,
0.46874999301508075,24,0.13739014,1.3670654,0.3024292,0.42285156,-0.21386719,0.091796875,0.0,0.0,0.0,0.0,0.0,0.0,0.0,0.0,0.0,0.0,0.0,-0.06139216,-0.1782914,0.98146796,-0.55493164,-0.030578613,0.056030273,-0.86621094,0.69628906,-0.70410156,65.364716,-1.2710079,-3.6911845,20.319431,0.73443604,0.09942627,-0.46514893,-0.30566406,-0.55078125,0.0146484375,10.72543,21.71793,-47.438812,48.723816,-1.8531494,-0.45159912,-0.66430664,0.12597656,1.5126953,-0.65234375,71.46793,38.322994,-107.12126,85.42747,0.0,0.0,0.0,0.0,0.0,0.0,0.0,31.318493,-123.09433,94.711266,0.0,0.0,0.0,0.0,0.0,0.0,0.0,0.06139216,0.1782914,-0.98146796,-1.1636963,0.3324585,-0.049194336,0.30371094,-0.01171875,-0.33496094,29.093815,1.2710079,3.6911845,-20.319431,1.2723389,-0.35620117,0.22106934,-0.66503906,-2.3398438,0.8935547,30.62207,1.9519298,-53.27254,-18.121489,0.43951416,-0.40826416,1.1085205,-0.5234375,-2.5683594,-0.296875,62.79051,-30.625467,-114.77085,0.3643055,0.0,0.0,0.0,0.0,0.0,0.0,0.0,-48.132515,-114.43554,10.025053,0.0,0.0,0.0,0.0,0.0,0.0,0.0,18.994995,39.88373,8.433356,
0.48828124272404244,25,0.11846924,1.4423828,0.19213867,0.021484375,0.13476562,-0.11621094,0.0,0.0,0.0,0.0,0.0,0.0,0.0,0.0,0.0,0.0,0.0,-0.07608035,-0.18647762,0.9788717,-0.54107666,-0.10510254,-0.21704102,-1.5048828,1.7216797,-0.57910156,64.485504,-1.575099,-3.8606648,20.26568,0.6627197,0.15783691,-0.8779297,0.08496094,-0.8027344,-0.0859375,11.440587,21.101997,-48.57333,47.40277,-1.1800537,-0.67266846,1.999939,1.4980469,0.6376953,-0.95703125,74.79683,36.33487,-109.48457,82.64635,0.0,0.0,0.0,0.0,0.0,0.0,0.0,30.684616,-125.96375,92.03474,0.0,0.0,0.0,0.0,0.0,0.0,0.0,0.07608035,0.18647762,-0.9788717,-1.1932373,0.30688477,0.14129639,0.2998047,-0.6376953,0.052734375,29.766712,1.575099,3.8606648,-20.26568,1.0539551,-0.175354,0.3012085,0.8486328,-3.1054688,0.46972656,33.713146,2.707854,-53.095238,-18.156204,0.49121094,-0.58410645,1.000061,-0.95703125,-3.3564453,-0.54003906,62.800243,-33.559444,-112.98294,-1.2978096,0.0,0.0,0.0,0.0,0.0,0.0,0.0,-51.220047,-112.594864,8.075106,0.0,0.0,0.0,0.0,0.0,0.0,0.0,18.916319,39.783894,9.049158,
0.5078124924330042,26,-0.022338867,1.2168579,0.38702393,-0.01953125,0.6894531,-0.12890625,0.0,0.0,0.0,0.0,0.0,0.0,0.0,0.0,0.0,0.0,0.0,-0.095074266,-0.18441169,0.9777957,-0.9121704,-0.2921753,0.057128906,-1.5029297,2.2001953,-0.74609375,62.2292,-1.96833,-3.8178937,20.243404,1.3069458,0.17889404,-0.42523193,-0.77734375,-1.4082031,-0.71484375,11.20066,19.914467,-49.72184,44.789547,-2.0,-1.9628296,1.3812866,0.15429688,-1.7167969,7.361328,75.444756,34.457153,-111.5729,78.667175,0.0,0.0,0.0,0.0,0.0,0.0,0.0,28.24444,-128.26251,87.299835,0.0,0.0,0.0,0.0,0.0,0.0,0.0,0.095074266,0.18441169,-0.9777957,-1.2249756,0.11633301,0.27746582,-0.98339844,-1.3994141,-0.09667969,31.1396,1.96833,3.8178937,-20.243404,1.2695312,0.18670654,0.15826416,-0.31152344,-3.1425781,0.5410156,37.197353,4.0989494,-53.07807,-17.341404,0.305542,-0.74975586,1.2598877,-1.1005859,-4.1845703,-1.5566406,61.92002,-35.877426,-111.187744,-2.7902927,0.0,0.0,0.0,0.0,0.0,0.0,0.0,-53.612823,-110.811554,6.441868,0.0,0.0,0.0,0.0,0.0,0.0,0.0,18.853378,39.758183,9.331545,
0.5273437421419659,27,-0.14715576,0.9594116,0.7902832,-0.15039062,0.89453125,-0.4716797,0.0,0.0,0.0,0.0,0.0,0.0,0.0,0.0,0.0,0.0,0.0,-0.11661476,-0.17489931,0.97723174,-2.0,0.6296997,0.74835205,-1.6132812,2.9453125,-0.96875,58.763985,-2.414287,-3.6209579,20.231728,1.999939,-1.5828857,-0.8260498,-7.8964844,-0.27734375,3.2109375,11.77311,18.8328,-51.82647,41.781742,1.2192993,-2.0,1.1723633,-1.2207031,-0.16894531,-2.3955078,81.22697,31.611435,-115.56381,72.72139,0.0,0.0,0.0,0.0,0.0,0.0,0.0,26.688007,-133.12862,80.48791,0.0,0.0,0.0,0.0,0.0,0.0,0.0,0.11661476,0.17489931,-0.97723174,-1.5419312,0.29736328,0.15625,-0.35058594,-1.125,-0.24707031,32.249317,2.414287,3.6209579,-20.231728,1.7341919,5.493164E-4,0.16802979,-1.4277344,-3.421875,0.9160156,41.37097,5.796045,-53.172443,-16.561275,0.37957764,-0.63726807,1.3649292,-1.1279297,-5.7802734,-2.1796875,62.335,-37.844246,-109.142136,-4.337432,0.0,0.0,0.0,0.0,0.0,0.0,0.0,-55.615807,-109.03127,4.8332987,0.0,0.0,0.0,0.0,0.0,0.0,0.0,18.547043,39.89777,9.353924,
0.5468749918509276,28,0.22888184,1.2514648,0.61950684,-0.28222656,-0.17382812,-0.6044922,0.0,0.0,0.0,0.0,0.0,0.0,0.0,0.0,0.0,0.0,0.0,-0.12276751,-0.16662133,0.97801626,-0.7197876,0.5802002,-0.017456055,3.258789,-0.15527344,-0.103515625,58.341278,-2.541669,-3.4495778,20.247969,0.48968506,-0.87072754,-0.77557373,0.051757812,-1.5234375,-0.23242188,13.281522,18.571857,-51.763515,41.56385,-1.0593262,0.22796631,0.6744385,1.34375,-0.32910156,0.9423828,83.816986,29.369099,-115.94945,72.343796,0.0,0.0,0.0,0.0,0.0,0.0,0.0,24.67797,-133.82614,79.54554,0.0,0.0,0.0,0.0,0.0,0.0,0.0,0.12276751,0.16662133,-0.97801626,-1.3270874,0.2791748,-0.14672852,-0.8720703,-2.4951172,-0.3876953,33.882908,2.541669,3.4495778,-20.247969,1.3496094,0.22216797,-0.08843994,-0.609375,-3.8789062,1.0048828,46.57777,7.536795,-53.17436,-15.899443,0.6845703,-0.33374023,0.7451172,-1.5029297,-7.428711,-2.3671875,62.90653,-39.984398,-106.40309,-6.1972504,0.0,0.0,0.0,0.0,0.0,0.0,0.0,-57.8785,-106.67859,2.7365131,0.0,0.0,0.0,0.0,0.0,0.0,0.0,18.573368,39.940556,9.135997,
0.5664062415598893,29,0.4489746,1.0620117,0.64697266,-0.44140625,0.984375,-0.19042969,0.0,0.0,0.0,0.0,0.0,0.0,0.0,0.0,0.0,0.0,0.0,-0.13738129,-0.16184029,0.9768152,-0.5513916,0.5567627,-0.2765503,-0.16796875,2.5927734,0.13476562,54.85947,-2.84422,-3.350596,20.223106,0.107666016,-0.3428955,-0.4052124,0.7265625,-0.64746094,-0.8701172,11.580342,15.772424,-53.21882,39.71045,-0.56817627,-0.81451416,0.7084961,-1.0126953,-0.09765625,0.9580078,85.384544,25.776749,-118.041016,69.40557,0.0,0.0,0.0,0.0,0.0,0.0,0.0,22.046679,-136.27034,76.32027,0.0,0.0,0.0,0.0,0.0,0.0,0.0,0.13738129,0.16184029,-0.9768152,-1.0464478,-0.060668945,-0.1494751,-4.163086,-3.6660156,-0.73828125,38.015343,2.84422,3.350596,-20.223106,1.0258179,-0.009521484,-0.5722046,-2.8720703,-3.9550781,1.0527344,53.70902,11.034191,-52.633068,-13.24613,1.9725342,-0.8897095,-1.932312,-4.0615234,-5.7421875,-3.178711,62.33029,-40.314007,-102.642654,-6.3056993,0.0,0.0,0.0,0.0,0.0,0.0,0.0,-58.080055,-103.11146,2.8606176,0.0,0.0,0.0,0.0,0.0,0.0,0.0,18.51344,39.945656,9.22203,
0.585937491268851,30,0.37249756,0.77453613,0.5780029,-2.1601562,1.8955078,0.22070312,0.0,0.0,0.0,0.0,0.0,0.0,0.0,0.0,0.0,0.0,0.0,-0.15257996,-0.1253011,0.9803424,-0.40911865,0.23803711,0.34161377,-1.4130859,2.09375,0.03515625,52.018833,-3.15888,-2.5941207,20.296127,1.2254639,-0.057006836,-0.42041016,1.8876953,-1.0039062,-1.1396484,9.912545,13.635054,-54.064117,38.051517,-0.5731201,-0.1560669,0.8222656,0.7128906,-0.17480469,0.27539062,86.11211,23.668077,-119.4842,66.408905,0.0,0.0,0.0,0.0,0.0,0.0,0.0,20.710917,-138.06953,72.90866,0.0,0.0,0.0,0.0,0.0,0.0,0.0,0.15257996,0.1253011,-0.9803424,-1.3179932,0.13171387,-0.4102173,-3.4355469,-3.1416016,-0.50097656,41.778244,3.15888,2.5941207,-20.296127,1.4435425,-0.9155884,-1.1818237,-4.6210938,-2.1689453,0.03515625,58.972775,13.576295,-52.583736,-10.440438,-1.2194824,-0.5697632,0.6428833,-6.419922,-6.8007812,-4.7089844,60.83586,-40.225456,-100.25934,-6.0518613,0.0,0.0,0.0,0.0,0.0,0.0,0.0,-57.45926,-101.34045,4.022248,0.0,0.0,0.0,0.0,0.0,0.0,0.0,19.405293,39.78498,8.105291,
0.6054687409778127,31,-0.1383667,0.3897705,0.29284668,-1.4550781,1.2373047,0.5830078,0.0,0.0,0.0,0.0,0.0,0.0,0.0,0.0,0.0,0.0,0.0,-0.17178324,-0.0900826,0.98067296,-0.9291992,-0.41888428,-0.32843018,-2.4492188,2.2988281,0.11425781,50.313347,-3.5564454,-1.8649893,20.302969,1.6625366,0.37835693,-0.23138428,2.9746094,-0.39941406,0.6015625,10.212283,11.555554,-53.997807,36.131527,-0.40753174,-0.46136475,0.78930664,-0.23925781,-0.078125,-0.0029296875,87.8559,20.402836,-119.60239,64.47012,0.0,0.0,0.0,0.0,0.0,0.0,0.0,18.099861,-138.47379,70.48234,0.0,0.0,0.0,0.0,0.0,0.0,0.0,0.17178324,0.0900826,-0.98067296,-1.1898804,0.45336914,-0.8225708,-0.28222656,-3.0791016,-0.12988281,46.21886,3.5564454,1.8649893,-20.302969,0.8086548,-1.2858276,-1.1104736,-1.5136719,-1.8466797,-0.42089844,63.384,16.579582,-52.307835,-8.215852,1.6134033,-1.5768433,1.4141846,-1.8496094,-1.5917969,-1.8320312,59.145355,-38.252903,-98.958206,-6.15115,0.0,0.0,0.0,0.0,0.0,0.0,0.0,-55.033916,-100.19516,4.6412883,0.0,0.0,0.0,0.0,0.0,0.0,0.0,20.616518,39.324913,7.223675,
0.6249999906867744,32,-0.4598999,0.19989014,0.34558105,-0.47070312,0.6923828,0.33789062,0.0,0.0,0.0,0.0,0.0,0.0,0.0,0.0,0.0,0.0,0.0,-0.19586748,-0.07605891,0.97738475,-1.5513306,-0.28710938,0.307312,-3.5966797,3.0615234,-0.20214844,47.76862,-4.0550632,-1.5746553,20.234894,0.6068115,0.54089355,-0.22802734,-1.1015625,-0.9033203,0.18652344,10.941612,9.162715,-55.397587,33.485058,-0.5828247,-0.31134033,0.8098755,0.3310547,-0.09277344,0.15625,86.563385,17.581438,-121.0531,61.844757,0.0,0.0,0.0,0.0,0.0,0.0,0.0,14.7128725,-139.8696,67.83629,0.0,0.0,0.0,0.0,0.0,0.0,0.0,0.19586748,0.07605891,-0.97738475,-1.2654419,0.29180908,-0.7598877,-2.7861328,-2.3027344,0.16894531,49.573917,4.0550632,1.5746553,-20.234894,0.6992798,-0.51586914,-1.223999,3.5957031,-1.9628906,-0.40625,67.4514,18.54409,-51.631523,-5.7651005,-0.57940674,-0.81591797,1.1834106,0.3076172,0.45117188,-1.5791016,57.730713,-37.85216,-96.418045,-5.3011417,0.0,0.0,0.0,0.0,0.0,0.0,0.0,-54.78878,-97.99615,5.1997547,0.0,0.0,0.0,0.0,0.0,0.0,0.0,21.190872,39.009747,7.282333,
0.6445312403957361,33,-0.4216919,0.64367676,0.77008057,0.11035156,1.0761719,0.23632812,0.0,0.0,0.0,0.0,0.0,0.0,0.0,0.0,0.0,0.0,0.0,-0.21639308,-0.05557099,0.9748432,-1.1265259,-0.101989746,0.27716064,-2.6582031,2.256836,0.30566406,45.094624,-4.4800067,-1.1504918,20.182276,0.9816284,-0.24975586,0.024719238,0.23046875,-0.6386719,0.24023438,11.676342,7.2103887,-55.74619,31.70407,-0.43841553,-0.3828125,0.8267212,-0.01171875,0.005859375,0.0,85.82006,14.281612,-121.852875,59.37815,0.0,0.0,0.0,0.0,0.0,0.0,0.0,11.104677,-140.56915,65.53284,0.0,0.0,0.0,0.0,0.0,0.0,0.0,0.21639308,0.05557099,-0.9748432,-1.4076538,0.47460938,-0.64245605,-2.9970703,-2.296875,0.33496094,51.28503,4.4800067,1.1504918,-20.182276,0.8361206,0.011474609,-1.0030518,4.416992,-0.86328125,-0.39257812,70.17868,19.823961,-51.089222,-3.2786713,-0.3713379,-0.6192627,0.7678833,1.421875,2.3759766,0.20507812,55.77223,-37.540115,-94.62697,-3.5696938,0.0,0.0,0.0,0.0,0.0,0.0,0.0,-54.640327,-96.26477,6.6716547,0.0,0.0,0.0,0.0,0.0,0.0,0.0,21.091825,39.15109,6.913717,
0.6640624901046978,34,-0.09698486,1.4576416,0.9203491,0.9375,-0.080078125,0.6113281,0.0,0.0,0.0,0.0,0.0,0.0,0.0,0.0,0.0,0.0,0.0,-0.24278736,-0.06226644,0.96778405,-0.92181396,-0.2939453,0.35180664,-1.9228516,2.3339844,0.43945312,42.146667,-5.026451,-1.2891086,20.036133,1.1965332,-0.27703857,0.0076904297,0.33007812,-0.6513672,-0.21386719,13.018782,4.8565607,-56.47102,28.935753,-0.4364624,-0.38964844,0.80200195,0.10253906,0.00390625,0.1328125,84.75129,11.188677,-122.92531,55.934235,0.0,0.0,0.0,0.0,0.0,0.0,0.0,7.5203466,-141.55946,62.066994,0.0,0.0,0.0,0.0,0.0,0.0,0.0,0.24278736,0.06226644,-0.96778405,-1.1340942,-0.09741211,-0.7913208,-6.017578,-2.6357422,-0.05859375,53.74915,5.026451,1.2891086,-20.036133,0.61035156,0.19830322,-1.015625,2.8544922,0.68066406,-0.24121094,71.13882,20.636095,-49.577366,0.45298767,-0.31817627,-0.7202759,0.6623535,1.4814453,2.6933594,0.9199219,54.12848,-36.707184,-93.13362,0.4169848,0.0,0.0,0.0,0.0,0.0,0.0,0.0,-53.870884,-94.318985,10.616398,0.0,0.0,0.0,0.0,0.0,0.0,0.0,20.608524,39.241833,7.6948347,
0.6835937398136595,35,0.26715088,1.637207,0.20172119,-0.40039062,-0.74609375,0.96484375,0.0,0.0,0.0,0.0,0.0,0.0,0.0,0.0,0.0,0.0,0.0,-0.2563895,-0.08419865,0.9626809,-0.6878662,-0.9168701,-0.31658936,-0.39746094,1.5976562,0.3359375,41.188553,-5.3080573,-1.7431731,19.93048,1.0367432,0.43572998,-0.38287354,1.6689453,-0.6689453,-0.40527344,14.102486,3.375299,-57.568855,27.013597,-0.46948242,-0.3951416,0.730896,0.16015625,-0.015625,0.09667969,83.3951,9.434271,-124.24784,53.526337,0.0,0.0,0.0,0.0,0.0,0.0,0.0,5.265319,-142.80788,59.57489,0.0,0.0,0.0,0.0,0.0,0.0,0.0,0.2563895,0.08419865,-0.9626809,-1.0319824,-0.4821167,-0.3776245,-3.9501953,-2.3457031,-0.26757812,56.93024,5.3080573,1.7431731,-19.93048,0.52130127,0.24328613,-1.1326294,0.84277344,2.1015625,-0.7607422,69.93659,20.898907,-47.914062,3.3494053,-0.5128784,-0.051635742,0.61834717,0.9482422,3.0439453,1.7324219,54.12689,-35.13533,-93.140114,4.445786,0.0,0.0,0.0,0.0,0.0,0.0,0.0,-52.447006,-93.77663,14.433283,0.0,0.0,0.0,0.0,0.0,0.0,0.0,20.769512,38.89688,8.933542,
0.7031249895226211,36,0.13555908,0.82525635,0.078186035,-1.2578125,0.64746094,0.8486328,0.0,0.0,0.0,0.0,0.0,0.0,0.0,0.0,0.0,0.0,0.0,-0.28307146,-0.07824342,0.9557498,-1.0984497,-0.5293579,-0.0925293,0.62109375,2.0761719,0.45410156,40.223537,-5.860457,-1.6198815,19.786983,0.73461914,0.40045166,-0.4968872,-0.6035156,-0.23242188,0.6513672,15.8046665,1.2121582,-57.93218,25.145164,-0.49639893,-0.3671875,0.8148804,0.12207031,-0.032226562,0.11425781,81.779854,7.0797815,-124.5052,51.96024,0.0,0.0,0.0,0.0,0.0,0.0,0.0,2.4515352,-142.96413,57.96823,0.0,0.0,0.0,0.0,0.0,0.0,0.0,0.28307146,0.07824342,-0.9557498,-0.78118896,-0.7268677,-0.20080566,-1.4423828,-1.7167969,-0.37890625,60.121635,5.860457,1.6198815,-19.786983,0.46173096,0.10064697,-0.984375,-0.5019531,3.0117188,-0.81152344,67.60897,21.748169,-46.541325,5.332634,0.080566406,-0.31829834,0.77093506,0.3095703,3.6289062,1.8876953,56.77675,-32.169693,-94.10777,9.454482,0.0,0.0,0.0,0.0,0.0,0.0,0.0,-49.578644,-94.10362,19.29146,0.0,0.0,0.0,0.0,0.0,0.0,0.0,21.474775,38.379055,9.502283,
0.7226562392315828,37,-0.15466309,0.39361572,0.3619995,-0.7158203,1.0058594,0.4189453,0.0,0.0,0.0,0.0,0.0,0.0,0.0,0.0,0.0,0.0,0.0,-0.3053738,-0.058233067,0.9504678,-1.1851196,0.053649902,-0.08178711,1.6748047,1.4492188,0.5810547,39.051483,-6.3221846,-1.2056048,19.677631,1.1416626,-0.17266846,-0.2984619,-2.2871094,-0.77441406,0.39941406,15.817514,-0.8948531,-57.799362,23.877827,-0.47546387,-0.32061768,0.8196411,0.10253906,0.0048828125,0.16992188,80.72897,4.299912,-124.913414,49.455997,0.0,0.0,0.0,0.0,0.0,0.0,0.0,-0.74919367,-143.26025,55.457394,0.0,0.0,0.0,0.0,0.0,0.0,0.0,0.3053738,0.058233067,-0.9504678,-0.92852783,-0.5509033,-0.07946777,0.068359375,-1.9179688,-0.5410156,61.893414,6.3221846,1.2056048,-19.677631,0.49645996,0.14819336,-0.8865967,0.6582031,3.383789,-0.3779297,64.64641,22.97258,-46.495453,6.072605,0.19647217,-0.23272705,0.89160156,0.0,4.2685547,1.5136719,61.659554,-28.88462,-95.46849,16.045238,0.0,0.0,0.0,0.0,0.0,0.0,0.0,-46.26739,-94.925674,25.92695,0.0,0.0,0.0,0.0,0.0,0.0,0.0,22.134655,38.02611,9.441374,
0.7421874889405445,38,-0.22961426,0.42773438,0.5751953,-0.10449219,-0.11621094,0.41503906,0.0,0.0,0.0,0.0,0.0,0.0,0.0,0.0,0.0,0.0,0.0,-0.3195405,-0.054442227,0.94595754,-0.97906494,0.30194092,0.14575195,1.6748047,1.0332031,0.3671875,37.907825,-6.6154785,-1.1271226,19.584255,1.1085815,-0.43865967,-0.114746094,-0.7910156,-0.18261719,0.09277344,16.216267,-2.6579838,-57.87635,22.938307,-0.44537354,-0.32348633,0.8196411,-0.0107421875,0.026367188,0.14941406,80.27543,1.9181538,-125.2218,48.021957,0.0,0.0,0.0,0.0,0.0,0.0,0.0,-3.4742537,-143.45216,54.07397,0.0,0.0,0.0,0.0,0.0,0.0,0.0,0.3195405,0.054442227,-0.94595754,-0.7961426,-0.49389648,-0.07128906,1.7714844,-1.5390625,-0.49902344,63.548927,6.6154785,1.1271226,-19.584255,0.6746826,0.34539795,-0.7927246,-0.13867188,3.915039,-0.22460938,61.61183,24.16644,-45.897972,6.2865868,0.41235352,-0.35534668,1.0632935,-0.24804688,4.3476562,1.8730469,59.54531,-23.790112,-98.5135,17.161627,0.0,0.0,0.0,0.0,0.0,0.0,0.0,-41.072407,-97.345856,27.153574,0.0,0.0,0.0,0.0,0.0,0.0,0.0,22.40219,37.78941,9.74224,
0.7617187386495062,39,-0.06640625,0.51342773,0.50390625,0.17089844,-0.107421875,0.28125,0.0,0.0,0.0,0.0,0.0,0.0,0.0,0.0,0.0,0.0,0.0,-0.32823,-0.06331432,0.9424125,-0.8718262,0.1494751,-0.08673096,1.015625,1.2021484,0.34960938,36.89899,-6.795379,-1.3108023,19.51086,0.9614258,-0.307312,-0.083984375,0.3984375,-0.42871094,0.052734375,16.15161,-4.156189,-58.178963,22.292522,-0.44659424,-0.33520508,0.810791,-0.087890625,0.1171875,0.072265625,79.48585,0.10072136,-125.83963,46.592564,0.0,0.0,0.0,0.0,0.0,0.0,0.0,-5.613159,-143.95801,52.687126,0.0,0.0,0.0,0.0,0.0,0.0,0.0,0.32823,0.06331432,-0.9424125,-0.76293945,-0.3400879,-0.14587402,1.8095703,-1.3837891,-0.3564453,64.60338,6.795379,1.3108023,-19.51086,0.7145386,0.08355713,-0.65948486,-1.8115234,4.6816406,-0.3828125,57.646687,25.29601,-45.77812,5.94285,0.5313721,-0.26953125,1.1543579,-0.33203125,4.1367188,2.2871094,57.62063,-17.594276,-102.52919,17.164371,0.0,0.0,0.0,0.0,0.0,0.0,0.0,-34.81513,-100.50415,27.127516,0.0,0.0,0.0,0.0,0.0,0.0,0.0,22.431034,37.612667,10.339378,
0.7812499883584679,40,0.06072998,0.69122314,0.4064331,0.19140625,0.5175781,0.083984375,0.0,0.0,0.0,0.0,0.0,0.0,0.0,0.0,0.0,0.0,0.0,-0.34095755,-0.063129276,0.93787086,-0.9813843,0.15777588,0.39422607,0.15039062,1.7353516,0.203125,35.041775,-7.0588775,-1.3069721,19.416834,1.000061,-0.07043457,0.09899902,1.6523438,-0.60253906,0.22265625,16.873116,-5.92169,-58.2662,21.110096,-0.46368408,-0.3986206,0.79418945,-0.087890625,0.10058594,0.18457031,78.573265,-2.141621,-126.15042,44.86256,0.0,0.0,0.0,0.0,0.0,0.0,0.0,-8.20852,-144.18378,50.886055,0.0,0.0,0.0,0.0,0.0,0.0,0.0,0.34095755,0.063129276,-0.93787086,-0.76013184,-0.21038818,-0.12817383,1.6357422,-1.2431641,-0.046875,66.08554,7.0588775,1.3069721,-19.416834,0.7335205,-0.28601074,-0.6652832,-1.2363281,4.8583984,-0.6933594,53.64359,26.879913,-45.389336,6.5464497,0.6828003,-0.30975342,1.1863403,0.028320312,4.0322266,2.3984375,60.929775,-10.648853,-105.20131,20.710659,0.0,0.0,0.0,0.0,0.0,0.0,0.0,-27.861712,-102.323044,30.47749,0.0,0.0,0.0,0.0,0.0,0.0,0.0,22.27309,37.624344,10.629796,
0.8007812380674296,41,0.0758667,0.72320557,0.3406372,-0.29589844,0.03125,0.0,0.0,0.0,0.0,0.0,0.0,0.0,0.0,0.0,0.0,0.0,0.0,-0.34914556,-0.060097933,0.9350826,-0.89959717,0.16638184,0.21130371,-0.5097656,1.6367188,0.24023438,33.804127,-7.2283955,-1.2442138,19.35911,1.0391846,0.15997314,0.18920898,0.81347656,-0.6640625,0.10449219,17.235598,-7.2104726,-58.24246,20.395138,-0.46063232,-0.39672852,0.79119873,-0.030273438,0.08203125,0.2607422,77.224045,-3.5396805,-126.30989,43.621693,0.0,0.0,0.0,0.0,0.0,0.0,0.0,-9.992434,-144.25084,49.522213,0.0,0.0,0.0,0.0,0.0,0.0,0.0,0.34914556,0.060097933,-0.9350826,-0.70843506,0.11657715,-0.21325684,1.8261719,-1.3076172,0.13476562,67.744934,7.2283955,1.2442138,-19.35911,0.6589966,-0.23706055,-0.6819458,0.13671875,4.78125,-0.89746094,49.71496,28.106237,-44.58691,7.3557014,0.5852661,-0.1609497,1.1836548,0.31152344,3.8173828,2.2265625,64.09312,-3.96356,-106.67786,24.752453,0.0,0.0,0.0,0.0,0.0,0.0,0.0,-21.223501,-103.1034,34.204315,0.0,0.0,0.0,0.0,0.0,0.0,0.0,22.269901,37.59876,10.73172,
0.8203124877763913,42,0.06384277,0.6588745,0.3265381,-0.79003906,-0.056640625,-0.171875,0.0,0.0,0.0,0.0,0.0,0.0,0.0,0.0,0.0,0.0,0.0,-0.34871972,-0.055573374,0.9355552,-1.060669,-0.044555664,0.33795166,-0.9238281,1.9580078,0.3203125,32.68073,-7.2195807,-1.1505407,19.368893,1.0078735,0.018127441,0.19195557,-0.45703125,-0.8359375,0.14648438,17.829887,-8.536687,-58.137844,19.231535,-0.49768066,-0.32196045,0.838501,0.06542969,0.13476562,0.35546875,76.12453,-5.1736393,-126.53963,41.515457,0.0,0.0,0.0,0.0,0.0,0.0,0.0,-11.9790125,-144.37584,47.315556,0.0,0.0,0.0,0.0,0.0,0.0,0.0,0.34871972,0.055573374,-0.9355552,-0.65948486,0.31921387,-0.25408936,1.7900391,-0.7597656,0.07519531,69.52535,7.2195807,1.1505407,-19.368893,0.69104004,-0.06188965,-0.69158936,0.30859375,5.0009766,-0.92089844,45.668217,29.131805,-43.982082,7.7098045,0.6659546,-0.31622314,1.2780151,0.421875,3.5683594,2.09375,67.512634,2.7342758,-107.72302,28.34811,0.0,0.0,0.0,0.0,0.0,0.0,0.0,-14.595522,-103.58447,37.43216,0.0,0.0,0.0,0.0,0.0,0.0,0.0,22.732319,37.33441,10.690986,
0.839843737485353,43,0.07330322,0.69262695,0.36730957,-0.087890625,0.38183594,-0.2939453,0.0,0.0,0.0,0.0,0.0,0.0,0.0,0.0,0.0,0.0,0.0,-0.35011294,-0.046742603,0.93562603,-1.1796265,-0.19091797,0.10925293,-0.43554688,1.4628906,0.4296875,31.051767,-7.2484245,-0.96771735,19.370361,0.96746826,-0.286438,0.022705078,-0.4404297,-0.9892578,0.16796875,18.165201,-10.015406,-57.893436,18.016531,-0.4406128,-0.33172607,0.8621826,0.026367188,0.26171875,0.33398438,75.13459,-7.080659,-126.75107,38.903954,0.0,0.0,0.0,0.0,0.0,0.0,0.0,-14.181114,-144.47299,44.694397,0.0,0.0,0.0,0.0,0.0,0.0,0.0,0.35011294,0.046742603,-0.93562603,-0.6885376,0.33093262,0.012329102,2.1552734,-0.51660156,-0.09277344,70.455376,7.2484245,0.96771735,-19.370361,0.75115967,-0.062683105,-0.6641846,-0.15820312,5.1376953,-0.9736328,41.139496,30.108437,-43.765522,7.5882244,0.9105835,-0.47583008,1.3855591,0.55371094,3.5810547,2.4511719,71.71264,9.991039,-108.80153,31.056448,0.0,0.0,0.0,0.0,0.0,0.0,0.0,-7.4299088,-104.12205,39.695515,0.0,0.0,0.0,0.0,0.0,0.0,0.0,22.992552,37.2446,10.464544,
0.8593749871943147,44,0.025390625,0.8439331,0.3737793,0.70214844,0.5332031,-0.34765625,0.0,0.0,0.0,0.0,0.0,0.0,0.0,0.0,0.0,0.0,0.0,-0.36500123,-0.041799918,0.9301045,-1.1208496,-0.12677002,-0.053894043,0.3359375,1.1035156,0.4453125,28.666191,-7.5566564,-0.8653878,19.256048,1.083252,-0.2109375,-0.17840576,0.34765625,-1.0546875,-0.076171875,17.968294,-11.538904,-57.69359,17.101414,-0.48950195,-0.31054688,0.8631592,-0.032226562,0.48046875,0.3310547,74.1325,-9.329346,-127.00127,36.53197,0.0,0.0,0.0,0.0,0.0,0.0,0.0,-16.627735,-144.6285,42.358944,0.0,0.0,0.0,0.0,0.0,0.0,0.0,0.36500123,0.041799918,-0.9301045,-0.76379395,0.41540527,0.09753418,-0.064453125,-1.40625,-0.37402344,70.84298,7.5566564,0.8653878,-19.256048,0.8239746,-0.11956787,-0.62872314,0.24414062,5.260742,-1.3378906,36.72295,31.352493,-43.17901,8.023531,0.9591675,-0.5531006,1.428772,0.765625,3.709961,2.506836,75.80894,17.985401,-109.23557,33.379875,0.0,0.0,0.0,0.0,0.0,0.0,0.0,0.39868164,-104.14813,41.43158,0.0,0.0,0.0,0.0,0.0,0.0,0.0,22.32371,37.65014,10.4525385,
0.8789062369032764,45,0.056640625,0.9680786,0.33520508,0.38183594,0.3466797,-0.5058594,0.0,0.0,0.0,0.0,0.0,0.0,0.0,0.0,0.0,0.0,0.0,-0.4024514,-0.031093717,0.9150985,-1.0647583,0.0914917,-0.12182617,0.5439453,1.0869141,0.33007812,25.27668,-8.331993,-0.6437365,18.945375,1.1710205,-0.0017089844,-0.2053833,0.047851562,-1.0517578,0.029296875,18.051292,-13.324908,-57.349384,15.874858,-0.5631714,-0.35845947,0.6725464,-0.4501953,0.67578125,0.49023438,73.48142,-11.7981615,-127.006195,34.101284,0.0,0.0,0.0,0.0,0.0,0.0,0.0,-19.25916,-144.62036,39.8021,0.0,0.0,0.0,0.0,0.0,0.0,0.0,0.4024514,0.031093717,-0.9150985,-0.5793457,0.15887451,-0.11975098,-0.27148438,-0.7753906,-0.5751953,70.50709,8.331993,0.6437365,-18.945375,0.9442749,-0.10028076,-0.6470337,0.2607422,5.166992,-1.7509766,32.59106,32.942463,-42.48126,9.06465,1.3607178,-0.6522827,1.3741455,0.57910156,3.9785156,2.7714844,77.68988,26.446812,-109.154724,35.29027,0.0,0.0,0.0,0.0,0.0,0.0,0.0,8.743378,-103.58247,42.74583,0.0,0.0,0.0,0.0,0.0,0.0,0.0,20.80238,38.5174,10.45745,
0.8984374866122381,46,0.11193848,0.99334717,0.32598877,0.34765625,0.49902344,-0.55859375,0.0,0.0,0.0,0.0,0.0,0.0,0.0,0.0,0.0,0.0,0.0,-0.44337013,-0.018036425,0.89635974,-1.0463867,0.13171387,0.02130127,0.09277344,1.2958984,0.27539062,21.949602,-9.179136,-0.3734098,18.557426,1.1271362,0.17669678,0.015014648,0.58691406,-1.1503906,-0.25976562,17.9574,-15.278069,-56.92375,14.723445,-0.40045166,-0.34057617,0.81170654,0.19628906,0.9892578,1.0029297,76.35662,-14.264048,-126.93086,31.554451,0.0,0.0,0.0,0.0,0.0,0.0,0.0,-20.763403,-145.08337,36.51228,0.0,0.0,0.0,0.0,0.0,0.0,0.0,0.44337013,0.018036425,-0.89635974,-0.81207275,0.18444824,-0.10656738,-1.1845703,0.4033203,-0.6230469,68.931564,9.179136,0.3734098,-18.557426,0.9651489,-0.12927246,-0.44384766,0.7080078,4.9375,-1.7539062,27.807924,34.10855,-42.705776,9.239555,1.3595581,-0.44885254,0.98010254,0.53515625,3.5830078,2.319336,78.03171,34.15594,-109.46843,36.191204,0.0,0.0,0.0,0.0,0.0,0.0,0.0,16.338436,-103.51589,43.064095,0.0,0.0,0.0,0.0,0.0,0.0,0.0,19.348846,39.293793,10.361265,
0.9179687363211998,47,0.04815674,0.9715576,0.37823486,0.43164062,0.6738281,-0.33984375,0.0,0.0,0.0,0.0,0.0,0.0,0.0,0.0,0.0,0.0,0.0,-0.48621705,-0.0062335283,0.87390256,-0.984375,0.112854004,-0.010803223,-0.86816406,1.1992188,0.083984375,18.90403,-10.0662,-0.12905319,18.092493,0.9259033,-0.28259277,-0.01977539,-0.6816406,-1.2568359,0.43066406,17.48887,-16.898287,-56.530384,13.417869,-0.4934082,-0.48260498,0.8330078,-0.20507812,1.1601562,0.7138672,75.95844,-16.93157,-126.916916,28.62912,0.0,0.0,0.0,0.0,0.0,0.0,0.0,-23.330284,-145.14297,33.64541,0.0,0.0,0.0,0.0,0.0,0.0,0.0,0.48621705,0.0062335283,-0.87390256,-0.9169922,0.23138428,0.1385498,-1.6386719,1.7636719,-0.4921875,65.55148,10.0662,0.12905319,-18.092493,0.9980469,2.4414062E-4,-0.31103516,1.4931641,3.8876953,-1.7509766,22.301136,34.632256,-43.985237,8.067572,1.9557495,-0.3466797,0.79071045,0.7314453,2.7246094,1.7900391,79.20843,40.964226,-110.77539,34.20909,0.0,0.0,0.0,0.0,0.0,0.0,0.0,23.055025,-104.59321,40.621468,0.0,0.0,0.0,0.0,0.0,0.0,0.0,17.863262,40.02097,10.224131,
0.9374999860301615,48,0.043518066,0.96191406,0.40612793,0.080078125,0.7236328,-0.20410156,0.0,0.0,0.0,0.0,0.0,0.0,0.0,0.0,0.0,0.0,0.0,-0.52341485,0.005008608,0.8522832,-1.1489868,6.713867E-4,0.14837646,-0.9082031,0.9863281,0.34960938,16.135027,-10.836309,0.103693634,17.644905,1.0509033,-0.16741943,0.06323242,1.4599609,-1.4716797,-0.059570312,17.28264,-18.50754,-56.12123,12.220749,-0.5539551,-0.33087158,0.7999878,0.021484375,1.4433594,0.8076172,75.50833,-19.351225,-126.78574,26.103558,0.0,0.0,0.0,0.0,0.0,0.0,0.0,-25.805744,-145.01895,31.022045,0.0,0.0,0.0,0.0,0.0,0.0,0.0,0.52341485,-0.005008608,-0.8522832,-1.2104492,0.016418457,0.79748535,-1.4863281,1.9345703,-0.24804688,61.71222,10.836309,-0.103693634,-17.644905,0.8232422,0.10443115,-0.33587646,1.6582031,3.1074219,-1.4609375,17.42577,34.402775,-45.790367,6.9825974,1.5194702,-0.22052002,0.3706665,0.03125,1.7373047,0.8144531,79.88804,44.90725,-112.21902,32.35962,0.0,0.0,0.0,0.0,0.0,0.0,0.0,26.938583,-105.90164,38.466732,0.0,0.0,0.0,0.0,0.0,0.0,0.0,16.665297,40.596855,9.996125,
0.9570312357391232,49,0.10650635,0.92211914,0.3513794,-0.484375,0.89453125,0.0107421875,0.0,0.0,0.0,0.0,0.0,0.0,0.0,0.0,0.0,0.0,0.0,-0.5651076,0.021780685,0.8248157,-1.1036377,-0.09448242,-0.019470215,-1.1152344,0.73828125,0.29003906,14.27051,-11.699478,0.45092767,17.076242,1.1994019,0.09375,-0.087646484,0.94628906,-1.5390625,-0.11230469,16.49437,-20.053928,-55.633118,11.194705,-0.57489014,-0.3803711,0.7813721,-0.036132812,1.6650391,0.99121094,74.88337,-21.685478,-126.593414,23.377918,0.0,0.0,0.0,0.0,0.0,0.0,0.0,-28.134039,-144.8781,28.125893,0.0,0.0,0.0,0.0,0.0,0.0,0.0,0.5651076,-0.021780685,-0.8248157,-1.4476929,-0.44152832,0.7363281,-1.4306641,1.3662109,-0.2705078,58.988422,11.699478,-0.45092767,-17.076242,0.60821533,0.34100342,0.32348633,0.9160156,2.118164,-1.2138672,13.681884,34.28858,-47.18856,6.4898014,1.97052,0.29125977,0.16088867,-0.14160156,2.5634766,0.45898438,76.846924,47.276848,-112.89898,32.533653,0.0,0.0,0.0,0.0,0.0,0.0,0.0,29.397694,-106.32588,38.635155,0.0,0.0,0.0,0.0,0.0,0.0,0.0,15.919552,40.93045,9.826155,
0.9765624854480849,50,0.06530762,0.8566284,0.3460083,-0.16503906,1.0410156,0.078125,0.0,0.0,0.0,0.0,0.0,0.0,0.0,0.0,0.0,0.0,0.0,-0.6093806,0.039874956,0.79195094,-1.0166626,-0.16326904,-0.055358887,-1.0771484,0.68359375,0.13671875,13.07785,-12.616068,0.825535,16.39584,0.93255615,0.12054443,-0.16485596,0.5908203,-1.6904297,0.12695312,15.480605,-20.760458,-55.127457,9.621653,-0.602417,-0.3536377,0.7319336,0.001953125,1.828125,1.1767578,73.930756,-22.667257,-126.437706,19.487537,0.0,0.0,0.0,0.0,0.0,0.0,0.0,-29.089024,-144.80022,23.974213,0.0,0.0,0.0,0.0,0.0,0.0,0.0,0.6093806,-0.039874956,-0.79195094,-0.9696655,-0.5307007,0.5751343,-0.9550781,0.6894531,-0.44140625,57.04483,12.616068,-0.825535,-16.39584,0.6230469,0.10241699,0.4343872,-1.1318359,0.64941406,-0.36132812,12.23037,34.710144,-48.18511,6.387293,1.963562,0.043395996,-0.47320557,0.055664062,1.4072266,-1.125,75.27725,48.147152,-113.52962,33.11493,0.0,0.0,0.0,0.0,0.0,0.0,0.0,30.473877,-106.62169,39.447754,0.0,0.0,0.0,0.0,0.0,0.0,0.0,15.245459,41.226196,9.655137,
0.9960937351570466,51,-0.017578125,0.79003906,0.31280518,0.18261719,0.85839844,-0.041015625,0.0,0.0,0.0,0.0,0.0,0.0,0.0,0.0,0.0,0.0,0.0,-0.6229903,0.05140841,0.7806785,-0.97143555,-0.119628906,0.033081055,-1.0400391,0.56933594,0.17285156,12.53627,-12.897831,1.0643132,16.162466,0.9238281,-0.057800293,-0.08068848,0.32910156,-1.8222656,0.29296875,14.128965,-20.709492,-54.844837,8.585659,-0.6749878,-0.3652954,0.7429199,0.040039062,2.0107422,1.4003906,73.53075,-23.317429,-126.42789,16.064272,0.0,0.0,0.0,0.0,0.0,0.0,0.0,-29.68126,-144.88368,20.242691,0.0,0.0,0.0,0.0,0.0,0.0,0.0,0.6229903,-0.05140841,-0.7806785,-1.0913086,-0.31524658,0.5414429,-0.57421875,0.32617188,-0.38476562,56.0223,12.897831,-1.0643132,-16.162466,0.41625977,-0.0048217773,0.18444824,-1.7324219,-0.65625,0.24609375,13.081321,34.962265,-48.67987,6.114975,1.963562,0.043395996,-0.47320557,0.055664062,1.4072266,-1.125,75.989136,46.85004,-113.98639,33.679268,0.0,0.0,0.0,0.0,0.0,0.0,0.0,29.176765,-107.07846,40.012093,0.0,0.0,0.0,0.0,0.0,0.0,0.0,15.015683,41.40404,9.25619,
1.0156249848660084,52,-0.05407715,0.81188965,0.30999756,-0.2939453,0.69628906,-0.10449219,0.0,0.0,0.0,0.0,0.0,0.0,0.0,0.0,0.0,0.0,0.0,-0.62774765,0.062203974,0.77595127,-0.95477295,-0.10858154,0.1159668,-0.9277344,0.3955078,0.32421875,12.546351,-12.996322,1.2878151,16.064596,1.0136719,-0.041137695,-0.0037231445,0.79589844,-1.921875,0.11621094,12.438916,-20.508665,-54.631702,8.209945,-0.66241455,-0.34094238,0.72106934,0.13476562,2.1728516,1.5869141,73.274605,-23.707096,-126.38553,13.422323,0.0,0.0,0.0,0.0,0.0,0.0,0.0,-30.011839,-144.93777,17.244164,0.0,0.0,0.0,0.0,0.0,0.0,0.0,0.62774765,-0.062203974,-0.77595127,-0.8475342,-0.35046387,0.10864258,0.9921875,0.27929688,-0.056640625,55.477825,12.996322,-1.2878151,-16.064596,0.519104,-0.27838135,-0.2423706,-2.584961,-1.7724609,1.0039062,15.538052,35.03089,-48.943184,5.942854,1.7660522,-0.73327637,-0.45922852,-0.6894531,-1.6601562,-1.4619141,75.11258,43.628307,-114.335945,34.54638,0.0,0.0,0.0,0.0,0.0,0.0,0.0,26.350983,-107.28502,41.74788,0.0,0.0,0.0,0.0,0.0,0.0,0.0,15.024267,41.489765,8.828674,
1.03515623457497,53,-0.12225342,0.94714355,0.8363037,-0.90234375,0.7207031,0.27441406,0.0,0.0,0.0,0.0,0.0,0.0,0.0,0.0,0.0,0.0,0.0,-0.63490564,0.080690265,0.7684834,-1.1016235,-0.19226074,0.24078369,-1.0234375,0.20410156,0.39941406,13.006603,-13.144516,1.6705388,15.909989,0.95202637,0.05493164,0.13879395,0.87402344,-1.9814453,0.1953125,10.663485,-20.462646,-54.315628,8.19361,-0.70654297,-0.4298706,0.84698486,0.2265625,2.7324219,1.6943359,75.65192,-23.93802,-126.177925,11.341045,0.0,0.0,0.0,0.0,0.0,0.0,0.0,-29.352394,-145.03998,14.327825,0.0,0.0,0.0,0.0,0.0,0.0,0.0,0.63490564,-0.080690265,-0.7684834,-0.994751,-0.4645996,0.043029785,1.7138672,0.022460938,0.7324219,55.270554,13.144516,-1.6705388,-15.909989,1.9708252,-0.28985596,0.41900635,0.4765625,-0.4296875,0.9511719,17.86678,35.135147,-49.310505,5.918502,-2.0,-1.6759644,1.3151855,-1.6640625,-5.448242,-7.088867,73.89868,40.72352,-114.51248,35.708633,0.0,0.0,0.0,0.0,0.0,0.0,0.0,23.93901,-107.40084,43.944786,0.0,0.0,0.0,0.0,0.0,0.0,0.0,15.344517,41.48087,8.321867,
1.0546874842839318,54,-0.6871338,0.8477173,0.8295288,-0.35742188,0.5830078,0.7001953,0.0,0.0,0.0,0.0,0.0,0.0,0.0,0.0,0.0,0.0,0.0,-0.64327055,0.088911645,0.7606402,-1.6357422,-0.18670654,0.4263916,-1.0810547,-0.671875,0.31445312,13.532894,-13.317695,1.8407468,15.747611,1.6730347,-0.027832031,0.5106201,0.07714844,-2.5253906,0.42578125,8.082403,-20.965845,-54.168304,8.364362,-0.8930664,-0.60180664,0.73602295,0.5097656,3.5839844,2.4570312,80.6985,-25.680706,-126.02732,8.675102,0.0,0.0,0.0,0.0,0.0,0.0,0.0,-29.51372,-145.45671,10.37372,0.0,0.0,0.0,0.0,0.0,0.0,0.0,0.64327055,-0.088911645,-0.7606402,-1.0993042,-0.49371338,-0.7392578,1.4765625,3.0742188,0.8642578,53.77553,13.317695,-1.8407468,-15.747611,1.6958618,-0.1743164,0.34869385,-1.0732422,-0.6660156,0.38867188,18.804388,34.138954,-50.837524,4.6390257,1.5322266,-1.8965454,-0.16809082,2.2050781,-3.5507812,3.0361328,75.586975,37.024906,-115.72739,35.49654,0.0,0.0,0.0,0.0,0.0,0.0,0.0,19.91494,-108.77535,43.1733,0.0,0.0,0.0,0.0,0.0,0.0,0.0,15.840767,41.244278,8.575411,
1.0742187339928935,55,-0.40008545,1.0335083,0.7657471,0.265625,-0.19628906,0.6796875,0.0,0.0,0.0,0.0,0.0,0.0,0.0,0.0,0.0,0.0,0.0,-0.65120703,0.08350106,0.75443417,-1.0792236,0.14581299,0.43475342,-0.38476562,-2.2050781,-0.21679688,14.876515,-13.482005,1.7287309,15.619126,1.114502,-0.24865723,0.37139893,0.22363281,-2.553711,-0.31347656,3.7151508,-20.346357,-54.58989,10.044028,-0.47253418,-0.5455322,0.8746948,0.71875,4.256836,3.3134766,85.22445,-25.629278,-126.332924,6.857291,0.0,0.0,0.0,0.0,0.0,0.0,0.0,-27.911125,-146.10179,7.106448,0.0,0.0,0.0,0.0,0.0,0.0,0.0,0.65120703,-0.08350106,-0.75443417,-1.557251,0.8071289,0.5373535,7.1035156,0.79785156,1.6914062,51.907608,13.482005,-1.7287309,-15.619126,-0.02355957,-0.66973877,-0.055236816,1.4619141,-2.0576172,1.0898438,22.163618,33.756947,-51.784706,2.6697683,1.9648438,0.55688477,1.828186,0.8300781,-4.4335938,0.29492188,80.32644,32.616196,-116.00367,35.049564,0.0,0.0,0.0,0.0,0.0,0.0,0.0,14.632692,-110.053375,41.475445,0.0,0.0,0.0,0.0,0.0,0.0,0.0,15.652361,41.23583,8.946696,
1.0937499837018552,56,0.0099487305,0.7989502,0.4156494,0.4345703,-1.0380859,0.7607422,0.0,0.0,0.0,0.0,0.0,0.0,0.0,0.0,0.0,0.0,0.0,-0.65679824,0.06286885,0.7514792,-0.869812,0.44262695,0.07757568,-0.4609375,-2.6796875,-0.31640625,17.176798,-13.597761,1.30158,15.55795,0.9359741,-0.44812012,-0.16204834,-0.38476562,-2.7167969,-0.3095703,3.6775932,-19.330734,-55.34094,13.060692,-0.5206909,-0.36688232,0.90093994,0.12792969,4.7822266,3.4472656,86.60627,-24.876932,-126.858444,6.680036,0.0,0.0,0.0,0.0,0.0,0.0,0.0,-26.553291,-146.70361,6.0538316,0.0,0.0,0.0,0.0,0.0,0.0,0.0,0.65679824,-0.06286885,-0.7514792,-0.7509155,1.0570679,-0.3458252,-1.4970703,0.81933594,1.1210938,51.316948,13.597761,-1.30158,-15.55795,0.8788452,0.18347168,-0.38494873,6.5654297,-2.3603516,0.10839844,24.775635,33.101067,-51.545223,3.0186758,-0.66638184,-0.20233154,0.815979,0.087890625,-2.6572266,-0.5644531,75.45735,27.789932,-115.16533,36.29897,0.0,0.0,0.0,0.0,0.0,0.0,0.0,9.722176,-109.63844,42.86436,0.0,0.0,0.0,0.0,0.0,0.0,0.0,15.007722,41.310448,9.660819,
1.1132812334108169,57,0.07611084,0.7362671,0.36260986,-0.30664062,-0.2939453,0.7832031,0.0,0.0,0.0,0.0,0.0,0.0,0.0,0.0,0.0,0.0,0.0,-0.6556504,0.048902422,0.7535292,-0.73431396,0.47052002,0.15588379,-0.7998047,-2.2646484,-0.12109375,20.190762,-13.573995,1.0124315,15.60039,0.633667,-0.6866455,-0.45220947,1.5673828,-2.9189453,-0.23339844,8.595417,-18.383999,-55.791653,15.76883,-2.0,-0.05078125,0.73687744,-0.28515625,3.8164062,3.2832031,92.19398,-25.771606,-126.787735,6.239814,0.0,0.0,0.0,0.0,0.0,0.0,0.0,-26.163002,-146.56483,3.780363,0.0,0.0,0.0,0.0,0.0,0.0,0.0,0.6556504,-0.048902422,-0.7535292,-0.897522,0.024719238,-0.35632324,-2.366211,2.3115234,0.15234375,48.742245,13.573995,-1.0124315,-15.60039,1.545227,0.88171387,-0.38500977,1.9521484,-1.2695312,0.49023438,25.810345,30.527225,-52.42565,1.4809237,1.5159912,-0.355896,0.9755249,1.4541016,-0.9951172,-0.17578125,71.27049,21.443611,-115.53442,34.882,0.0,0.0,0.0,0.0,0.0,0.0,0.0,3.1735687,-110.473206,41.263588,0.0,0.0,0.0,0.0,0.0,0.0,0.0,14.980809,41.149822,10.364361,
1.1328124831197786,58,0.04486084,0.46783447,0.5125122,-1.1582031,0.095703125,1.0429688,0.0,0.0,0.0,0.0,0.0,0.0,0.0,0.0,0.0,0.0,0.0,-0.6596415,0.0517584,0.7499158,-1.1572266,-0.062683105,0.10449219,-1.7832031,-2.0683594,0.5878906,23.655289,-13.656623,1.0715592,15.525582,1.1837769,-0.23120117,-0.8184204,4.658203,-3.234375,-0.028320312,14.146121,-17.852772,-55.70994,18.315193,-1.6605835,-0.8904419,1.4794922,-2.2001953,2.9423828,2.7197266,98.04525,-26.890644,-125.98753,5.469939,0.0,0.0,0.0,0.0,0.0,0.0,0.0,-26.18142,-145.39828,0.9299898,0.0,0.0,0.0,0.0,0.0,0.0,0.0,0.6596415,-0.0517584,-0.7499158,-0.77697754,-0.19433594,-0.17230225,-2.8457031,1.1943359,-0.51953125,46.8523,13.656623,-1.0715592,-15.525582,0.8463135,-0.119384766,-0.27960205,-0.39941406,-1.4169922,1.3691406,27.698406,28.871374,-53.916943,-0.60813236,0.46014404,-0.38452148,0.8769531,1.1259766,-0.16894531,-0.13476562,71.27498,16.605417,-116.20215,33.339684,0.0,0.0,0.0,0.0,0.0,0.0,0.0,-1.8309345,-111.66026,39.633644,0.0,0.0,0.0,0.0,0.0,0.0,0.0,15.620993,40.767048,10.926851,
1.1523437328287403,59,0.056518555,0.31048584,0.6582031,-0.9160156,-0.31054688,1.0888672,0.0,0.0,0.0,0.0,0.0,0.0,0.0,0.0,0.0,0.0,0.0,-0.6624723,0.05555083,0.7470893,-1.571228,-0.3770752,-0.06768799,-1.7832031,-2.3710938,0.375,27.500706,-13.715229,1.1500742,15.467065,1.7734375,0.61621094,-0.8156738,3.9199219,-2.2353516,0.15039062,19.236595,-17.567898,-55.462418,20.949583,-0.6383667,-1.3121948,1.1876831,-1.1865234,2.1210938,3.0449219,102.79794,-27.649815,-125.029175,5.345499,0.0,0.0,0.0,0.0,0.0,0.0,0.0,-26.277945,-143.83014,-1.2117,0.0,0.0,0.0,0.0,0.0,0.0,0.0,0.6624723,-0.05555083,-0.7470893,-0.7173462,0.046691895,-0.43292236,-0.9140625,1.0595703,-0.68652344,47.44038,13.715229,-1.1500742,-15.467065,0.9061279,-0.31604004,-0.4335327,1.0234375,-1.1435547,0.59472656,29.240767,28.37032,-54.417206,-1.4038229,0.6801758,-0.29473877,0.8623047,0.640625,0.45117188,0.13183594,72.87455,14.0270815,-116.17123,32.744667,0.0,0.0,0.0,0.0,0.0,0.0,0.0,-4.4549627,-112.0542,39.191704,0.0,0.0,0.0,0.0,0.0,0.0,0.0,16.52432,40.200832,11.663553,
1.171874982537702,60,0.029785156,0.5697632,0.54559326,1.1025391,-0.43945312,0.93359375,0.0,0.0,0.0,0.0,0.0,0.0,0.0,0.0,0.0,0.0,0.0,-0.66622365,0.039880186,0.7446886,-1.5376587,-0.25958252,-0.080566406,-0.49804688,-2.7910156,-0.58496094,31.081873,-13.792894,0.8256433,15.417361,0.91381836,0.7397461,-0.8919678,-1.3212891,-1.5849609,0.12988281,23.887589,-16.488869,-55.513733,23.709389,-0.7296753,-1.9226685,0.9483032,0.35546875,2.022461,0.13183594,105.20883,-26.456377,-124.60552,6.0481834,0.0,0.0,0.0,0.0,0.0,0.0,0.0,-24.41914,-142.95659,-1.5505991,0.0,0.0,0.0,0.0,0.0,0.0,0.0,0.66622365,-0.039880186,-0.7446886,-0.8300781,0.17883301,-0.51049805,-1.2597656,1.4589844,-0.026367188,45.583496,13.792894,-0.8256433,-15.417361,1.1113281,0.17315674,-0.40924072,0.20703125,-1.1679688,0.15234375,30.177433,27.193993,-54.684864,-3.3795223,0.5690918,-0.31304932,0.914917,0.40625,0.2265625,0.2841797,73.7681,11.231701,-116.34273,30.17689,0.0,0.0,0.0,0.0,0.0,0.0,0.0,-7.295948,-112.29091,36.537804,0.0,0.0,0.0,0.0,0.0,0.0,0.0,16.31153,40.049847,12.448063,
1.1914062322466636,61,-0.22808838,1.0675659,0.43011475,1.3486328,0.5048828,0.734375,0.0,0.0,0.0,0.0,0.0,0.0,0.0,0.0,0.0,0.0,0.0,-0.6849654,0.01738435,0.72831535,-1.2997437,-0.034851074,-0.04559326,0.5810547,-2.3759766,-1.3271484,33.147923,-14.180906,0.35990995,15.078386,0.9800415,-0.15802002,-0.87109375,-4.5566406,-1.3476562,0.20703125,28.756517,-14.877068,-55.647976,25.703447,-0.0692749,-0.7262573,1.0566406,1.1269531,1.9296875,-1.1650391,106.4213,-24.052807,-124.08101,5.2729607,0.0,0.0,0.0,0.0,0.0,0.0,0.0,-20.868862,-142.16446,-2.57935,0.0,0.0,0.0,0.0,0.0,0.0,0.0,0.6849654,-0.01738435,-0.72831535,-1.1240845,-0.38433838,-0.30413818,-0.93847656,1.3701172,0.7265625,41.194157,14.180906,-0.35990995,-15.078386,1.0447998,0.031555176,-0.2647705,-1.3222656,-0.7734375,0.5996094,30.537252,25.574482,-55.23015,-4.7891397,0.44189453,-0.37286377,0.8395996,0.00390625,0.15917969,0.3232422,74.419106,7.893276,-116.63808,28.412975,0.0,0.0,0.0,0.0,0.0,0.0,0.0,-10.63616,-112.807175,34.899483,0.0,0.0,0.0,0.0,0.0,0.0,0.0,14.619326,40.59292,12.780247,
1.2109374819556253,62,-0.4552002,1.28302,0.56622314,-1.1259766,0.4736328,0.11328125,0.0,0.0,0.0,0.0,0.0,0.0,0.0,0.0,0.0,0.0,0.0,-0.6901695,0.02626656,0.723087,-1.2185059,0.10601807,-0.04309082,1.1464844,-2.4707031,-1.2705078,36.01356,-14.288648,0.5437993,14.970142,0.99432373,-0.62713623,-0.8769531,-2.4169922,-0.36132812,-0.31347656,32.596695,-12.81222,-55.04748,27.515797,-0.23199463,-0.59576416,1.1573486,-0.022460938,0.86328125,-0.87109375,107.1572,-21.10771,-123.00076,5.167034,0.0,0.0,0.0,0.0,0.0,0.0,0.0,-17.029774,-140.78084,-2.9694557,0.0,0.0,0.0,0.0,0.0,0.0,0.0,0.6901695,-0.02626656,-0.723087,-1.1113281,-0.40527344,-0.33673096,0.95410156,0.9824219,0.41601562,39.920555,14.288648,-0.5437993,-14.970142,0.9783325,-0.35949707,-0.118652344,-0.080078125,-0.921875,0.83203125,30.499216,24.620037,-55.786026,-5.3970814,0.41314697,-0.37347412,0.85839844,0.25195312,0.09863281,0.020507812,74.8232,6.141163,-117.13629,27.474997,0.0,0.0,0.0,0.0,0.0,0.0,0.0,-12.225533,-113.368576,34.44798,0.0,0.0,0.0,0.0,0.0,0.0,0.0,14.792,40.57166,12.644827,
1.230468731664587,63,-0.50909424,0.89208984,0.5734253,-0.61621094,-0.7734375,-0.4560547,0.0,0.0,0.0,0.0,0.0,0.0,0.0,0.0,0.0,0.0,0.0,-0.6775375,0.038845748,0.73459274,-1.0283203,0.1329956,0.04724121,1.8613281,-2.6054688,-0.9863281,39.210663,-14.027126,0.8042275,15.208346,0.7669678,-0.32299805,-0.8358154,-0.3828125,0.3046875,-1.0068359,34.75654,-10.524075,-54.108707,29.38509,-0.25604248,-0.38153076,1.0123901,-0.61621094,-0.40820312,0.20117188,108.01686,-17.451832,-122.12271,6.7753525,0.0,0.0,0.0,0.0,0.0,0.0,0.0,-13.054461,-139.57292,-1.897603,0.0,0.0,0.0,0.0,0.0,0.0,0.0,0.6775375,-0.038845748,-0.73459274,-0.9517212,-0.19250488,-0.23406982,1.7578125,1.2900391,0.6123047,38.637993,14.027126,-0.8042275,-15.208346,1.0200806,0.15368652,-0.24829102,0.7705078,-1.0654297,0.5966797,31.328606,23.308743,-56.36889,-7.6145983,0.43371582,-0.3618164,0.85339355,0.00390625,0.06640625,0.00390625,73.12154,3.5699844,-117.76889,24.431217,0.0,0.0,0.0,0.0,0.0,0.0,0.0,-14.702263,-114.157646,31.72849,0.0,0.0,0.0,0.0,0.0,0.0,0.0,15.7573185,40.289753,12.402912,
1.2499999813735487,64,-0.41235352,0.5923462,0.39526367,0.6279297,-1.1757812,-0.8701172,0.0,0.0,0.0,0.0,0.0,0.0,0.0,0.0,0.0,0.0,0.0,-0.65792274,0.037197486,0.7522498,-0.96588135,0.20880127,0.058532715,2.3300781,-3.1425781,-0.62890625,40.49985,-13.621041,0.7701032,15.573902,0.748291,-0.22802734,-0.8641968,-0.28222656,0.8378906,-1.046875,36.052338,-8.199519,-53.573627,31.243013,-0.20629883,-0.5553589,0.8140259,-1.5419922,-1.234375,-0.047851562,104.68049,-13.381667,-121.90819,9.110289,0.0,0.0,0.0,0.0,0.0,0.0,0.0,-9.889271,-139.67139,0.656559,0.0,0.0,0.0,0.0,0.0,0.0,0.0,0.65792274,-0.037197486,-0.7522498,-0.8148804,-0.02368164,-0.15820312,2.3310547,1.234375,0.625,36.15585,13.621041,-0.7701032,-15.573902,0.96051025,0.2144165,-0.2682495,-1.3027344,-0.7548828,0.61816406,32.64689,22.153181,-56.78324,-9.235033,0.42822266,-0.25286865,0.8553467,-0.07128906,0.08886719,-0.14648438,69.82212,0.34649658,-117.814735,22.149218,0.0,0.0,0.0,0.0,0.0,0.0,0.0,-17.777088,-114.33384,29.86718,0.0,0.0,0.0,0.0,0.0,0.0,0.0,15.487326,40.64891,11.535299,
1.2695312310825104,65,-0.31079102,0.64471436,0.4586792,0.3232422,-0.8857422,-1.0078125,0.0,0.0,0.0,0.0,0.0,0.0,0.0,0.0,0.0,0.0,0.0,-0.6363991,0.028072655,0.7709761,-0.9674072,0.23376465,0.13861084,1.9697266,-3.0351562,-0.2265625,41.886204,-13.175435,0.581191,15.9615965,0.74212646,-0.27209473,-0.81848145,0.3984375,1.5097656,-0.80566406,36.335907,-6.036255,-53.093292,32.86785,-0.4630127,-0.8515625,0.59375,-1.2041016,-1.4179688,-0.9394531,104.689735,-9.705382,-121.98474,12.218311,0.0,0.0,0.0,0.0,0.0,0.0,0.0,-6.5083303,-139.64209,3.4469662,0.0,0.0,0.0,0.0,0.0,0.0,0.0,0.6363991,-0.028072655,-0.7709761,-0.7001343,-0.0107421875,-0.29675293,2.4863281,1.5615234,0.3173828,33.960957,13.175435,-0.581191,-15.9615965,0.94421387,-0.072631836,-0.15148926,-2.3125,-0.5175781,0.47753906,32.67158,21.061317,-56.83628,-11.128874,0.4519043,-0.44866943,0.80218506,-0.20507812,0.11035156,-0.0703125,69.2643,-1.315939,-118.4053,18.796926,0.0,0.0,0.0,0.0,0.0,0.0,0.0,-19.2263,-114.91765,26.99223,0.0,0.0,0.0,0.0,0.0,0.0,0.0,15.177579,40.904545,11.03886,
1.2890624807914721,66,-0.10650635,0.6654053,0.4942627,-0.078125,-1.1367188,-0.7265625,0.0,0.0,0.0,0.0,0.0,0.0,0.0,0.0,0.0,0.0,0.0,-0.6153432,0.023110583,0.7880274,-1.0252075,0.18383789,0.20544434,1.7050781,-3.2089844,-0.1328125,44.118244,-12.7395115,0.47846073,16.31461,0.7576294,-0.2609253,-0.82855225,1.375,1.8740234,-0.6669922,36.316814,-3.6312551,-52.478607,34.688103,-0.7590332,-0.36212158,0.6421509,-0.84765625,-1.4931641,-1.8496094,103.447845,-6.181244,-122.084305,16.418331,0.0,0.0,0.0,0.0,0.0,0.0,0.0,-3.5389073,-139.9865,7.948309,0.0,0.0,0.0,0.0,0.0,0.0,0.0,0.6153432,-0.023110583,-0.7880274,-0.7927246,0.1963501,-0.33251953,3.1386719,1.8935547,0.1875,31.986336,12.7395115,-0.47846073,-16.31461,1.0839233,-0.30200195,-0.017456055,-2.234375,-0.5,0.53222656,33.22538,19.8801,-56.971867,-13.517872,0.4048462,-0.4031372,0.83776855,0.12011719,0.14160156,-0.14746094,69.932365,-2.748602,-118.726,15.774128,0.0,0.0,0.0,0.0,0.0,0.0,0.0,-20.412785,-115.26678,24.5001,0.0,0.0,0.0,0.0,0.0,0.0,0.0,15.231771,40.975727,10.69226,
1.3085937305004338,67,0.11193848,0.6031494,0.35760498,-0.22167969,-1.3378906,-0.5058594,0.0,0.0,0.0,0.0,0.0,0.0,0.0,0.0,0.0,0.0,0.0,-0.5926832,0.013549209,0.8054206,-1.0395508,0.12628174,0.28808594,1.0087891,-2.7910156,-0.16601562,46.60392,-12.270379,0.28051043,16.674704,0.7982788,-0.034118652,-0.8390503,1.5976562,2.2177734,-0.96875,35.28887,-0.9268913,-51.92115,35.805,-0.90966797,0.058654785,0.7182617,-1.1298828,-1.7910156,-1.7382812,103.81856,-2.208679,-122.2887,20.553118,0.0,0.0,0.0,0.0,0.0,0.0,0.0,0.2324264,-140.20523,12.073755,0.0,0.0,0.0,0.0,0.0,0.0,0.0,0.5926832,-0.013549209,-0.8054206,-1.0971069,0.49609375,-0.27209473,2.6992188,2.0820312,0.3359375,29.967001,12.270379,-0.28051043,-16.674704,0.9885254,-0.4003296,0.045288086,-0.8955078,-0.8173828,0.65234375,34.055435,17.937016,-57.000618,-15.841212,0.45428467,-0.38189697,0.81591797,0.13964844,0.17871094,-0.09082031,69.98346,-5.583475,-118.4505,13.421784,0.0,0.0,0.0,0.0,0.0,0.0,0.0,-23.036497,-115.118095,22.610668,0.0,0.0,0.0,0.0,0.0,0.0,0.0,15.465572,40.887688,10.692785,
1.3281249802093955,68,0.24841309,0.69873047,0.32989502,-0.16894531,-0.9169922,-0.43066406,0.0,0.0,0.0,0.0,0.0,0.0,0.0,0.0,0.0,0.0,0.0,-0.5737652,0.0064493567,0.81904227,-1.0586548,0.06750488,0.32788086,0.8027344,-2.6933594,-0.4326172,48.473133,-11.878719,0.13352193,16.956715,0.7079468,0.25598145,-0.89190674,0.5908203,2.5800781,-1.2109375,33.033897,1.744421,-51.57265,35.90755,-0.7576904,-0.03387451,0.76379395,-1.2773438,-2.1992188,-1.4179688,103.90581,2.2020364,-122.616135,24.072546,0.0,0.0,0.0,0.0,0.0,0.0,0.0,4.285958,-140.51541,15.447896,0.0,0.0,0.0,0.0,0.0,0.0,0.0,0.5737652,-0.0064493567,-0.81904227,-1.2299194,0.55877686,-0.08874512,0.5917969,0.8769531,0.15429688,28.657408,11.878719,-0.13352193,-16.956715,0.95513916,-0.14031982,0.0758667,-0.12207031,-0.99609375,0.38085938,34.285362,16.400455,-56.959953,-17.350363,0.41949463,-0.3534546,0.8386841,0.29296875,0.15625,-0.1484375,68.142654,-7.816698,-118.34533,11.492018,0.0,0.0,0.0,0.0,0.0,0.0,0.0,-25.043255,-115.15567,21.14492,0.0,0.0,0.0,0.0,0.0,0.0,0.0,15.715689,40.791412,10.688137,
1.3476562299183572,69,0.12719727,0.76452637,0.49090576,0.19628906,-0.54003906,-0.234375,0.0,0.0,0.0,0.0,0.0,0.0,0.0,0.0,0.0,0.0,0.0,-0.5640856,-4.350394E-4,0.8257894,-0.98443604,0.06768799,0.19354248,0.5390625,-2.7695312,-0.49023438,50.07916,-11.678322,-0.009006664,17.096401,0.5606079,0.24053955,-0.9135742,-1.3886719,3.0458984,-1.0810547,30.140133,4.539936,-50.970936,35.317177,-0.38806152,-0.26031494,0.8352051,-0.7675781,-2.366211,-2.0253906,100.64026,7.732095,-122.455185,27.170277,0.0,0.0,0.0,0.0,0.0,0.0,0.0,8.685505,-140.67087,19.021753,0.0,0.0,0.0,0.0,0.0,0.0,0.0,0.5640856,4.350394E-4,-0.8257894,-0.96380615,0.40270996,-0.11468506,-0.21386719,-0.055664062,-0.0625,28.502151,11.678322,0.009006664,-17.096401,0.97784424,-0.13677979,-0.0056152344,-0.5673828,-0.9707031,0.3857422,33.951324,16.068443,-56.82224,-17.387905,0.4005127,-0.45874023,0.8121948,0.40722656,0.19140625,-0.111328125,66.01939,-8.880896,-118.39286,10.420391,0.0,0.0,0.0,0.0,0.0,0.0,0.0,-25.904184,-115.365295,20.4775,0.0,0.0,0.0,0.0,0.0,0.0,0.0,15.635571,40.819626,10.701952,
1.367187479627319,70,-0.05517578,0.776001,0.44506836,0.41601562,-0.41015625,-0.16503906,0.0,0.0,0.0,0.0,0.0,0.0,0.0,0.0,0.0,0.0,0.0,-0.5626802,-0.008850038,0.8268275,-0.8805542,-0.053710938,0.02935791,0.10644531,-2.2373047,-0.484375,50.194286,-11.649224,-0.18322295,17.117893,0.3876953,7.324219E-4,-0.9627075,-2.555664,3.7978516,-0.5488281,26.200993,6.6678877,-51.04602,34.066814,-0.09326172,-0.13671875,1.0776978,0.0087890625,-2.7070312,-2.9267578,97.40392,12.360376,-122.735535,30.19952,0.0,0.0,0.0,0.0,0.0,0.0,0.0,12.177412,-141.37422,23.038918,0.0,0.0,0.0,0.0,0.0,0.0,0.0,0.5626802,0.008850038,-0.8268275,-0.7885742,0.20916748,-0.13690186,0.07714844,0.9121094,-0.14648438,27.152838,11.649224,0.18322295,-17.117893,0.98669434,-0.27075195,-0.07501221,-0.7216797,-0.96777344,0.44433594,33.714252,15.529375,-56.692577,-17.685215,0.42114258,-0.41149902,0.84954834,0.73339844,0.22265625,-0.26367188,64.834145,-10.078842,-118.343506,9.328167,0.0,0.0,0.0,0.0,0.0,0.0,0.0,-26.874704,-115.52957,19.82214,0.0,0.0,0.0,0.0,0.0,0.0,0.0,15.028687,41.061234,10.666962,
1.3867187293362806,71,-0.11187744,0.76000977,0.34991455,0.3798828,-0.33398438,-0.20019531,0.0,0.0,0.0,0.0,0.0,0.0,0.0,0.0,0.0,0.0,0.0,-0.55813825,-0.016424462,0.82975227,-0.70770264,-0.24902344,-0.3192749,0.35351562,-1.7587891,-0.5761719,51.74775,-11.55519,-0.3400373,17.178444,0.15325928,-0.18640137,-1.0649414,-2.3173828,4.6054688,0.021484375,25.652306,8.785188,-50.68214,34.45308,-0.070617676,-0.19555664,1.2637329,0.41015625,-3.4111328,-3.3613281,102.00461,12.981277,-122.56784,35.435356,0.0,0.0,0.0,0.0,0.0,0.0,0.0,12.640998,-141.27902,28.51756,0.0,0.0,0.0,0.0,0.0,0.0,0.0,0.55813825,0.016424462,-0.82975227,-0.89404297,0.06097412,-0.2803955,0.23144531,1.2587891,-0.20898438,25.585035,11.55519,0.3400373,-17.178444,1.0336304,-0.27160645,-0.19543457,0.34375,-1.1328125,0.3388672,33.885284,14.578043,-56.568172,-18.699213,0.4282837,-0.18652344,0.92718506,0.46289062,0.038085938,-0.1875,64.75606,-11.925804,-118.163025,7.5949955,0.0,0.0,0.0,0.0,0.0,0.0,0.0,-28.691923,-115.769684,18.23576,0.0,0.0,0.0,0.0,0.0,0.0,0.0,14.717152,41.160282,10.714331,
1.4062499790452423,72,-0.08062744,0.7397461,0.26428223,0.5908203,-0.4892578,-0.09667969,0.0,0.0,0.0,0.0,0.0,0.0,0.0,0.0,0.0,0.0,0.0,-0.5525545,-0.026151806,0.8331286,-0.49298096,-0.109802246,-0.5078125,0.5263672,-0.76464844,-0.7763672,52.574474,-11.439591,-0.54142344,17.248344,-0.02508545,-0.34503174,-1.0070801,-2.352539,5.2470703,0.41503906,24.658703,10.249352,-50.38576,34.42522,-0.46795654,-0.26464844,1.3712769,0.5830078,-4.109375,-3.7998047,106.947716,12.885856,-121.986694,41.636635,0.0,0.0,0.0,0.0,0.0,0.0,0.0,12.134468,-140.79938,35.036472,0.0,0.0,0.0,0.0,0.0,0.0,0.0,0.5525545,0.026151806,-0.8331286,-1.0453491,-0.13549805,-0.37701416,0.27246094,1.7265625,-0.3515625,23.538065,11.439591,0.54142344,-17.248344,1.0509033,0.059448242,-0.26904297,1.1171875,-1.2939453,0.10546875,33.934017,13.2618265,-56.371037,-20.053724,0.4258423,-0.27026367,0.90753174,0.22949219,-0.12890625,-0.07324219,62.589092,-14.605134,-117.9361,4.848545,0.0,0.0,0.0,0.0,0.0,0.0,0.0,-31.310524,-115.7969,15.639416,0.0,0.0,0.0,0.0,0.0,0.0,0.0,14.358261,41.255604,10.817814,
1.425781228754204,73,-0.08728027,0.7655029,0.22888184,1.0761719,-0.6503906,0.055664062,0.0,0.0,0.0,0.0,0.0,0.0,0.0,0.0,0.0,0.0,0.0,-0.547966,-0.04450129,0.83554626,-0.35394287,0.02911377,-0.49627686,0.7919922,0.018554688,-0.88378906,52.27561,-11.344595,-0.9213147,17.298399,0.061401367,-0.51934814,-0.942749,-1.8818359,5.616211,0.7675781,23.262383,11.018097,-50.684162,33.831078,-1.2275391,-0.04321289,1.3399658,0.38085938,-4.8222656,-3.4765625,112.444954,12.705353,-121.2272,48.16965,0.0,0.0,0.0,0.0,0.0,0.0,0.0,11.30147,-140.06796,41.773563,0.0,0.0,0.0,0.0,0.0,0.0,0.0,0.547966,0.04450129,-0.83554626,-1.0432129,-0.19494629,-0.26641846,0.8046875,0.98828125,-0.21582031,21.525187,11.344595,0.9213147,-17.298399,0.97784424,0.2701416,-0.20574951,-0.3935547,-1.140625,0.140625,33.376095,12.297593,-55.915123,-21.437202,0.43725586,-0.26031494,0.88879395,0.0546875,-0.27734375,-0.015625,58.461933,-16.602886,-117.93587,0.99557495,0.0,0.0,0.0,0.0,0.0,0.0,0.0,-33.249474,-116.02801,11.919546,0.0,0.0,0.0,0.0,0.0,0.0,0.0,13.67006,41.402134,11.17015,
1.4453124784631657,74,-0.13928223,0.87164307,0.29577637,1.0966797,-0.63183594,0.037109375,0.0,0.0,0.0,0.0,0.0,0.0,0.0,0.0,0.0,0.0,0.0,-0.5497261,-0.06325402,0.83312196,-0.35266113,0.3295288,-0.36175537,0.8886719,0.9140625,-0.8173828,50.34599,-11.381035,-1.3095545,17.248207,0.453125,-0.5567627,-0.70422363,-0.8515625,5.654297,0.94921875,21.686628,10.932369,-51.432274,32.716072,-1.9304199,-0.3330078,0.8206787,-0.091796875,-4.9492188,-3.1269531,118.79602,13.015301,-120.07183,54.390995,0.0,0.0,0.0,0.0,0.0,0.0,0.0,10.922747,-138.78766,47.831787,0.0,0.0,0.0,0.0,0.0,0.0,0.0,0.5497261,0.06325402,-0.83312196,-0.89123535,-0.10101318,-0.21966553,0.89746094,0.59472656,-0.0546875,19.924046,11.381035,1.3095545,-17.248207,0.9417114,-0.026794434,-0.20605469,-1.3984375,-1.0507812,0.39746094,33.051926,12.373908,-55.480682,-22.067083,0.3887329,-0.38049316,0.80236816,-0.13671875,-0.31054688,-0.109375,56.045918,-17.181175,-117.93314,-1.7398052,0.0,0.0,0.0,0.0,0.0,0.0,0.0,-33.633705,-116.080795,9.483459,0.0,0.0,0.0,0.0,0.0,0.0,0.0,12.455792,41.72278,11.3865795,
1.4648437281721274,75,-0.13885498,0.9594116,0.35321045,0.6953125,-0.88964844,0.025390625,0.0,0.0,0.0,0.0,0.0,0.0,0.0,0.0,0.0,0.0,0.0,-0.5544273,-0.07528617,0.82896817,-0.54351807,0.49578857,0.17150879,0.28515625,1.7050781,-0.31347656,47.19273,-11.478365,-1.5586569,17.162209,0.8960571,-0.5779419,-0.40338135,0.3955078,5.196289,1.0458984,20.148073,9.847427,-52.46743,31.417938,-2.0,-0.29406738,0.0087890625,0.3720703,-3.5742188,-3.491211,123.7983,13.897258,-118.547874,59.71907,0.0,0.0,0.0,0.0,0.0,0.0,0.0,11.326149,-137.1677,53.06623,0.0,0.0,0.0,0.0,0.0,0.0,0.0,0.5544273,0.07528617,-0.82896817,-1.013794,-0.026184082,-0.1453247,1.2822266,1.2666016,-0.016601562,17.786818,11.478365,1.5586569,-17.162209,1.0495605,-0.29766846,-0.11657715,-1.9384766,-0.96777344,0.72265625,33.18285,12.197112,-55.17353,-22.695066,0.35162354,-0.29730225,0.96203613,0.42285156,-0.3359375,-1.109375,56.288284,-18.115746,-117.61737,-3.498373,0.0,0.0,0.0,0.0,0.0,0.0,0.0,-34.500813,-115.74633,7.823612,0.0,0.0,0.0,0.0,0.0,0.0,0.0,11.190384,42.099968,11.307793,
1.484374977881089,76,-0.06982422,0.94091797,0.22583008,1.1630859,-0.9980469,-0.022460938,0.0,0.0,0.0,0.0,0.0,0.0,0.0,0.0,0.0,0.0,0.0,-0.5595819,-0.09293567,0.8237475,-1.0253906,0.25634766,1.2442017,-0.07714844,1.125,0.13964844,44.350502,-11.585079,-1.9240566,17.054127,0.9404907,-0.14355469,-0.14099121,1.5087891,4.3466797,0.6660156,19.553814,8.503019,-53.463417,30.801798,-2.0,0.42242432,-0.27612305,0.7421875,-2.0117188,-3.4472656,126.82309,15.226381,-116.84726,64.322716,0.0,0.0,0.0,0.0,0.0,0.0,0.0,12.512819,-135.53363,57.92645,0.0,0.0,0.0,0.0,0.0,0.0,0.0,0.5595819,0.09293567,-0.8237475,-0.88134766,0.3312378,-0.25775146,1.96875,0.9140625,0.19921875,15.4881525,11.585079,1.9240566,-17.054127,1.0006714,-0.40350342,0.058898926,0.5029297,-1.6914062,0.21191406,34.062263,11.743096,-54.762875,-23.069153,0.48718262,-0.25793457,0.95751953,-0.25683594,-0.59375,-0.12695312,58.5215,-20.369873,-116.46167,-4.4086323,0.0,0.0,0.0,0.0,0.0,0.0,0.0,-37.042843,-114.96808,6.5285683,0.0,0.0,0.0,0.0,0.0,0.0,0.0,9.744411,42.433426,11.406863,
1.5039062275900508,77,0.015075684,0.9003906,0.14764404,1.4130859,-0.54785156,-0.13378906,0.0,0.0,0.0,0.0,0.0,0.0,0.0,0.0,0.0,0.0,0.0,-0.5739084,-0.11374408,0.8110857,-1.4599609,0.22912598,1.6195679,0.4091797,-0.39746094,0.14355469,42.224293,-11.881684,-2.3548548,16.791988,0.97021484,0.020935059,0.1105957,-0.099609375,2.6621094,0.31347656,19.438686,7.9579363,-53.979057,30.606724,-2.0,0.81207275,-0.7736206,0.6875,-1.3251953,-2.1455078,126.945335,17.061111,-115.65898,66.63379,0.0,0.0,0.0,0.0,0.0,0.0,0.0,14.197922,-134.43773,60.5879,0.0,0.0,0.0,0.0,0.0,0.0,0.0,0.5739084,0.11374408,-0.8110857,-0.9998779,0.2590332,-0.17370605,0.859375,0.90722656,0.29492188,12.833612,11.881684,2.3548548,-16.791988,0.9369507,0.28295898,-0.023376465,0.5966797,-1.6933594,-0.16601562,32.764194,11.132973,-54.342697,-22.65041,0.42089844,-0.20269775,0.9627075,-0.07324219,-0.95996094,-0.14746094,55.51345,-21.905327,-116.1829,-6.1764145,0.0,0.0,0.0,0.0,0.0,0.0,0.0,-38.659153,-114.85505,4.6690197,0.0,0.0,0.0,0.0,0.0,0.0,0.0,7.7117033,42.830696,11.463091,
1.5234374772990125,78,0.029296875,0.94036865,0.24414062,0.7294922,-0.43359375,-0.026367188,0.0,0.0,0.0,0.0,0.0,0.0,0.0,0.0,0.0,0.0,0.0,-0.5883267,-0.12908982,0.798357,-0.9487915,0.10668945,0.927124,-0.001953125,0.4814453,-0.11425781,40.629536,-12.180186,-2.6725593,16.528465,0.899292,-0.15551758,0.3527832,-0.8779297,0.8515625,-0.12988281,19.279596,7.6253996,-54.301224,30.36824,-2.0,0.8496094,-1.3492432,0.15722656,-0.18554688,-0.48242188,128.26717,18.334755,-115.1334,67.396965,0.0,0.0,0.0,0.0,0.0,0.0,0.0,15.719715,-133.93884,61.315464,0.0,0.0,0.0,0.0,0.0,0.0,0.0,0.5883267,0.12908982,-0.798357,-1.2415771,0.07220459,0.0501709,-0.53808594,0.14941406,-0.12011719,10.879165,12.180186,2.6725593,-16.528465,1.0270386,0.019348145,0.07531738,-1.0419922,-1.7226562,0.4765625,31.67885,10.863818,-54.0047,-22.530666,0.4697876,-0.3998413,0.9990845,-0.33007812,-1.4296875,-0.16503906,53.914993,-22.73071,-116.08745,-8.273958,0.0,0.0,0.0,0.0,0.0,0.0,0.0,-39.62763,-114.72184,2.3331337,0.0,0.0,0.0,0.0,0.0,0.0,0.0,6.062788,43.101875,11.43713,
1.5429687270079742,79,0.078125,0.99102783,0.28601074,0.07421875,-0.66503906,0.022460938,0.0,0.0,0.0,0.0,0.0,0.0,0.0,0.0,0.0,0.0,0.0,-0.5937474,-0.13776556,0.7927608,-0.68847656,0.13104248,0.75860596,0.07421875,0.25683594,-0.34570312,39.467464,-12.292411,-2.852174,16.412605,0.7661133,0.10266113,-0.119506836,-0.36621094,-0.6826172,-0.024414062,19.458225,7.3099375,-54.62928,29.900763,-2.0,0.12921143,-1.0772095,0.16699219,1.4814453,-0.14550781,129.54192,17.663513,-115.64806,66.68762,0.0,0.0,0.0,0.0,0.0,0.0,0.0,15.815475,-134.54016,60.572575,0.0,0.0,0.0,0.0,0.0,0.0,0.0,0.5937474,0.13776556,-0.7927608,-1.0881348,0.05432129,-0.016906738,0.5107422,-0.54589844,-0.13378906,10.804234,12.292411,2.852174,-16.412605,1.1599121,-0.3427124,0.15209961,-0.43652344,-2.1953125,0.6064453,33.51755,11.549047,-53.848618,-22.171307,0.43518066,-0.3493042,1.007019,-0.28027344,-1.8867188,-0.4482422,54.932617,-24.604109,-114.77757,-9.228896,0.0,0.0,0.0,0.0,0.0,0.0,0.0,-41.633358,-113.44331,1.1659336,0.0,0.0,0.0,0.0,0.0,0.0,0.0,5.2544136,43.202065,11.442987,
1.5624999767169359,80,0.10797119,1.0940552,0.20947266,-0.28710938,-0.31347656,-0.0390625,0.0,0.0,0.0,0.0,0.0,0.0,0.0,0.0,0.0,0.0,0.0,-0.5999827,-0.14047782,0.7877379,-0.50964355,0.07067871,-0.04473877,0.28222656,0.56152344,-0.3046875,38.7377,-12.421501,-2.9083264,16.308617,0.6019287,0.1149292,-0.5515747,-0.41015625,-1.5234375,0.15429688,19.938251,7.036911,-54.87272,29.357279,-1.9293823,-0.20355225,1.999939,2.0898438,0.5722656,-0.45996094,129.28902,15.70251,-116.691574,65.22971,0.0,0.0,0.0,0.0,0.0,0.0,0.0,14.551018,-135.73923,59.432045,0.0,0.0,0.0,0.0,0.0,0.0,0.0,0.5999827,0.14047782,-0.7877379,-1.1126709,0.16918945,0.06750488,0.875,-0.22460938,-0.0146484375,11.351073,12.421501,2.9083264,-16.308617,1.0442505,-0.053710938,0.12878418,0.61035156,-2.6757812,0.27929688,35.134098,12.497251,-53.844013,-21.721981,0.46331787,-0.43780518,1.0119019,-0.59765625,-2.5644531,-0.6171875,53.898552,-25.750504,-113.8783,-10.739262,0.0,0.0,0.0,0.0,0.0,0.0,0.0,-42.909603,-112.56054,-0.55467224,0.0,0.0,0.0,0.0,0.0,0.0,0.0,4.9380026,43.237846,11.471678,
1.5820312264258976,81,-0.010620117,1.1381836,0.56225586,0.048828125,0.36132812,-0.20605469,0.0,0.0,0.0,0.0,0.0,0.0,0.0,0.0,0.0,0.0,0.0,-0.5991224,-0.13621609,0.7890442,-1.1289062,0.12072754,0.40637207,-0.7734375,1.0898438,-0.22265625,37.622135,-12.40369,-2.8200955,16.33566,1.999939,-0.03857422,0.3550415,0.17285156,-2.6425781,-0.6953125,19.758118,6.3039856,-55.22738,28.698433,-1.6427612,0.54571533,1.5167847,-0.6328125,-0.875,3.3701172,130.07115,12.81462,-118.50656,62.411076,0.0,0.0,0.0,0.0,0.0,0.0,0.0,11.3548155,-137.34679,56.02703,0.0,0.0,0.0,0.0,0.0,0.0,0.0,0.5991224,0.13621609,-0.7890442,-1.211731,0.27471924,0.0703125,0.3564453,-1.0097656,-0.091796875,11.885444,12.40369,2.8200955,-16.33566,1.2182007,0.09942627,0.03643799,-0.9550781,-2.7070312,0.43066406,36.955086,13.2314825,-53.938602,-21.589905,0.38183594,-0.46496582,1.3156128,-0.7451172,-3.3955078,-1.0683594,52.997055,-27.221573,-112.91939,-13.159766,0.0,0.0,0.0,0.0,0.0,0.0,0.0,-44.47789,-111.63834,-3.1384583,0.0,0.0,0.0,0.0,0.0,0.0,0.0,5.0822945,43.25587,11.326441,
1.6015624761348592,82,-0.05218506,1.2197876,0.7252197,-0.37890625,0.49316406,-0.72558594,0.0,0.0,0.0,0.0,0.0,0.0,0.0,0.0,0.0,0.0,0.0,-0.60177374,-0.12277885,0.7894113,-2.0,-0.21643066,0.30090332,-1.6386719,1.3193359,-0.50683594,35.410583,-12.458584,-2.541903,16.343262,0.90057373,-0.20178223,-0.3731079,-2.4384766,0.3408203,-0.09277344,19.411432,5.3218384,-55.52245,27.58,0.9338379,6.1035156E-5,1.0976562,1.3095703,-0.1796875,-1.6425781,132.07448,10.616838,-119.94917,59.305458,0.0,0.0,0.0,0.0,0.0,0.0,0.0,9.69584,-138.61128,52.31958,0.0,0.0,0.0,0.0,0.0,0.0,0.0,0.60177374,0.12277885,-0.7894113,-1.680542,0.5883179,-0.15594482,1.1044922,-0.4658203,-0.18164062,11.926297,12.458584,2.541903,-16.343262,1.7182617,-0.3227539,0.06781006,-1.3984375,-2.8857422,0.4189453,39.581196,14.130604,-54.21951,-21.38113,0.37121582,-0.8269043,1.1395264,-1.09375,-4.776367,-1.4072266,54.442722,-28.953754,-111.62344,-15.399461,0.0,0.0,0.0,0.0,0.0,0.0,0.0,-46.34253,-110.45866,-5.5907507,0.0,0.0,0.0,0.0,0.0,0.0,0.0,5.0958614,43.434807,10.640121,
1.621093725843821,83,0.1642456,1.5199585,0.3955078,0.42382812,-0.16699219,-0.3828125,0.0,0.0,0.0,0.0,0.0,0.0,0.0,0.0,0.0,0.0,0.0,-0.594964,-0.1142703,0.7956837,-0.78686523,0.11816406,-0.3270874,1.7724609,0.19140625,-0.69140625,34.445644,-12.317602,-2.3657494,16.47312,0.47821045,-0.31762695,-1.2279053,-5.1904297,-2.024414,0.2529297,19.873966,5.55678,-55.395733,26.709934,-1.8823853,-0.18817139,0.71240234,0.73046875,-0.43359375,-0.15136719,133.68454,9.041485,-121.140656,55.844757,0.0,0.0,0.0,0.0,0.0,0.0,0.0,8.382716,-139.60466,48.31594,0.0,0.0,0.0,0.0,0.0,0.0,0.0,0.594964,0.1142703,-0.7956837,-1.3123169,0.33581543,-0.1138916,-1.2958984,-3.2246094,-0.34277344,13.494823,12.317602,2.3657494,-16.47312,1.3642578,0.2487793,-0.18469238,0.5839844,-3.6201172,0.5917969,44.131535,15.893638,-54.368988,-20.776405,0.46875,-0.47686768,1.1222534,-0.80859375,-6.1289062,-2.5019531,53.66004,-30.479591,-109.38802,-17.605965,0.0,0.0,0.0,0.0,0.0,0.0,0.0,-47.93059,-108.599464,-7.8750362,0.0,0.0,0.0,0.0,0.0,0.0,0.0,5.216253,43.53198,10.152144,
1.6406249755527826,84,0.23260498,1.2790527,0.6057129,-0.6621094,0.85253906,-0.36914062,0.0,0.0,0.0,0.0,0.0,0.0,0.0,0.0,0.0,0.0,0.0,-0.59722805,-0.109076865,0.79478556,-0.7248535,0.46044922,-0.4845581,-0.27734375,2.3574219,-0.76464844,29.94927,-12.364473,-2.2582293,16.454527,0.34838867,-1.2259521,-0.7078247,-1.375,-0.6171875,0.40429688,19.958323,2.3886929,-56.419624,24.50555,0.25891113,-0.9185791,0.6849365,0.44628906,-0.31347656,0.0859375,134.65529,3.612133,-122.65354,52.705147,0.0,0.0,0.0,0.0,0.0,0.0,0.0,3.3207254,-141.03278,44.93885,0.0,0.0,0.0,0.0,0.0,0.0,0.0,0.59722805,0.109076865,-0.79478556,-0.9591675,-0.43719482,-0.105163574,-5.020508,-2.8203125,-0.7265625,17.379433,12.364473,2.2582293,-16.454527,1.0007935,0.03778076,-0.5404053,-1.7578125,-3.3613281,0.8251953,49.878117,18.861814,-54.293793,-17.432869,1.5056152,-0.30615234,0.36883545,-1.7900391,-6.5810547,-2.7226562,54.25347,-30.617655,-106.61878,-16.922451,0.0,0.0,0.0,0.0,0.0,0.0,0.0,-48.21312,-106.27873,-7.4235954,0.0,0.0,0.0,0.0,0.0,0.0,0.0,5.0161705,43.647705,9.759554,
1.6601562252617443,85,0.20776367,0.8742676,0.74139404,-2.1259766,1.1279297,0.0859375,0.0,0.0,0.0,0.0,0.0,0.0,0.0,0.0,0.0,0.0,0.0,-0.60875386,-0.0726596,0.79017794,-0.6382446,0.6152344,-0.029724121,-0.88378906,1.8359375,-0.42578125,27.929644,-12.603091,-1.5042788,16.359133,1.3127441,-0.5794678,-0.83984375,3.2861328,-1.3105469,-1.1347656,19.33662,-0.36824894,-56.713352,23.050774,-0.8162842,0.016723633,0.84088135,0.3701172,-0.07324219,0.34375,133.48898,-0.29028916,-123.34856,50.31926,0.0,0.0,0.0,0.0,0.0,0.0,0.0,-0.5533464,-141.74843,42.5977,0.0,0.0,0.0,0.0,0.0,0.0,0.0,0.60875386,0.0726596,-0.79017794,-1.0437622,-0.31854248,-0.5787964,-0.8847656,-1.1083984,-0.54785156,20.162088,12.603091,1.5042788,-16.359133,1.0834961,-0.27319336,-0.83032227,-2.4384766,-3.2207031,0.6425781,54.037228,20.225605,-54.992928,-16.009453,0.89001465,-1.1856079,1.3584595,-2.1699219,-5.821289,-3.6982422,53.7943,-31.90989,-104.62729,-18.242115,0.0,0.0,0.0,0.0,0.0,0.0,0.0,-49.31266,-104.58244,-8.396465,0.0,0.0,0.0,0.0,0.0,0.0,0.0,6.6059914,43.57872,9.096476,
1.679687474970706,86,-0.03527832,0.42694092,0.4675293,-0.28222656,0.4736328,0.14941406,0.0,0.0,0.0,0.0,0.0,0.0,0.0,0.0,0.0,0.0,0.0,-0.6048751,-0.051494163,0.79485965,-1.0593872,0.021972656,-0.21954346,-0.9814453,2.2216797,0.5332031,26.119219,-12.522791,-1.0660888,16.456059,1.328186,0.2999878,-0.5286255,2.7138672,-0.25390625,0.05859375,19.306059,-2.6714373,-56.734932,22.096033,-0.41296387,-0.42388916,0.81396484,-0.16601562,0.07910156,-0.2841797,132.18369,-3.4189596,-123.29119,49.553066,0.0,0.0,0.0,0.0,0.0,0.0,0.0,-3.6892028,-141.81232,42.087143,0.0,0.0,0.0,0.0,0.0,0.0,0.0,0.6048751,0.051494163,-0.79485965,-1.2734375,0.29833984,-0.5780029,-0.47070312,-2.3710938,-0.24902344,22.889673,12.522791,1.0660888,-16.456059,1.0524292,-0.614563,-1.1256714,-2.765625,-2.0859375,-0.06347656,57.88657,21.693903,-55.185383,-15.114172,-0.22698975,-0.6598511,0.5270386,-3.6992188,-4.705078,-2.8408203,51.630245,-32.12892,-102.8086,-19.742117,0.0,0.0,0.0,0.0,0.0,0.0,0.0,-49.042313,-103.175766,-9.086941,0.0,0.0,0.0,0.0,0.0,0.0,0.0,7.7036724,43.485424,8.679526,
1.6992187246796677,87,-0.12908936,0.31243896,0.35961914,0.2421875,0.8798828,0.10449219,0.0,0.0,0.0,0.0,0.0,0.0,0.0,0.0,0.0,0.0,0.0,-0.61353993,-0.048619658,0.7883281,-1.4026489,-0.44335938,0.089782715,-1.6396484,2.2998047,0.24804688,23.340067,-12.702178,-1.0065776,16.320835,0.7402344,0.43884277,-0.34625244,-1.0888672,-0.84277344,-0.04296875,18.767153,-5.3702307,-57.320595,21.27469,-0.477417,-0.32043457,0.8018799,-0.14550781,0.099609375,-0.078125,129.42256,-6.4723873,-123.878265,48.720676,0.0,0.0,0.0,0.0,0.0,0.0,0.0,-7.033592,-142.61871,41.86876,0.0,0.0,0.0,0.0,0.0,0.0,0.0,0.61353993,0.048619658,-0.7883281,-1.1062622,0.3267212,-0.74890137,0.13867188,-2.7216797,0.09082031,25.765032,12.702178,1.0065776,-16.320835,0.7536621,-0.7659302,-1.0575562,-0.75878906,-1.6728516,-0.28125,61.890167,24.156506,-54.72192,-12.704741,1.7147217,-1.2944336,1.131958,-2.2441406,-1.2207031,-1.8105469,49.62269,-30.556442,-101.07655,-19.30301,0.0,0.0,0.0,0.0,0.0,0.0,0.0,-47.04479,-101.50825,-8.006914,0.0,0.0,0.0,0.0,0.0,0.0,0.0,7.4885902,43.55394,8.514382,
1.7187499743886294,88,-0.08544922,0.73883057,0.8843994,-0.35253906,1.3359375,0.23046875,0.0,0.0,0.0,0.0,0.0,0.0,0.0,0.0,0.0,0.0,0.0,-0.6253303,-0.0326878,0.77987254,-1.0459595,-0.27374268,0.17773438,-1.9765625,2.475586,-0.15136719,20.356321,-12.946276,-0.6767386,16.145779,1.1448364,-0.23052979,-0.0803833,0.9921875,-0.36328125,0.22070312,18.881714,-7.8888335,-56.960083,19.743473,-0.45147705,-0.4472046,0.78338623,-0.12597656,0.06347656,-0.021484375,127.61173,-9.938926,-123.759766,46.55835,0.0,0.0,0.0,0.0,0.0,0.0,0.0,-10.937709,-142.65959,40.185333,0.0,0.0,0.0,0.0,0.0,0.0,0.0,0.6253303,0.0326878,-0.77987254,-1.2414551,0.43341064,-0.645813,-0.62402344,-1.859375,0.18359375,27.86268,12.946276,0.6767386,-16.145779,0.8404541,-0.31506348,-1.0780029,2.0283203,-1.6044922,-0.09082031,65.46128,25.988556,-54.55793,-10.737526,-0.8741455,-0.73101807,0.93426514,-0.35839844,1.2373047,-2.6279297,47.383778,-29.800667,-99.38622,-18.742598,0.0,0.0,0.0,0.0,0.0,0.0,0.0,-46.165344,-100.34943,-7.300888,0.0,0.0,0.0,0.0,0.0,0.0,0.0,7.6130295,43.643116,7.9336767,
1.7382812240975911,89,0.028198242,1.0617065,0.72576904,-0.734375,-0.15527344,0.5566406,0.0,0.0,0.0,0.0,0.0,0.0,0.0,0.0,0.0,0.0,0.0,-0.63305753,-0.024913892,0.7738005,-1.0061646,-0.3649292,0.30371094,-1.7509766,2.4941406,-0.037109375,17.118385,-13.106253,-0.51579493,16.020067,1.0588379,0.28375244,-0.09063721,1.8867188,-0.44628906,-0.2109375,20.534607,-10.864971,-57.427998,17.164043,-0.4515381,-0.45111084,0.7844238,-0.03125,0.061523438,0.07324219,125.27586,-13.490597,-124.20624,43.97642,0.0,0.0,0.0,0.0,0.0,0.0,0.0,-15.015309,-143.19443,37.98831,0.0,0.0,0.0,0.0,0.0,0.0,0.0,0.63305753,0.024913892,-0.7738005,-1.30896,0.3513794,-0.47833252,-4.6972656,-2.538086,-0.11621094,30.815313,13.106253,0.51579493,-16.020067,0.7565918,-0.046142578,-0.90234375,1.6660156,-0.28320312,-0.1015625,67.69929,26.992874,-54.181965,-7.919507,-0.12994385,-0.769104,0.68927,0.58496094,3.1835938,-0.80566406,45.188404,-29.38102,-98.190475,-16.34304,0.0,0.0,0.0,0.0,0.0,0.0,0.0,-45.554688,-99.58923,-4.658901,0.0,0.0,0.0,0.0,0.0,0.0,0.0,8.105858,43.532368,8.033123,
1.7578124738065528,90,0.072387695,1.1660156,0.28759766,-0.7285156,0.0234375,0.86816406,0.0,0.0,0.0,0.0,0.0,0.0,0.0,0.0,0.0,0.0,0.0,-0.63446164,-0.025633328,0.7726926,-0.8939209,-0.16021729,0.18585205,-1.7900391,2.28125,0.17089844,15.692431,-13.135323,-0.53068936,15.997132,0.9725342,0.35107422,-0.11248779,-0.72558594,-0.48535156,-0.11230469,21.54679,-12.718809,-57.386517,15.355196,-0.4522705,-0.37445068,0.80792236,-0.01171875,0.061523438,0.12988281,121.989265,-15.235973,-124.35164,41.709213,0.0,0.0,0.0,0.0,0.0,0.0,0.0,-17.160122,-143.44434,36.220863,0.0,0.0,0.0,0.0,0.0,0.0,0.0,0.63446164,0.025633328,-0.7726926,-1.0876465,-0.06640625,-0.3685913,-3.4345703,-2.1855469,0.0126953125,34.172787,13.135323,0.53068936,-15.997132,0.5157471,0.032165527,-0.8724365,1.0146484,0.91308594,-0.20214844,68.19888,27.409367,-53.564323,-5.02398,-0.13928223,-0.73846436,0.52282715,0.69140625,3.0419922,0.021484375,43.931667,-28.654484,-98.06621,-12.960279,0.0,0.0,0.0,0.0,0.0,0.0,0.0,-44.557434,-99.26818,-0.89090157,0.0,0.0,0.0,0.0,0.0,0.0,0.0,8.744661,43.2989,8.616682,
1.7773437235155145,91,-0.055480957,0.8664551,0.29553223,-0.30859375,0.8720703,0.8652344,0.0,0.0,0.0,0.0,0.0,0.0,0.0,0.0,0.0,0.0,0.0,-0.65802044,-0.022779837,0.75279075,-0.90270996,-0.15655518,0.029541016,-1.5087891,2.0888672,0.36035156,13.19389,-13.623064,-0.47161323,15.585102,1.0369263,-0.36950684,-0.015136719,-0.95996094,-0.43066406,0.26171875,22.030773,-15.246208,-57.08306,13.228868,-0.4753418,-0.31274414,0.8275757,-0.01171875,0.061523438,0.12988281,119.54719,-18.009438,-124.53543,38.31105,0.0,0.0,0.0,0.0,0.0,0.0,0.0,-20.254513,-143.73099,33.35194,0.0,0.0,0.0,0.0,0.0,0.0,0.0,0.65802044,0.022779837,-0.75279075,-0.88201904,-0.53460693,-0.34570312,-3.9111328,-1.9375,-0.041992188,34.936073,13.623064,0.47161323,-15.585102,0.63061523,0.13031006,-0.8970947,0.15234375,1.8339844,-0.3720703,66.59233,27.744434,-52.943863,-3.8833628,-0.23449707,-0.37390137,0.5269165,0.4140625,2.9257812,1.3408203,44.51522,-27.071022,-99.11075,-10.981154,0.0,0.0,0.0,0.0,0.0,0.0,0.0,-43.068607,-100.0513,0.96827984,0.0,0.0,0.0,0.0,0.0,0.0,0.0,8.682673,43.253223,8.898459,
1.7968749732244762,92,-0.103271484,0.65649414,0.5090332,-0.2861328,0.35351562,0.73339844,0.0,0.0,0.0,0.0,0.0,0.0,0.0,0.0,0.0,0.0,0.0,-0.66962105,-0.019580238,0.742664,-1.1022339,-0.3965454,0.0013427734,-0.39746094,1.8242188,0.4716797,10.029955,-13.863233,-0.40537173,15.375447,1.0096436,-0.13665771,-0.10369873,1.3212891,-0.53515625,-0.091796875,23.963219,-18.134335,-56.9904,10.632822,-0.45977783,-0.3998413,0.8178711,-0.087890625,0.08203125,0.09082031,117.437164,-21.396076,-124.62694,35.157898,0.0,0.0,0.0,0.0,0.0,0.0,0.0,-23.880136,-143.92688,30.726942,0.0,0.0,0.0,0.0,0.0,0.0,0.0,0.66962105,0.019580238,-0.742664,-0.90667725,-0.4981079,-0.2166748,-1.7880859,-1.84375,-0.14941406,35.931553,13.863233,0.40537173,-15.375447,0.62316895,-0.02911377,-0.78131104,-0.76464844,2.6640625,-0.2578125,63.73485,27.910301,-52.91512,-2.7653303,0.23565674,-0.5350952,0.65625,0.08496094,2.9091797,2.0390625,46.023037,-24.5363,-101.84976,-9.186687,0.0,0.0,0.0,0.0,0.0,0.0,0.0,-40.70171,-102.05083,2.5707092,0.0,0.0,0.0,0.0,0.0,0.0,0.0,8.883246,43.163292,9.147551,
1.816406222933438,93,-0.055786133,0.5811157,0.41558838,-0.06738281,-0.16796875,0.7246094,0.0,0.0,0.0,0.0,0.0,0.0,0.0,0.0,0.0,0.0,0.0,-0.6726386,-0.024852134,0.73962665,-1.1793823,-0.27960205,0.11871338,0.5830078,1.3925781,0.27539062,8.870794,-13.925705,-0.51451623,15.312566,0.9824829,0.24816895,-0.22460938,0.58496094,-0.39160156,-0.056640625,24.19436,-19.863745,-56.938488,9.752535,-0.4545288,-0.39196777,0.7921753,-0.049804688,0.1171875,0.14746094,114.14383,-23.243042,-124.869644,33.416504,0.0,0.0,0.0,0.0,0.0,0.0,0.0,-26.04003,-144.22784,29.447153,0.0,0.0,0.0,0.0,0.0,0.0,0.0,0.6726386,0.024852134,-0.73962665,-0.83862305,-0.3675537,-0.20495605,-0.39160156,-1.5927734,-0.125,36.75892,13.925705,0.51451623,-15.312566,0.63568115,-0.117126465,-0.7671509,0.5888672,2.9960938,0.060546875,60.644165,28.05673,-52.59476,-2.5076456,0.26623535,-0.29016113,0.79589844,-0.19726562,3.0878906,1.9462891,48.927525,-22.179766,-104.06264,-6.1991186,0.0,0.0,0.0,0.0,0.0,0.0,0.0,-38.454597,-103.49535,5.400131,0.0,0.0,0.0,0.0,0.0,0.0,0.0,9.004601,43.02681,9.634793,
1.8359374726423996,94,-0.008544922,0.55688477,0.3902588,-0.043945312,0.5332031,0.5097656,0.0,0.0,0.0,0.0,0.0,0.0,0.0,0.0,0.0,0.0,0.0,-0.6777042,-0.027628638,0.7349895,-1.0250854,-0.18383789,0.07672119,0.9013672,0.6503906,0.30664062,8.149024,-14.03058,-0.5719984,15.216562,1.0180054,0.023925781,-0.15002441,-0.41992188,-0.5488281,-0.0078125,23.768618,-20.781301,-56.712616,9.094589,-0.4711914,-0.36499023,0.8098755,-0.01171875,0.09863281,0.1484375,111.04457,-24.01636,-125.11391,31.388168,0.0,0.0,0.0,0.0,0.0,0.0,0.0,-27.061623,-144.52274,27.900875,0.0,0.0,0.0,0.0,0.0,0.0,0.0,0.6777042,0.027628638,-0.7349895,-0.84643555,-0.20355225,-0.10253906,0.16210938,-1.609375,-0.049804688,36.428085,14.03058,0.5719984,-15.216562,0.68011475,0.045898438,-0.8086548,1.3994141,3.2802734,0.123046875,57.43739,28.433235,-52.997993,-3.28582,0.4658203,-0.25030518,0.93395996,-0.4580078,3.4365234,2.024414,51.514606,-19.717224,-106.55244,-2.910985,0.0,0.0,0.0,0.0,0.0,0.0,0.0,-35.954956,-105.336655,8.706561,0.0,0.0,0.0,0.0,0.0,0.0,0.0,8.983203,42.97488,9.898497,
1.8554687223513613,95,-0.019226074,0.6334839,0.5235596,-0.33984375,0.49609375,0.2607422,0.0,0.0,0.0,0.0,0.0,0.0,0.0,0.0,0.0,0.0,0.0,-0.68445396,-0.02053231,0.7288028,-0.9107666,-0.01928711,-0.08465576,0.6386719,0.9736328,0.3095703,6.8338013,-14.170319,-0.42508256,15.088477,1.0788574,-0.04321289,-0.1618042,-0.20703125,-0.515625,0.13183594,23.483183,-22.220802,-56.34172,8.245369,-0.4784546,-0.37371826,0.8306885,-0.068359375,0.119140625,0.25976562,108.576805,-25.314857,-125.243546,28.963776,0.0,0.0,0.0,0.0,0.0,0.0,0.0,-28.547514,-144.70795,25.983252,0.0,0.0,0.0,0.0,0.0,0.0,0.0,0.68445396,0.02053231,-0.7288028,-0.921875,-0.13067627,-0.022338867,0.46875,-1.4033203,0.028320312,37.204807,14.170319,0.42508256,-15.088477,0.65722656,0.119140625,-0.77905273,0.8125,3.696289,-0.12011719,55.423405,29.728172,-52.9046,-3.475625,0.63464355,-0.31054688,0.93634033,-0.5488281,3.6865234,2.0058594,55.864967,-16.135567,-108.11142,2.3861685,0.0,0.0,0.0,0.0,0.0,0.0,0.0,-32.330887,-106.05422,13.928106,0.0,0.0,0.0,0.0,0.0,0.0,0.0,9.159771,42.95253,9.812471,
1.874999972060323,96,0.016113281,0.71569824,0.4744873,-0.375,0.016601562,0.12988281,0.0,0.0,0.0,0.0,0.0,0.0,0.0,0.0,0.0,0.0,0.0,-0.6844076,-0.014580138,0.72887266,-0.9540405,0.19946289,0.20178223,0.1875,1.3720703,0.25683594,6.2142277,-14.169358,-0.30185407,15.089922,0.9717407,-0.11657715,-0.09631348,-0.24316406,-0.4580078,0.14941406,22.992672,-23.382175,-56.105766,7.9889107,-0.5003662,-0.36224365,0.8306885,-0.049804688,0.17285156,0.22167969,106.44542,-26.523932,-125.378845,27.430935,0.0,0.0,0.0,0.0,0.0,0.0,0.0,-29.933237,-144.88019,24.955383,0.0,0.0,0.0,0.0,0.0,0.0,0.0,0.6844076,0.014580138,-0.72887266,-0.8821411,-0.09576416,-0.12133789,0.3359375,-1.0683594,0.091796875,37.932907,14.169358,0.30185407,-15.089922,0.6539917,0.002380371,-0.8018799,0.10839844,4.169922,-0.39941406,52.36115,30.60096,-53.081127,-3.796033,0.63031006,-0.35437012,0.9295044,-0.46191406,3.415039,2.4941406,60.67197,-11.688202,-110.41211,6.7420053,0.0,0.0,0.0,0.0,0.0,0.0,0.0,-27.891674,-107.414444,18.067715,0.0,0.0,0.0,0.0,0.0,0.0,0.0,9.504175,42.880543,9.78214,
1.8945312217692847,97,0.048950195,0.8186035,0.3928833,-0.33007812,0.18359375,-0.034179688,0.0,0.0,0.0,0.0,0.0,0.0,0.0,0.0,0.0,0.0,0.0,-0.68413395,-0.009419218,0.72953916,-0.9602051,0.20507812,0.1003418,-0.41601562,1.4267578,0.2763672,5.766398,-14.163692,-0.1950071,15.103722,1.0427246,-0.18908691,-0.07727051,0.09277344,-0.5761719,0.044921875,22.408302,-24.4093,-55.82664,8.067092,-0.46539307,-0.31793213,0.82263184,-0.06933594,0.28222656,0.2763672,104.48078,-27.651783,-125.375534,26.459736,0.0,0.0,0.0,0.0,0.0,0.0,0.0,-31.202934,-144.90282,24.478916,0.0,0.0,0.0,0.0,0.0,0.0,0.0,0.68413395,0.009419218,-0.72953916,-0.82006836,-0.035583496,-0.14849854,0.7373047,-0.9238281,0.25097656,39.02971,14.163692,0.1950071,-15.103722,0.6599121,-0.08343506,-0.69873047,0.06640625,4.3935547,-0.5341797,48.428246,31.101648,-52.865143,-2.9437265,0.5965576,-0.45428467,1.0006104,-0.091796875,2.9257812,2.9433594,65.89533,-6.5679684,-112.54437,11.363368,0.0,0.0,0.0,0.0,0.0,0.0,0.0,-22.917542,-108.59938,22.178787,0.0,0.0,0.0,0.0,0.0,0.0,0.0,9.704245,42.875988,9.65385,
1.9140624714782464,98,0.014892578,0.8584595,0.42297363,-0.28710938,0.31347656,-0.14453125,0.0,0.0,0.0,0.0,0.0,0.0,0.0,0.0,0.0,0.0,0.0,-0.69222784,-0.0024646148,0.72190756,-1.0355225,0.055236816,0.105651855,-0.6425781,1.5976562,0.2783203,4.6777625,-14.331263,-0.051025353,14.9457245,1.0551147,-0.15063477,-0.019470215,0.49023438,-0.6591797,0.076171875,22.334482,-25.696423,-55.42343,7.6200695,-0.4819336,-0.3430786,0.8276367,-0.08886719,0.37304688,0.23730469,102.43716,-29.042963,-125.21428,25.056065,0.0,0.0,0.0,0.0,0.0,0.0,0.0,-32.67252,-144.77548,23.570147,0.0,0.0,0.0,0.0,0.0,0.0,0.0,0.69222784,0.0024646148,-0.72190756,-0.78552246,-0.005859375,-0.15026855,1.0625,-0.93359375,0.26757812,39.61303,14.331263,0.051025353,-14.9457245,0.78448486,-0.099121094,-0.6833496,-0.43945312,4.7158203,-0.5126953,43.978554,31.785667,-52.64565,-1.9804106,0.7233887,-0.4968872,1.0218506,-0.09863281,2.6015625,3.0185547,71.2704,-0.37560654,-114.7083,15.336085,0.0,0.0,0.0,0.0,0.0,0.0,0.0,-16.933353,-109.88046,25.461185,0.0,0.0,0.0,0.0,0.0,0.0,0.0,9.577244,42.97562,9.330215,
1.933593721187208,99,0.059509277,0.8006592,0.42132568,-0.09765625,0.10058594,-0.07714844,0.0,0.0,0.0,0.0,0.0,0.0,0.0,0.0,0.0,0.0,0.0,-0.6984354,9.58316E-4,0.71573687,-1.1156616,-0.10644531,0.065979004,-0.4169922,1.2177734,0.2939453,3.6457765,-14.459781,0.019840114,14.817972,1.017456,-0.08129883,-0.053710938,0.4501953,-0.71484375,0.037109375,22.467463,-26.91566,-55.0445,6.8987565,-0.49353027,-0.3209839,0.80981445,-0.10839844,0.5,0.2548828,100.24322,-30.355133,-125.11423,23.193739,0.0,0.0,0.0,0.0,0.0,0.0,0.0,-34.02861,-144.69664,22.19545,0.0,0.0,0.0,0.0,0.0,0.0,0.0,0.6984354,-9.58316E-4,-0.71573687,-0.7166748,-0.045898438,-0.206604,1.6152344,-1.1064453,0.40429688,40.336815,14.459781,-0.019840114,-14.817972,0.8442993,-0.2076416,-0.6226196,-0.36132812,4.8447266,-0.25097656,39.530632,32.70407,-52.244263,-1.0513992,0.8123779,-0.607666,1.1505737,0.032226562,2.4658203,2.9990234,76.60808,6.6635017,-116.35434,18.864212,0.0,0.0,0.0,0.0,0.0,0.0,0.0,-10.089369,-110.73525,28.233784,0.0,0.0,0.0,0.0,0.0,0.0,0.0,9.326553,43.08618,9.043415,
1.9531249708961698,100,0.07940674,0.81988525,0.40899658,0.14257812,0.22753906,-0.13574219,0.0,0.0,0.0,0.0,0.0,0.0,0.0,0.0,0.0,0.0,0.0,-0.70400226,4.950166E-4,0.7103412,-1.081543,-0.11151123,-0.01171875,-0.11621094,0.9892578,0.31054688,3.5035846,-14.5750265,0.010248482,14.706265,1.0614624,0.017150879,-0.12451172,0.37109375,-0.8261719,-0.040039062,22.320791,-27.973557,-54.725018,6.3187275,-0.55755615,-0.38806152,0.65185547,-0.48828125,0.5488281,0.34179688,98.09772,-31.523724,-125.088104,21.241413,0.0,0.0,0.0,0.0,0.0,0.0,0.0,-35.122395,-144.69806,20.669949,0.0,0.0,0.0,0.0,0.0,0.0,0.0,0.70400226,-4.950166E-4,-0.7103412,-0.77337646,0.2230835,-0.11517334,0.6230469,-1.0371094,0.068359375,40.88174,14.5750265,-0.010248482,-14.706265,0.8275757,-0.32318115,-0.6175537,1.0732422,4.600586,-0.24707031,35.35032,33.660923,-51.786655,-0.3746786,1.0493164,-0.71484375,1.2197266,0.30566406,2.8203125,3.1289062,80.49556,13.746227,-117.26689,22.004452,0.0,0.0,0.0,0.0,0.0,0.0,0.0,-3.206932,-110.97116,30.550781,0.0,0.0,0.0,0.0,0.0,0.0,0.0,8.947267,43.21182,8.837309,
1.9726562206051315,101,0.07006836,0.8513794,0.3199463,0.032226562,0.4765625,-0.20507812,0.0,0.0,0.0,0.0,0.0,0.0,0.0,0.0,0.0,0.0,0.0,-0.72056913,0.0017931685,0.69349384,-1.008667,-0.09655762,0.0234375,0.2421875,0.8779297,0.21386719,3.6872175,-14.918015,0.03712418,14.357472,1.0814209,0.22106934,-0.080078125,0.7207031,-0.8457031,-0.35351562,22.222168,-28.697638,-54.453575,5.197032,-0.44177246,-0.29577637,0.7720947,0.19726562,0.6972656,0.8564453,97.77888,-32.405064,-125.07393,18.78127,0.0,0.0,0.0,0.0,0.0,0.0,0.0,-35.59377,-144.75754,18.111689,0.0,0.0,0.0,0.0,0.0,0.0,0.0,0.72056913,-0.0017931685,-0.69349384,-0.74121094,0.2241211,-0.1427002,0.31933594,-0.34472656,0.07324219,40.679207,14.918015,-0.03712418,-14.357472,0.92803955,-0.12701416,-0.65441895,1.8828125,4.5683594,-0.63378906,31.688707,34.450127,-51.522747,0.40774536,1.050293,-0.58062744,1.1861572,0.140625,3.1298828,3.0361328,80.01987,19.722988,-117.55495,24.882616,0.0,0.0,0.0,0.0,0.0,0.0,0.0,2.616867,-110.658325,32.621384,0.0,0.0,0.0,0.0,0.0,0.0,0.0,8.321156,43.396423,8.53382,
1.9921874703140932,102,0.058166504,0.8418579,0.33312988,-0.12207031,0.5361328,-0.25585938,0.0,0.0,0.0,0.0,0.0,0.0,0.0,0.0,0.0,0.0,0.0,-0.7315774,0.009822041,0.6818281,-0.9572754,0.0017089844,-0.07836914,-0.19042969,0.8408203,0.041992188,3.793386,-15.145918,0.2033467,14.115955,0.92126465,-0.10144043,-0.18054199,-1.265625,-0.9042969,0.39160156,21.713259,-29.063192,-54.177513,4.227597,-0.54437256,-0.414917,0.80126953,-0.20410156,0.75878906,0.4375,96.1071,-33.40348,-125.029594,16.408897,0.0,0.0,0.0,0.0,0.0,0.0,0.0,-36.373707,-144.7621,16.189545,0.0,0.0,0.0,0.0,0.0,0.0,0.0,0.7315774,-0.009822041,-0.6818281,-0.8323364,0.1663208,-0.23345947,-0.8828125,0.041992188,0.068359375,40.182976,15.145918,-0.2033467,-14.115955,0.927063,-0.045166016,-0.6282959,1.0654297,4.6367188,-1.1142578,27.319468,34.586266,-51.624123,0.9860878,1.1288452,-0.5018921,1.1523438,0.125,3.2832031,2.9609375,79.23017,25.316082,-118.00467,27.122025,0.0,0.0,0.0,0.0,0.0,0.0,0.0,8.134796,-110.50893,34.098164,0.0,0.0,0.0,0.0,0.0,0.0,0.0,8.079935,43.53646,8.042322,
2.011718720023055,103,0.08178711,0.7797241,0.34692383,0.13183594,0.51171875,-0.22558594,0.0,0.0,0.0,0.0,0.0,0.0,0.0,0.0,0.0,0.0,0.0,-0.73451567,0.01721917,0.6782934,-1.0883789,0.10748291,0.050720215,-0.26660156,1.0087891,0.27246094,4.585608,-15.206751,0.35649037,14.042776,1.0331421,-0.2456665,-0.054504395,0.2783203,-0.9794922,0.09277344,21.080544,-29.700603,-53.83265,3.9163742,-0.54577637,-0.3203125,0.79797363,0.041992188,0.9326172,0.4951172,94.679504,-34.730762,-124.84338,14.837836,0.0,0.0,0.0,0.0,0.0,0.0,0.0,-37.730755,-144.56647,14.980436,0.0,0.0,0.0,0.0,0.0,0.0,0.0,0.73451567,-0.01721917,-0.6782934,-0.8171997,0.17755127,0.021118164,-1.1103516,0.7128906,0.051757812,38.983486,15.206751,-0.35649037,-14.042776,0.8428955,-0.12164307,-0.49676514,0.50390625,4.571289,-1.2011719,22.095814,34.041626,-52.06154,0.84893703,1.215332,-0.39007568,0.97857666,0.19824219,3.0361328,2.640625,81.7989,30.811993,-118.72619,27.838093,0.0,0.0,0.0,0.0,0.0,0.0,0.0,13.549147,-110.76684,34.066956,0.0,0.0,0.0,0.0,0.0,0.0,0.0,7.9769444,43.63993,7.5302916,
2.0312499697320168,104,0.09655762,0.7811279,0.31866455,0.35351562,0.6767578,-0.28320312,0.0,0.0,0.0,0.0,0.0,0.0,0.0,0.0,0.0,0.0,0.0,-0.73583895,0.024103567,0.6766703,-1.0443115,0.095336914,-0.016174316,-0.36132812,0.6269531,0.28808594,5.4242997,-15.234145,0.49901855,14.009172,1.0495605,-0.14581299,-0.1987915,0.04296875,-1.0302734,-0.123046875,20.163563,-30.09621,-53.57146,3.7866058,-0.5523071,-0.30114746,0.7564087,-0.12988281,1.0634766,0.45410156,93.04846,-35.773388,-124.726105,13.3328495,0.0,0.0,0.0,0.0,0.0,0.0,0.0,-38.584534,-144.46735,13.894985,0.0,0.0,0.0,0.0,0.0,0.0,0.0,0.73583895,-0.024103567,-0.6766703,-0.7727051,0.206604,0.24139404,-1.0712891,1.0625,0.21582031,37.09146,15.234145,-0.49901855,-14.009172,0.83428955,0.024414062,-0.35534668,1.4970703,3.7392578,-1.4287109,16.803427,33.07559,-52.69112,0.4140091,1.604248,-0.22302246,0.67962646,0.26660156,2.390625,1.9619141,84.07361,35.577866,-119.46658,27.17674,0.0,0.0,0.0,0.0,0.0,0.0,0.0,18.246626,-111.21936,32.80909,0.0,0.0,0.0,0.0,0.0,0.0,0.0,7.7848597,43.77835,6.906152,
2.0507812194409785,105,0.06518555,0.8934326,0.3482666,0.21972656,0.796875,-0.16992188,0.0,0.0,0.0,0.0,0.0,0.0,0.0,0.0,0.0,0.0,0.0,-0.75995624,0.02497574,0.64966995,-0.9338989,0.11932373,-0.09326172,-0.51171875,0.6845703,0.19335938,7.014841,-15.733451,0.51707524,13.450182,0.89105225,-0.093322754,-0.18322754,0.3486328,-1.1699219,9.765625E-4,18.995262,-30.976967,-53.465176,3.3085117,-0.5916748,-0.31079102,0.76342773,-0.07421875,1.1533203,0.47265625,91.259636,-37.063816,-124.78966,11.1515045,0.0,0.0,0.0,0.0,0.0,0.0,0.0,-39.73241,-144.54094,12.058252,0.0,0.0,0.0,0.0,0.0,0.0,0.0,0.75995624,-0.02497574,-0.64966995,-0.9229126,-0.042663574,0.63079834,-0.7265625,1.2275391,0.2734375,34.886623,15.733451,-0.51707524,-13.450182,0.76678467,0.42907715,-0.027832031,1.3730469,2.8896484,-1.1347656,13.756043,32.59437,-53.075146,0.7567158,1.7878418,0.08886719,0.39019775,-0.36523438,1.8632812,0.515625,81.56376,38.471855,-119.27547,28.143747,0.0,0.0,0.0,0.0,0.0,0.0,0.0,21.18663,-110.75667,33.507286,0.0,0.0,0.0,0.0,0.0,0.0,0.0,6.9426246,43.999107,6.429697,
2.07031246914994,106,0.061767578,0.8664551,0.31134033,-0.05078125,0.92285156,9.765625E-4,0.0,0.0,0.0,0.0,0.0,0.0,0.0,0.0,0.0,0.0,0.0,-0.7869106,0.028924042,0.61664,-0.979187,-0.008666992,-0.020812988,-0.8691406,0.8173828,0.13769531,8.246836,-16.291489,0.59881735,12.766359,0.99212646,-0.064086914,-0.18603516,0.8984375,-1.2548828,0.055664062,18.015528,-31.691841,-53.25212,2.2823658,-0.6251221,-0.39227295,0.71325684,-0.07421875,1.2441406,0.54589844,89.63432,-38.33398,-124.69943,8.391867,0.0,0.0,0.0,0.0,0.0,0.0,0.0,-40.89925,-144.46143,9.557553,0.0,0.0,0.0,0.0,0.0,0.0,0.0,0.7869106,-0.028924042,-0.61664,-1.3939209,-0.40075684,0.8319092,-0.5341797,1.1054688,0.0048828125,32.580055,16.291489,-0.59881735,-12.766359,0.66400146,0.3112793,0.3383789,-1.2763672,1.6894531,-0.20214844,12.840575,32.263016,-53.670345,0.59342575,1.9713135,0.3126831,0.004272461,-1.0087891,1.9394531,-0.1015625,78.839615,40.117027,-119.175964,29.13958,0.0,0.0,0.0,0.0,0.0,0.0,0.0,23.072386,-110.24354,34.60326,0.0,0.0,0.0,0.0,0.0,0.0,0.0,6.3263755,44.154026,6.0021715,
2.089843718858902,107,-0.00982666,0.84747314,0.3100586,0.35742188,0.8203125,0.15625,0.0,0.0,0.0,0.0,0.0,0.0,0.0,0.0,0.0,0.0,0.0,-0.80922765,0.03013094,0.5868508,-0.9567261,-0.13043213,-0.03277588,-1.1337891,0.7402344,0.15625,9.380623,-16.753525,0.6238038,12.1496315,1.0167847,0.093688965,-0.18066406,0.93066406,-1.3681641,-0.076171875,17.318573,-31.970173,-53.09028,0.8972893,-0.6296387,-0.3624878,0.70428467,-0.03515625,1.28125,0.71484375,88.05748,-38.94049,-124.638374,5.274129,0.0,0.0,0.0,0.0,0.0,0.0,0.0,-41.427105,-144.39423,6.636218,0.0,0.0,0.0,0.0,0.0,0.0,0.0,0.80922765,-0.03013094,-0.5868508,-1.288147,-0.380188,0.6679077,-0.5546875,0.16992188,-0.46777344,30.942635,16.753525,-0.6238038,-12.1496315,0.5576782,-0.12017822,0.50231934,-2.2636719,0.3154297,0.35351562,13.930121,32.451965,-53.93785,0.55117416,1.963562,0.40875244,-0.434021,9.765625E-4,0.56933594,-1.0126953,78.67118,40.188522,-118.919,30.291313,0.0,0.0,0.0,0.0,0.0,0.0,0.0,23.381668,-109.73514,36.064156,0.0,0.0,0.0,0.0,0.0,0.0,0.0,5.70706,44.287956,5.5957537,
2.1093749685678636,108,-0.09942627,0.8782959,0.2579956,0.5126953,0.7578125,0.07910156,0.0,0.0,0.0,0.0,0.0,0.0,0.0,0.0,0.0,0.0,0.0,-0.8227845,0.027033135,0.56794,-0.92388916,-0.17327881,3.6621094E-4,-0.9638672,0.6845703,0.13574219,10.776763,-17.03419,0.5596698,11.758119,0.8748779,0.12799072,-0.2111206,0.36621094,-1.4003906,0.080078125,16.673239,-31.805347,-53.04136,-0.45341396,-0.6403198,-0.3425293,0.7151489,0.001953125,1.3720703,0.7890625,86.36654,-38.69025,-124.68033,1.9606895,0.0,0.0,0.0,0.0,0.0,0.0,0.0,-41.09113,-144.43463,3.48071,0.0,0.0,0.0,0.0,0.0,0.0,0.0,0.8227845,-0.027033135,-0.56794,-1.1079102,-0.064331055,0.33398438,0.32128906,-0.3642578,-0.27441406,30.130604,17.03419,-0.5596698,-11.758119,0.5430908,-0.2529297,0.33166504,-1.5703125,-1.2519531,0.43945312,16.108967,33.229767,-53.709095,0.99324226,1.9713745,0.032470703,-0.38952637,-0.31054688,-0.90625,-1.6142578,78.87167,38.666756,-118.457596,31.750456,0.0,0.0,0.0,0.0,0.0,0.0,0.0,22.006289,-109.29875,37.968174,0.0,0.0,0.0,0.0,0.0,0.0,0.0,4.923449,44.453575,5.0167584,
2.1289062182768252,109,-0.21435547,0.9390869,0.43963623,-0.5107422,0.6689453,0.1015625,0.0,0.0,0.0,0.0,0.0,0.0,0.0,0.0,0.0,0.0,0.0,-0.83182615,0.034962274,0.5540495,-1.0146484,-0.22650146,3.6621094E-4,-0.6816406,0.6279297,0.15429688,11.65474,-17.221378,0.72382754,11.470542,0.94866943,0.012207031,-0.1942749,0.029296875,-1.4541016,0.22363281,15.784077,-31.41989,-52.77933,-1.7798452,-0.6539917,-0.3156128,0.7348633,0.001953125,1.5361328,0.91796875,85.110596,-38.73857,-124.41069,-1.3196447,0.0,0.0,0.0,0.0,0.0,0.0,0.0,-41.041748,-144.1672,0.31441522,0.0,0.0,0.0,0.0,0.0,0.0,0.0,0.83182615,-0.034962274,-0.5540495,-0.8545532,-0.124816895,0.21252441,-0.57714844,-0.044921875,-0.05859375,29.816965,17.221378,-0.72382754,-11.470542,0.68896484,-0.37683105,-0.4130249,-1.1123047,-2.2216797,0.8027344,19.532059,33.86788,-53.728767,1.21278,1.6256104,-1.1030273,1.1489258,-0.8769531,-3.633789,-2.1035156,78.67848,35.200817,-118.23543,32.96593,0.0,0.0,0.0,0.0,0.0,0.0,0.0,18.656242,-109.18546,39.6356,0.0,0.0,0.0,0.0,0.0,0.0,0.0,4.791052,44.531948,4.3829737,
2.148437467985787,110,-0.31781006,1.0032349,0.5682373,-0.7451172,0.10644531,0.32128906,0.0,0.0,0.0,0.0,0.0,0.0,0.0,0.0,0.0,0.0,0.0,-0.8305003,0.04810554,0.5546801,-1.2745361,-0.2376709,0.016723633,-0.24804688,0.4765625,0.19140625,11.570318,-17.19393,0.99593395,11.483597,1.2645874,0.03527832,-0.10241699,0.2939453,-1.4384766,0.19238281,14.665482,-31.446133,-52.44926,-2.305172,-0.6487427,-0.3486328,0.80218506,0.11230469,2.1669922,0.9873047,85.97983,-39.622974,-123.98158,-3.6965835,0.0,0.0,0.0,0.0,0.0,0.0,0.0,-41.374046,-143.81209,-2.413635,0.0,0.0,0.0,0.0,0.0,0.0,0.0,0.8305003,-0.04810554,-0.5546801,-1.1310425,-0.15167236,-0.24835205,1.3681641,-0.35742188,0.6542969,30.742544,17.19393,-0.99593395,-11.483597,1.9655762,-0.63739014,0.25061035,2.0605469,-0.69628906,0.23730469,22.084282,34.002136,-53.88022,1.4946747,-2.0,-1.7640991,0.6838989,0.6738281,-3.7597656,-0.13671875,77.1303,32.48058,-117.66316,34.71313,0.0,0.0,0.0,0.0,0.0,0.0,0.0,15.99535,-108.97937,41.98935,0.0,0.0,0.0,0.0,0.0,0.0,0.0,5.443551,44.4561,4.294883,
