TOTAL_TIME,0m19s
TOTAL_FRAMES,974
SELECTED_FRAMES,974
NO_OF_JOINTS,12
FREQUENCY,51.2
DESCRIPTION,Capture 20
TIME_STAMP,Nov 1, 2010

Time,Frame,Pelvis_accelX_Pelvis,Pelvis_accelY_Pelvis,Pelvis_accelZ_Pelvis,Pelvis_gyroX_Pelvis,Pelvis_gyroY_Pelvis,Pelvis_gyroZ_Pelvis,Pelvis_Joint angle_Pelvis,Pelvis_Relative pos X_Pelvis,Pelvis_Relative pos Y_Pelvis,Pelvis_Relative pos Z_Pelvis,RightPelvis_accelX_RightPelvis,RightPelvis_accelY_RightPelvis,RightPelvis_accelZ_RightPelvis,RightPelvis_gyroX_RightPelvis,RightPelvis_gyroY_RightPelvis,RightPelvis_gyroZ_RightPelvis,RightPelvis_Joint angle_RightPelvis,RightPelvis_Relative pos X_RightPelvis,RightPelvis_Relative pos Y_RightPelvis,RightPelvis_Relative pos Z_RightPelvis,RightUpLeg_accelX_RightUpLeg,RightUpLeg_accelY_RightUpLeg,RightUpLeg_accelZ_RightUpLeg,RightUpLeg_gyroX_RightUpLeg,RightUpLeg_gyroY_RightUpLeg,RightUpLeg_gyroZ_RightUpLeg,RightUpLeg_Joint angle_RightUpLeg,RightUpLeg_Relative pos X_RightUpLeg,RightUpLeg_Relative pos Y_RightUpLeg,RightUpLeg_Relative pos Z_RightUpLeg,RightLeg_accelX_RightLeg,RightLeg_accelY_RightLeg,RightLeg_accelZ_RightLeg,RightLeg_gyroX_RightLeg,RightLeg_gyroY_RightLeg,RightLeg_gyroZ_RightLeg,RightLeg_Joint angle_RightLeg,RightLeg_Relative pos X_RightLeg,RightLeg_Relative pos Y_RightLeg,RightLeg_Relative pos Z_RightLeg,RightFoot_accelX_RightFoot,RightFoot_accelY_RightFoot,RightFoot_accelZ_RightFoot,RightFoot_gyroX_RightFoot,RightFoot_gyroY_RightFoot,RightFoot_gyroZ_RightFoot,RightFoot_Joint angle_RightFoot,RightFoot_Relative pos X_RightFoot,RightFoot_Relative pos Y_RightFoot,RightFoot_Relative pos Z_RightFoot,RightFootEnd_accelX_RightFootEnd,RightFootEnd_accelY_RightFootEnd,RightFootEnd_accelZ_RightFootEnd,RightFootEnd_gyroX_RightFootEnd,RightFootEnd_gyroY_RightFootEnd,RightFootEnd_gyroZ_RightFootEnd,RightFootEnd_Joint angle_RightFootEnd,RightFootEnd_Relative pos X_RightFootEnd,RightFootEnd_Relative pos Y_RightFootEnd,RightFootEnd_Relative pos Z_RightFootEnd,LeftPelvis_accelX_LeftPelvis,LeftPelvis_accelY_LeftPelvis,LeftPelvis_accelZ_LeftPelvis,LeftPelvis_gyroX_LeftPelvis,LeftPelvis_gyroY_LeftPelvis,LeftPelvis_gyroZ_LeftPelvis,LeftPelvis_Joint angle_LeftPelvis,LeftPelvis_Relative pos X_LeftPelvis,LeftPelvis_Relative pos Y_LeftPelvis,LeftPelvis_Relative pos Z_LeftPelvis,LeftUpLeg_accelX_LeftUpLeg,LeftUpLeg_accelY_LeftUpLeg,LeftUpLeg_accelZ_LeftUpLeg,LeftUpLeg_gyroX_LeftUpLeg,LeftUpLeg_gyroY_LeftUpLeg,LeftUpLeg_gyroZ_LeftUpLeg,LeftUpLeg_Joint angle_LeftUpLeg,LeftUpLeg_Relative pos X_LeftUpLeg,LeftUpLeg_Relative pos Y_LeftUpLeg,LeftUpLeg_Relative pos Z_LeftUpLeg,LeftLeg_accelX_LeftLeg,LeftLeg_accelY_LeftLeg,LeftLeg_accelZ_LeftLeg,LeftLeg_gyroX_LeftLeg,LeftLeg_gyroY_LeftLeg,LeftLeg_gyroZ_LeftLeg,LeftLeg_Joint angle_LeftLeg,LeftLeg_Relative pos X_LeftLeg,LeftLeg_Relative pos Y_LeftLeg,LeftLeg_Relative pos Z_LeftLeg,LeftFoot_accelX_LeftFoot,LeftFoot_accelY_LeftFoot,LeftFoot_accelZ_LeftFoot,LeftFoot_gyroX_LeftFoot,LeftFoot_gyroY_LeftFoot,LeftFoot_gyroZ_LeftFoot,LeftFoot_Joint angle_LeftFoot,LeftFoot_Relative pos X_LeftFoot,LeftFoot_Relative pos Y_LeftFoot,LeftFoot_Relative pos Z_LeftFoot,LeftFootEnd_accelX_LeftFootEnd,LeftFootEnd_accelY_LeftFootEnd,LeftFootEnd_accelZ_LeftFootEnd,LeftFootEnd_gyroX_LeftFootEnd,LeftFootEnd_gyroY_LeftFootEnd,LeftFootEnd_gyroZ_LeftFootEnd,LeftFootEnd_Joint angle_LeftFootEnd,LeftFootEnd_Relative pos X_LeftFootEnd,LeftFootEnd_Relative pos Y_LeftFootEnd,LeftFootEnd_Relative pos Z_LeftFootEnd,Spine_accelX_Spine,Spine_accelY_Spine,Spine_accelZ_Spine,Spine_gyroX_Spine,Spine_gyroY_Spine,Spine_gyroZ_Spine,Spine_Joint angle_Spine,Spine_Relative pos X_Spine,Spine_Relative pos Y_Spine,Spine_Relative pos Z_Spine,
0.0,0,-0.16046143,0.58148193,0.51293945,-1.9238281,2.5351562,0.9140625,0.0,0.0,0.0,0.0,0.0,0.0,0.0,0.0,0.0,0.0,0.0,-0.9742033,0.17996569,0.13008742,-0.91015625,-0.12841797,0.09875488,-2.7226562,-1.2099609,0.27148438,4.915259,-20.169025,3.7258475,2.6932127,1.0244141,-0.015075684,-0.026611328,3.0527344,-0.88183594,-0.30664062,18.073112,-30.339474,-52.347572,3.2452438,-0.647522,-0.29400635,0.70806885,-1.5292969,1.2470703,1.7392578,59.665794,-51.414246,-117.618744,25.176474,0.0,0.0,0.0,0.0,0.0,0.0,0.0,-37.9858,-125.71698,37.56428,0.0,0.0,0.0,0.0,0.0,0.0,0.0,0.9742033,-0.17996569,-0.13008742,-1.1731567,1.1060181,-0.42767334,0.75390625,2.7460938,-0.23242188,6.200742,20.169025,-3.7258475,-2.6932127,0.8463745,1.3762207,0.01965332,-2.290039,1.2431641,0.6816406,19.517916,14.482651,-59.536263,7.4686985,0.86309814,-0.18585205,0.91278076,0.06347656,0.12402344,-0.25976562,58.11254,-1.8635864,-120.59439,41.977417,0.0,0.0,0.0,0.0,0.0,0.0,0.0,-21.596523,-117.381226,42.213078,0.0,0.0,0.0,0.0,0.0,0.0,0.0,7.5799446,44.114487,-4.263945,
0.0195312497089617,1,-0.16046143,0.58148193,0.51293945,-1.9238281,2.5351562,0.9140625,0.0,0.0,0.0,0.0,0.0,0.0,0.0,0.0,0.0,0.0,0.0,-0.9742033,0.17996569,0.13008742,-0.91015625,-0.12841797,0.09875488,-2.7226562,-1.2099609,0.27148438,4.915259,-20.169025,3.7258475,2.6932127,1.0244141,-0.015075684,-0.026611328,3.0527344,-0.88183594,-0.30664062,18.073112,-30.339474,-52.347572,3.2452438,-0.647522,-0.29400635,0.70806885,-1.5292969,1.2470703,1.7392578,59.665794,-51.414246,-117.618744,25.176474,0.0,0.0,0.0,0.0,0.0,0.0,0.0,-37.9858,-125.71698,37.56428,0.0,0.0,0.0,0.0,0.0,0.0,0.0,0.9742033,-0.17996569,-0.13008742,-1.1731567,1.1060181,-0.42767334,0.75390625,2.7460938,-0.23242188,6.200742,20.169025,-3.7258475,-2.6932127,0.8463745,1.3762207,0.01965332,-2.290039,1.2431641,0.6816406,19.517916,14.482651,-59.536263,7.4686985,0.86309814,-0.18585205,0.91278076,0.06347656,0.12402344,-0.25976562,58.11254,-1.8635864,-120.59439,41.977417,0.0,0.0,0.0,0.0,0.0,0.0,0.0,-21.596523,-117.381226,42.213078,0.0,0.0,0.0,0.0,0.0,0.0,0.0,7.5799446,44.114487,-4.263945,
0.0390624994179234,2,-0.16046143,0.58148193,0.51293945,-1.9238281,2.5351562,0.9140625,0.0,0.0,0.0,0.0,0.0,0.0,0.0,0.0,0.0,0.0,0.0,-0.9742033,0.17996569,0.13008742,-0.91015625,-0.12841797,0.09875488,-2.7226562,-1.2099609,0.27148438,4.915259,-20.169025,3.7258475,2.6932127,1.0244141,-0.015075684,-0.026611328,3.0527344,-0.88183594,-0.30664062,18.073112,-30.339474,-52.347572,3.2452438,-0.647522,-0.29400635,0.70806885,-1.5292969,1.2470703,1.7392578,59.665794,-51.414246,-117.618744,25.176474,0.0,0.0,0.0,0.0,0.0,0.0,0.0,-37.9858,-125.71698,37.56428,0.0,0.0,0.0,0.0,0.0,0.0,0.0,0.9742033,-0.17996569,-0.13008742,-1.1731567,1.1060181,-0.42767334,0.75390625,2.7460938,-0.23242188,6.200742,20.169025,-3.7258475,-2.6932127,0.8463745,1.3762207,0.01965332,-2.290039,1.2431641,0.6816406,19.517916,14.482651,-59.536263,7.4686985,0.86309814,-0.18585205,0.91278076,0.06347656,0.12402344,-0.25976562,58.11254,-1.8635864,-120.59439,41.977417,0.0,0.0,0.0,0.0,0.0,0.0,0.0,-21.596523,-117.381226,42.213078,0.0,0.0,0.0,0.0,0.0,0.0,0.0,7.5799446,44.114487,-4.263945,
0.0585937491268851,3,-0.040161133,0.8312378,0.45007324,0.017578125,0.025390625,0.083984375,0.0,0.0,0.0,0.0,0.0,0.0,0.0,0.0,0.0,0.0,0.0,-0.82062453,0.009672549,0.57172054,-0.95373535,0.10223389,0.075683594,0.0146484375,1.1572266,0.63671875,4.8345237,-16.989473,0.20025173,11.836388,0.9503784,-0.22027588,-0.17224121,0.064453125,0.0146484375,0.07714844,3.6146548,-16.855673,-56.733727,14.699813,-0.48156738,-0.32629395,0.8117676,-0.0126953125,0.060546875,-9.765625E-4,4.254779,-20.89844,-128.55257,18.181963,0.0,0.0,0.0,0.0,0.0,0.0,0.0,-21.206276,-127.16949,38.11747,0.0,0.0,0.0,0.0,0.0,0.0,0.0,0.82062453,-0.009672549,-0.57172054,-0.9032593,-0.028869629,-0.36157227,0.14941406,0.12890625,0.055664062,2.0851588,16.989473,-0.20025173,-11.836388,1.0161743,-0.058654785,-0.14019775,-0.07714844,0.059570312,0.123046875,4.514664,17.271704,-57.176785,-13.776127,0.4116211,-0.27368164,0.87213135,-0.068359375,0.6513672,1.1337891,9.178601,16.08163,-129.07915,-9.794182,0.0,0.0,0.0,0.0,0.0,0.0,0.0,14.922705,-130.33675,10.1342945,0.0,0.0,0.0,0.0,0.0,0.0,0.0,1.3870201,44.97041,1.2300489,
0.0781249988358468,4,-0.013977051,0.83654785,0.4484253,0.037109375,0.005859375,0.06542969,0.0,0.0,0.0,0.0,0.0,0.0,0.0,0.0,0.0,0.0,0.0,-0.821193,0.008501027,0.5706925,-0.954895,0.099121094,-0.029907227,-0.022460938,0.77734375,0.49902344,4.191617,-17.001242,0.17599761,11.815103,0.9956665,-0.19470215,-0.1696167,0.13964844,0.013671875,0.059570312,2.3019729,-18.114258,-56.764473,14.302763,-0.4890747,-0.29455566,0.81365967,0.0068359375,0.005859375,0.018554688,4.0827904,-22.156094,-128.58104,17.827024,0.0,0.0,0.0,0.0,0.0,0.0,0.0,-22.445526,-127.1868,37.7639,0.0,0.0,0.0,0.0,0.0,0.0,0.0,0.821193,-0.008501027,-0.5706925,-0.92700195,-4.8828125E-4,-0.38494873,0.053710938,0.052734375,0.056640625,1.9519409,17.001242,-0.17599761,-11.815103,1.043396,-0.045043945,-0.12597656,-0.018554688,0.040039062,0.08496094,4.6235538,17.189457,-57.15295,-13.772927,0.4046631,-0.24841309,0.8563843,-0.049804688,0.53808594,0.9638672,9.274088,16.002241,-129.04524,-9.638386,0.0,0.0,0.0,0.0,0.0,0.0,0.0,14.607311,-130.06148,10.289354,0.0,0.0,0.0,0.0,0.0,0.0,0.0,1.3632234,44.963497,1.2918231,
0.09765624854480849,5,-0.04547119,0.81140137,0.4251709,0.055664062,-0.015625,-0.0078125,0.0,0.0,0.0,0.0,0.0,0.0,0.0,0.0,0.0,0.0,0.0,-0.82110804,0.008599078,0.5710395,-1.0046997,0.045959473,-0.06573486,-0.041015625,0.25,0.11230469,3.780511,-16.999481,0.17802759,11.8222885,1.0055542,-0.16662598,-0.17254639,0.06347656,0.034179688,0.057617188,1.4427934,-18.841602,-56.755558,13.9559555,-0.4868164,-0.3340454,0.82666016,0.0068359375,0.0234375,0.018554688,4.0910325,-22.773672,-128.5743,17.450905,0.0,0.0,0.0,0.0,0.0,0.0,0.0,-23.13194,-127.19403,37.380493,0.0,0.0,0.0,0.0,0.0,0.0,0.0,0.82110804,-0.008599078,-0.5710395,-0.89227295,-0.03552246,-0.42059326,-0.099609375,0.018554688,0.038085938,1.831521,16.999481,-0.17802759,-11.8222885,1.008728,-0.033569336,-0.12042236,-0.07714844,0.059570312,0.123046875,4.606662,17.06651,-57.15505,-13.768137,0.40838623,-0.3045044,0.8652954,-0.0703125,0.40625,0.6816406,9.297221,15.880707,-129.04428,-9.602405,0.0,0.0,0.0,0.0,0.0,0.0,0.0,14.321413,-129.8884,10.322064,0.0,0.0,0.0,0.0,0.0,0.0,0.0,1.3632897,44.969563,1.2831185,
0.11718749825377019,6,-0.04949951,0.8353882,0.43243408,-0.001953125,0.024414062,0.01171875,0.0,0.0,0.0,0.0,0.0,0.0,0.0,0.0,0.0,0.0,0.0,-0.82100654,0.008907683,0.570949,-1.0039673,0.06945801,-0.015563965,-0.060546875,0.0029296875,0.033203125,3.532469,-16.997381,0.18441665,11.820415,1.0206909,-0.16925049,-0.16571045,-0.107421875,0.055664062,0.033203125,1.2776349,-18.905796,-56.75875,13.746176,-0.47717285,-0.30474854,0.81073,0.026367188,0.041015625,0.018554688,4.190169,-22.71936,-128.59857,17.098179,0.0,0.0,0.0,0.0,0.0,0.0,0.0,-23.13027,-127.2341,37.027447,0.0,0.0,0.0,0.0,0.0,0.0,0.0,0.82100654,-0.008907683,-0.570949,-0.89575195,0.005004883,-0.39379883,-0.061523438,-0.001953125,0.05859375,1.6900337,16.997381,-0.18441665,-11.820415,1.015625,-0.03765869,-0.11956787,-0.0390625,0.095703125,0.12207031,4.696444,16.922771,-57.160233,-13.754498,0.40142822,-0.28027344,0.8534546,-0.08984375,0.23925781,0.2109375,9.341571,15.753787,-129.03928,-9.416283,0.0,0.0,0.0,0.0,0.0,0.0,0.0,14.114912,-129.78757,10.506102,0.0,0.0,0.0,0.0,0.0,0.0,0.0,1.3569762,44.964733,1.2497694,
0.1367187479627319,7,-0.04296875,0.8095703,0.4598999,-0.021484375,0.0068359375,0.06640625,0.0,0.0,0.0,0.0,0.0,0.0,0.0,0.0,0.0,0.0,0.0,-0.81951857,0.010068774,0.57325727,-0.9658203,0.113098145,0.077819824,0.052734375,0.0029296875,0.033203125,3.4787965,-16.966576,0.20845483,11.868203,0.9295044,-0.20770264,-0.15905762,-0.10546875,0.03515625,0.11035156,1.294071,-18.827696,-56.734447,13.794944,-0.49353027,-0.32183838,0.79400635,-0.03125,0.024414062,0.017578125,4.445939,-22.599934,-128.57631,17.115124,0.0,0.0,0.0,0.0,0.0,0.0,0.0,-23.063488,-127.232155,37.042606,0.0,0.0,0.0,0.0,0.0,0.0,0.0,0.81951857,-0.010068774,-0.57325727,-0.91833496,-0.028686523,-0.35961914,-0.080078125,-0.040039062,0.038085938,1.7347193,16.966576,-0.20845483,-11.868203,1.039978,-0.065979004,-0.14160156,0.0390625,0.057617188,0.064453125,4.754563,16.8774,-57.184784,-13.784345,0.42578125,-0.2901001,0.89178467,-0.07324219,0.048828125,0.060546875,9.188723,15.681899,-129.05933,-9.350769,0.0,0.0,0.0,0.0,0.0,0.0,0.0,14.100972,-129.7874,10.574709,0.0,0.0,0.0,0.0,0.0,0.0,0.0,1.3989862,44.96953,1.2101148,
0.1562499976716936,8,-0.060058594,0.8428955,0.47753906,-0.0234375,-0.03125,0.06640625,0.0,0.0,0.0,0.0,0.0,0.0,0.0,0.0,0.0,0.0,0.0,-0.81940013,0.009558434,0.5734877,-0.96343994,0.10418701,0.023925781,-0.022460938,0.021484375,0.052734375,3.6026094,-16.964125,0.19788921,11.872973,0.9928589,-0.22296143,-0.17266846,0.0068359375,-0.0029296875,0.056640625,1.3421718,-18.799118,-56.74417,13.857625,-0.49346924,-0.31707764,0.8137207,0.0068359375,0.005859375,0.018554688,4.5684896,-22.596434,-128.57834,17.259289,0.0,0.0,0.0,0.0,0.0,0.0,0.0,-23.119057,-127.25701,37.18712,0.0,0.0,0.0,0.0,0.0,0.0,0.0,0.81940013,-0.009558434,-0.5734877,-0.904541,0.024658203,-0.3484497,0.034179688,0.053710938,0.057617188,1.7517831,16.964125,-0.19788921,-11.872973,1.0244141,-0.041809082,-0.12957764,-0.078125,0.115234375,0.083984375,4.757652,16.904175,-57.175507,-13.732226,0.4177246,-0.27978516,0.8740845,-0.0546875,0.0107421875,0.060546875,9.105218,15.715848,-129.04494,-9.228836,0.0,0.0,0.0,0.0,0.0,0.0,0.0,14.157471,-129.78735,10.69968,0.0,0.0,0.0,0.0,0.0,0.0,0.0,1.4080216,44.969173,1.2622732,
0.1757812473806553,9,-0.016174316,0.8066406,0.425354,0.037109375,0.024414062,0.046875,0.0,0.0,0.0,0.0,0.0,0.0,0.0,0.0,0.0,0.0,0.0,-0.81992614,0.009091353,0.5725296,-0.965271,0.0892334,-0.011169434,-0.09765625,0.021484375,0.072265625,3.5539098,-16.975014,0.18821922,11.853139,0.98254395,-0.19421387,-0.1585083,0.044921875,0.034179688,0.056640625,1.2188464,-18.896378,-56.755688,13.766981,-0.47930908,-0.30969238,0.82458496,-0.01171875,0.024414062,0.0,4.6241045,-22.644184,-128.58731,17.163597,0.0,0.0,0.0,0.0,0.0,0.0,0.0,-23.21912,-127.27119,37.091827,0.0,0.0,0.0,0.0,0.0,0.0,0.0,0.81992614,-0.009091353,-0.5725296,-0.8909912,-0.014282227,-0.40966797,0.13085938,0.109375,0.056640625,1.661186,16.975014,-0.18821922,-11.853139,1.0128784,-0.03161621,-0.10772705,-0.11621094,0.059570312,0.10449219,4.80012,16.846699,-57.163486,-13.725195,0.416687,-0.291687,0.8652344,-0.034179688,0.10546875,0.060546875,9.066746,15.75774,-129.03307,-9.149721,0.0,0.0,0.0,0.0,0.0,0.0,0.0,14.232056,-129.78284,10.780479,0.0,0.0,0.0,0.0,0.0,0.0,0.0,1.3904749,44.963787,1.2773224,
0.19531249708961698,10,-0.045288086,0.8114624,0.43811035,0.018554688,0.04296875,0.01171875,0.0,0.0,0.0,0.0,0.0,0.0,0.0,0.0,0.0,0.0,0.0,-0.82041454,0.008886181,0.5719085,-1.0187378,0.093444824,-0.043029785,-0.1171875,0.001953125,0.07128906,3.449917,-16.985126,0.1839715,11.840279,1.0222778,-0.21923828,-0.1798706,-0.05078125,0.055664062,0.015625,1.0285052,-19.04267,-56.753056,13.662807,-0.46728516,-0.31097412,0.8126831,-0.01171875,0.024414062,0.037109375,4.7251782,-22.719229,-128.5947,17.008535,0.0,0.0,0.0,0.0,0.0,0.0,0.0,-23.335674,-127.28,36.93689,0.0,0.0,0.0,0.0,0.0,0.0,0.0,0.82041454,-0.008886181,-0.5719085,-0.8907471,0.003479004,-0.41540527,-0.00390625,0.015625,0.057617188,1.4624618,16.985126,-0.1839715,-11.840279,1.0442505,-0.06201172,-0.12591553,-0.07714844,0.09667969,0.103515625,4.8490086,16.690233,-57.160133,-13.686907,0.41156006,-0.2727661,0.88201904,-0.015625,0.047851562,0.041015625,9.099756,15.699509,-129.01491,-8.97458,0.0,0.0,0.0,0.0,0.0,0.0,0.0,14.187796,-129.78003,10.9565115,0.0,0.0,0.0,0.0,0.0,0.0,0.0,1.3639371,44.9671,1.2579079,
0.21484374679857868,11,-0.053771973,0.8149414,0.48413086,-0.080078125,0.02734375,0.049804688,0.0,0.0,0.0,0.0,0.0,0.0,0.0,0.0,0.0,0.0,0.0,-0.8198926,0.010032181,0.57246023,-0.95825195,0.13690186,0.043395996,-0.041015625,-0.015625,0.033203125,3.3677855,-16.97432,0.20769724,11.851702,0.9660034,-0.20526123,-0.16040039,-0.01171875,0.07324219,0.036132812,0.97397816,-19.064129,-56.734665,13.6234255,-0.4956665,-0.32678223,0.8078613,-0.01171875,0.041992188,0.017578125,4.800202,-22.707247,-128.5845,16.951694,0.0,0.0,0.0,0.0,0.0,0.0,0.0,-23.35505,-127.274925,36.87964,0.0,0.0,0.0,0.0,0.0,0.0,0.0,0.8198926,-0.010032181,-0.57246023,-0.9222412,-0.01928711,-0.3399048,-0.13769531,-0.11621094,-0.001953125,1.5414197,16.97432,-0.20769724,-11.851702,1.0083618,-0.060546875,-0.12719727,-0.057617188,0.05859375,0.12207031,4.8364277,16.705914,-57.187893,-13.608101,0.4258423,-0.28009033,0.8908081,-0.0546875,0.0107421875,0.00390625,9.08638,15.706241,-129.04375,-8.802532,0.0,0.0,0.0,0.0,0.0,0.0,0.0,14.216612,-129.8288,11.129913,0.0,0.0,0.0,0.0,0.0,0.0,0.0,1.4127947,44.961636,1.2355037,
0.23437499650754037,12,-0.039123535,0.8242798,0.4500122,-0.020507812,0.043945312,0.0126953125,0.0,0.0,0.0,0.0,0.0,0.0,0.0,0.0,0.0,0.0,0.0,-0.81896895,0.0109382095,0.573983,-0.9556885,0.09576416,0.059631348,-0.00390625,-0.0546875,0.051757812,3.4056509,-16.955198,0.22645488,11.883229,0.9707031,-0.21722412,-0.16748047,0.06347656,-0.00390625,0.057617188,0.992881,-19.001574,-56.715984,13.732585,-0.47833252,-0.31158447,0.8067627,0.0068359375,0.041992188,0.018554688,4.9092765,-22.617413,-128.55869,17.05836,0.0,0.0,0.0,0.0,0.0,0.0,0.0,-23.311764,-127.27101,36.98435,0.0,0.0,0.0,0.0,0.0,0.0,0.0,0.81896895,-0.0109382095,-0.573983,-0.907959,-0.0059814453,-0.3751831,0.03515625,0.07324219,0.016601562,1.607908,16.955198,-0.22645488,-11.883229,1.038208,-0.08190918,-0.11975098,-0.0390625,0.095703125,0.12207031,4.926486,16.712635,-57.20727,-13.571578,0.4013672,-0.27148438,0.87316895,-0.0546875,0.0107421875,0.041992188,9.096517,15.690981,-129.04176,-8.573723,0.0,0.0,0.0,0.0,0.0,0.0,0.0,14.233628,-129.83829,11.359352,0.0,0.0,0.0,0.0,0.0,0.0,0.0,1.4482698,44.966866,1.2094972,
0.2539062462165021,13,-0.05218506,0.8366089,0.45837402,0.01953125,0.06347656,0.06640625,0.0,0.0,0.0,0.0,0.0,0.0,0.0,0.0,0.0,0.0,0.0,-0.8184627,0.011445614,0.57470703,-0.9644165,0.08416748,6.713867E-4,-0.060546875,0.001953125,0.07128906,3.3200097,-16.944715,0.2369597,11.898217,0.9836426,-0.19030762,-0.1665039,0.044921875,0.034179688,0.056640625,0.9875455,-19.01736,-56.703697,13.699712,-0.5031738,-0.29797363,0.79785156,-0.01171875,0.024414062,0.018554688,5.114505,-22.654593,-128.55267,17.028402,0.0,0.0,0.0,0.0,0.0,0.0,0.0,-23.399944,-127.27615,36.95267,0.0,0.0,0.0,0.0,0.0,0.0,0.0,0.8184627,-0.011445614,-0.57470703,-0.9246826,0.021057129,-0.42803955,0.16894531,0.10839844,0.055664062,1.47618,16.944715,-0.2369597,-11.898217,1.0325317,-0.051879883,-0.1138916,0.0,0.057617188,0.083984375,5.0255075,16.543636,-57.21563,-13.658544,0.4177246,-0.2857666,0.8711548,-0.0546875,0.029296875,0.041992188,8.998551,15.527266,-129.05353,-8.603316,0.0,0.0,0.0,0.0,0.0,0.0,0.0,14.097904,-129.86195,11.331185,0.0,0.0,0.0,0.0,0.0,0.0,0.0,1.456743,44.967728,1.1790471,
0.2734374959254638,14,-0.054138184,0.8187866,0.4572754,0.017578125,0.025390625,0.083984375,0.0,0.0,0.0,0.0,0.0,0.0,0.0,0.0,0.0,0.0,0.0,-0.8187828,0.010961041,0.57407254,-0.9927368,0.07611084,-0.01739502,-0.1171875,0.020507812,0.09082031,3.2371867,-16.951344,0.22692752,11.885082,0.98913574,-0.21105957,-0.17059326,0.044921875,0.034179688,0.056640625,0.86795497,-19.103134,-56.711647,13.581375,-0.49383545,-0.33776855,0.817749,0.0068359375,0.005859375,0.018554688,5.1927476,-22.677826,-128.5677,16.8583,0.0,0.0,0.0,0.0,0.0,0.0,0.0,-23.467619,-127.308304,36.7827,0.0,0.0,0.0,0.0,0.0,0.0,0.0,0.8187828,-0.010961041,-0.57407254,-0.928772,0.016479492,-0.39660645,-0.15722656,-0.038085938,0.018554688,1.302211,16.951344,-0.22692752,-11.885082,1.0162964,-0.047668457,-0.1362915,-0.057617188,0.05859375,0.103515625,5.0053115,16.411278,-57.20986,-13.599622,0.41967773,-0.3046875,0.8642578,-0.07324219,0.030273438,0.041992188,8.891388,15.427166,-129.04,-8.496257,0.0,0.0,0.0,0.0,0.0,0.0,0.0,14.017984,-129.85649,11.438781,0.0,0.0,0.0,0.0,0.0,0.0,0.0,1.4358743,44.963264,1.1894403,
0.2929687456344255,15,-0.03491211,0.82128906,0.46380615,-0.021484375,0.0068359375,0.048828125,0.0,0.0,0.0,0.0,0.0,0.0,0.0,0.0,0.0,0.0,0.0,-0.8178452,0.011779772,0.57564354,-0.99572754,0.09832764,-0.0040893555,-0.09765625,0.09863281,-0.00390625,3.055565,-16.93193,0.24387778,11.917604,1.0008545,-0.19000244,-0.16564941,-0.049804688,0.016601562,0.0546875,0.78034353,-19.144464,-56.699593,13.473593,-0.49865723,-0.32861328,0.7989502,-0.01171875,0.005859375,0.018554688,5.3291035,-22.654345,-128.56003,16.689678,0.0,0.0,0.0,0.0,0.0,0.0,0.0,-23.505032,-127.31285,36.61012,0.0,0.0,0.0,0.0,0.0,0.0,0.0,0.8178452,-0.011779772,-0.57564354,-0.88635254,-0.042663574,-0.37249756,-0.21484375,-0.17285156,-0.022460938,1.4040239,16.93193,-0.24387778,-11.917604,0.9888916,-0.043273926,-0.10913086,-0.07714844,0.041015625,0.10449219,4.8824267,16.47615,-57.22924,-13.468949,0.42077637,-0.27990723,0.8800049,-0.0546875,0.029296875,0.060546875,8.79558,15.516211,-129.0502,-8.320259,0.0,0.0,0.0,0.0,0.0,0.0,0.0,14.130086,-129.88087,11.617046,0.0,0.0,0.0,0.0,0.0,0.0,0.0,1.4602137,44.96993,1.1543486,
0.3124999953433872,16,-0.045166016,0.81347656,0.44708252,-0.059570312,0.06542969,0.068359375,0.0,0.0,0.0,0.0,0.0,0.0,0.0,0.0,0.0,0.0,0.0,-0.8179825,0.011840062,0.5753986,-0.97088623,0.1237793,0.083984375,-0.022460938,0.00390625,-0.0048828125,3.1094205,-16.934776,0.24512602,11.912536,0.9621582,-0.20227051,-0.13543701,-0.01171875,0.053710938,0.0546875,0.7409852,-19.125135,-56.697,13.52327,-0.49017334,-0.3022461,0.7909546,-0.01171875,0.0068359375,0.037109375,5.391906,-22.573624,-128.55914,16.737362,0.0,0.0,0.0,0.0,0.0,0.0,0.0,-23.465874,-127.331406,36.654602,0.0,0.0,0.0,0.0,0.0,0.0,0.0,0.8179825,-0.011840062,-0.5753986,-0.9036255,-0.053344727,-0.36279297,0.111328125,0.16894531,0.056640625,1.402211,16.934776,-0.24512602,-11.912536,0.9848633,-0.05316162,-0.105041504,-0.057617188,0.05859375,0.103515625,5.016338,16.467768,-57.22996,-13.5184145,0.4053955,-0.2835083,0.87316895,-0.016601562,0.028320312,0.041015625,8.737027,15.48651,-129.04585,-8.270093,0.0,0.0,0.0,0.0,0.0,0.0,0.0,14.132064,-129.87567,11.669852,0.0,0.0,0.0,0.0,0.0,0.0,0.0,1.4641576,44.968502,1.1561122,
0.3320312450523489,17,-0.032958984,0.8520508,0.46496582,-0.020507812,0.045898438,0.103515625,0.0,0.0,0.0,0.0,0.0,0.0,0.0,0.0,0.0,0.0,0.0,-0.8177712,0.011342229,0.57552016,-0.9604492,0.105041504,0.031921387,-0.07910156,-0.03515625,0.051757812,3.171632,-16.930403,0.23481934,11.915051,0.9873657,-0.23846436,-0.1716919,0.044921875,0.034179688,0.056640625,0.76999384,-19.076328,-56.708736,13.543667,-0.4911499,-0.29840088,0.8126831,0.0078125,-0.030273438,0.01953125,5.479153,-22.507126,-128.57356,16.773705,0.0,0.0,0.0,0.0,0.0,0.0,0.0,-23.426216,-127.35351,36.69129,0.0,0.0,0.0,0.0,0.0,0.0,0.0,0.8177712,-0.011342229,-0.57552016,-0.9480591,-2.4414062E-4,-0.37805176,0.12988281,0.0703125,0.055664062,1.3261844,16.930403,-0.23481934,-11.915051,1.0353394,-0.069885254,-0.11779785,0.01953125,0.057617188,0.06542969,5.1553707,16.382961,-57.219643,-13.604691,0.38482666,-0.2911377,0.8722534,-0.0546875,0.0107421875,0.060546875,8.681341,15.409858,-129.0292,-8.280235,0.0,0.0,0.0,0.0,0.0,0.0,0.0,14.067773,-129.86327,11.659359,0.0,0.0,0.0,0.0,0.0,0.0,0.0,1.4643018,44.962597,1.1945503,
0.3515624947613106,18,-0.062194824,0.8399048,0.46765137,0.038085938,0.043945312,0.083984375,0.0,0.0,0.0,0.0,0.0,0.0,0.0,0.0,0.0,0.0,0.0,-0.8184174,0.01074776,0.57464087,-0.9864502,0.09649658,-0.020019531,-0.13574219,0.001953125,0.07128906,3.166381,-16.943777,0.22251195,11.896848,0.9975586,-0.20166016,-0.15570068,0.08203125,0.034179688,0.0390625,0.7252374,-19.131895,-56.71918,13.468599,-0.4932251,-0.30230713,0.8137207,-0.030273438,-0.029296875,0.0,5.531126,-22.537548,-128.58737,16.69234,0.0,0.0,0.0,0.0,0.0,0.0,0.0,-23.482866,-127.38581,36.611465,0.0,0.0,0.0,0.0,0.0,0.0,0.0,0.8184174,-0.01074776,-0.57464087,-0.916687,0.016174316,-0.39465332,-0.17578125,-0.037109375,0.018554688,1.2309877,16.943777,-0.22251195,-11.896848,0.9838867,-0.05517578,-0.103027344,0.0,0.057617188,0.06542969,5.051367,16.324005,-57.206833,-13.516066,0.42181396,-0.28979492,0.86816406,-0.0546875,0.030273438,0.00390625,8.533592,15.428221,-129.02643,-8.22537,0.0,0.0,0.0,0.0,0.0,0.0,0.0,14.113428,-129.87434,11.715666,0.0,0.0,0.0,0.0,0.0,0.0,0.0,1.454711,44.96267,1.2308779,
0.37109374447027227,19,-0.024108887,0.79693604,0.43145752,-0.021484375,0.0068359375,0.08496094,0.0,0.0,0.0,0.0,0.0,0.0,0.0,0.0,0.0,0.0,0.0,-0.8192792,0.009970514,0.5736524,-1.007019,0.076171875,-0.0064697266,-0.13574219,0.021484375,0.034179688,3.0765076,-16.961618,0.20642054,11.876383,1.0085449,-0.20800781,-0.14782715,0.005859375,0.0546875,0.017578125,0.7102429,-19.1881,-56.73947,13.313949,-0.4852295,-0.3015747,0.8186035,-0.01171875,0.024414062,0.018554688,5.6143675,-22.550102,-128.59985,16.530369,0.0,0.0,0.0,0.0,0.0,0.0,0.0,-23.534945,-127.398224,36.447666,0.0,0.0,0.0,0.0,0.0,0.0,0.0,0.8192792,-0.009970514,-0.5736524,-0.9100342,-0.0115356445,-0.38604736,-0.11816406,-0.05859375,-0.0029296875,1.1178513,16.961618,-0.20642054,-11.876383,1.0066528,-0.06549072,-0.1083374,-0.057617188,0.05859375,0.08496094,4.9918284,16.26225,-57.19303,-13.412136,0.41571045,-0.28363037,0.86328125,-0.03515625,0.029296875,0.060546875,8.447409,15.3973055,-129.0055,-8.088046,0.0,0.0,0.0,0.0,0.0,0.0,0.0,14.117772,-129.8636,11.854262,0.0,0.0,0.0,0.0,0.0,0.0,0.0,1.4287803,44.968582,1.2589682,
0.39062499417923396,20,-0.03326416,0.8319702,0.43792725,-0.040039062,0.045898438,0.06738281,0.0,0.0,0.0,0.0,0.0,0.0,0.0,0.0,0.0,0.0,0.0,-0.8193203,0.010187773,0.5735174,-0.97058105,0.11663818,0.044067383,-0.022460938,0.0029296875,0.0146484375,3.0329294,-16.962473,0.2109185,11.873589,0.97161865,-0.22314453,-0.16149902,0.005859375,0.03515625,0.017578125,0.70192915,-19.171598,-56.73649,13.281664,-0.48327637,-0.3104248,0.80285645,-0.01171875,0.005859375,-0.018554688,5.682169,-22.483364,-128.60246,16.487823,0.0,0.0,0.0,0.0,0.0,0.0,0.0,-23.505255,-127.41094,36.402504,0.0,0.0,0.0,0.0,0.0,0.0,0.0,0.8193203,-0.010187773,-0.5735174,-0.920166,-0.014831543,-0.40472412,0.015625,0.03515625,-0.00390625,1.0970006,16.962473,-0.2109185,-11.873589,1.0192261,-0.07763672,-0.12530518,-0.038085938,0.040039062,0.103515625,5.0053115,16.23484,-57.19579,-13.38905,0.40942383,-0.2857666,0.89086914,-0.055664062,-0.0087890625,0.041015625,8.425224,15.372469,-129.00612,-8.022261,0.0,0.0,0.0,0.0,0.0,0.0,0.0,14.102788,-129.87102,11.921331,0.0,0.0,0.0,0.0,0.0,0.0,0.0,1.4343187,44.966774,1.2502763,
0.41015624388819566,21,-0.04949951,0.84832764,0.43554688,-0.041015625,0.02734375,0.103515625,0.0,0.0,0.0,0.0,0.0,0.0,0.0,0.0,0.0,0.0,0.0,-0.8192403,0.009899864,0.57350117,-0.9750366,0.0949707,0.064575195,-0.041015625,-0.015625,0.033203125,3.1058297,-16.960814,0.20495786,11.873253,0.9743042,-0.1977539,-0.16241455,-0.01171875,0.03515625,0.07421875,0.7244276,-19.090742,-56.74352,13.332264,-0.49572754,-0.32781982,0.817749,-0.01171875,-0.030273438,0.018554688,5.720636,-22.387096,-128.61116,16.50132,0.0,0.0,0.0,0.0,0.0,0.0,0.0,-23.424421,-127.43437,36.41739,0.0,0.0,0.0,0.0,0.0,0.0,0.0,0.8192403,-0.009899864,-0.57350117,-0.9055176,0.026611328,-0.38970947,-0.00390625,0.07421875,0.037109375,1.1136421,16.960814,-0.20495786,-11.873253,1.0164185,-0.080566406,-0.11236572,0.0,0.057617188,0.06542969,5.016494,16.238894,-57.18792,-13.335247,0.40551758,-0.27539062,0.85839844,-0.016601562,0.028320312,0.041015625,8.450569,15.372571,-128.99469,-7.887177,0.0,0.0,0.0,0.0,0.0,0.0,0.0,14.119709,-129.86708,12.057255,0.0,0.0,0.0,0.0,0.0,0.0,0.0,1.4358606,44.962532,1.2749615,
0.42968749359715736,22,-0.037475586,0.80914307,0.4199829,0.01953125,0.08203125,0.06640625,0.0,0.0,0.0,0.0,0.0,0.0,0.0,0.0,0.0,0.0,0.0,-0.8201926,0.009261722,0.5722232,-0.9633789,0.078430176,-0.0063476562,-0.1171875,0.021484375,0.072265625,3.1174061,-16.980528,0.19174638,11.846794,0.98168945,-0.19128418,-0.14251709,0.025390625,0.053710938,0.037109375,0.6786853,-19.126358,-56.757385,13.275007,-0.47631836,-0.30877686,0.8265381,-0.030273438,-0.029296875,0.037109375,5.7378774,-22.35188,-128.63135,16.458672,0.0,0.0,0.0,0.0,0.0,0.0,0.0,-23.41185,-127.46625,36.37524,0.0,0.0,0.0,0.0,0.0,0.0,0.0,0.8201926,-0.009261722,-0.5722232,-0.91174316,0.011291504,-0.35736084,-0.080078125,0.018554688,0.05859375,1.0588785,16.980528,-0.19174638,-11.846794,1.0162964,-0.061645508,-0.12927246,-0.0390625,0.040039062,0.046875,4.99881,16.21796,-57.176846,-13.299203,0.41156006,-0.28753662,0.859375,-0.0546875,0.0107421875,0.00390625,8.389792,15.371494,-128.98584,-7.860804,0.0,0.0,0.0,0.0,0.0,0.0,0.0,14.126943,-129.86513,12.083031,0.0,0.0,0.0,0.0,0.0,0.0,0.0,1.4183859,44.964127,1.3052673,
0.44921874330611905,23,-0.05731201,0.8128052,0.4434204,-0.04296875,-0.03125,0.06738281,0.0,0.0,0.0,0.0,0.0,0.0,0.0,0.0,0.0,0.0,0.0,-0.82064104,0.00937148,0.57161665,-1.0048218,0.091796875,-0.014160156,-0.15429688,0.021484375,0.052734375,2.9924479,-16.989813,0.19401868,11.834238,1.0028076,-0.19403076,-0.15472412,0.0068359375,0.03515625,0.055664062,0.6483091,-19.195421,-56.75678,13.159546,-0.48913574,-0.30041504,0.8067627,-0.01171875,-0.030273438,0.0,5.708838,-22.368628,-128.63036,16.330944,0.0,0.0,0.0,0.0,0.0,0.0,0.0,-23.44883,-127.46786,36.24793,0.0,0.0,0.0,0.0,0.0,0.0,0.0,0.82064104,-0.00937148,-0.57161665,-0.88616943,-0.027893066,-0.37438965,-0.080078125,-0.020507812,0.017578125,1.032872,16.989813,-0.19401868,-11.834238,1.0040283,-0.04547119,-0.09655762,-0.11621094,0.059570312,0.06640625,4.9380054,16.221125,-57.17866,-13.273584,0.4177246,-0.29162598,0.85931396,-0.034179688,0.06738281,0.022460938,8.321592,15.417673,-128.9919,-7.8953257,0.0,0.0,0.0,0.0,0.0,0.0,0.0,14.193295,-129.87794,12.049661,0.0,0.0,0.0,0.0,0.0,0.0,0.0,1.4049985,44.96627,1.279877,
0.46874999301508075,24,-0.05810547,0.8119507,0.46331787,-0.060546875,0.026367188,0.049804688,0.0,0.0,0.0,0.0,0.0,0.0,0.0,0.0,0.0,0.0,0.0,-0.820606,0.009780198,0.5716673,-0.9876709,0.11816406,0.025146484,-0.060546875,-0.015625,0.0146484375,2.915644,-16.98909,0.20248044,11.835286,0.9727173,-0.21929932,-0.15948486,-0.05078125,0.036132812,0.03515625,0.6364292,-19.187489,-56.74785,13.119512,-0.48364258,-0.32922363,0.81970215,0.0068359375,0.024414062,0.055664062,5.804511,-22.31668,-128.63046,16.255596,0.0,0.0,0.0,0.0,0.0,0.0,0.0,-23.43923,-127.47268,36.16895,0.0,0.0,0.0,0.0,0.0,0.0,0.0,0.820606,-0.009780198,-0.5716673,-0.89105225,-0.018188477,-0.3684082,-0.00390625,0.015625,-0.00390625,1.0152926,16.98909,-0.20248044,-11.835286,1.0282593,-0.07281494,-0.123535156,-0.057617188,0.05859375,0.08496094,4.9783487,16.203136,-57.18797,-13.270388,0.42175293,-0.2977295,0.85931396,-0.016601562,0.028320312,0.041015625,8.27588,15.390671,-128.99197,-7.8367777,0.0,0.0,0.0,0.0,0.0,0.0,0.0,14.198986,-129.88283,12.111032,0.0,0.0,0.0,0.0,0.0,0.0,0.0,1.4086392,44.967106,1.25274,
0.48828124272404244,25,-0.032714844,0.84417725,0.4827881,-0.040039062,0.044921875,0.048828125,0.0,0.0,0.0,0.0,0.0,0.0,0.0,0.0,0.0,0.0,0.0,-0.8202704,0.010086056,0.57200754,-0.9780884,0.111206055,0.08380127,0.015625,0.0029296875,0.033203125,2.9816344,-16.98214,0.2088126,11.842329,0.9651489,-0.23657227,-0.16351318,0.064453125,0.052734375,0.057617188,0.6351982,-19.143616,-56.74519,13.207037,-0.4934082,-0.3140869,0.8078003,0.0068359375,0.005859375,0.037109375,5.9328003,-22.285988,-128.6246,16.368729,0.0,0.0,0.0,0.0,0.0,0.0,0.0,-23.44873,-127.469635,36.281143,0.0,0.0,0.0,0.0,0.0,0.0,0.0,0.8202704,-0.010086056,-0.57200754,-0.90808105,-0.014892578,-0.41064453,0.015625,0.03515625,0.037109375,0.97357625,16.98214,-0.2088126,-11.842329,1.0145874,-0.051635742,-0.115478516,-0.057617188,0.05859375,0.12207031,5.0322084,16.138327,-57.19433,-13.281647,0.40856934,-0.27349854,0.8642578,-0.0546875,0.0107421875,0.060546875,8.245741,15.308855,-128.99522,-7.7868304,0.0,0.0,0.0,0.0,0.0,0.0,0.0,14.140511,-129.89656,12.160452,0.0,0.0,0.0,0.0,0.0,0.0,0.0,1.4225366,44.963326,1.2471201,
0.5078124924330042,26,-0.04248047,0.83917236,0.432312,-0.041015625,0.026367188,0.048828125,0.0,0.0,0.0,0.0,0.0,0.0,0.0,0.0,0.0,0.0,0.0,-0.82081485,0.009649849,0.57143354,-0.9645386,0.10217285,0.03186035,-0.041015625,0.0029296875,0.052734375,3.0004182,-16.993412,0.1997818,11.830446,0.98327637,-0.20300293,-0.17053223,0.044921875,0.053710938,0.038085938,0.66617244,-19.12349,-56.752354,13.197162,-0.48028564,-0.30859375,0.8097534,-0.01171875,0.024414062,0.018554688,6.0315647,-22.259548,-128.62933,16.381655,0.0,0.0,0.0,0.0,0.0,0.0,0.0,-23.455357,-127.483604,36.290176,0.0,0.0,0.0,0.0,0.0,0.0,0.0,0.82081485,-0.009649849,-0.57143354,-0.9105835,0.023620605,-0.3828125,-0.061523438,0.037109375,0.05859375,0.95674855,16.993412,-0.1997818,-11.830446,1.0118408,-0.053588867,-0.101623535,-0.05859375,0.07714844,0.06542969,5.0320525,16.147375,-57.182125,-13.2566,0.4216919,-0.3057251,0.8642578,-0.016601562,0.009765625,0.041015625,8.156587,15.358417,-128.97829,-7.746912,0.0,0.0,0.0,0.0,0.0,0.0,0.0,14.195616,-129.87881,12.202427,0.0,0.0,0.0,0.0,0.0,0.0,0.0,1.4069265,44.968555,1.26154,
0.5273437421419659,27,-0.028259277,0.8258667,0.43078613,0.017578125,0.005859375,0.047851562,0.0,0.0,0.0,0.0,0.0,0.0,0.0,0.0,0.0,0.0,0.0,-0.821244,0.009339184,0.57058495,-0.97650146,0.08068848,-0.013305664,-0.07910156,-0.036132812,0.07128906,2.953732,-17.002295,0.19335002,11.812878,0.98669434,-0.19146729,-0.1515503,0.0068359375,0.03515625,0.037109375,0.62306833,-19.158737,-56.75711,13.120953,-0.47924805,-0.3057251,0.8284912,0.0068359375,0.0234375,0.018554688,6.0452,-22.226168,-128.6394,16.267187,0.0,0.0,0.0,0.0,0.0,0.0,0.0,-23.447641,-127.50359,36.174965,0.0,0.0,0.0,0.0,0.0,0.0,0.0,0.821244,-0.009339184,-0.57058495,-0.91412354,-0.014465332,-0.3821411,-0.022460938,0.016601562,0.037109375,0.94935715,17.002295,-0.19335002,-11.812878,1.0241699,-0.07373047,-0.12939453,-0.07714844,0.078125,0.06640625,5.1133556,16.169277,-57.176796,-13.2472315,0.40124512,-0.2894287,0.8712158,-0.016601562,0.029296875,0.022460938,8.133807,15.411976,-128.97086,-7.645982,0.0,0.0,0.0,0.0,0.0,0.0,0.0,14.261549,-129.87428,12.303666,0.0,0.0,0.0,0.0,0.0,0.0,0.0,1.3909936,44.962837,1.2661197,
0.5468749918509276,28,-0.066101074,0.8092041,0.46850586,-9.765625E-4,0.043945312,0.047851562,0.0,0.0,0.0,0.0,0.0,0.0,0.0,0.0,0.0,0.0,0.0,-0.8208886,0.0099948365,0.5710159,-1.0061035,0.085510254,0.015563965,-0.07910156,0.0029296875,0.033203125,2.8364868,-16.994938,0.20692414,11.821799,1.0247192,-0.20672607,-0.15197754,-0.06933594,0.055664062,0.015625,0.6398023,-19.16587,-56.74673,13.039039,-0.47375488,-0.3334961,0.83154297,-0.01171875,0.024414062,0.018554688,6.065692,-22.17533,-128.63017,16.172129,0.0,0.0,0.0,0.0,0.0,0.0,0.0,-23.445206,-127.51212,36.07659,0.0,0.0,0.0,0.0,0.0,0.0,0.0,0.8208886,-0.0099948365,-0.5710159,-0.93621826,-0.016418457,-0.4076538,-0.061523438,-0.001953125,0.05859375,0.9650977,16.994938,-0.20692414,-11.821799,1.0169067,-0.031677246,-0.10479736,-0.01953125,0.05859375,0.06542969,5.078136,16.149809,-57.189907,-13.243623,0.4093628,-0.30163574,0.87609863,-0.03515625,0.047851562,0.041015625,8.062411,15.424412,-128.99043,-7.671999,0.0,0.0,0.0,0.0,0.0,0.0,0.0,14.2728195,-129.90125,12.276075,0.0,0.0,0.0,0.0,0.0,0.0,0.0,1.414525,44.96087,1.2465341,
0.5664062415598893,29,-0.061401367,0.80792236,0.43951416,-0.060546875,0.025390625,0.0126953125,0.0,0.0,0.0,0.0,0.0,0.0,0.0,0.0,0.0,0.0,0.0,-0.82030606,0.010594083,0.57200277,-0.97387695,0.117248535,0.06896973,-0.00390625,-0.015625,0.0146484375,2.8242455,-16.98288,0.21933036,11.84223,0.9657593,-0.2140503,-0.16241455,-0.049804688,0.016601562,0.0546875,0.6407191,-19.113457,-56.735756,13.0680895,-0.4869995,-0.29162598,0.81365967,-0.01171875,0.005859375,0.018554688,6.0806375,-22.092167,-128.62291,16.196297,0.0,0.0,0.0,0.0,0.0,0.0,0.0,-23.3854,-127.51669,36.10167,0.0,0.0,0.0,0.0,0.0,0.0,0.0,0.82030606,-0.010594083,-0.57200277,-0.9354248,-0.029541016,-0.35076904,-0.080078125,-0.020507812,-0.0029296875,1.0003421,16.98288,-0.21933036,-11.84223,1.0287476,-0.059753418,-0.097961426,-0.05859375,0.095703125,0.06542969,5.074315,16.135078,-57.20601,-13.242364,0.41351318,-0.29766846,0.8711548,-0.0546875,0.0107421875,0.022460938,8.006066,15.465387,-129.00093,-7.6509147,0.0,0.0,0.0,0.0,0.0,0.0,0.0,14.329944,-129.91927,12.298096,0.0,0.0,0.0,0.0,0.0,0.0,0.0,1.4436892,44.96434,1.2376008,
0.585937491268851,30,-0.015991211,0.838562,0.4505005,-0.020507812,0.044921875,0.06738281,0.0,0.0,0.0,0.0,0.0,0.0,0.0,0.0,0.0,0.0,0.0,-0.8203989,0.010970136,0.5719693,-0.9656372,0.11065674,0.047912598,-0.00390625,-0.03515625,0.033203125,2.8672373,-16.9848,0.22711584,11.8415365,0.9747925,-0.21636963,-0.16546631,0.0068359375,0.015625,0.055664062,0.63056046,-19.074333,-56.72553,13.135326,-0.4852295,-0.30541992,0.803833,-0.01171875,0.024414062,0.018554688,6.1600432,-22.06091,-128.61389,16.273718,0.0,0.0,0.0,0.0,0.0,0.0,0.0,-23.38277,-127.521355,36.178135,0.0,0.0,0.0,0.0,0.0,0.0,0.0,0.8203989,-0.010970136,-0.5719693,-0.8859863,-0.0154418945,-0.36346436,-0.00390625,0.015625,0.016601562,1.0362765,16.9848,-0.22711584,-11.8415365,1.0078735,-0.061462402,-0.09753418,-0.07714844,0.059570312,0.103515625,5.0670896,16.161148,-57.21657,-13.222925,0.40942383,-0.284729,0.88397217,-0.07324219,0.048828125,0.07910156,7.951323,15.518738,-129.01497,-7.616385,0.0,0.0,0.0,0.0,0.0,0.0,0.0,14.398682,-129.93617,12.332956,0.0,0.0,0.0,0.0,0.0,0.0,0.0,1.4532248,44.96721,1.221967,
0.6054687409778127,31,-0.04736328,0.8273926,0.43829346,-0.021484375,0.026367188,0.06738281,0.0,0.0,0.0,0.0,0.0,0.0,0.0,0.0,0.0,0.0,0.0,-0.8205185,0.010848088,0.571738,-0.9755249,0.09118652,-1.8310547E-4,-0.1171875,0.001953125,0.052734375,2.8756227,-16.987278,0.22458903,11.836749,0.98443604,-0.19714355,-0.17150879,0.08300781,0.0146484375,0.05859375,0.60909337,-19.100452,-56.72696,13.119456,-0.49542236,-0.31304932,0.81274414,-0.01171875,0.005859375,0.018554688,6.2287235,-22.070538,-128.61584,16.25084,0.0,0.0,0.0,0.0,0.0,0.0,0.0,-23.42662,-127.53782,36.153698,0.0,0.0,0.0,0.0,0.0,0.0,0.0,0.8205185,-0.010848088,-0.571738,-0.89886475,-0.0016479492,-0.39971924,0.015625,0.0546875,0.037109375,0.992881,16.987278,-0.22458903,-11.836749,1.0131836,-0.035583496,-0.08496094,0.0,0.057617188,0.06542969,5.085962,16.11215,-57.210712,-13.210457,0.40344238,-0.26159668,0.8829956,-0.016601562,0.029296875,0.00390625,7.934443,15.5258,-129.00227,-7.577755,0.0,0.0,0.0,0.0,0.0,0.0,0.0,14.415775,-129.93259,12.371805,0.0,0.0,0.0,0.0,0.0,0.0,0.0,1.455619,44.965157,1.2358394,
0.6249999906867744,32,-0.044067383,0.8154907,0.4550171,0.018554688,0.043945312,0.047851562,0.0,0.0,0.0,0.0,0.0,0.0,0.0,0.0,0.0,0.0,0.0,-0.8212814,0.010906938,0.5706485,-0.9885864,0.09448242,-0.012084961,-0.09765625,0.021484375,0.052734375,2.8047016,-17.003075,0.2258074,11.814193,1.0073853,-0.21191406,-0.14483643,-0.0126953125,0.03515625,0.036132812,0.60587233,-19.147345,-56.725983,13.02422,-0.49145508,-0.31323242,0.82855225,-0.01171875,0.041992188,0.017578125,6.2432804,-22.059818,-128.61221,16.13877,0.0,0.0,0.0,0.0,0.0,0.0,0.0,-23.44508,-127.53538,36.041344,0.0,0.0,0.0,0.0,0.0,0.0,0.0,0.8212814,-0.010906938,-0.5706485,-0.9088745,0.0017089844,-0.4095459,-0.041992188,-0.022460938,0.037109375,0.9318824,17.003075,-0.2258074,-11.814193,1.0443115,-0.061035156,-0.12194824,-0.01953125,0.05859375,0.06542969,5.075975,16.062798,-57.213287,-13.168825,0.4177246,-0.27783203,0.87609863,-0.016601562,0.028320312,0.041015625,7.9039803,15.496052,-129.00958,-7.53168,0.0,0.0,0.0,0.0,0.0,0.0,0.0,14.398382,-129.94283,12.418191,0.0,0.0,0.0,0.0,0.0,0.0,0.0,1.4550476,44.96542,1.2346808,
0.6445312403957361,33,-0.064331055,0.8568115,0.4638672,-0.061523438,-0.01171875,0.048828125,0.0,0.0,0.0,0.0,0.0,0.0,0.0,0.0,0.0,0.0,0.0,-0.8210319,0.011208897,0.57087433,-0.97888184,0.10394287,0.053771973,-0.060546875,0.021484375,0.072265625,2.747232,-16.997908,0.23205894,11.81887,0.9941406,-0.21429443,-0.15368652,-0.06933594,0.036132812,0.034179688,0.5921526,-19.172646,-56.72191,13.004568,-0.49212646,-0.29260254,0.83343506,-0.01171875,0.005859375,0.018554688,6.307267,-22.065935,-128.61092,16.104471,0.0,0.0,0.0,0.0,0.0,0.0,0.0,-23.48181,-127.53251,36.004833,0.0,0.0,0.0,0.0,0.0,0.0,0.0,0.8210319,-0.011208897,-0.57087433,-0.89959717,0.01751709,-0.38189697,-0.11816406,-0.01953125,0.017578125,0.9179189,16.997908,-0.23205894,-11.81887,1.0285645,-0.060791016,-0.109802246,-0.07714844,0.059570312,0.08496094,5.000652,16.037376,-57.219055,-13.097534,0.42089844,-0.2727661,0.8642578,-0.016601562,0.028320312,0.041015625,7.82072,15.477444,-129.01694,-7.461995,0.0,0.0,0.0,0.0,0.0,0.0,0.0,14.405628,-129.95811,12.489387,0.0,0.0,0.0,0.0,0.0,0.0,0.0,1.4518361,44.96305,1.2051995,
0.6640624901046978,34,-0.041015625,0.8452759,0.46411133,-0.040039062,0.045898438,0.06738281,0.0,0.0,0.0,0.0,0.0,0.0,0.0,0.0,0.0,0.0,0.0,-0.821316,0.011271992,0.5706208,-0.96380615,0.10449219,0.06573486,-0.00390625,-0.03515625,0.051757812,2.8037941,-17.003788,0.23336515,11.813621,0.97753906,-0.22833252,-0.15362549,0.026367188,0.0146484375,0.07519531,0.6049027,-19.095482,-56.720875,13.059039,-0.5013428,-0.30889893,0.80285645,-0.03125,0.0068359375,0.018554688,6.3421426,-21.979076,-128.61258,16.187397,0.0,0.0,0.0,0.0,0.0,0.0,0.0,-23.403172,-127.53534,36.087154,0.0,0.0,0.0,0.0,0.0,0.0,0.0,0.821316,-0.011271992,-0.5706208,-0.9095459,-0.049072266,-0.37158203,-0.00390625,0.0546875,0.016601562,0.9565441,17.003788,-0.23336515,-11.813621,1.0049438,-0.0335083,-0.10559082,0.0,0.057617188,0.06542969,5.023168,16.07512,-57.21885,-13.099079,0.4177246,-0.26593018,0.8908081,-0.03515625,0.047851562,0.041015625,7.8121824,15.5139885,-129.01443,-7.440517,0.0,0.0,0.0,0.0,0.0,0.0,0.0,14.449822,-129.96298,12.511005,0.0,0.0,0.0,0.0,0.0,0.0,0.0,1.4581342,44.966724,1.2104788,
0.6835937398136595,35,-0.044189453,0.8204346,0.44708252,0.0,0.0625,0.030273438,0.0,0.0,0.0,0.0,0.0,0.0,0.0,0.0,0.0,0.0,0.0,-0.8216153,0.011668898,0.5699551,-0.97662354,0.090026855,0.008728027,-0.041992188,-0.016601562,0.052734375,2.785372,-17.009983,0.24158233,11.799837,0.98046875,-0.19909668,-0.13659668,0.06347656,0.053710938,0.038085938,0.612617,-19.102236,-56.71406,13.050605,-0.48937988,-0.31225586,0.81073,-0.01171875,0.041992188,0.017578125,6.4224496,-21.968004,-128.60423,16.211561,0.0,0.0,0.0,0.0,0.0,0.0,0.0,-23.423908,-127.53686,36.10823,0.0,0.0,0.0,0.0,0.0,0.0,0.0,0.8216153,-0.011668898,-0.5699551,-0.9110718,-0.010559082,-0.38604736,0.07324219,0.052734375,0.036132812,0.9147157,17.009983,-0.24158233,-11.799837,1.0244751,-0.06970215,-0.113586426,-0.0390625,0.07714844,0.06542969,5.0355945,16.038605,-57.227623,-13.101674,0.4095459,-0.26385498,0.8947754,-0.0546875,0.029296875,0.041992188,7.761368,15.515769,-129.01688,-7.456627,0.0,0.0,0.0,0.0,0.0,0.0,0.0,14.4649105,-129.97531,12.494745,0.0,0.0,0.0,0.0,0.0,0.0,0.0,1.465584,44.96115,1.1921979,
0.7031249895226211,36,-0.030090332,0.79315186,0.43554688,0.057617188,0.022460938,0.0107421875,0.0,0.0,0.0,0.0,0.0,0.0,0.0,0.0,0.0,0.0,0.0,-0.82182354,0.011923371,0.5698867,-0.98565674,0.08843994,-0.004272461,-0.09765625,0.021484375,0.052734375,2.7079046,-17.014294,0.24685076,11.798422,0.99902344,-0.18206787,-0.17358398,-0.01171875,0.03515625,0.055664062,0.6029587,-19.135082,-56.706585,12.986529,-0.4925537,-0.3218994,0.79992676,0.0068359375,0.005859375,0.0,6.4048095,-21.95722,-128.60478,16.107729,0.0,0.0,0.0,0.0,0.0,0.0,0.0,-23.444235,-127.542595,36.002136,0.0,0.0,0.0,0.0,0.0,0.0,0.0,0.82182354,-0.011923371,-0.5698867,-0.90283203,0.0021972656,-0.3918457,-0.11816406,0.0,0.017578125,0.87469226,17.014294,-0.24685076,-11.798422,1.0196533,-0.057678223,-0.107666016,-0.09667969,0.059570312,0.06640625,5.018251,15.994459,-57.232506,-13.074075,0.416687,-0.28961182,0.8613281,-0.0546875,0.029296875,0.060546875,7.7587113,15.494972,-129.02814,-7.426072,0.0,0.0,0.0,0.0,0.0,0.0,0.0,14.435513,-129.99059,12.526227,0.0,0.0,0.0,0.0,0.0,0.0,0.0,1.4699903,44.96744,1.1790221,
0.7226562392315828,37,-0.036132812,0.82421875,0.44891357,-0.040039062,0.044921875,0.048828125,0.0,0.0,0.0,0.0,0.0,0.0,0.0,0.0,0.0,0.0,0.0,-0.8220757,0.011866248,0.569298,-0.9654541,0.1071167,0.027954102,-0.07910156,0.0029296875,0.0146484375,2.706097,-17.019516,0.24566808,11.786235,0.95648193,-0.22161865,-0.15039062,-0.06933594,0.016601562,0.053710938,0.5878411,-19.152613,-56.710518,12.974313,-0.5024414,-0.3109131,0.81866455,-0.01171875,0.041992188,0.017578125,6.429346,-21.94714,-128.60532,16.096952,0.0,0.0,0.0,0.0,0.0,0.0,0.0,-23.451283,-127.545685,35.990665,0.0,0.0,0.0,0.0,0.0,0.0,0.0,0.8220757,-0.011866248,-0.569298,-0.8980713,-0.0134887695,-0.35461426,-0.060546875,-0.001953125,-0.0234375,0.8570652,17.019516,-0.24566808,-11.786235,1.0194702,-0.08959961,-0.10546875,-0.13476562,0.060546875,0.10449219,5.029288,15.9765215,-57.231636,-13.013466,0.411438,-0.30163574,0.8711548,-0.015625,0.047851562,0.041015625,7.7604823,15.507575,-129.01703,-7.297717,0.0,0.0,0.0,0.0,0.0,0.0,0.0,14.467088,-129.97404,12.654206,0.0,0.0,0.0,0.0,0.0,0.0,0.0,1.463315,44.96194,1.1758802,
0.7421874889405445,38,-0.043762207,0.81463623,0.4758911,-0.099609375,0.047851562,0.08691406,0.0,0.0,0.0,0.0,0.0,0.0,0.0,0.0,0.0,0.0,0.0,-0.8218532,0.011810044,0.5696579,-0.9810791,0.107543945,0.072753906,-0.00390625,-0.03515625,0.051757812,2.7805188,-17.01491,0.24450453,11.793686,0.96136475,-0.2286377,-0.1574707,0.0068359375,-0.0029296875,0.056640625,0.6065179,-19.086908,-56.710735,13.03501,-0.49523926,-0.3022461,0.8225708,-0.01171875,0.024414062,0.018554688,6.495462,-21.905573,-128.60316,16.189064,0.0,0.0,0.0,0.0,0.0,0.0,0.0,-23.425976,-127.54523,36.081886,0.0,0.0,0.0,0.0,0.0,0.0,0.0,0.8218532,-0.011810044,-0.5696579,-0.9136963,0.017700195,-0.37890625,-0.00390625,0.03515625,0.016601562,0.8873521,17.01491,-0.24450453,-11.793686,1.0482178,-0.07104492,-0.12298584,0.0,0.057617188,0.06542969,5.0980444,15.968109,-57.23201,-12.995267,0.40942383,-0.2886963,0.8810425,-0.0546875,0.029296875,0.041992188,7.803586,15.505669,-129.01173,-7.161434,0.0,0.0,0.0,0.0,0.0,0.0,0.0,14.481285,-129.96838,12.791405,0.0,0.0,0.0,0.0,0.0,0.0,0.0,1.4764656,44.961895,1.197975,
0.7617187386495062,39,-0.062316895,0.82489014,0.45361328,0.018554688,0.044921875,0.10253906,0.0,0.0,0.0,0.0,0.0,0.0,0.0,0.0,0.0,0.0,0.0,-0.8217145,0.011119837,0.5701004,-0.9746094,0.10241699,0.022888184,-0.060546875,-0.016601562,0.07128906,2.8809276,-17.012037,0.23021515,11.802846,0.9921875,-0.21124268,-0.15667725,0.06347656,0.034179688,0.038085938,0.5804718,-19.075993,-56.72622,13.078148,-0.4812622,-0.30664062,0.81866455,-0.01171875,0.024414062,0.018554688,6.5331798,-21.889473,-128.61522,16.22972,0.0,0.0,0.0,0.0,0.0,0.0,0.0,-23.425776,-127.56221,36.12096,0.0,0.0,0.0,0.0,0.0,0.0,0.0,0.8217145,-0.011119837,-0.5701004,-0.92596436,0.0010986328,-0.41052246,-0.00390625,0.03515625,0.057617188,0.92661804,17.012037,-0.23021515,-11.802846,1.020752,-0.053710938,-0.103759766,0.0,0.09472656,0.064453125,5.0743923,15.972567,-57.214928,-12.988245,0.41357422,-0.29162598,0.8642578,-0.0546875,0.029296875,0.022460938,7.738727,15.567172,-129.00066,-7.169601,0.0,0.0,0.0,0.0,0.0,0.0,0.0,14.551489,-129.96024,12.783619,0.0,0.0,0.0,0.0,0.0,0.0,0.0,1.4763076,44.966328,1.2508062,
0.7812499883584679,40,-0.05407715,0.8088379,0.45819092,-0.021484375,0.025390625,0.048828125,0.0,0.0,0.0,0.0,0.0,0.0,0.0,0.0,0.0,0.0,0.0,-0.82151896,0.01095418,0.5701193,-1.0039673,0.07897949,-0.0034179688,-0.13574219,-0.03515625,0.033203125,2.851972,-17.00799,0.22678547,11.803237,1.0079346,-0.19128418,-0.16571045,-0.0126953125,0.03515625,0.036132812,0.5888388,-19.077839,-56.73081,13.02151,-0.47735596,-0.31072998,0.8255615,-0.01171875,0.041992188,0.017578125,6.545594,-21.852991,-128.6244,16.146305,0.0,0.0,0.0,0.0,0.0,0.0,0.0,-23.41935,-127.57782,36.035904,0.0,0.0,0.0,0.0,0.0,0.0,0.0,0.82151896,-0.01095418,-0.5701193,-0.89923096,-0.026611328,-0.41760254,-0.099609375,-9.765625E-4,0.017578125,0.8970026,17.00799,-0.22678547,-11.803237,1.0247192,-0.07965088,-0.08984375,-0.09667969,0.022460938,0.06640625,5.1291947,15.930178,-57.214226,-13.023841,0.4177246,-0.2975464,0.8514404,-0.03515625,0.029296875,0.022460938,7.747447,15.566622,-128.99292,-7.192487,0.0,0.0,0.0,0.0,0.0,0.0,0.0,14.544898,-129.96057,12.760699,0.0,0.0,0.0,0.0,0.0,0.0,0.0,1.4829493,44.958652,1.2730421,
0.8007812380674296,41,-0.04119873,0.80340576,0.43792725,-0.059570312,0.044921875,0.03125,0.0,0.0,0.0,0.0,0.0,0.0,0.0,0.0,0.0,0.0,0.0,-0.8214552,0.011234269,0.5702556,-0.97058105,0.10992432,0.036987305,-0.09765625,0.0029296875,0.0146484375,2.7950537,-17.006666,0.23258416,11.806058,0.97698975,-0.21057129,-0.16949463,-0.049804688,0.0546875,0.03515625,0.6189722,-19.064325,-56.72342,12.980878,-0.489563,-0.32214355,0.82263184,-0.03125,0.025390625,0.037109375,6.567398,-21.814793,-128.61435,16.100481,0.0,0.0,0.0,0.0,0.0,0.0,0.0,-23.393215,-127.57079,35.988964,0.0,0.0,0.0,0.0,0.0,0.0,0.0,0.8214552,-0.011234269,-0.5702556,-0.90179443,0.0056762695,-0.41540527,-0.041992188,0.016601562,0.017578125,0.85064846,17.006666,-0.23258416,-11.806058,1.0151978,-0.05657959,-0.07696533,-0.0390625,0.05859375,0.06542969,5.18546,15.883517,-57.214085,-13.050117,0.42181396,-0.2937622,0.8612671,-0.016601562,0.028320312,0.041015625,7.742885,15.544396,-128.98615,-7.189288,0.0,0.0,0.0,0.0,0.0,0.0,0.0,14.528936,-129.95642,12.763549,0.0,0.0,0.0,0.0,0.0,0.0,0.0,1.492099,44.959896,1.2636459,
0.8203124877763913,42,-0.026916504,0.8319702,0.45770264,0.017578125,0.025390625,0.06640625,0.0,0.0,0.0,0.0,0.0,0.0,0.0,0.0,0.0,0.0,0.0,-0.8214552,0.011234269,0.5702556,-0.97094727,0.11413574,0.079833984,-0.041015625,-0.03515625,0.013671875,2.855882,-17.006666,0.23258416,11.806058,0.9841919,-0.23919678,-0.19958496,-0.030273438,0.0546875,0.0546875,0.60587233,-19.002392,-56.726376,13.044516,-0.4730835,-0.2989502,0.8126831,-0.01171875,0.0068359375,0.037109375,6.595585,-21.769146,-128.62471,16.158201,0.0,0.0,0.0,0.0,0.0,0.0,0.0,-23.354048,-127.57885,36.047585,0.0,0.0,0.0,0.0,0.0,0.0,0.0,0.8214552,-0.011234269,-0.5702556,-0.9316406,0.026855469,-0.3788452,0.053710938,0.053710938,0.036132812,0.8490367,17.006666,-0.23258416,-11.806058,1.0563965,-0.08111572,-0.10229492,0.0,0.0390625,0.06542969,5.1910114,15.868027,-57.216267,-13.021731,0.42999268,-0.29388428,0.8572998,-0.0546875,0.029296875,0.060546875,7.74357,15.521761,-128.9899,-7.11951,0.0,0.0,0.0,0.0,0.0,0.0,0.0,14.513392,-129.96599,12.834194,0.0,0.0,0.0,0.0,0.0,0.0,0.0,1.492099,44.959896,1.2636459,
0.839843737485353,43,-0.053710938,0.8463745,0.42266846,9.765625E-4,0.10253906,0.08496094,0.0,0.0,0.0,0.0,0.0,0.0,0.0,0.0,0.0,0.0,0.0,-0.82205385,0.01081387,0.569563,-0.9627075,0.10369873,0.05480957,-0.041015625,-0.015625,0.033203125,2.8841193,-17.019064,0.22388062,11.7917185,0.9752197,-0.23797607,-0.17059326,0.06347656,0.034179688,0.038085938,0.65551287,-18.960272,-56.736702,13.05395,-0.49041748,-0.31225586,0.8196411,-0.03125,0.024414062,0.017578125,6.6727962,-21.743074,-128.6285,16.203207,0.0,0.0,0.0,0.0,0.0,0.0,0.0,-23.353329,-127.5836,36.090714,0.0,0.0,0.0,0.0,0.0,0.0,0.0,0.82205385,-0.01081387,-0.569563,-0.9182739,-0.025024414,-0.38909912,-0.041992188,-0.022460938,0.037109375,0.8570652,17.019064,-0.22388062,-11.7917185,0.99676514,-0.06036377,-0.107177734,-0.0390625,0.05859375,0.06542969,5.149781,15.900779,-57.20892,-12.981247,0.43408203,-0.28515625,0.87994385,-0.03515625,0.029296875,0.041015625,7.717801,15.541992,-128.9824,-7.092792,0.0,0.0,0.0,0.0,0.0,0.0,0.0,14.547575,-129.96658,12.860697,0.0,0.0,0.0,0.0,0.0,0.0,0.0,1.4699324,44.964672,1.2678518,
0.8593749871943147,44,-0.06817627,0.83013916,0.4677124,-0.021484375,0.0068359375,0.048828125,0.0,0.0,0.0,0.0,0.0,0.0,0.0,0.0,0.0,0.0,0.0,-0.8220759,0.011089653,0.5695846,-0.9847412,0.08721924,0.010681152,-0.07910156,0.0029296875,0.033203125,2.8025372,-17.019522,0.2295902,11.792168,1.0009155,-0.18811035,-0.15667725,0.005859375,0.0546875,0.017578125,0.6693957,-18.958452,-56.732788,13.015214,-0.49505615,-0.28948975,0.8225708,-0.01171875,0.005859375,0.018554688,6.608803,-21.721666,-128.63138,16.153795,0.0,0.0,0.0,0.0,0.0,0.0,0.0,-23.328638,-127.58095,36.039696,0.0,0.0,0.0,0.0,0.0,0.0,0.0,0.8220759,-0.011089653,-0.5695846,-0.92822266,-0.015197754,-0.3821411,-0.11816406,-0.0390625,-0.0029296875,0.8627541,17.019522,-0.2295902,-11.792168,0.9968872,-0.06530762,-0.09729004,-0.07714844,0.059570312,0.06640625,5.0564837,15.904636,-57.21726,-12.916643,0.41656494,-0.28997803,0.89575195,-0.015625,0.047851562,0.041015625,7.619553,15.5851755,-128.99913,-7.069396,0.0,0.0,0.0,0.0,0.0,0.0,0.0,14.608266,-129.97784,12.885537,0.0,0.0,0.0,0.0,0.0,0.0,0.0,1.4619963,44.967365,1.2345827,
0.8789062369032764,45,-0.054382324,0.8087158,0.43634033,-0.021484375,0.026367188,0.06738281,0.0,0.0,0.0,0.0,0.0,0.0,0.0,0.0,0.0,0.0,0.0,-0.8216186,0.011664681,0.57006717,-0.98065186,0.093933105,0.012756348,-0.09765625,0.0029296875,0.0146484375,2.7172136,-17.010052,0.24149504,11.802157,0.9894409,-0.20031738,-0.16558838,-0.08886719,0.055664062,0.0146484375,0.6918207,-18.937574,-56.72435,12.970907,-0.4713745,-0.317688,0.80877686,-0.01171875,0.060546875,0.017578125,6.607527,-21.671215,-128.61887,16.08996,0.0,0.0,0.0,0.0,0.0,0.0,0.0,-23.289879,-127.57299,35.975952,0.0,0.0,0.0,0.0,0.0,0.0,0.0,0.8216186,-0.011664681,-0.57006717,-0.9182129,-0.018798828,-0.3624878,0.015625,0.0546875,0.016601562,0.87982255,17.010052,-0.24149504,-11.802157,1.050415,-0.06109619,-0.11419678,-0.038085938,0.040039062,0.08496094,5.0672054,15.910373,-57.22892,-12.926855,0.42785645,-0.29595947,0.8760376,0.001953125,0.0087890625,0.041015625,7.622077,15.5674925,-129.00826,-7.059786,0.0,0.0,0.0,0.0,0.0,0.0,0.0,14.605679,-129.98914,12.895807,0.0,0.0,0.0,0.0,0.0,0.0,0.0,1.4785844,44.96322,1.2109995,
0.8984374866122381,46,-0.037231445,0.82714844,0.4420166,-0.040039062,0.064453125,0.049804688,0.0,0.0,0.0,0.0,0.0,0.0,0.0,0.0,0.0,0.0,0.0,-0.8213261,0.012424871,0.5705271,-0.9719238,0.11419678,0.07684326,-0.00390625,0.041015625,0.034179688,2.7393832,-17.003994,0.2572334,11.811679,0.9703369,-0.23388672,-0.15454102,-0.03125,0.016601562,0.0546875,0.6872803,-18.892525,-56.705685,13.043777,-0.48937988,-0.31030273,0.8137207,0.0068359375,0.005859375,0.018554688,6.6102567,-21.613739,-128.6002,16.202839,0.0,0.0,0.0,0.0,0.0,0.0,0.0,-23.248665,-127.555984,36.087906,0.0,0.0,0.0,0.0,0.0,0.0,0.0,0.8213261,-0.012424871,-0.5705271,-0.9038086,0.003112793,-0.39086914,-0.0029296875,0.07421875,0.016601562,0.83743393,17.003994,-0.2572334,-11.811679,1.0324707,-0.068847656,-0.109802246,-0.0390625,0.05859375,0.046875,5.112244,15.855431,-57.244164,-12.943144,0.4095459,-0.27954102,0.86724854,-0.0546875,0.029296875,0.041992188,7.630158,15.522413,-129.01553,-7.038995,0.0,0.0,0.0,0.0,0.0,0.0,0.0,14.578512,-130.00343,12.915929,0.0,0.0,0.0,0.0,0.0,0.0,0.0,1.4990692,44.964798,1.1788094,
0.9179687363211998,47,-0.052490234,0.8404541,0.4345703,-0.059570312,0.045898438,0.049804688,0.0,0.0,0.0,0.0,0.0,0.0,0.0,0.0,0.0,0.0,0.0,-0.8214128,0.012563949,0.5704352,-0.96972656,0.11730957,0.06298828,-0.00390625,-0.03515625,0.033203125,2.820153,-17.00579,0.2601127,11.809777,0.99157715,-0.23376465,-0.159729,0.0068359375,0.03515625,0.037109375,0.68556994,-18.857347,-56.6997,13.133405,-0.49871826,-0.3277588,0.8206787,0.0068359375,0.0234375,0.0,6.683251,-21.591349,-128.58582,16.344097,0.0,0.0,0.0,0.0,0.0,0.0,0.0,-23.241312,-127.548325,36.22786,0.0,0.0,0.0,0.0,0.0,0.0,0.0,0.8214128,-0.012563949,-0.5704352,-0.9088135,0.0064697266,-0.40454102,-0.080078125,-9.765625E-4,0.017578125,0.85546553,17.00579,-0.2601127,-11.809777,1.0244141,-0.09765625,-0.10357666,-0.078125,0.13378906,0.046875,5.13763,15.864604,-57.24723,-12.906882,0.39715576,-0.28344727,0.8820801,-0.03515625,0.029296875,0.060546875,7.65991,15.572416,-129.01625,-6.931879,0.0,0.0,0.0,0.0,0.0,0.0,0.0,14.633907,-130.00638,13.023787,0.0,0.0,0.0,0.0,0.0,0.0,0.0,1.5000463,44.96593,1.1696465,
0.9374999860301615,48,-0.066833496,0.83374023,0.4189453,-0.001953125,0.005859375,0.047851562,0.0,0.0,0.0,0.0,0.0,0.0,0.0,0.0,0.0,0.0,0.0,-0.8211781,0.012807203,0.57070076,-0.9796753,0.0814209,0.0026245117,-0.09765625,0.021484375,0.052734375,2.7677472,-17.000933,0.26514882,11.815274,0.99224854,-0.20727539,-0.17462158,0.043945312,0.034179688,0.038085938,0.7033216,-18.843752,-56.696663,13.107187,-0.49822998,-0.302063,0.80181885,-0.01171875,-0.01171875,0.037109375,6.710077,-21.554379,-128.5937,16.322372,0.0,0.0,0.0,0.0,0.0,0.0,0.0,-23.220963,-127.551926,36.205376,0.0,0.0,0.0,0.0,0.0,0.0,0.0,0.8211781,-0.012807203,-0.57070076,-0.9299927,-0.0020141602,-0.4006958,-0.022460938,0.036132812,0.016601562,0.8247196,17.000933,-0.26514882,-11.815274,1.0285645,-0.07977295,-0.10180664,-0.05859375,0.05859375,0.046875,5.1461654,15.821999,-57.25342,-12.892239,0.43408203,-0.29595947,0.85827637,-0.03515625,0.029296875,0.041015625,7.6557326,15.551193,-129.02193,-6.8924465,0.0,0.0,0.0,0.0,0.0,0.0,0.0,14.615379,-130.01317,13.063591,0.0,0.0,0.0,0.0,0.0,0.0,0.0,1.5028017,44.964542,1.153315,
0.9570312357391232,49,-0.04638672,0.8223877,0.43621826,-0.001953125,0.025390625,0.047851562,0.0,0.0,0.0,0.0,0.0,0.0,0.0,0.0,0.0,0.0,0.0,-0.8215081,0.012652865,0.5701589,-0.9847412,0.08911133,0.013671875,-0.09765625,0.041015625,0.0146484375,2.6846735,-17.007767,0.26195353,11.804057,1.0007324,-0.19592285,-0.1586914,-0.0703125,0.037109375,-0.00390625,0.69885594,-18.897568,-56.7013,13.035812,-0.48571777,-0.3310547,0.81378174,-0.03125,0.060546875,0.017578125,6.7805266,-21.601048,-128.59425,16.227512,0.0,0.0,0.0,0.0,0.0,0.0,0.0,-23.297686,-127.55351,36.10775,0.0,0.0,0.0,0.0,0.0,0.0,0.0,0.8215081,-0.012652865,-0.5701589,-0.9277954,0.014282227,-0.38879395,-0.041992188,-0.0029296875,0.017578125,0.79031014,17.007767,-0.26195353,-11.804057,1.0324097,-0.07684326,-0.11175537,-0.078125,0.09667969,0.08496094,5.1637635,15.825137,-57.24893,-12.8734665,0.4196167,-0.3078003,0.8731079,-0.016601562,0.028320312,0.060546875,7.6513734,15.585707,-129.0091,-6.848647,0.0,0.0,0.0,0.0,0.0,0.0,0.0,14.659855,-130.0011,13.106946,0.0,0.0,0.0,0.0,0.0,0.0,0.0,1.4809967,44.9639,1.1360492,
0.9765624854480849,50,-0.043945312,0.8175659,0.46398926,-0.020507812,0.044921875,0.048828125,0.0,0.0,0.0,0.0,0.0,0.0,0.0,0.0,0.0,0.0,0.0,-0.8212737,0.012896241,0.57042456,-0.9748535,0.1182251,0.067993164,-0.041015625,0.041015625,0.034179688,2.6890447,-17.00291,0.26699218,11.809557,0.97198486,-0.21246338,-0.14251709,-0.05078125,0.036132812,0.03515625,0.68556994,-18.8764,-56.6944,13.066302,-0.47808838,-0.29882812,0.8156128,-0.01171875,0.04296875,0.037109375,6.81181,-21.566168,-128.58472,16.261215,0.0,0.0,0.0,0.0,0.0,0.0,0.0,-23.28606,-127.548195,36.136528,0.0,0.0,0.0,0.0,0.0,0.0,0.0,0.8212737,-0.012896241,-0.57042456,-0.913147,-0.018676758,-0.37231445,-0.022460938,-0.0029296875,-0.00390625,0.78931916,17.00291,-0.26699218,-11.809557,1.0247192,-0.07965088,-0.091796875,-0.057617188,0.05859375,0.06640625,5.200138,15.8303175,-57.255173,-12.887418,0.38897705,-0.2871704,0.866333,-0.0546875,0.029296875,0.041992188,7.621459,15.648052,-129.02002,-6.834342,0.0,0.0,0.0,0.0,0.0,0.0,0.0,14.728193,-130.01389,13.121251,0.0,0.0,0.0,0.0,0.0,0.0,0.0,1.4837503,44.962517,1.1197233,
0.9960937351570466,51,-0.03387451,0.83721924,0.4708252,0.017578125,0.024414062,0.047851562,0.0,0.0,0.0,0.0,0.0,0.0,0.0,0.0,0.0,0.0,0.0,-0.8212335,0.013210986,0.5704389,-0.98413086,0.10467529,0.07171631,0.0146484375,-0.07324219,0.013671875,2.7883925,-17.002079,0.2735083,11.809855,0.97454834,-0.22619629,-0.1675415,-0.0126953125,0.016601562,0.036132812,0.68499887,-18.808985,-56.691284,13.171604,-0.5015869,-0.32073975,0.81274414,-0.03125,0.04296875,-0.01953125,6.85432,-21.52261,-128.58812,16.382576,0.0,0.0,0.0,0.0,0.0,0.0,0.0,-23.246853,-127.562965,36.257893,0.0,0.0,0.0,0.0,0.0,0.0,0.0,0.8212335,-0.013210986,-0.5704389,-0.9281006,-0.007873535,-0.36242676,0.015625,0.03515625,0.016601562,0.84371924,17.002079,-0.2735083,-11.809855,1.0325317,-0.06585693,-0.10986328,0.0,0.057617188,0.06542969,5.170665,15.86827,-57.263763,-12.871632,0.39923096,-0.28741455,0.8751831,-0.016601562,0.028320312,0.041015625,7.587808,15.748472,-129.02203,-6.839178,0.0,0.0,0.0,0.0,0.0,0.0,0.0,14.834675,-130.0163,13.117083,0.0,0.0,0.0,0.0,0.0,0.0,0.0,1.4969052,44.96129,1.1137488,
1.0156249848660084,52,-0.032226562,0.8130493,0.43481445,-0.041015625,0.026367188,0.048828125,0.0,0.0,0.0,0.0,0.0,0.0,0.0,0.0,0.0,0.0,0.0,-0.82154894,0.013254669,0.57018864,-0.97662354,0.10632324,0.025939941,-0.041015625,0.0029296875,0.052734375,2.8075616,-17.00861,0.2744127,11.804672,1.0142822,-0.21704102,-0.16186523,0.025390625,0.03515625,0.037109375,0.7116191,-18.771774,-56.6898,13.194792,-0.5115967,-0.31555176,0.8265991,-0.01171875,0.041992188,0.017578125,6.83581,-21.497627,-128.57784,16.401733,0.0,0.0,0.0,0.0,0.0,0.0,0.0,-23.230055,-127.565956,36.276543,0.0,0.0,0.0,0.0,0.0,0.0,0.0,0.82154894,-0.013254669,-0.57018864,-0.9380493,-0.0024414062,-0.3770752,-0.022460938,0.016601562,0.016601562,0.89131266,17.00861,-0.2744127,-11.804672,1.0126343,-0.08947754,-0.097473145,-0.057617188,0.05859375,0.06640625,5.1166115,15.919222,-57.26526,-12.826309,0.41967773,-0.2937622,0.86920166,-0.03515625,0.06738281,0.041015625,7.5629387,15.844807,-129.02667,-6.8100753,0.0,0.0,0.0,0.0,0.0,0.0,0.0,14.923931,-130.02356,13.145983,0.0,0.0,0.0,0.0,0.0,0.0,0.0,1.4926683,44.966904,1.105386,
1.03515623457497,53,-0.04840088,0.83740234,0.44036865,-0.061523438,0.0078125,0.049804688,0.0,0.0,0.0,0.0,0.0,0.0,0.0,0.0,0.0,0.0,0.0,-0.822192,0.013290577,0.5693069,-0.994751,0.09338379,-0.001159668,-0.07910156,-0.015625,0.0146484375,2.7410975,-17.021923,0.27515614,11.786417,1.0004883,-0.20269775,-0.16766357,-0.0703125,0.017578125,0.015625,0.6872803,-18.810947,-56.689766,13.150049,-0.47912598,-0.30267334,0.803772,-0.049804688,0.025390625,-9.765625E-4,6.817566,-21.517584,-128.58063,16.342438,0.0,0.0,0.0,0.0,0.0,0.0,0.0,-23.253494,-127.57579,36.22091,0.0,0.0,0.0,0.0,0.0,0.0,0.0,0.822192,-0.013290577,-0.5693069,-0.8817749,6.1035156E-5,-0.4006958,-0.060546875,0.017578125,0.017578125,0.8108415,17.021923,-0.27515614,-11.786417,1.0354004,-0.08087158,-0.109802246,-0.057617188,0.05859375,0.06640625,5.145175,15.892032,-57.265224,-12.8163,0.411438,-0.29766846,0.8790283,-0.016601562,0.009765625,0.041015625,7.5276985,15.814215,-129.026,-6.783037,0.0,0.0,0.0,0.0,0.0,0.0,0.0,14.91078,-130.01894,13.173777,0.0,0.0,0.0,0.0,0.0,0.0,0.0,1.4717321,44.969517,1.0756512,
1.0546874842839318,54,-0.045654297,0.81329346,0.41326904,-0.060546875,0.026367188,0.03125,0.0,0.0,0.0,0.0,0.0,0.0,0.0,0.0,0.0,0.0,0.0,-0.8226867,0.012935271,0.5685773,-0.963501,0.11364746,0.043029785,-0.09765625,0.0029296875,0.0146484375,2.7287872,-17.032164,0.2678002,11.771311,0.9831543,-0.20794678,-0.16156006,-0.068359375,0.0546875,0.053710938,0.6726035,-18.831194,-56.69755,13.128464,-0.48535156,-0.3085327,0.8354492,-0.0126953125,0.060546875,-9.765625E-4,6.9372063,-21.5378,-128.59424,16.299187,0.0,0.0,0.0,0.0,0.0,0.0,0.0,-23.291517,-127.59393,36.175472,0.0,0.0,0.0,0.0,0.0,0.0,0.0,0.8226867,-0.012935271,-0.5685773,-0.9180298,-0.0078125,-0.37225342,-0.022460938,0.016601562,0.016601562,0.76438266,17.032164,-0.2678002,-11.771311,1.0386353,-0.057922363,-0.10211182,-0.0390625,0.05859375,0.046875,5.1559033,15.882273,-57.25897,-12.7969055,0.39727783,-0.2654419,0.87908936,-0.0546875,0.029296875,0.07910156,7.5266557,15.787337,-129.02539,-6.7453785,0.0,0.0,0.0,0.0,0.0,0.0,0.0,14.891056,-130.02269,13.212961,0.0,0.0,0.0,0.0,0.0,0.0,0.0,1.4477746,44.969807,1.0717425,
1.0742187339928935,55,-0.036010742,0.8232422,0.45684814,-9.765625E-4,0.044921875,0.06640625,0.0,0.0,0.0,0.0,0.0,0.0,0.0,0.0,0.0,0.0,0.0,-0.82295555,0.012671791,0.5681181,-0.9790039,0.1161499,0.08087158,-0.022460938,0.0029296875,0.033203125,2.823691,-17.037733,0.2623454,11.761806,0.982605,-0.22747803,-0.17059326,0.026367188,0.053710938,0.056640625,0.7222634,-18.763187,-56.700256,13.193687,-0.4892578,-0.30529785,0.8067627,-0.049804688,0.025390625,0.017578125,6.912847,-21.491865,-128.58997,16.391516,0.0,0.0,0.0,0.0,0.0,0.0,0.0,-23.242435,-127.59245,36.26743,0.0,0.0,0.0,0.0,0.0,0.0,0.0,0.82295555,-0.012671791,-0.5681181,-0.9260254,-0.005004883,-0.3604126,-0.00390625,-0.00390625,0.016601562,0.80794036,17.037733,-0.2623454,-11.761806,1.0186157,-0.060668945,-0.10760498,-0.01953125,0.05859375,0.083984375,5.1150413,15.919249,-57.249958,-12.757229,0.4013672,-0.27746582,0.87023926,-0.016601562,0.028320312,0.041015625,7.495147,15.82366,-129.00728,-6.712986,0.0,0.0,0.0,0.0,0.0,0.0,0.0,14.946696,-130.00652,13.245195,0.0,0.0,0.0,0.0,0.0,0.0,0.0,1.4420086,44.967716,1.0858438,
1.0937499837018552,56,-0.058410645,0.803833,0.43640137,-0.021484375,0.0068359375,0.06640625,0.0,0.0,0.0,0.0,0.0,0.0,0.0,0.0,0.0,0.0,0.0,-0.82273597,0.012856888,0.56842387,-0.9838867,0.103271484,0.04083252,-0.041015625,-0.03515625,0.013671875,2.8612232,-17.033184,0.26617745,11.768136,0.9921875,-0.21020508,-0.16760254,0.06347656,0.053710938,0.038085938,0.72063607,-18.73949,-56.693916,13.240162,-0.4765625,-0.32159424,0.83551025,-0.03125,0.024414062,-9.765625E-4,6.872895,-21.46571,-128.58308,16.437675,0.0,0.0,0.0,0.0,0.0,0.0,0.0,-23.228836,-127.59099,36.31382,0.0,0.0,0.0,0.0,0.0,0.0,0.0,0.82273597,-0.012856888,-0.56842387,-0.92889404,0.009460449,-0.34851074,-0.041992188,0.016601562,0.038085938,0.85156816,17.033184,-0.26617745,-11.768136,1.0405273,-0.063964844,-0.10900879,-0.05859375,0.07714844,0.06542969,5.023792,15.929814,-57.25556,-12.71845,0.41137695,-0.3057251,0.88494873,-0.016601562,0.029296875,0.022460938,7.424759,15.854207,-129.02069,-6.7337904,0.0,0.0,0.0,0.0,0.0,0.0,0.0,14.981359,-130.01591,13.225293,0.0,0.0,0.0,0.0,0.0,0.0,0.0,1.4507285,44.967304,1.0826901,
1.1132812334108169,57,-0.041992188,0.8154907,0.45794678,-0.041015625,0.025390625,0.03125,0.0,0.0,0.0,0.0,0.0,0.0,0.0,0.0,0.0,0.0,0.0,-0.822548,0.013165934,0.5687557,-0.9805908,0.09124756,-0.0012207031,-0.07910156,0.0029296875,0.033203125,2.794423,-17.029295,0.27257562,11.775006,0.9906006,-0.1965332,-0.15063477,0.0068359375,0.03515625,0.037109375,0.74703425,-18.724072,-56.69298,13.181598,-0.46795654,-0.29608154,0.8017578,-0.01171875,0.0234375,-0.01953125,6.846733,-21.43678,-128.58252,16.368004,0.0,0.0,0.0,0.0,0.0,0.0,0.0,-23.200771,-127.59129,36.244328,0.0,0.0,0.0,0.0,0.0,0.0,0.0,0.822548,-0.013165934,-0.5687557,-0.9301758,-0.013977051,-0.39093018,-0.041992188,0.055664062,0.017578125,0.8943809,17.029295,-0.27257562,-11.775006,1.0326538,-0.061828613,-0.101989746,-0.078125,0.059570312,0.028320312,4.9973598,15.954896,-57.267204,-12.723388,0.4033203,-0.29541016,0.8652954,-0.016601562,0.028320312,0.041015625,7.4217186,15.887014,-129.03152,-6.7646794,0.0,0.0,0.0,0.0,0.0,0.0,0.0,15.002297,-130.02676,13.192724,0.0,0.0,0.0,0.0,0.0,0.0,0.0,1.4669633,44.96854,1.0805957,
1.1328124831197786,58,-0.07647705,0.83221436,0.45202637,-0.040039062,0.045898438,0.06738281,0.0,0.0,0.0,0.0,0.0,0.0,0.0,0.0,0.0,0.0,0.0,-0.82250226,0.013628601,0.5688771,-0.98187256,0.09649658,0.036743164,-0.060546875,0.021484375,0.033203125,2.7150514,-17.028347,0.2821543,11.77752,0.9914551,-0.19940186,-0.17456055,-0.05078125,0.016601562,0.03515625,0.75121355,-18.728106,-56.683975,13.13172,-0.49645996,-0.31402588,0.81469727,0.0068359375,0.0234375,0.0,6.831103,-21.424139,-128.58118,16.300863,0.0,0.0,0.0,0.0,0.0,0.0,0.0,-23.199316,-127.58943,36.175316,0.0,0.0,0.0,0.0,0.0,0.0,0.0,0.82250226,-0.013628601,-0.5688771,-0.93322754,-0.016784668,-0.39294434,-0.080078125,-9.765625E-4,-0.0029296875,0.87826437,17.028347,-0.2821543,-11.77752,1.0205078,-0.06567383,-0.113586426,-0.01953125,0.05859375,0.06542969,4.993516,15.934953,-57.27225,-12.722697,0.4177246,-0.27581787,0.87506104,-0.0546875,0.029296875,0.041992188,7.384746,15.885328,-129.03976,-6.772883,0.0,0.0,0.0,0.0,0.0,0.0,0.0,15.010115,-130.03323,13.186165,0.0,0.0,0.0,0.0,0.0,0.0,0.0,1.4776666,44.97039,1.0591049,
1.1523437328287403,59,-0.04437256,0.8362427,0.43927002,-0.020507812,0.064453125,0.06738281,0.0,0.0,0.0,0.0,0.0,0.0,0.0,0.0,0.0,0.0,0.0,-0.8230463,0.01357934,0.56815904,-0.96258545,0.11151123,0.053955078,-0.022460938,0.0029296875,0.052734375,2.751148,-17.039612,0.28113446,11.762653,0.9830322,-0.21289062,-0.15161133,-0.01171875,0.03515625,0.055664062,0.73807466,-18.703894,-56.6865,13.170835,-0.5153198,-0.30255127,0.80877686,-0.049804688,0.025390625,-9.765625E-4,6.8158684,-21.375324,-128.58014,16.337317,0.0,0.0,0.0,0.0,0.0,0.0,0.0,-23.158876,-127.600494,36.212814,0.0,0.0,0.0,0.0,0.0,0.0,0.0,0.8230463,-0.01357934,-0.56815904,-0.932312,-0.022277832,-0.36938477,-0.060546875,0.056640625,-0.0029296875,0.8643403,17.039612,-0.28113446,-11.762653,1.0523071,-0.08508301,-0.1081543,0.0,0.057617188,0.06542969,4.9952025,15.952003,-57.270657,-12.69377,0.41674805,-0.2816162,0.85931396,-0.016601562,0.028320312,0.060546875,7.3928447,15.9044,-129.0436,-6.722551,0.0,0.0,0.0,0.0,0.0,0.0,0.0,15.03274,-130.03864,13.235781,0.0,0.0,0.0,0.0,0.0,0.0,0.0,1.4627982,44.972977,1.0441573,
1.171874982537702,60,-0.046447754,0.8163452,0.4262085,-0.040039062,0.044921875,0.048828125,0.0,0.0,0.0,0.0,0.0,0.0,0.0,0.0,0.0,0.0,0.0,-0.8236741,0.01343104,0.5670941,-0.97180176,0.11248779,0.06188965,-0.041015625,-0.015625,0.033203125,2.8136208,-17.052608,0.27806416,11.740605,0.99450684,-0.23480225,-0.17871094,0.0068359375,0.015625,0.055664062,0.76053303,-18.69085,-56.684536,13.2181425,-0.47521973,-0.30682373,0.8186035,-0.01171875,0.005859375,0.018554688,6.851057,-21.383158,-128.58002,16.424086,0.0,0.0,0.0,0.0,0.0,0.0,0.0,-23.180496,-127.60684,36.29683,0.0,0.0,0.0,0.0,0.0,0.0,0.0,0.8236741,-0.01343104,-0.5670941,-0.8868408,-0.0022583008,-0.38208008,-0.0029296875,0.07421875,0.016601562,0.82329476,17.052608,-0.27806416,-11.740605,1.0405884,-0.046020508,-0.113098145,-0.0390625,0.05859375,0.06542969,5.0039415,15.956275,-57.265686,-12.700548,0.42797852,-0.29577637,0.8514404,-0.03515625,0.029296875,0.041015625,7.331869,15.928641,-129.03812,-6.761052,0.0,0.0,0.0,0.0,0.0,0.0,0.0,15.076446,-130.0322,13.198466,0.0,0.0,0.0,0.0,0.0,0.0,0.0,1.447895,44.969566,1.0379328,
1.1914062322466636,61,-0.044189453,0.8034668,0.440979,-0.020507812,0.044921875,0.048828125,0.0,0.0,0.0,0.0,0.0,0.0,0.0,0.0,0.0,0.0,0.0,-0.82391596,0.012893083,0.5668105,-0.9725952,0.10144043,0.023864746,-0.1171875,0.0029296875,0.033203125,2.840211,-17.057613,0.2669268,11.734735,0.9921875,-0.21124268,-0.16662598,0.024414062,0.03515625,0.018554688,0.77227765,-18.703505,-56.69577,13.194243,-0.49749756,-0.3121338,0.8374634,0.0068359375,0.005859375,0.018554688,6.864214,-21.412685,-128.59184,16.397648,0.0,0.0,0.0,0.0,0.0,0.0,0.0,-23.223637,-127.6255,36.270416,0.0,0.0,0.0,0.0,0.0,0.0,0.0,0.82391596,-0.012893083,-0.5668105,-0.9100342,-0.010070801,-0.36639404,-0.041992188,0.056640625,-0.0029296875,0.845804,17.057613,-0.2669268,-11.734735,1.0263062,-0.06378174,-0.124572754,-0.038085938,0.021484375,0.103515625,4.9676723,15.957091,-57.255768,-12.671219,0.41766357,-0.29174805,0.8711548,-0.03515625,0.029296875,0.00390625,7.2791758,15.944212,-129.02843,-6.7526293,0.0,0.0,0.0,0.0,0.0,0.0,0.0,15.0936985,-130.0182,13.207074,0.0,0.0,0.0,0.0,0.0,0.0,0.0,1.4424795,44.97031,1.0738614,
1.2109374819556253,62,-0.04510498,0.8065796,0.4500122,0.018554688,0.043945312,0.06640625,0.0,0.0,0.0,0.0,0.0,0.0,0.0,0.0,0.0,0.0,0.0,-0.8234627,0.013321402,0.5673824,-0.97991943,0.10107422,0.050720215,-0.09765625,0.059570312,0.034179688,2.7768557,-17.048231,0.2757943,11.746574,0.99572754,-0.19372559,-0.16259766,0.043945312,0.034179688,0.038085938,0.7890712,-18.69009,-56.69092,13.166257,-0.48950195,-0.31726074,0.82458496,-0.03125,0.024414062,0.017578125,6.889313,-21.397078,-128.58339,16.362976,0.0,0.0,0.0,0.0,0.0,0.0,0.0,-23.224434,-127.63315,36.232594,0.0,0.0,0.0,0.0,0.0,0.0,0.0,0.8234627,-0.013321402,-0.5673824,-0.91400146,-0.004211426,-0.36340332,-0.060546875,-0.001953125,-0.0029296875,0.8474219,17.048231,-0.2757943,-11.746574,1.0356445,-0.06188965,-0.10205078,-0.057617188,0.05859375,0.06640625,4.9326463,15.932405,-57.26685,-12.654646,0.40533447,-0.28961182,0.88500977,-0.0546875,0.0107421875,0.041992188,7.2369533,15.94218,-129.04143,-6.7537875,0.0,0.0,0.0,0.0,0.0,0.0,0.0,15.085751,-130.02786,13.206598,0.0,0.0,0.0,0.0,0.0,0.0,0.0,1.45397,44.968445,1.0543989,
1.230468731664587,63,-0.028320312,0.83880615,0.43389893,-0.040039062,0.064453125,0.06738281,0.0,0.0,0.0,0.0,0.0,0.0,0.0,0.0,0.0,0.0,0.0,-0.8236802,0.013667941,0.56715184,-0.9871826,0.09899902,0.06665039,-0.060546875,0.0029296875,0.0146484375,2.790708,-17.052734,0.28296876,11.741801,0.9735718,-0.19195557,-0.13848877,-0.0126953125,0.016601562,0.036132812,0.73966366,-18.677538,-56.686005,13.202972,-0.48260498,-0.32904053,0.7860718,-0.01171875,0.0234375,-0.01953125,6.774913,-21.323658,-128.57962,16.393974,0.0,0.0,0.0,0.0,0.0,0.0,0.0,-23.153088,-127.64094,36.267212,0.0,0.0,0.0,0.0,0.0,0.0,0.0,0.8236802,-0.013667941,-0.56715184,-0.90893555,-7.324219E-4,-0.38793945,-0.11816406,0.01953125,0.018554688,0.8402332,17.052734,-0.28296876,-11.741801,1.0405884,-0.06097412,-0.10510254,-0.07714844,0.059570312,0.06640625,4.89581,15.913784,-57.274048,-12.601405,0.40734863,-0.30548096,0.86431885,-0.0546875,0.0107421875,0.060546875,7.2445946,15.947841,-129.05066,-6.698552,0.0,0.0,0.0,0.0,0.0,0.0,0.0,15.078264,-130.0393,13.260978,0.0,0.0,0.0,0.0,0.0,0.0,0.0,1.45648,44.971283,1.0314854,
1.2499999813735487,64,-0.06274414,0.83862305,0.42285156,-0.038085938,0.123046875,0.10449219,0.0,0.0,0.0,0.0,0.0,0.0,0.0,0.0,0.0,0.0,0.0,-0.82441914,0.0131580755,0.5661062,-0.98999023,0.08886719,0.034606934,-0.07910156,-0.0546875,0.051757812,2.794213,-17.068031,0.27241296,11.720154,0.9985962,-0.19873047,-0.1696167,0.005859375,0.016601562,0.017578125,0.7631016,-18.648066,-56.69856,13.155666,-0.48034668,-0.30963135,0.8206177,-0.01171875,0.005859375,0.018554688,6.741831,-21.25834,-128.59187,16.342157,0.0,0.0,0.0,0.0,0.0,0.0,0.0,-23.100021,-127.65235,36.215252,0.0,0.0,0.0,0.0,0.0,0.0,0.0,0.82441914,-0.0131580755,-0.5661062,-0.9139404,9.1552734E-4,-0.37316895,-0.041992188,-0.001953125,-0.0029296875,0.87960017,17.068031,-0.27241296,-11.720154,1.0131836,-0.059509277,-0.0769043,-0.0390625,0.095703125,0.06542969,4.932249,15.954054,-57.26344,-12.544057,0.411438,-0.29974365,0.88201904,-0.0546875,0.029296875,0.041992188,7.259366,16.03877,-129.03117,-6.5540605,0.0,0.0,0.0,0.0,0.0,0.0,0.0,15.165638,-130.01035,13.406265,0.0,0.0,0.0,0.0,0.0,0.0,0.0,1.4407966,44.97172,1.0529454,
1.2695312310825104,65,-0.03643799,0.8230591,0.4260254,-0.040039062,0.045898438,0.0859375,0.0,0.0,0.0,0.0,0.0,0.0,0.0,0.0,0.0,0.0,0.0,-0.8251635,0.012887977,0.56480885,-0.9737549,0.106933594,0.046875,-0.09765625,-0.015625,-0.0048828125,2.7755158,-17.08344,0.2668211,11.693295,0.99554443,-0.19958496,-0.16064453,-0.049804688,0.0546875,0.053710938,0.765917,-18.632694,-56.700413,13.0987625,-0.49743652,-0.31396484,0.81469727,-0.01171875,0.024414062,0.018554688,6.646175,-21.195335,-128.60258,16.277935,0.0,0.0,0.0,0.0,0.0,0.0,0.0,-23.037716,-127.67041,36.150642,0.0,0.0,0.0,0.0,0.0,0.0,0.0,0.8251635,-0.012887977,-0.56480885,-0.9036255,0.016601562,-0.37994385,-0.00390625,0.03515625,0.037109375,0.88558626,17.08344,-0.2668211,-11.693295,1.0212402,-0.053649902,-0.07116699,-0.057617188,0.040039062,0.06640625,4.928395,15.993116,-57.26111,-12.528013,0.42181396,-0.291687,0.85736084,-0.016601562,0.028320312,0.041015625,7.24213,16.096748,-129.02914,-6.5542417,0.0,0.0,0.0,0.0,0.0,0.0,0.0,15.211144,-130.00868,13.405149,0.0,0.0,0.0,0.0,0.0,0.0,0.0,1.4282604,44.966396,1.0605755,
1.2890624807914721,66,-0.06311035,0.8110962,0.46343994,0.017578125,0.024414062,0.047851562,0.0,0.0,0.0,0.0,0.0,0.0,0.0,0.0,0.0,0.0,0.0,-0.8246907,0.013278924,0.5656148,-0.9716797,0.12701416,0.06414795,-0.07910156,0.041015625,0.034179688,2.7886732,-17.073654,0.27491492,11.70998,0.98828125,-0.20513916,-0.17352295,-0.032226562,0.016601562,0.036132812,0.7623319,-18.622906,-56.69309,13.131267,-0.47338867,-0.31573486,0.8166504,-0.01171875,0.024414062,0.037109375,6.647414,-21.194927,-128.58977,16.296297,0.0,0.0,0.0,0.0,0.0,0.0,0.0,-23.045162,-127.66197,36.16761,0.0,0.0,0.0,0.0,0.0,0.0,0.0,0.8246907,-0.013278924,-0.5656148,-0.9069214,-0.0036010742,-0.39385986,-0.041992188,0.055664062,0.017578125,0.8906538,17.073654,-0.27491492,-11.70998,1.0206909,-0.049682617,-0.10870361,-0.057617188,0.05859375,0.06640625,4.9532957,15.991626,-57.26584,-12.581641,0.39715576,-0.29138184,0.8721924,-0.016601562,0.009765625,0.022460938,7.221647,16.089289,-129.03513,-6.6187,0.0,0.0,0.0,0.0,0.0,0.0,0.0,15.196683,-130.00737,13.340502,0.0,0.0,0.0,0.0,0.0,0.0,0.0,1.4486953,44.96902,1.0565233,
1.3085937305004338,67,-0.042419434,0.8192749,0.42816162,-0.001953125,0.025390625,0.047851562,0.0,0.0,0.0,0.0,0.0,0.0,0.0,0.0,0.0,0.0,0.0,-0.8250774,0.013133588,0.5650662,-0.9829712,0.10784912,0.05682373,-0.060546875,0.0029296875,0.033203125,2.8270164,-17.08166,0.271906,11.698623,0.9788208,-0.2164917,-0.17547607,0.0068359375,0.053710938,0.055664062,0.76795816,-18.622341,-56.69692,13.170474,-0.510437,-0.3086548,0.8137207,-0.03125,0.04296875,0.017578125,6.662502,-21.21319,-128.5957,16.351446,0.0,0.0,0.0,0.0,0.0,0.0,0.0,-23.06535,-127.67018,36.22275,0.0,0.0,0.0,0.0,0.0,0.0,0.0,0.8250774,-0.013133588,-0.5650662,-0.89294434,-0.010009766,-0.38110352,-0.080078125,0.038085938,0.017578125,0.8849231,17.08166,-0.271906,-11.698623,1.0206909,-0.076660156,-0.09667969,0.0,0.057617188,0.10253906,4.962779,16.010773,-57.2648,-12.557043,0.41351318,-0.30059814,0.86724854,-0.03515625,0.029296875,0.060546875,7.2142816,16.100113,-129.03265,-6.560212,0.0,0.0,0.0,0.0,0.0,0.0,0.0,15.223349,-130.00381,13.400228,0.0,0.0,0.0,0.0,0.0,0.0,0.0,1.433413,44.970024,1.0477691,
1.3281249802093955,68,-0.023254395,0.8347168,0.43475342,-0.020507812,0.044921875,0.048828125,0.0,0.0,0.0,0.0,0.0,0.0,0.0,0.0,0.0,0.0,0.0,-0.82506925,0.013428033,0.5650839,-0.9859619,0.09454346,0.040649414,-0.07910156,0.0029296875,0.0146484375,2.827432,-17.081493,0.27800196,11.698989,0.98394775,-0.21777344,-0.15563965,0.025390625,0.03515625,0.037109375,0.7589877,-18.615906,-56.689835,13.195188,-0.49554443,-0.31707764,0.83251953,-0.01171875,0.024414062,0.0,6.5600486,-21.183414,-128.59123,16.416897,0.0,0.0,0.0,0.0,0.0,0.0,0.0,-23.034561,-127.669586,36.289387,0.0,0.0,0.0,0.0,0.0,0.0,0.0,0.82506925,-0.013428033,-0.5650839,-0.89276123,0.0072631836,-0.36627197,-0.060546875,0.017578125,0.017578125,0.8959111,17.081493,-0.27800196,-11.698989,1.0384521,-0.06591797,-0.11193848,-0.0390625,0.05859375,0.06542969,4.9642005,16.029951,-57.271927,-12.549329,0.41986084,-0.27563477,0.8553467,-0.03515625,0.047851562,0.041015625,7.178924,16.136978,-129.0367,-6.539389,0.0,0.0,0.0,0.0,0.0,0.0,0.0,15.285343,-130.0094,13.421902,0.0,0.0,0.0,0.0,0.0,0.0,0.0,1.4360768,44.97072,1.028156,
1.3476562299183572,69,-0.068603516,0.8130493,0.4317627,-0.01953125,0.08300781,0.048828125,0.0,0.0,0.0,0.0,0.0,0.0,0.0,0.0,0.0,0.0,0.0,-0.82507795,0.013665025,0.5649448,-0.9788208,0.103149414,0.041809082,-0.07910156,0.022460938,0.0146484375,2.7767146,-17.08167,0.28290838,11.696109,1.0054932,-0.20288086,-0.17871094,-0.03125,0.0546875,0.03515625,0.7815963,-18.600298,-56.684,13.131025,-0.4956665,-0.3277588,0.8009033,-0.01171875,0.024414062,0.018554688,6.519238,-21.148746,-128.5868,16.343298,0.0,0.0,0.0,0.0,0.0,0.0,0.0,-23.010534,-127.672676,36.214554,0.0,0.0,0.0,0.0,0.0,0.0,0.0,0.82507795,-0.013665025,-0.5649448,-0.9199829,-0.0032348633,-0.35845947,-0.022460938,0.036132812,0.016601562,0.9663135,17.08167,-0.28290838,-11.696109,1.0128784,-0.0715332,-0.089660645,-0.07714844,0.078125,0.06640625,4.936894,16.063202,-57.274895,-12.505884,0.42163086,-0.3098755,0.88098145,-0.016601562,0.029296875,0.00390625,7.1722527,16.224329,-129.03702,-6.482696,0.0,0.0,0.0,0.0,0.0,0.0,0.0,15.3776,-130.00763,13.477732,0.0,0.0,0.0,0.0,0.0,0.0,0.0,1.452187,44.967014,1.0331842,
1.367187479627319,70,-0.052246094,0.8335571,0.45141602,0.016601562,-0.013671875,0.047851562,0.0,0.0,0.0,0.0,0.0,0.0,0.0,0.0,0.0,0.0,0.0,-0.825531,0.013623243,0.56422836,-0.97088623,0.101745605,0.061706543,-0.041015625,0.041015625,0.034179688,2.784599,-17.091051,0.2820434,11.681276,0.9892578,-0.2052002,-0.17059326,-0.0126953125,0.0546875,0.016601562,0.7730374,-18.595379,-56.687237,13.136513,-0.48114014,-0.3015747,0.7998047,-0.01171875,0.024414062,0.018554688,6.511774,-21.127827,-128.58488,16.34299,0.0,0.0,0.0,0.0,0.0,0.0,0.0,-22.997997,-127.68457,36.213318,0.0,0.0,0.0,0.0,0.0,0.0,0.0,0.825531,-0.013623243,-0.56422836,-0.9008789,-8.544922E-4,-0.38989258,-0.00390625,0.03515625,0.037109375,0.93230224,17.091051,-0.2820434,-11.681276,1.0366211,-0.07183838,-0.09802246,0.0,0.057617188,0.083984375,4.9818497,16.056297,-57.276394,-12.494337,0.40545654,-0.27349854,0.8712158,-0.016601562,0.029296875,0.022460938,7.21458,16.174536,-129.04001,-6.4122458,0.0,0.0,0.0,0.0,0.0,0.0,0.0,15.323427,-130.0059,13.547702,0.0,0.0,0.0,0.0,0.0,0.0,0.0,1.4414386,44.966183,1.0232856,
1.3867187293362806,71,-0.06542969,0.83392334,0.4487915,-0.041015625,0.026367188,0.048828125,0.0,0.0,0.0,0.0,0.0,0.0,0.0,0.0,0.0,0.0,0.0,-0.82563555,0.013943231,0.5641216,-0.9719238,0.11035156,0.073791504,-0.00390625,0.0029296875,0.052734375,2.8136904,-17.093218,0.28866813,11.679067,0.9871216,-0.21105957,-0.15661621,-0.05078125,0.036132812,0.03515625,0.8055148,-18.535501,-56.682377,13.182078,-0.503479,-0.31469727,0.79888916,-0.030273438,-0.06542969,0.018554688,6.5622897,-21.056484,-128.58115,16.398548,0.0,0.0,0.0,0.0,0.0,0.0,0.0,-22.951433,-127.68889,36.265045,0.0,0.0,0.0,0.0,0.0,0.0,0.0,0.82563555,-0.013943231,-0.5641216,-0.90979004,0.008239746,-0.35443115,-0.041992188,0.07519531,-0.0029296875,0.9377435,17.093218,-0.28866813,-11.679067,1.0244141,-0.093688965,-0.10455322,-0.01953125,0.05859375,0.06542969,4.968658,16.064924,-57.286278,-12.4712515,0.39624023,-0.2772827,0.8673096,-0.03515625,0.029296875,0.022460938,7.2279744,16.149387,-129.04456,-6.3710804,0.0,0.0,0.0,0.0,0.0,0.0,0.0,15.297679,-130.01083,13.589619,0.0,0.0,0.0,0.0,0.0,0.0,0.0,1.4440546,44.96795,1.0020256,
1.4062499790452423,72,-0.06359863,0.8317871,0.4317627,-0.021484375,0.026367188,0.06738281,0.0,0.0,0.0,0.0,0.0,0.0,0.0,0.0,0.0,0.0,0.0,-0.8262158,0.014255445,0.5631765,-0.9699707,0.07940674,0.057373047,-0.060546875,0.021484375,0.052734375,2.8177922,-17.105228,0.2951319,11.6595,0.9921875,-0.20922852,-0.1696167,0.0068359375,0.03515625,0.055664062,0.796476,-18.520382,-56.676693,13.198686,-0.49053955,-0.32196045,0.7959595,-0.01171875,0.005859375,0.0,6.447953,-21.00225,-128.57613,16.435917,0.0,0.0,0.0,0.0,0.0,0.0,0.0,-22.90053,-127.694725,36.304962,0.0,0.0,0.0,0.0,0.0,0.0,0.0,0.8262158,-0.014255445,-0.5631765,-0.9107666,0.012207031,-0.39666748,-0.080078125,-9.765625E-4,0.017578125,0.899399,17.105228,-0.2951319,-11.6595,1.024353,-0.06072998,-0.12451172,-0.0390625,0.1328125,0.064453125,4.968106,16.039776,-57.29033,-12.420376,0.3788452,-0.2828369,0.85357666,-0.036132812,0.009765625,0.022460938,7.2192564,16.167494,-129.04616,-6.3010025,0.0,0.0,0.0,0.0,0.0,0.0,0.0,15.31156,-130.00479,13.660561,0.0,0.0,0.0,0.0,0.0,0.0,0.0,1.4399672,44.966484,0.97430634,
1.425781228754204,73,-0.04937744,0.8065796,0.43518066,0.017578125,0.005859375,0.047851562,0.0,0.0,0.0,0.0,0.0,0.0,0.0,0.0,0.0,0.0,0.0,-0.82569396,0.015111383,0.5641881,-0.9918213,0.094055176,0.014770508,-0.07910156,0.059570312,0.034179688,2.7000139,-17.094423,0.31285247,11.680443,1.0145264,-0.20819092,-0.1628418,-0.06933594,0.055664062,0.034179688,0.8047857,-18.505287,-56.6559,13.169104,-0.47833252,-0.31256104,0.8048096,-0.049804688,-0.0107421875,0.017578125,6.477082,-20.981735,-128.56296,16.376772,0.0,0.0,0.0,0.0,0.0,0.0,0.0,-22.893084,-127.68068,36.243404,0.0,0.0,0.0,0.0,0.0,0.0,0.0,0.82569396,-0.015111383,-0.5641881,-0.92211914,-0.011779785,-0.4076538,-0.060546875,0.017578125,-0.0029296875,0.83976734,17.094423,-0.31285247,-11.680443,0.9972534,-0.049316406,-0.07965088,-0.07714844,0.041015625,0.08496094,4.9937124,15.9991255,-57.305492,-12.460395,0.38494873,-0.2770996,0.86932373,-0.053710938,0.06738281,0.041992188,7.2086773,16.15167,-129.06044,-6.3463526,0.0,0.0,0.0,0.0,0.0,0.0,0.0,15.291689,-130.0216,13.614993,0.0,0.0,0.0,0.0,0.0,0.0,0.0,1.4506841,44.974148,0.9184872,
1.4453124784631657,74,-0.023986816,0.84381104,0.45770264,-0.040039062,0.044921875,0.048828125,0.0,0.0,0.0,0.0,0.0,0.0,0.0,0.0,0.0,0.0,0.0,-0.82585496,0.0150589645,0.56391054,-0.97979736,0.12054443,0.05303955,-0.041015625,0.041015625,0.0146484375,2.713032,-17.09776,0.31176725,11.674696,0.97906494,-0.21374512,-0.13360596,-0.049804688,0.03515625,0.0546875,0.7597608,-18.529472,-56.655907,13.167307,-0.48931885,-0.3102417,0.8048096,-0.01171875,0.07910156,0.036132812,6.4361434,-20.964157,-128.55948,16.395998,0.0,0.0,0.0,0.0,0.0,0.0,0.0,-22.888103,-127.68963,36.261856,0.0,0.0,0.0,0.0,0.0,0.0,0.0,0.82585496,-0.0150589645,-0.56391054,-0.93200684,0.0014648438,-0.34069824,-0.00390625,0.0546875,0.016601562,0.88115597,17.09776,-0.31176725,-11.674696,1.0324097,-0.07183838,-0.11279297,-0.07714844,0.059570312,0.08496094,5.029911,16.042377,-57.30526,-12.462212,0.40130615,-0.2894287,0.8692627,-0.0546875,0.0107421875,0.041992188,7.21662,16.19896,-129.0585,-6.300565,0.0,0.0,0.0,0.0,0.0,0.0,0.0,15.356436,-130.01576,13.661517,0.0,0.0,0.0,0.0,0.0,0.0,0.0,1.45357,44.972763,0.9277973,
1.4648437281721274,75,-0.04937744,0.8255005,0.43933105,-0.001953125,0.025390625,0.06640625,0.0,0.0,0.0,0.0,0.0,0.0,0.0,0.0,0.0,0.0,0.0,-0.8259531,0.0152870305,0.56376827,-0.98217773,0.12084961,0.09387207,0.015625,0.022460938,0.0146484375,2.7669692,-17.09979,0.31648892,11.671751,0.9788208,-0.22253418,-0.13562012,-0.049804688,0.03515625,0.0546875,0.7654059,-18.523615,-56.651283,13.2151165,-0.4968872,-0.28051758,0.8156128,-0.03125,0.061523438,0.036132812,6.4026966,-20.966076,-128.54999,16.48249,0.0,0.0,0.0,0.0,0.0,0.0,0.0,-22.877802,-127.68362,36.349014,0.0,0.0,0.0,0.0,0.0,0.0,0.0,0.8259531,-0.0152870305,-0.56376827,-0.9168091,0.010437012,-0.40063477,0.015625,0.03515625,0.016601562,0.9159984,17.09979,-0.31648892,-11.671751,1.0167236,-0.057617188,-0.10467529,-0.0390625,0.05859375,0.06542969,5.004372,16.063742,-57.310993,-12.45119,0.40325928,-0.3053589,0.859375,-0.016601562,0.028320312,0.060546875,7.213275,16.229986,-129.06221,-6.3092065,0.0,0.0,0.0,0.0,0.0,0.0,0.0,15.371695,-130.01909,13.652325,0.0,0.0,0.0,0.0,0.0,0.0,0.0,1.4656154,44.97257,0.92774415,
1.484374977881089,76,-0.04840088,0.80352783,0.43017578,-0.001953125,0.025390625,0.06640625,0.0,0.0,0.0,0.0,0.0,0.0,0.0,0.0,0.0,0.0,0.0,-0.825899,0.015659299,0.56374186,-0.98321533,0.09399414,0.072509766,-0.00390625,0.0029296875,0.033203125,2.8134818,-17.098671,0.32419607,11.671205,0.97180176,-0.21936035,-0.13458252,-0.0126953125,0.015625,0.055664062,0.81132394,-18.481844,-56.646576,13.277307,-0.50231934,-0.30499268,0.8216553,-0.01171875,0.041992188,0.017578125,6.352769,-20.939648,-128.54283,16.611774,0.0,0.0,0.0,0.0,0.0,0.0,0.0,-22.84316,-127.678024,36.479504,0.0,0.0,0.0,0.0,0.0,0.0,0.0,0.825899,-0.015659299,-0.56374186,-0.90148926,0.029174805,-0.3768921,-0.00390625,0.015625,0.037109375,0.9408684,17.098671,-0.32419607,-11.671205,1.022522,-0.097595215,-0.097595215,-0.057617188,0.05859375,0.06640625,4.978152,16.075895,-57.318745,-12.415829,0.4052124,-0.31744385,0.86828613,-0.0546875,0.0107421875,0.022460938,7.1946206,16.245941,-129.07848,-6.260021,0.0,0.0,0.0,0.0,0.0,0.0,0.0,15.404692,-130.03352,13.701233,0.0,0.0,0.0,0.0,0.0,0.0,0.0,1.4728761,44.97029,0.90864927,
1.5039062275900508,77,-0.06518555,0.8121338,0.45855713,-0.041015625,0.026367188,0.06738281,0.0,0.0,0.0,0.0,0.0,0.0,0.0,0.0,0.0,0.0,0.0,-0.8256288,0.016070245,0.56411135,-0.97888184,0.09063721,0.03564453,-0.041015625,0.0029296875,0.033203125,2.782419,-17.093077,0.3327039,11.678854,0.9884033,-0.19927979,-0.1795044,-0.01171875,0.03515625,0.055664062,0.82495683,-18.47635,-56.635002,13.27412,-0.4902954,-0.30822754,0.8067627,0.0068359375,0.0234375,-0.018554688,6.347582,-20.942795,-128.52579,16.622097,0.0,0.0,0.0,0.0,0.0,0.0,0.0,-22.8514,-127.65874,36.49211,0.0,0.0,0.0,0.0,0.0,0.0,0.0,0.8256288,-0.016070245,-0.56411135,-0.9033203,-0.033325195,-0.38031006,-0.080078125,-9.765625E-4,0.017578125,0.94066036,17.093077,-0.3327039,-11.678854,1.0007935,-0.055419922,-0.107299805,-0.0390625,0.05859375,0.06542969,5.014033,16.084595,-57.3283,-12.465301,0.41351318,-0.3045044,0.85736084,-0.016601562,0.028320312,0.041015625,7.211942,16.240728,-129.08345,-6.309604,0.0,0.0,0.0,0.0,0.0,0.0,0.0,15.394756,-130.04288,13.651506,0.0,0.0,0.0,0.0,0.0,0.0,0.0,1.4837298,44.96993,0.8904842,
1.5234374772990125,78,-0.056396484,0.8226929,0.43945312,-0.041015625,0.025390625,0.03125,0.0,0.0,0.0,0.0,0.0,0.0,0.0,0.0,0.0,0.0,0.0,-0.82608515,0.016411409,0.563362,-0.98583984,0.09472656,0.028747559,-0.041015625,0.041015625,0.034179688,2.6915185,-17.102526,0.33976698,11.66334,0.9902954,-0.20831299,-0.1427002,-0.03125,0.03515625,0.036132812,0.78807867,-18.522717,-56.632862,13.198575,-0.48132324,-0.31237793,0.79193115,-0.01171875,0.060546875,0.036132812,6.367043,-20.955685,-128.5302,16.53467,0.0,0.0,0.0,0.0,0.0,0.0,0.0,-22.888393,-127.66649,36.40171,0.0,0.0,0.0,0.0,0.0,0.0,0.0,0.82608515,-0.016411409,-0.563362,-0.911499,-0.0435791,-0.3951416,-0.022460938,-0.0029296875,0.016601562,0.9168525,17.102526,-0.33976698,-11.66334,1.008606,-0.07147217,-0.109313965,-0.057617188,0.040039062,0.06640625,5.0397563,16.090744,-57.333073,-12.4976425,0.42175293,-0.29388428,0.8770752,-0.0546875,0.029296875,0.041992188,7.218604,16.223415,-129.08728,-6.36543,0.0,0.0,0.0,0.0,0.0,0.0,0.0,15.36673,-130.04921,13.59554,0.0,0.0,0.0,0.0,0.0,0.0,0.0,1.4867432,44.96843,0.8701001,
1.5429687270079742,79,-0.04510498,0.8394165,0.45825195,-0.022460938,-0.0126953125,0.048828125,0.0,0.0,0.0,0.0,0.0,0.0,0.0,0.0,0.0,0.0,0.0,-0.8254077,0.017173767,0.56454295,-0.9840698,0.10284424,0.06567383,-0.00390625,0.022460938,0.0146484375,2.6149406,-17.088495,0.35555023,11.687789,0.97436523,-0.1977539,-0.1574707,-0.05078125,0.016601562,0.03515625,0.79721266,-18.485735,-56.612484,13.201801,-0.50335693,-0.3088379,0.80584717,-0.01171875,0.041992188,-9.765625E-4,6.401165,-20.90197,-128.51495,16.511831,0.0,0.0,0.0,0.0,0.0,0.0,0.0,-22.836418,-127.65735,36.377785,0.0,0.0,0.0,0.0,0.0,0.0,0.0,0.8254077,-0.017173767,-0.56454295,-0.90026855,-0.03112793,-0.39404297,0.015625,0.07421875,0.016601562,0.89656615,17.088495,-0.35555023,-11.687789,1.0241699,-0.0836792,-0.123413086,-0.078125,0.078125,0.046875,5.0844593,16.072453,-57.3497,-12.583409,0.40423584,-0.3173828,0.8604126,-0.016601562,0.009765625,0.00390625,7.218522,16.224478,-129.11179,-6.4758496,0.0,0.0,0.0,0.0,0.0,0.0,0.0,15.36704,-130.07701,13.48452,0.0,0.0,0.0,0.0,0.0,0.0,0.0,1.4969255,44.974403,0.8204756,
1.5624999767169359,80,-0.061706543,0.81274414,0.4206543,-0.041992188,-0.01171875,0.048828125,0.0,0.0,0.0,0.0,0.0,0.0,0.0,0.0,0.0,0.0,0.0,-0.8248531,0.017136075,0.56531185,-0.97491455,0.11340332,0.067871094,-0.00390625,0.022460938,0.033203125,2.6571913,-17.077017,0.35476992,11.703708,0.9758301,-0.2164917,-0.1585083,-0.0126953125,0.015625,0.055664062,0.83462524,-18.438108,-56.616295,13.244859,-0.49017334,-0.300354,0.80773926,-0.01171875,0.041992188,0.017578125,6.4467063,-20.877258,-128.51279,16.55165,0.0,0.0,0.0,0.0,0.0,0.0,0.0,-22.825321,-127.66202,36.417564,0.0,0.0,0.0,0.0,0.0,0.0,0.0,0.8248531,-0.017136075,-0.56531185,-0.92523193,-0.021118164,-0.3821411,0.015625,0.015625,0.037109375,0.9236568,17.077017,-0.35476992,-11.703708,1.0083618,-0.084472656,-0.117126465,-0.09667969,0.041015625,0.06640625,5.1078734,16.083832,-57.34738,-12.606955,0.41351318,-0.30059814,0.8642578,-0.0546875,0.0107421875,0.00390625,7.270924,16.194487,-129.10162,-6.4651384,0.0,0.0,0.0,0.0,0.0,0.0,0.0,15.344539,-130.07002,13.496345,0.0,0.0,0.0,0.0,0.0,0.0,0.0,1.5006328,44.973095,0.8263389,
1.5820312264258976,81,-0.046203613,0.8314209,0.45025635,0.017578125,0.005859375,0.047851562,0.0,0.0,0.0,0.0,0.0,0.0,0.0,0.0,0.0,0.0,0.0,-0.82536685,0.01695761,0.5646793,-0.97369385,0.10601807,0.04284668,-0.022460938,0.041015625,0.034179688,2.6712976,-17.087652,0.35107517,11.690612,0.97839355,-0.20092773,-0.13952637,-0.01171875,0.03515625,0.07421875,0.8038125,-18.480528,-56.61517,13.251225,-0.49908447,-0.29327393,0.8156738,-0.01171875,0.041992188,0.017578125,6.4741745,-20.922573,-128.5086,16.568132,0.0,0.0,0.0,0.0,0.0,0.0,0.0,-22.88588,-127.66239,36.431736,0.0,0.0,0.0,0.0,0.0,0.0,0.0,0.82536685,-0.01695761,-0.5646793,-0.9380493,-0.0025634766,-0.37121582,0.015625,0.015625,0.057617188,0.94190764,17.087652,-0.35107517,-11.690612,1.0350952,-0.097839355,-0.121520996,-0.057617188,0.05859375,0.06640625,5.1083717,16.11886,-57.34281,-12.563931,0.38684082,-0.29119873,0.8791504,-0.03515625,0.029296875,0.041015625,7.3097043,16.204685,-129.09106,-6.3732224,0.0,0.0,0.0,0.0,0.0,0.0,0.0,15.354061,-130.06131,13.588333,0.0,0.0,0.0,0.0,0.0,0.0,0.0,1.4913099,44.97621,0.82912314,
1.6015624761348592,82,-0.0625,0.83477783,0.4397583,0.055664062,-0.0146484375,0.046875,0.0,0.0,0.0,0.0,0.0,0.0,0.0,0.0,0.0,0.0,0.0,-0.8254649,0.017187294,0.564228,-0.99591064,0.092163086,0.016723633,-0.022460938,0.0029296875,0.0146484375,2.6075947,-17.089682,0.3558303,11.681269,1.0079956,-0.18933105,-0.15472412,-0.06933594,0.016601562,0.053710938,0.75485146,-18.536036,-56.610645,13.194914,-0.48840332,-0.31518555,0.8048096,-0.049804688,0.025390625,0.017578125,6.4312367,-20.964937,-128.50925,16.47728,0.0,0.0,0.0,0.0,0.0,0.0,0.0,-22.936287,-127.66965,36.33716,0.0,0.0,0.0,0.0,0.0,0.0,0.0,0.8254649,-0.017187294,-0.564228,-0.9008789,-8.544922E-4,-0.38891602,-0.041992188,-0.080078125,0.016601562,0.96732545,17.089682,-0.3558303,-11.681269,0.99975586,-0.057373047,-0.107299805,-0.057617188,0.040039062,0.046875,5.123576,16.134392,-57.351532,-12.528812,0.41351318,-0.28875732,0.8800049,-0.03515625,0.029296875,0.060546875,7.305865,16.247164,-129.09416,-6.288207,0.0,0.0,0.0,0.0,0.0,0.0,0.0,15.408865,-130.05907,13.673005,0.0,0.0,0.0,0.0,0.0,0.0,0.0,1.4979708,44.96848,0.82171726,
1.621093725843821,83,-0.052490234,0.81555176,0.4303589,-0.0625,-0.030273438,0.06738281,0.0,0.0,0.0,0.0,0.0,0.0,0.0,0.0,0.0,0.0,0.0,-0.82528615,0.017058287,0.5645203,-0.9790039,0.111450195,0.06982422,-0.022460938,0.041015625,0.034179688,2.6280074,-17.085981,0.35315946,11.687321,0.9828491,-0.21765137,-0.17755127,-0.06933594,0.055664062,0.015625,0.76463854,-18.521553,-56.613907,13.217131,-0.48724365,-0.30541992,0.81762695,-0.01171875,0.024414062,0.018554688,6.5322795,-20.963713,-128.51698,16.488548,0.0,0.0,0.0,0.0,0.0,0.0,0.0,-22.936455,-127.68161,36.352417,0.0,0.0,0.0,0.0,0.0,0.0,0.0,0.82528615,-0.017058287,-0.5645203,-0.93829346,-0.019226074,-0.37036133,-0.080078125,0.018554688,0.038085938,0.9691444,17.085981,-0.35315946,-11.687321,1.020813,-0.06567383,-0.093811035,-0.038085938,0.040039062,0.08496094,5.131791,16.133617,-57.35177,-12.516432,0.41766357,-0.291687,0.8652344,-0.034179688,0.08691406,-0.0146484375,7.3375664,16.24925,-129.09085,-6.241943,0.0,0.0,0.0,0.0,0.0,0.0,0.0,15.415329,-130.06047,13.719751,0.0,0.0,0.0,0.0,0.0,0.0,0.0,1.493475,44.969254,0.8244975,
1.6406249755527826,84,-0.0602417,0.82489014,0.4584961,-0.08105469,0.0078125,0.049804688,0.0,0.0,0.0,0.0,0.0,0.0,0.0,0.0,0.0,0.0,0.0,-0.82477087,0.0179107,0.5653613,-0.9720459,0.10626221,0.0847168,0.0146484375,0.021484375,0.052734375,2.7075431,-17.075312,0.37080702,11.704733,0.9803467,-0.23620605,-0.16760254,-0.0126953125,0.016601562,0.036132812,0.7979487,-18.479094,-56.596226,13.29045,-0.4915161,-0.3209839,0.8018799,-0.03125,0.0068359375,0.018554688,6.5644116,-20.943022,-128.49828,16.587847,0.0,0.0,0.0,0.0,0.0,0.0,0.0,-22.928692,-127.666756,36.45063,0.0,0.0,0.0,0.0,0.0,0.0,0.0,0.82477087,-0.0179107,-0.5653613,-0.8920288,-0.01586914,-0.3821411,-0.00390625,0.03515625,0.016601562,0.9970111,17.075312,-0.37080702,-11.704733,1.0083008,-0.08148193,-0.12109375,-0.09667969,0.09667969,0.08496094,5.1729,16.0878,-57.367733,-12.547606,0.4177246,-0.2935791,0.8514404,-0.036132812,0.009765625,0.022460938,7.3693986,16.206892,-129.1055,-6.247187,0.0,0.0,0.0,0.0,0.0,0.0,0.0,15.3696,-130.07584,13.7142105,0.0,0.0,0.0,0.0,0.0,0.0,0.0,1.5449994,44.970356,0.82923925,
1.6601562252617443,85,-0.046081543,0.84539795,0.46429443,-0.059570312,0.046875,0.0859375,0.0,0.0,0.0,0.0,0.0,0.0,0.0,0.0,0.0,0.0,0.0,-0.824735,0.017547011,0.5653911,-0.97888184,0.09625244,0.046691895,-0.022460938,0.0029296875,0.052734375,2.7913394,-17.074574,0.36327755,11.705351,0.9835205,-0.19421387,-0.16247559,0.0068359375,0.015625,0.055664062,0.83204234,-18.438839,-56.60447,13.3382015,-0.48132324,-0.31341553,0.80285645,0.0068359375,0.0234375,0.018554688,6.5555334,-20.914248,-128.50166,16.642391,0.0,0.0,0.0,0.0,0.0,0.0,0.0,-22.900414,-127.676956,36.505135,0.0,0.0,0.0,0.0,0.0,0.0,0.0,0.824735,-0.017547011,-0.5653911,-0.9088135,0.0065307617,-0.3642578,0.034179688,0.07324219,0.057617188,1.0112371,17.074574,-0.36327755,-11.705351,1.0163574,-0.08557129,-0.11529541,-0.057617188,0.05859375,0.08496094,5.190106,16.096231,-57.3561,-12.539932,0.416687,-0.28479004,0.8751221,-0.016601562,0.029296875,0.00390625,7.3739233,16.198414,-129.09367,-6.2013645,0.0,0.0,0.0,0.0,0.0,0.0,0.0,15.374608,-130.06119,13.761223,0.0,0.0,0.0,0.0,0.0,0.0,0.0,1.541826,44.969143,0.8534334,
1.679687474970706,86,-0.06011963,0.8388672,0.46954346,0.017578125,0.005859375,0.047851562,0.0,0.0,0.0,0.0,0.0,0.0,0.0,0.0,0.0,0.0,0.0,-0.8254713,0.017567307,0.56442,-0.9980469,0.09008789,0.023620605,-0.060546875,0.041015625,0.052734375,2.7445943,-17.089815,0.36369774,11.685243,0.9835205,-0.19421387,-0.16247559,0.0068359375,0.015625,0.055664062,0.8294513,-18.469513,-56.605946,13.280842,-0.51153564,-0.3173828,0.79296875,-0.030273438,0.0068359375,0.037109375,6.51635,-20.944921,-128.50314,16.585033,0.0,0.0,0.0,0.0,0.0,0.0,0.0,-22.91832,-127.69169,36.447166,0.0,0.0,0.0,0.0,0.0,0.0,0.0,0.8254713,-0.017567307,-0.56442,-0.90063477,0.015563965,-0.38189697,0.015625,0.0546875,0.037109375,1.0046364,17.089815,-0.36369774,-11.685243,1.0222778,-0.07171631,-0.12542725,-0.07714844,0.041015625,0.06640625,5.111401,16.098322,-57.356773,-12.469909,0.42492676,-0.28881836,0.8612671,-0.07421875,0.0107421875,0.041992188,7.338155,16.197145,-129.09984,-6.1711864,0.0,0.0,0.0,0.0,0.0,0.0,0.0,15.382024,-130.07037,13.791769,0.0,0.0,0.0,0.0,0.0,0.0,0.0,1.5375018,44.97205,0.8488819,
1.6992187246796677,87,-0.04840088,0.8433838,0.4434204,-0.022460938,-0.0126953125,0.030273438,0.0,0.0,0.0,0.0,0.0,0.0,0.0,0.0,0.0,0.0,0.0,-0.8257895,0.017464362,0.56394905,-0.9708252,0.10662842,0.062805176,-0.041015625,0.041015625,0.0146484375,2.684309,-17.096403,0.36156645,11.675493,1.0011597,-0.21453857,-0.16674805,-0.06933594,0.036132812,0.034179688,0.84069884,-18.480627,-56.607727,13.229408,-0.50457764,-0.31970215,0.81970215,0.0068359375,0.041992188,0.037109375,6.4861574,-20.968443,-128.50247,16.500896,0.0,0.0,0.0,0.0,0.0,0.0,0.0,-22.9415,-127.69522,36.36474,0.0,0.0,0.0,0.0,0.0,0.0,0.0,0.8257895,-0.017464362,-0.56394905,-0.916687,0.01727295,-0.3572998,-0.041992188,0.016601562,0.038085938,0.9528547,17.096403,-0.36156645,-11.675493,1.0129395,-0.05255127,-0.09277344,-0.07714844,0.078125,0.06640625,5.1352267,16.072712,-57.35589,-12.455445,0.40942383,-0.29260254,0.8751221,-0.016601562,0.009765625,0.041015625,7.3485484,16.171322,-129.09062,-6.1289024,0.0,0.0,0.0,0.0,0.0,0.0,0.0,15.357812,-130.05832,13.833569,0.0,0.0,0.0,0.0,0.0,0.0,0.0,1.5228574,44.972553,0.83720815,
1.7187499743886294,88,-0.08258057,0.8383179,0.4512329,-0.040039062,0.044921875,0.03125,0.0,0.0,0.0,0.0,0.0,0.0,0.0,0.0,0.0,0.0,0.0,-0.82548773,0.017751064,0.56429255,-0.9718628,0.12475586,0.08300781,0.034179688,0.0029296875,0.033203125,2.736881,-17.090153,0.3675021,11.682605,0.9666748,-0.22003174,-0.15246582,-0.0126953125,0.016601562,0.036132812,0.8570652,-18.456818,-56.601482,13.309742,-0.4852295,-0.30255127,0.81762695,-0.01171875,0.005859375,0.0,6.5546956,-20.96644,-128.49225,16.59818,0.0,0.0,0.0,0.0,0.0,0.0,0.0,-22.937223,-127.68693,36.463757,0.0,0.0,0.0,0.0,0.0,0.0,0.0,0.82548773,-0.017751064,-0.56429255,-0.93811035,-0.007385254,-0.37322998,-0.00390625,0.0546875,0.016601562,0.9383693,17.090153,-0.3675021,-11.682605,1.0244751,-0.101623535,-0.09661865,-0.05859375,0.095703125,0.103515625,5.180621,16.051178,-57.361076,-12.452355,0.41156006,-0.28948975,0.85736084,-0.0546875,0.029296875,0.022460938,7.399769,16.18026,-129.09824,-6.064387,0.0,0.0,0.0,0.0,0.0,0.0,0.0,15.375774,-130.06773,13.898029,0.0,0.0,0.0,0.0,0.0,0.0,0.0,1.5261757,44.970528,0.81795245,
1.7382812240975911,89,-0.060546875,0.8446655,0.4397583,-0.022460938,-0.0126953125,0.048828125,0.0,0.0,0.0,0.0,0.0,0.0,0.0,0.0,0.0,0.0,0.0,-0.8256994,0.017859414,0.5640033,-0.9717407,0.101989746,0.046813965,-0.022460938,0.021484375,0.052734375,2.7808707,-17.094536,0.36974525,11.676617,0.98358154,-0.22851562,-0.17059326,-0.01171875,0.03515625,0.055664062,0.9015719,-18.446949,-56.5951,13.367999,-0.50024414,-0.30584717,0.7840576,-0.01171875,0.024414062,0.018554688,6.5769763,-21.008495,-128.48645,16.685791,0.0,0.0,0.0,0.0,0.0,0.0,0.0,-22.970877,-127.68654,36.551506,0.0,0.0,0.0,0.0,0.0,0.0,0.0,0.8256994,-0.017859414,-0.5640033,-0.9373169,-0.018981934,-0.380188,-0.00390625,0.0546875,0.037109375,0.9587917,17.094536,-0.36974525,-11.676617,1.0164185,-0.060668945,-0.121398926,-0.057617188,0.05859375,0.06640625,5.19652,16.093836,-57.365936,-12.459657,0.434021,-0.3010254,0.86816406,-0.017578125,-0.028320312,0.022460938,7.400432,16.246243,-129.09734,-6.0634155,0.0,0.0,0.0,0.0,0.0,0.0,0.0,15.450182,-130.06903,13.899696,0.0,0.0,0.0,0.0,0.0,0.0,0.0,1.5201753,44.971634,0.80148613,
1.7578124738065528,90,-0.06427002,0.8060913,0.45147705,-0.041992188,-0.0126953125,0.030273438,0.0,0.0,0.0,0.0,0.0,0.0,0.0,0.0,0.0,0.0,0.0,-0.8251226,0.018318515,0.5647709,-0.9766846,0.109069824,0.034973145,-0.022460938,0.041015625,0.052734375,2.7471607,-17.082596,0.37925005,11.692508,0.994812,-0.22607422,-0.152771,-0.01171875,0.053710938,0.0546875,0.8690815,-18.473028,-56.588135,13.368036,-0.49053955,-0.3201294,0.824646,0.0068359375,0.0234375,0.0,6.5759325,-21.034575,-128.47949,16.685827,0.0,0.0,0.0,0.0,0.0,0.0,0.0,-22.996765,-127.68341,36.55047,0.0,0.0,0.0,0.0,0.0,0.0,0.0,0.8251226,-0.018318515,-0.5647709,-0.93011475,-0.010009766,-0.39385986,-0.099609375,0.018554688,0.038085938,0.98456866,17.082596,-0.37925005,-11.692508,1.0363159,-0.069885254,-0.11779785,-0.057617188,0.05859375,0.06640625,5.156853,16.081179,-57.37745,-12.445956,0.41351318,-0.29370117,0.87609863,-0.053710938,0.06738281,0.041992188,7.379722,16.234966,-129.11375,-6.0633116,0.0,0.0,0.0,0.0,0.0,0.0,0.0,15.435613,-130.08469,13.90018,0.0,0.0,0.0,0.0,0.0,0.0,0.0,1.5386343,44.969666,0.78931916,
1.7773437235155145,91,-0.04437256,0.81036377,0.42913818,-0.041015625,0.026367188,0.048828125,0.0,0.0,0.0,0.0,0.0,0.0,0.0,0.0,0.0,0.0,0.0,-0.8251691,0.018240584,0.5648144,-0.99591064,0.10559082,0.027893066,-0.060546875,0.021484375,0.033203125,2.6912274,-17.083555,0.3776366,11.69341,0.99194336,-0.22106934,-0.15368652,-0.049804688,0.03515625,0.0546875,0.8287433,-18.515957,-56.586807,13.322472,-0.4874878,-0.3201294,0.80285645,-0.03125,0.04296875,0.017578125,6.542658,-21.063545,-128.4839,16.630823,0.0,0.0,0.0,0.0,0.0,0.0,0.0,-23.029387,-127.69794,36.49241,0.0,0.0,0.0,0.0,0.0,0.0,0.0,0.8251691,-0.018240584,-0.5648144,-0.8859253,-0.010009766,-0.38604736,-0.00390625,0.03515625,0.037109375,0.9408684,17.083555,-0.3776366,-11.69341,1.0050049,-0.041503906,-0.099609375,-0.07714844,0.022460938,0.0859375,5.168163,16.04876,-57.372932,-12.468428,0.40026855,-0.28533936,0.86431885,-0.07421875,0.0107421875,0.060546875,7.351592,16.205633,-129.10632,-6.1083145,0.0,0.0,0.0,0.0,0.0,0.0,0.0,15.40628,-130.07726,13.855177,0.0,0.0,0.0,0.0,0.0,0.0,0.0,1.5340542,44.9726,0.78880334,
1.7968749732244762,92,-0.020141602,0.81073,0.43145752,-0.001953125,0.025390625,0.06640625,0.0,0.0,0.0,0.0,0.0,0.0,0.0,0.0,0.0,0.0,0.0,-0.82554317,0.017764822,0.56417423,-0.9668579,0.11883545,0.0848999,-0.00390625,0.041015625,0.034179688,2.7485852,-17.091305,0.36778682,11.680155,0.97436523,-0.23406982,-0.1486206,-0.030273438,0.03515625,0.07421875,0.8093922,-18.522913,-56.599457,13.346698,-0.49041748,-0.31225586,0.8206177,-0.01171875,0.060546875,0.036132812,6.5036983,-21.050257,-128.49722,16.680208,0.0,0.0,0.0,0.0,0.0,0.0,0.0,-23.005283,-127.72505,36.543076,0.0,0.0,0.0,0.0,0.0,0.0,0.0,0.82554317,-0.017764822,-0.56417423,-0.9048462,0.0032958984,-0.35546875,0.053710938,0.034179688,0.036132812,0.9354453,17.091305,-0.36778682,-11.680155,1.0144043,-0.08154297,-0.11236572,-0.07714844,0.041015625,0.06640625,5.173052,16.057661,-57.363373,-12.437141,0.40545654,-0.27545166,0.866272,-0.03515625,0.029296875,0.041015625,7.3932433,16.166327,-129.10165,-6.036956,0.0,0.0,0.0,0.0,0.0,0.0,0.0,15.371202,-130.07234,13.925748,0.0,0.0,0.0,0.0,0.0,0.0,0.0,1.5196965,44.969997,0.8077135,
1.816406222933438,93,-0.05822754,0.85668945,0.46466064,-0.001953125,0.025390625,0.047851562,0.0,0.0,0.0,0.0,0.0,0.0,0.0,0.0,0.0,0.0,0.0,-0.8261977,0.017352186,0.5634754,-0.98516846,0.11425781,0.081848145,-0.022460938,0.022460938,0.033203125,2.8270857,-17.104855,0.35924408,11.665687,0.9875488,-0.23266602,-0.15472412,-0.01171875,0.053710938,0.0546875,0.8211529,-18.522076,-56.6038,13.396425,-0.49316406,-0.29833984,0.81073,-0.01171875,0.04296875,0.037109375,6.4622607,-21.06039,-128.49883,16.752575,0.0,0.0,0.0,0.0,0.0,0.0,0.0,-23.010208,-127.72581,36.619812,0.0,0.0,0.0,0.0,0.0,0.0,0.0,0.8261977,-0.017352186,-0.5634754,-0.918396,0.04046631,-0.34436035,-0.041992188,0.036132812,0.017578125,0.95408607,17.104855,-0.35924408,-11.665687,1.0305786,-0.09375,-0.09283447,-0.057617188,0.040039062,0.06640625,5.1118608,16.07786,-57.35637,-12.345151,0.40930176,-0.31658936,0.8712158,-0.016601562,0.029296875,0.022460938,7.4110036,16.163492,-129.09012,-5.919449,0.0,0.0,0.0,0.0,0.0,0.0,0.0,15.371897,-130.05719,14.044903,0.0,0.0,0.0,0.0,0.0,0.0,0.0,1.5041583,44.976555,0.8204268,
1.8359374726423996,94,-0.06402588,0.83703613,0.47961426,-0.022460938,-0.013671875,0.01171875,0.0,0.0,0.0,0.0,0.0,0.0,0.0,0.0,0.0,0.0,0.0,-0.82623506,0.017184217,0.56337184,-0.98791504,0.09661865,0.034729004,-0.060546875,0.021484375,0.052734375,2.8538249,-17.105629,0.35576656,11.663544,0.9918823,-0.22302246,-0.14672852,-0.0126953125,0.03515625,0.036132812,0.8432553,-18.502007,-56.6074,13.4169855,-0.49713135,-0.29711914,0.79193115,-0.01171875,0.024414062,0.018554688,6.4507504,-21.043142,-128.49637,16.797564,0.0,0.0,0.0,0.0,0.0,0.0,0.0,-22.995802,-127.729126,36.665443,0.0,0.0,0.0,0.0,0.0,0.0,0.0,0.82623506,-0.017184217,-0.56337184,-0.9169922,-0.0021972656,-0.36138916,-0.041992188,0.016601562,0.017578125,0.9185583,17.105629,-0.35576656,-11.663544,1.024231,-0.08666992,-0.12042236,-0.057617188,0.05859375,0.06640625,5.123576,16.051609,-57.349827,-12.348254,0.42993164,-0.30200195,0.87109375,-0.015625,0.047851562,0.041015625,7.406846,16.154612,-129.07912,-5.9251285,0.0,0.0,0.0,0.0,0.0,0.0,0.0,15.352155,-130.04372,14.037827,0.0,0.0,0.0,0.0,0.0,0.0,0.0,1.4960829,44.975437,0.8222787,
1.8554687223513613,95,-0.070129395,0.82922363,0.47375488,0.018554688,0.043945312,0.047851562,0.0,0.0,0.0,0.0,0.0,0.0,0.0,0.0,0.0,0.0,0.0,-0.8249421,0.017660633,0.5650737,-0.9786377,0.097717285,0.016845703,-0.07910156,0.0029296875,0.033203125,2.7812932,-17.07886,0.3656299,11.698779,1.0024414,-0.20678711,-0.15576172,-0.05078125,0.036132812,0.03515625,0.80794036,-18.500154,-56.59528,13.42554,-0.50946045,-0.31066895,0.817688,-0.03125,0.024414062,0.017578125,6.366427,-21.01947,-128.4853,16.803482,0.0,0.0,0.0,0.0,0.0,0.0,0.0,-22.970936,-127.72139,36.672897,0.0,0.0,0.0,0.0,0.0,0.0,0.0,0.8249421,-0.017660633,-0.5650737,-0.9112549,-0.024230957,-0.38708496,-0.11816406,-0.01953125,0.017578125,0.912574,17.07886,-0.3656299,-11.698779,1.0164185,-0.07159424,-0.11639404,-0.057617188,0.05859375,0.08496094,5.117263,16.021336,-57.362217,-12.367756,0.41357422,-0.28173828,0.8770752,-0.03515625,0.0107421875,0.00390625,7.4150267,16.091837,-129.09209,-5.926767,0.0,0.0,0.0,0.0,0.0,0.0,0.0,15.29335,-130.0556,14.03573,0.0,0.0,0.0,0.0,0.0,0.0,0.0,1.5024222,44.97138,0.7878411,
1.874999972060323,96,-0.07330322,0.82525635,0.46185303,-0.001953125,0.0068359375,0.06640625,0.0,0.0,0.0,0.0,0.0,0.0,0.0,0.0,0.0,0.0,0.0,-0.8245146,0.017975707,0.565922,-0.99090576,0.12359619,0.05407715,-0.041015625,0.0029296875,0.033203125,2.7601693,-17.070011,0.37215292,11.716339,0.9555054,-0.21960449,-0.15234375,-0.05078125,0.016601562,0.03515625,0.79055774,-18.521814,-56.590446,13.429616,-0.50115967,-0.2932129,0.8196411,-0.01171875,0.041992188,-9.765625E-4,6.351318,-21.04665,-128.47574,16.822775,0.0,0.0,0.0,0.0,0.0,0.0,0.0,-22.987204,-127.69802,36.693176,0.0,0.0,0.0,0.0,0.0,0.0,0.0,0.8245146,-0.017975707,-0.565922,-0.9219971,-0.0026245117,-0.38104248,-0.041992188,-0.0029296875,0.017578125,0.92535007,17.070011,-0.37215292,-11.716339,1.0124512,-0.09552002,-0.10333252,-0.07714844,0.022460938,0.0859375,5.135837,16.010855,-57.370537,-12.391059,0.40545654,-0.28344727,0.8633423,-0.0546875,0.029296875,0.041992188,7.42859,16.055391,-129.09671,-5.928837,0.0,0.0,0.0,0.0,0.0,0.0,0.0,15.2596,-130.06136,14.034039,0.0,0.0,0.0,0.0,0.0,0.0,0.0,1.5181508,44.97691,0.7832276,
1.8945312217692847,97,-0.047973633,0.83758545,0.47021484,-0.041992188,-0.01171875,0.08496094,0.0,0.0,0.0,0.0,0.0,0.0,0.0,0.0,0.0,0.0,0.0,-0.82484716,0.017428286,0.56544083,-0.96868896,0.12213135,0.06304932,-0.041992188,-0.016601562,0.052734375,2.8845944,-17.076895,0.36081958,11.706379,0.97387695,-0.2144165,-0.16748047,0.0078125,0.015625,0.07519531,0.8197219,-18.497389,-56.599243,13.48658,-0.5184326,-0.3112793,0.79296875,-0.049804688,0.043945312,0.017578125,6.333821,-21.038336,-128.48892,16.88798,0.0,0.0,0.0,0.0,0.0,0.0,0.0,-22.971073,-127.711205,36.75837,0.0,0.0,0.0,0.0,0.0,0.0,0.0,0.82484716,-0.017428286,-0.56544083,-0.9052124,-0.022521973,-0.3812256,0.03515625,0.053710938,0.016601562,0.9343988,17.076895,-0.36081958,-11.706379,1.0164185,-0.0736084,-0.11541748,-0.01953125,0.05859375,0.06542969,5.227497,16.037958,-57.357315,-12.457951,0.4052124,-0.30566406,0.888916,-0.053710938,0.048828125,0.041992188,7.4510083,16.048653,-129.07913,-5.9642334,0.0,0.0,0.0,0.0,0.0,0.0,0.0,15.254556,-130.03949,13.998833,0.0,0.0,0.0,0.0,0.0,0.0,0.0,1.5162237,44.975876,0.82555103,
1.9140624714782464,98,-0.042114258,0.82037354,0.4510498,-9.765625E-4,0.043945312,0.047851562,0.0,0.0,0.0,0.0,0.0,0.0,0.0,0.0,0.0,0.0,0.0,-0.8242682,0.017889768,0.5660956,-0.9616089,0.09613037,0.039733887,-0.022460938,0.0029296875,0.052734375,2.8599231,-17.064909,0.3703737,11.7199335,0.9737549,-0.21929932,-0.15753174,0.0068359375,0.03515625,0.037109375,0.87334895,-18.454905,-56.59213,13.507471,-0.4932251,-0.29937744,0.82354736,-0.0126953125,0.060546875,-9.765625E-4,6.3516574,-21.022665,-128.48483,16.93477,0.0,0.0,0.0,0.0,0.0,0.0,0.0,-22.953524,-127.707466,36.80568,0.0,0.0,0.0,0.0,0.0,0.0,0.0,0.8242682,-0.017889768,-0.5660956,-0.91522217,-0.022399902,-0.37921143,0.053710938,0.034179688,0.036132812,0.9183452,17.064909,-0.3703737,-11.7199335,1.0244751,-0.06573486,-0.11364746,-0.057617188,0.040039062,0.046875,5.2419834,16.02615,-57.364994,-12.516901,0.4165039,-0.3166504,0.8652344,-0.016601562,0.029296875,0.022460938,7.4121947,16.047174,-129.08609,-6.0642257,0.0,0.0,0.0,0.0,0.0,0.0,0.0,15.241438,-130.04205,13.899204,0.0,0.0,0.0,0.0,0.0,0.0,0.0,1.5217463,44.971798,0.79455143,
1.933593721187208,99,-0.045410156,0.840271,0.43933105,-0.021484375,0.025390625,0.030273438,0.0,0.0,0.0,0.0,0.0,0.0,0.0,0.0,0.0,0.0,0.0,-0.8238563,0.018535588,0.56652963,-0.9816284,0.103637695,0.016906738,-0.060546875,0.041015625,0.0146484375,2.7919705,-17.05638,0.38374415,11.72892,0.99243164,-0.20239258,-0.1696167,-0.0126953125,0.036132812,0.017578125,0.8182884,-18.488981,-56.578503,13.487152,-0.4850464,-0.29467773,0.8126831,-0.01171875,0.005859375,0.018554688,6.331344,-21.04116,-128.4744,16.86822,0.0,0.0,0.0,0.0,0.0,0.0,0.0,-22.978125,-127.69528,36.738796,0.0,0.0,0.0,0.0,0.0,0.0,0.0,0.8238563,-0.018535588,-0.56652963,-0.9420166,0.0029296875,-0.39276123,-0.061523438,-0.021484375,0.038085938,0.91514343,17.05638,-0.38374415,-11.72892,1.0045776,-0.087402344,-0.10321045,-0.11621094,0.059570312,0.06640625,5.203453,15.99705,-57.378532,-12.510256,0.40344238,-0.27539062,0.8613281,-0.016601562,0.029296875,0.022460938,7.4184136,16.031584,-129.11414,-6.093481,0.0,0.0,0.0,0.0,0.0,0.0,0.0,15.224492,-130.07376,13.870108,0.0,0.0,0.0,0.0,0.0,0.0,0.0,1.5387496,44.968025,0.7664204,
1.9531249708961698,100,-0.07739258,0.8372803,0.46105957,-0.061523438,-0.01171875,0.048828125,0.0,0.0,0.0,0.0,0.0,0.0,0.0,0.0,0.0,0.0,0.0,-0.82387006,0.018865384,0.5666211,-0.9818115,0.10418701,0.041809082,-0.041015625,0.022460938,-0.0048828125,2.7246952,-17.056662,0.39057192,11.730813,0.9883423,-0.24047852,-0.16668701,-0.08886719,-0.020507812,0.053710938,0.8413968,-18.489727,-56.571857,13.456311,-0.5102539,-0.29974365,0.8078003,-0.01171875,0.0068359375,0.037109375,6.330415,-21.065432,-128.45891,16.820784,0.0,0.0,0.0,0.0,0.0,0.0,0.0,-23.000685,-127.67805,36.69102,0.0,0.0,0.0,0.0,0.0,0.0,0.0,0.82387006,-0.018865384,-0.5666211,-0.87286377,-0.010131836,-0.3909912,-0.061523438,-0.021484375,0.038085938,0.8627541,17.056662,-0.39057192,-11.730813,1.020813,-0.06567383,-0.0947876,-0.05859375,0.07714844,0.046875,5.2101517,15.953983,-57.38472,-12.52059,0.41577148,-0.2617798,0.8790283,-0.016601562,0.028320312,0.060546875,7.444184,15.961331,-129.11346,-6.1119423,0.0,0.0,0.0,0.0,0.0,0.0,0.0,15.158714,-130.08157,13.850445,0.0,0.0,0.0,0.0,0.0,0.0,0.0,1.5378776,44.971634,0.7387725,
1.9726562206051315,101,-0.06842041,0.8121338,0.44665527,-0.060546875,0.02734375,0.06738281,0.0,0.0,0.0,0.0,0.0,0.0,0.0,0.0,0.0,0.0,0.0,-0.82363343,0.019785486,0.5669814,-0.97576904,0.11743164,0.0579834,0.0146484375,-0.03515625,0.033203125,2.7345195,-17.051764,0.4096209,11.738271,0.96203613,-0.23840332,-0.17047119,-0.03125,0.03515625,0.0546875,0.88115597,-18.459743,-56.553246,13.495327,-0.5055542,-0.3166504,0.81274414,-0.01171875,0.024414062,0.018554688,6.4016857,-21.061913,-128.44847,16.863941,0.0,0.0,0.0,0.0,0.0,0.0,0.0,-22.989847,-127.674416,36.73412,0.0,0.0,0.0,0.0,0.0,0.0,0.0,0.82363343,-0.019785486,-0.5669814,-0.91400146,-0.003967285,-0.37121582,0.03515625,0.053710938,0.037109375,0.89612955,17.051764,-0.4096209,-11.738271,1.0247192,-0.06573486,-0.097839355,-0.07714844,0.059570312,0.103515625,5.24131,15.949175,-57.404297,-12.54165,0.399292,-0.28338623,0.8692627,-0.0546875,0.0107421875,0.022460938,7.464453,15.911342,-129.1308,-6.101475,0.0,0.0,0.0,0.0,0.0,0.0,0.0,15.119663,-130.09995,13.862984,0.0,0.0,0.0,0.0,0.0,0.0,0.0,1.5698551,44.972195,0.71111417,
1.9921874703140932,102,-0.05432129,0.80773926,0.43933105,-0.022460938,-0.0126953125,0.06640625,0.0,0.0,0.0,0.0,0.0,0.0,0.0,0.0,0.0,0.0,0.0,-0.82347023,0.020513982,0.56715745,-0.95874023,0.097717285,0.059692383,-0.00390625,-0.03515625,0.033203125,2.756053,-17.048388,0.42470297,11.741917,0.9631958,-0.23260498,-0.16644287,-0.049804688,0.0546875,0.03515625,0.9097822,-18.465788,-56.53878,13.525154,-0.5003662,-0.30700684,0.8117676,-0.01171875,0.005859375,0.0,6.501346,-21.11833,-128.4216,16.910995,0.0,0.0,0.0,0.0,0.0,0.0,0.0,-23.053095,-127.65314,36.78043,0.0,0.0,0.0,0.0,0.0,0.0,0.0,0.82347023,-0.020513982,-0.56715745,-0.9286499,0.025939941,-0.3828125,0.053710938,0.034179688,0.015625,0.9394114,17.048388,-0.42470297,-11.741917,1.0109863,-0.03656006,-0.10168457,-0.05859375,0.05859375,0.046875,5.219357,15.94507,-57.417553,-12.523955,0.4216919,-0.2998047,0.8711548,-0.03515625,0.0107421875,0.00390625,7.4589567,15.872432,-129.14767,-6.078128,0.0,0.0,0.0,0.0,0.0,0.0,0.0,15.090113,-130.11801,13.8866205,0.0,0.0,0.0,0.0,0.0,0.0,0.0,1.6037318,44.970253,0.7019331,
2.011718720023055,103,-0.038024902,0.8253174,0.45892334,-0.022460938,-0.0126953125,0.048828125,0.0,0.0,0.0,0.0,0.0,0.0,0.0,0.0,0.0,0.0,0.0,-0.8230074,0.02085197,0.56788933,-0.9951172,0.0927124,0.041625977,-0.022460938,0.041015625,0.034179688,2.7353785,-17.038803,0.4317004,11.75707,0.9793701,-0.23321533,-0.17559814,-0.049804688,0.0546875,0.03515625,0.92725134,-18.47335,-56.52966,13.531643,-0.50531006,-0.30200195,0.8305054,-0.01171875,0.041992188,0.017578125,6.5443063,-21.164251,-128.41365,16.93592,0.0,0.0,0.0,0.0,0.0,0.0,0.0,-23.107761,-127.65478,36.80265,0.0,0.0,0.0,0.0,0.0,0.0,0.0,0.8230074,-0.02085197,-0.56788933,-0.8966675,0.011413574,-0.41534424,0.015625,0.0546875,0.037109375,0.9015719,17.038803,-0.4317004,-11.75707,1.0050049,-0.049438477,-0.09259033,-0.09667969,0.09667969,0.06640625,5.2150006,15.880948,-57.424385,-12.528924,0.4124756,-0.3015747,0.8642578,-0.0546875,0.029296875,0.041992188,7.452378,15.842447,-129.14722,-6.0964756,0.0,0.0,0.0,0.0,0.0,0.0,0.0,15.055757,-130.11284,13.8678,0.0,0.0,0.0,0.0,0.0,0.0,0.0,1.6169957,44.97179,0.69212276,
2.0312499697320168,104,-0.020080566,0.82470703,0.44250488,-0.061523438,-0.01171875,0.048828125,0.0,0.0,0.0,0.0,0.0,0.0,0.0,0.0,0.0,0.0,0.0,-0.8229712,0.02048764,0.5679199,-0.9819336,0.119384766,0.06500244,-0.022460938,0.0029296875,0.0146484375,2.726993,-17.038055,0.4241576,11.757703,0.979187,-0.2390747,-0.17358398,-0.049804688,0.03515625,0.0546875,0.93460816,-18.495096,-56.5373,13.499048,-0.49993896,-0.2843628,0.8156128,-0.03125,0.024414062,0.017578125,6.5679655,-21.214073,-128.41867,16.902575,0.0,0.0,0.0,0.0,0.0,0.0,0.0,-23.161417,-127.65998,36.770702,0.0,0.0,0.0,0.0,0.0,0.0,0.0,0.8229712,-0.02048764,-0.5679199,-0.92089844,0.0020751953,-0.41345215,-0.061523438,-0.001953125,0.038085938,0.83015877,17.038055,-0.4241576,-11.757703,1.0183716,-0.08959961,-0.109436035,-0.07714844,0.059570312,0.06640625,5.1932,15.804607,-57.416214,-12.509401,0.40441895,-0.27752686,0.87609863,-0.03515625,0.048828125,0.00390625,7.4348207,15.747037,-129.14891,-6.094477,0.0,0.0,0.0,0.0,0.0,0.0,0.0,14.962041,-130.11024,13.869997,0.0,0.0,0.0,0.0,0.0,0.0,0.0,1.613855,44.970623,0.7163234,
2.0507812194409785,105,-0.0423584,0.8123169,0.43304443,-0.060546875,0.026367188,0.049804688,0.0,0.0,0.0,0.0,0.0,0.0,0.0,0.0,0.0,0.0,0.0,-0.8235479,0.020172644,0.5671766,-0.9637451,0.124694824,0.08001709,-0.022460938,0.022460938,0.0146484375,2.826047,-17.049997,0.41763628,11.742313,0.9789429,-0.21459961,-0.16052246,-0.06738281,0.03515625,0.091796875,0.9589957,-18.512861,-56.543427,13.551763,-0.4821167,-0.29864502,0.803772,-0.049804688,0.061523438,-0.001953125,6.5868974,-21.28381,-128.42831,16.970459,0.0,0.0,0.0,0.0,0.0,0.0,0.0,-23.220047,-127.67279,36.840996,0.0,0.0,0.0,0.0,0.0,0.0,0.0,0.8235479,-0.020172644,-0.5671766,-0.9147339,0.013244629,-0.3554077,-0.060546875,0.037109375,0.038085938,0.8577499,17.049997,-0.41763628,-11.742313,1.0050049,-0.08135986,-0.07757568,-0.07714844,0.059570312,0.06640625,5.1785784,15.834175,-57.411907,-12.478179,0.42163086,-0.3098755,0.87805176,-0.053710938,0.048828125,0.041992188,7.420106,15.804183,-129.13766,-6.06394,0.0,0.0,0.0,0.0,0.0,0.0,0.0,15.021881,-130.10013,13.900911,0.0,0.0,0.0,0.0,0.0,0.0,0.0,1.6134952,44.972294,0.7432971,
2.07031246914994,106,-0.05645752,0.8326416,0.43859863,-0.001953125,0.025390625,0.06640625,0.0,0.0,0.0,0.0,0.0,0.0,0.0,0.0,0.0,0.0,0.0,-0.8240285,0.020017033,0.56642896,-0.96984863,0.109375,0.07080078,-0.022460938,0.021484375,0.052734375,2.9031963,-17.059944,0.41441464,11.726835,0.9960327,-0.21923828,-0.15875244,-0.03125,0.07421875,0.03515625,1.0022963,-18.489853,-56.543755,13.6137295,-0.50457764,-0.31866455,0.80981445,-0.01171875,0.005859375,0.018554688,6.5583444,-21.283989,-128.4211,17.03413,0.0,0.0,0.0,0.0,0.0,0.0,0.0,-23.222517,-127.6619,36.90488,0.0,0.0,0.0,0.0,0.0,0.0,0.0,0.8240285,-0.020017033,-0.56642896,-0.9179077,0.0044555664,-0.3544922,0.015625,0.015625,0.037109375,0.8970026,17.059944,-0.41441464,-11.726835,1.0167847,-0.047668457,-0.10473633,-0.07714844,0.059570312,0.046875,5.151455,15.8930645,-57.40431,-12.434956,0.411438,-0.30163574,0.8741455,-0.016601562,0.028320312,0.041015625,7.416059,15.887709,-129.13026,-6.0126834,0.0,0.0,0.0,0.0,0.0,0.0,0.0,15.109977,-130.09128,13.950941,0.0,0.0,0.0,0.0,0.0,0.0,0.0,1.6017857,44.97135,0.7410001,
2.089843718858902,107,-0.044189453,0.82141113,0.44610596,0.017578125,0.024414062,0.029296875,0.0,0.0,0.0,0.0,0.0,0.0,0.0,0.0,0.0,0.0,0.0,-0.82411855,0.020008406,0.5664261,-0.9929199,0.099731445,0.027770996,-0.060546875,0.0029296875,0.033203125,2.8932676,-17.061806,0.41423598,11.726777,0.9845581,-0.1953125,-0.14654541,-0.01171875,0.053710938,0.0546875,0.9711613,-18.502981,-56.543613,13.613487,-0.51745605,-0.31134033,0.80584717,-0.01171875,0.041992188,-9.765625E-4,6.4682355,-21.271935,-128.4271,17.036781,0.0,0.0,0.0,0.0,0.0,0.0,0.0,-23.207525,-127.67294,36.90486,0.0,0.0,0.0,0.0,0.0,0.0,0.0,0.82411855,-0.020008406,-0.5664261,-0.9130249,-0.0057373047,-0.38110352,-0.041992188,0.016601562,0.038085938,0.9162119,17.061806,-0.41423598,-11.726777,1.0289307,-0.045776367,-0.09411621,-0.057617188,0.040039062,0.046875,5.1187553,15.922219,-57.411163,-12.438757,0.41259766,-0.29455566,0.85839844,-0.016601562,0.029296875,0.022460938,7.346706,15.933393,-129.1448,-6.058872,0.0,0.0,0.0,0.0,0.0,0.0,0.0,15.174802,-130.10553,13.905571,0.0,0.0,0.0,0.0,0.0,0.0,0.0,1.5977206,44.974842,0.7359059,
