TOTAL_TIME,0m25s
TOTAL_FRAMES,1301
SELECTED_FRAMES,1301
NO_OF_JOINTS,12
FREQUENCY,51.2
DESCRIPTION,Capture 14
TIME_STAMP,Nov 1, 2010

Time,Frame,Pelvis_accelX_Pelvis,Pelvis_accelY_Pelvis,Pelvis_accelZ_Pelvis,Pelvis_gyroX_Pelvis,Pelvis_gyroY_Pelvis,Pelvis_gyroZ_Pelvis,Pelvis_Joint angle_Pelvis,Pelvis_Relative pos X_Pelvis,Pelvis_Relative pos Y_Pelvis,Pelvis_Relative pos Z_Pelvis,RightPelvis_accelX_RightPelvis,RightPelvis_accelY_RightPelvis,RightPelvis_accelZ_RightPelvis,RightPelvis_gyroX_RightPelvis,RightPelvis_gyroY_RightPelvis,RightPelvis_gyroZ_RightPelvis,RightPelvis_Joint angle_RightPelvis,RightPelvis_Relative pos X_RightPelvis,RightPelvis_Relative pos Y_RightPelvis,RightPelvis_Relative pos Z_RightPelvis,RightUpLeg_accelX_RightUpLeg,RightUpLeg_accelY_RightUpLeg,RightUpLeg_accelZ_RightUpLeg,RightUpLeg_gyroX_RightUpLeg,RightUpLeg_gyroY_RightUpLeg,RightUpLeg_gyroZ_RightUpLeg,RightUpLeg_Joint angle_RightUpLeg,RightUpLeg_Relative pos X_RightUpLeg,RightUpLeg_Relative pos Y_RightUpLeg,RightUpLeg_Relative pos Z_RightUpLeg,RightLeg_accelX_RightLeg,RightLeg_accelY_RightLeg,RightLeg_accelZ_RightLeg,RightLeg_gyroX_RightLeg,RightLeg_gyroY_RightLeg,RightLeg_gyroZ_RightLeg,RightLeg_Joint angle_RightLeg,RightLeg_Relative pos X_RightLeg,RightLeg_Relative pos Y_RightLeg,RightLeg_Relative pos Z_RightLeg,RightFoot_accelX_RightFoot,RightFoot_accelY_RightFoot,RightFoot_accelZ_RightFoot,RightFoot_gyroX_RightFoot,RightFoot_gyroY_RightFoot,RightFoot_gyroZ_RightFoot,RightFoot_Joint angle_RightFoot,RightFoot_Relative pos X_RightFoot,RightFoot_Relative pos Y_RightFoot,RightFoot_Relative pos Z_RightFoot,RightFootEnd_accelX_RightFootEnd,RightFootEnd_accelY_RightFootEnd,RightFootEnd_accelZ_RightFootEnd,RightFootEnd_gyroX_RightFootEnd,RightFootEnd_gyroY_RightFootEnd,RightFootEnd_gyroZ_RightFootEnd,RightFootEnd_Joint angle_RightFootEnd,RightFootEnd_Relative pos X_RightFootEnd,RightFootEnd_Relative pos Y_RightFootEnd,RightFootEnd_Relative pos Z_RightFootEnd,LeftPelvis_accelX_LeftPelvis,LeftPelvis_accelY_LeftPelvis,LeftPelvis_accelZ_LeftPelvis,LeftPelvis_gyroX_LeftPelvis,LeftPelvis_gyroY_LeftPelvis,LeftPelvis_gyroZ_LeftPelvis,LeftPelvis_Joint angle_LeftPelvis,LeftPelvis_Relative pos X_LeftPelvis,LeftPelvis_Relative pos Y_LeftPelvis,LeftPelvis_Relative pos Z_LeftPelvis,LeftUpLeg_accelX_LeftUpLeg,LeftUpLeg_accelY_LeftUpLeg,LeftUpLeg_accelZ_LeftUpLeg,LeftUpLeg_gyroX_LeftUpLeg,LeftUpLeg_gyroY_LeftUpLeg,LeftUpLeg_gyroZ_LeftUpLeg,LeftUpLeg_Joint angle_LeftUpLeg,LeftUpLeg_Relative pos X_LeftUpLeg,LeftUpLeg_Relative pos Y_LeftUpLeg,LeftUpLeg_Relative pos Z_LeftUpLeg,LeftLeg_accelX_LeftLeg,LeftLeg_accelY_LeftLeg,LeftLeg_accelZ_LeftLeg,LeftLeg_gyroX_LeftLeg,LeftLeg_gyroY_LeftLeg,LeftLeg_gyroZ_LeftLeg,LeftLeg_Joint angle_LeftLeg,LeftLeg_Relative pos X_LeftLeg,LeftLeg_Relative pos Y_LeftLeg,LeftLeg_Relative pos Z_LeftLeg,LeftFoot_accelX_LeftFoot,LeftFoot_accelY_LeftFoot,LeftFoot_accelZ_LeftFoot,LeftFoot_gyroX_LeftFoot,LeftFoot_gyroY_LeftFoot,LeftFoot_gyroZ_LeftFoot,LeftFoot_Joint angle_LeftFoot,LeftFoot_Relative pos X_LeftFoot,LeftFoot_Relative pos Y_LeftFoot,LeftFoot_Relative pos Z_LeftFoot,LeftFootEnd_accelX_LeftFootEnd,LeftFootEnd_accelY_LeftFootEnd,LeftFootEnd_accelZ_LeftFootEnd,LeftFootEnd_gyroX_LeftFootEnd,LeftFootEnd_gyroY_LeftFootEnd,LeftFootEnd_gyroZ_LeftFootEnd,LeftFootEnd_Joint angle_LeftFootEnd,LeftFootEnd_Relative pos X_LeftFootEnd,LeftFootEnd_Relative pos Y_LeftFootEnd,LeftFootEnd_Relative pos Z_LeftFootEnd,Spine_accelX_Spine,Spine_accelY_Spine,Spine_accelZ_Spine,Spine_gyroX_Spine,Spine_gyroY_Spine,Spine_gyroZ_Spine,Spine_Joint angle_Spine,Spine_Relative pos X_Spine,Spine_Relative pos Y_Spine,Spine_Relative pos Z_Spine,
0.0,0,-0.035461426,0.61743164,0.43426514,0.11328125,0.5595703,0.17773438,0.0,0.0,0.0,0.0,0.0,0.0,0.0,0.0,0.0,0.0,0.0,-0.6423838,-0.007027169,0.76656187,-0.923584,0.003540039,0.13580322,-1.3408203,1.2529297,0.27539062,4.963529,-13.2993355,-0.14548418,15.870207,0.8880005,-0.24023438,-0.19171143,-0.4404297,-0.7392578,0.03125,33.415035,-16.739109,-56.96798,18.892887,-0.74224854,-0.3383789,0.52142334,-0.43164062,0.65722656,0.49121094,56.561558,-47.896744,-113.842415,50.207157,0.0,0.0,0.0,0.0,0.0,0.0,0.0,-30.374268,-123.09142,47.579384,0.0,0.0,0.0,0.0,0.0,0.0,0.0,0.6423838,0.007027169,-0.76656187,-0.5953369,-0.0657959,-0.4486084,0.9951172,-0.24609375,-0.99902344,15.471659,13.2993355,0.14548418,-15.870207,0.35516357,0.066223145,-0.9701538,-0.7480469,4.442383,-0.69433594,57.420506,27.206127,-54.826824,-21.737637,0.20495605,-0.10992432,0.99786377,0.3779297,4.9101562,1.1171875,51.3893,-14.880428,-108.43442,1.537262,0.0,0.0,0.0,0.0,0.0,0.0,0.0,-19.692093,-96.42827,16.787445,0.0,0.0,0.0,0.0,0.0,0.0,0.0,0.37961763,44.999744,0.7306404,
0.0195312497089617,1,-0.035461426,0.61743164,0.43426514,0.11328125,0.5595703,0.17773438,0.0,0.0,0.0,0.0,0.0,0.0,0.0,0.0,0.0,0.0,0.0,-0.6423838,-0.007027169,0.76656187,-0.923584,0.003540039,0.13580322,-1.3408203,1.2529297,0.27539062,4.963529,-13.2993355,-0.14548418,15.870207,0.8880005,-0.24023438,-0.19171143,-0.4404297,-0.7392578,0.03125,33.415035,-16.739109,-56.96798,18.892887,-0.74224854,-0.3383789,0.52142334,-0.43164062,0.65722656,0.49121094,56.561558,-47.896744,-113.842415,50.207157,0.0,0.0,0.0,0.0,0.0,0.0,0.0,-30.374268,-123.09142,47.579384,0.0,0.0,0.0,0.0,0.0,0.0,0.0,0.6423838,0.007027169,-0.76656187,-0.5953369,-0.0657959,-0.4486084,0.9951172,-0.24609375,-0.99902344,15.471659,13.2993355,0.14548418,-15.870207,0.35516357,0.066223145,-0.9701538,-0.7480469,4.442383,-0.69433594,57.420506,27.206127,-54.826824,-21.737637,0.20495605,-0.10992432,0.99786377,0.3779297,4.9101562,1.1171875,51.3893,-14.880428,-108.43442,1.537262,0.0,0.0,0.0,0.0,0.0,0.0,0.0,-19.692093,-96.42827,16.787445,0.0,0.0,0.0,0.0,0.0,0.0,0.0,0.37961763,44.999744,0.7306404,
0.0390624994179234,2,-0.035461426,0.61743164,0.43426514,0.11328125,0.5595703,0.17773438,0.0,0.0,0.0,0.0,0.0,0.0,0.0,0.0,0.0,0.0,0.0,-0.6423838,-0.007027169,0.76656187,-0.923584,0.003540039,0.13580322,-1.3408203,1.2529297,0.27539062,4.963529,-13.2993355,-0.14548418,15.870207,0.8880005,-0.24023438,-0.19171143,-0.4404297,-0.7392578,0.03125,33.415035,-16.739109,-56.96798,18.892887,-0.74224854,-0.3383789,0.52142334,-0.43164062,0.65722656,0.49121094,56.561558,-47.896744,-113.842415,50.207157,0.0,0.0,0.0,0.0,0.0,0.0,0.0,-30.374268,-123.09142,47.579384,0.0,0.0,0.0,0.0,0.0,0.0,0.0,0.6423838,0.007027169,-0.76656187,-0.5953369,-0.0657959,-0.4486084,0.9951172,-0.24609375,-0.99902344,15.471659,13.2993355,0.14548418,-15.870207,0.35516357,0.066223145,-0.9701538,-0.7480469,4.442383,-0.69433594,57.420506,27.206127,-54.826824,-21.737637,0.20495605,-0.10992432,0.99786377,0.3779297,4.9101562,1.1171875,51.3893,-14.880428,-108.43442,1.537262,0.0,0.0,0.0,0.0,0.0,0.0,0.0,-19.692093,-96.42827,16.787445,0.0,0.0,0.0,0.0,0.0,0.0,0.0,0.37961763,44.999744,0.7306404,
0.0585937491268851,3,-0.16967773,0.8255615,0.42559814,-0.32128906,0.4814453,0.4609375,0.0,0.0,0.0,0.0,0.0,0.0,0.0,0.0,0.0,0.0,0.0,-0.81058097,0.10164842,0.5770577,-0.86694336,0.01586914,0.2824707,-0.11621094,1.4033203,0.6582031,18.490147,-16.781538,2.104437,11.946884,0.8864136,-0.05206299,-0.40631104,0.06933594,-0.26660156,-0.22558594,32.194775,-1.4425182,-52.717422,14.937716,-0.59143066,-0.41412354,0.7479248,-0.5058594,0.13085938,0.19628906,27.398705,-17.24102,-121.71814,1.63346,0.0,0.0,0.0,0.0,0.0,0.0,0.0,-21.990843,-123.28591,20.984299,0.0,0.0,0.0,0.0,0.0,0.0,0.0,0.81058097,-0.10164842,-0.5770577,-0.9914551,0.13757324,-0.2571411,-0.76660156,0.13671875,-0.17871094,7.882892,16.781538,-2.104437,-11.946884,1.0057983,-0.15240479,-0.18676758,0.5029297,0.0126953125,-0.034179688,10.541839,21.6981,-58.249077,-3.3672104,0.4342041,-0.29278564,0.8425293,-0.08691406,0.6513672,1.1533203,7.8628464,15.366129,-129.44983,5.403864,0.0,0.0,0.0,0.0,0.0,0.0,0.0,18.647684,-130.35657,25.11362,0.0,0.0,0.0,0.0,0.0,0.0,0.0,2.0379033,44.68236,-5.008174,
0.0781249988358468,4,-0.19763184,0.7965698,0.43701172,0.05078125,0.45214844,0.39746094,0.0,0.0,0.0,0.0,0.0,0.0,0.0,0.0,0.0,0.0,0.0,-0.81689465,0.10009181,0.56828475,-0.87127686,0.036499023,0.21508789,-0.3798828,1.3486328,0.4482422,16.937191,-16.912249,2.0722106,11.765257,0.9230957,-0.15161133,-0.40698242,-0.09765625,-0.016601562,-0.23242188,30.888475,-3.1450214,-53.161938,14.715409,-0.32940674,-0.418396,1.1490479,-0.5205078,-0.51953125,0.14746094,25.696062,-19.062435,-122.090546,1.2144938,0.0,0.0,0.0,0.0,0.0,0.0,0.0,-23.308996,-124.46577,19.84671,0.0,0.0,0.0,0.0,0.0,0.0,0.0,0.81689465,-0.10009181,-0.56828475,-0.96795654,0.094055176,-0.21618652,-0.86328125,0.022460938,-0.19824219,8.067061,16.912249,-2.0722106,-11.765257,1.0445557,-0.14996338,-0.18951416,0.38671875,0.033203125,-0.033203125,10.576167,21.847992,-58.198948,-3.0746565,0.41558838,-0.3076172,0.86035156,-0.06933594,0.53808594,0.98339844,7.2791224,15.492983,-129.38846,5.781806,0.0,0.0,0.0,0.0,0.0,0.0,0.0,18.50328,-130.0407,25.545643,0.0,0.0,0.0,0.0,0.0,0.0,0.0,2.097255,44.694313,-4.857244,
0.09765624854480849,5,-0.19042969,0.81140137,0.4508667,0.43847656,0.26953125,0.3330078,0.0,0.0,0.0,0.0,0.0,0.0,0.0,0.0,0.0,0.0,0.0,-0.8203716,0.09487333,0.563996,-0.9121704,0.037475586,0.13238525,-0.64160156,1.4472656,0.18164062,15.103419,-16.984236,1.964172,11.676465,1.0059814,-0.24157715,-0.32537842,0.043945312,0.4375,-0.15722656,28.899008,-4.8069897,-53.654915,14.221784,0.077697754,-0.5968628,1.4248657,-1.1396484,-1.4951172,0.2421875,22.602179,-20.383392,-122.70049,0.9793234,0.0,0.0,0.0,0.0,0.0,0.0,0.0,-23.893867,-127.17255,19.17519,0.0,0.0,0.0,0.0,0.0,0.0,0.0,0.8203716,-0.09487333,-0.563996,-0.9379883,0.079833984,-0.21728516,-0.5566406,0.09082031,-0.18066406,7.7838416,16.984236,-1.964172,-11.676465,0.9979248,-0.1673584,-0.23687744,0.34765625,0.07128906,-0.033203125,10.644958,21.937626,-58.09182,-2.9918776,0.3951416,-0.2932129,0.8633423,-0.049804688,0.46289062,0.71972656,6.90859,15.475424,-129.25156,5.9766626,0.0,0.0,0.0,0.0,0.0,0.0,0.0,18.256123,-129.71255,25.780338,0.0,0.0,0.0,0.0,0.0,0.0,0.0,1.8429615,44.70339,-4.8391232,
0.11718749825377019,6,-0.13739014,0.80181885,0.41558838,0.3359375,0.13769531,0.3154297,0.0,0.0,0.0,0.0,0.0,0.0,0.0,0.0,0.0,0.0,0.0,-0.82246256,0.08678139,0.56242794,-0.991333,0.083496094,0.18487549,-0.75390625,1.5439453,0.048828125,13.194564,-17.027523,1.7966439,11.644001,1.1339111,-0.29577637,-0.07556152,0.79296875,0.9970703,-0.083984375,26.533443,-6.5244436,-54.200516,13.408037,-0.03466797,-0.83984375,0.90960693,-0.4189453,-1.8125,-0.28515625,20.401571,-21.980816,-123.36773,1.2016954,0.0,0.0,0.0,0.0,0.0,0.0,0.0,-24.725193,-129.97784,19.020576,0.0,0.0,0.0,0.0,0.0,0.0,0.0,0.82246256,-0.08678139,-0.56242794,-0.9361572,0.06719971,-0.26257324,-0.42285156,0.20410156,-0.18261719,7.132316,17.027523,-1.7966439,-11.644001,0.99713135,-0.15930176,-0.22705078,0.15332031,0.111328125,-0.087890625,10.376781,21.779352,-57.97056,-3.1527786,0.43804932,-0.31011963,0.86816406,-0.06933594,0.31445312,0.26757812,6.79252,15.328327,-129.12344,5.8917465,0.0,0.0,0.0,0.0,0.0,0.0,0.0,17.990517,-129.49983,25.712812,0.0,0.0,0.0,0.0,0.0,0.0,0.0,1.478091,44.731995,-4.7405725,
0.1367187479627319,7,-0.09692383,0.87841797,0.44396973,-0.11230469,0.26367188,0.34472656,0.0,0.0,0.0,0.0,0.0,0.0,0.0,0.0,0.0,0.0,0.0,-0.8253551,0.081656024,0.5588995,-1.024353,0.09442139,0.4956665,-0.50878906,1.375,-0.06738281,11.800495,-17.08741,1.6905329,11.570952,1.1308594,-0.1274414,0.029785156,1.2998047,0.81933594,-0.16308594,24.23397,-8.003382,-54.576294,12.789766,-1.5702515,0.2915039,0.5602417,0.39746094,-1.5253906,-0.013671875,19.522812,-23.11797,-124.05292,1.9112301,0.0,0.0,0.0,0.0,0.0,0.0,0.0,-24.833714,-132.26042,19.371819,0.0,0.0,0.0,0.0,0.0,0.0,0.0,0.8253551,-0.081656024,-0.5588995,-0.94104004,0.07757568,-0.28411865,-0.28808594,0.2783203,-0.16308594,6.7426157,17.08741,-1.6905329,-11.570952,0.98217773,-0.19702148,-0.21166992,0.09375,0.16796875,-0.10644531,9.912962,21.566164,-57.923786,-3.3118029,0.4031372,-0.3164673,0.87420654,0.061523438,0.103515625,-0.015625,6.8325953,15.292572,-129.09741,5.756446,0.0,0.0,0.0,0.0,0.0,0.0,0.0,17.953247,-129.46922,25.5783,0.0,0.0,0.0,0.0,0.0,0.0,0.0,1.357565,44.756004,-4.534132,
0.1562499976716936,8,-0.09832764,0.8578491,0.48565674,-0.24804688,0.30566406,0.38476562,0.0,0.0,0.0,0.0,0.0,0.0,0.0,0.0,0.0,0.0,0.0,-0.8288658,0.08025846,0.5537723,-1.1044312,0.010375977,0.7669678,-0.4345703,0.7294922,-0.2265625,11.283237,-17.160095,1.661599,11.464802,1.043457,-0.15460205,-0.13397217,0.2939453,0.41308594,-0.03515625,22.461592,-8.938559,-54.747513,12.054824,-1.0319214,-0.032409668,0.77111816,-0.8017578,-1.1826172,0.038085938,22.119473,-23.53878,-124.54631,2.039483,0.0,0.0,0.0,0.0,0.0,0.0,0.0,-24.489683,-134.30768,18.887272,0.0,0.0,0.0,0.0,0.0,0.0,0.0,0.8288658,-0.08025846,-0.5537723,-0.95788574,0.019226074,-0.32580566,-0.3076172,0.39648438,-0.16308594,6.616928,17.160095,-1.661599,-11.464802,0.9657593,-0.108947754,-0.21881104,0.50097656,0.08691406,-0.11035156,9.348889,21.254183,-57.961388,-3.511015,0.4383545,-0.25726318,0.881897,0.061523438,0.08496094,-0.034179688,6.9673953,15.143621,-129.14357,5.543273,0.0,0.0,0.0,0.0,0.0,0.0,0.0,17.799864,-129.57104,25.364143,0.0,0.0,0.0,0.0,0.0,0.0,0.0,1.5217097,44.779366,-4.212255,
0.1757812473806553,9,-0.09197998,0.8389282,0.5022583,0.0234375,0.18457031,0.359375,0.0,0.0,0.0,0.0,0.0,0.0,0.0,0.0,0.0,0.0,0.0,-0.8308054,0.07747035,0.5514008,-1.069519,0.111328125,0.5725708,-0.30371094,0.3486328,-0.23046875,11.126505,-17.200247,1.6038762,11.415707,1.0092163,-0.2510376,-0.18884277,0.14355469,0.3564453,0.037109375,21.133821,-9.26166,-54.84956,11.5681095,-0.028869629,-0.62805176,0.8664551,-0.8378906,-1.1044922,0.37402344,24.526592,-22.98996,-124.921005,2.2453423,0.0,0.0,0.0,0.0,0.0,0.0,0.0,-24.14768,-135.42117,19.10444,0.0,0.0,0.0,0.0,0.0,0.0,0.0,0.8308054,-0.07747035,-0.5514008,-0.9951172,0.014892578,-0.2796631,-0.28808594,0.29785156,-0.265625,6.421686,17.200247,-1.6038762,-11.415707,0.9908447,-0.017578125,-0.2545166,0.17089844,0.18457031,-0.10839844,8.886128,20.980885,-57.98792,-3.8891659,0.41168213,-0.2578125,0.88494873,-0.016601562,0.028320312,0.041015625,6.813739,15.026127,-129.23067,4.808008,0.0,0.0,0.0,0.0,0.0,0.0,0.0,17.672531,-129.70557,24.62964,0.0,0.0,0.0,0.0,0.0,0.0,0.0,1.6052034,44.810295,-3.8771386,
0.19531249708961698,10,-0.08239746,0.8314209,0.4611206,0.19921875,0.16113281,0.35546875,0.0,0.0,0.0,0.0,0.0,0.0,0.0,0.0,0.0,0.0,0.0,-0.83216333,0.070748456,0.55032754,-0.97442627,0.2397461,0.2562256,-0.79296875,0.8408203,-0.12988281,10.38781,-17.22836,1.4647124,11.393486,1.0401001,-0.24481201,-0.09844971,0.103515625,0.4736328,-0.09863281,19.537643,-9.798525,-55.052254,11.38501,-0.5269165,-0.27557373,0.8027954,0.10644531,-0.94140625,-0.2685547,25.709627,-22.470428,-125.43115,2.8773499,0.0,0.0,0.0,0.0,0.0,0.0,0.0,-23.876852,-136.01974,19.706867,0.0,0.0,0.0,0.0,0.0,0.0,0.0,0.83216333,-0.070748456,-0.55032754,-0.9360962,0.070495605,-0.31860352,-0.19238281,0.25585938,-0.22558594,6.0343266,17.22836,-1.4647124,-11.393486,0.9904175,-0.111328125,-0.23510742,-0.27441406,0.265625,-0.046875,8.3894415,20.76322,-57.916622,-4.234234,0.42175293,-0.28894043,0.88098145,-0.017578125,-0.046875,0.00390625,6.757231,15.088903,-129.20865,4.231447,0.0,0.0,0.0,0.0,0.0,0.0,0.0,17.723186,-129.70152,24.053677,0.0,0.0,0.0,0.0,0.0,0.0,0.0,1.4544476,44.843094,-3.5655894,
0.21484374679857868,11,-0.023925781,0.78808594,0.4453125,0.17773438,0.10449219,0.35546875,0.0,0.0,0.0,0.0,0.0,0.0,0.0,0.0,0.0,0.0,0.0,-0.83398813,0.06299532,0.54840815,-0.9001465,0.19702148,0.3024292,-0.86816406,0.85839844,-0.052734375,9.27697,-17.26614,1.3041985,11.353749,1.0457153,-0.2949829,-0.11462402,-0.109375,0.4404297,-0.19921875,17.742,-10.583845,-55.306175,11.389344,-0.93792725,-8.544922E-4,0.76989746,-0.15820312,-0.76660156,0.025390625,27.900663,-22.065912,-125.96673,3.5703468,0.0,0.0,0.0,0.0,0.0,0.0,0.0,-23.008244,-137.05737,19.728405,0.0,0.0,0.0,0.0,0.0,0.0,0.0,0.83398813,-0.06299532,-0.54840815,-0.8721924,0.04034424,-0.33459473,-0.30664062,0.39648438,-0.20410156,5.405916,17.26614,-1.3041985,-11.353749,0.9664917,-0.14892578,-0.21759033,0.015625,0.24316406,-0.10644531,7.696053,20.35779,-57.82623,-4.551834,0.43414307,-0.2781372,0.8760376,9.765625E-4,-0.06738281,0.041015625,6.9830866,14.936512,-129.1273,3.962057,0.0,0.0,0.0,0.0,0.0,0.0,0.0,17.556454,-129.65314,23.7858,0.0,0.0,0.0,0.0,0.0,0.0,0.0,1.2396117,44.86976,-3.2690313,
0.23437499650754037,12,-0.029846191,0.7833252,0.45037842,-0.11425781,0.1875,0.34472656,0.0,0.0,0.0,0.0,0.0,0.0,0.0,0.0,0.0,0.0,0.0,-0.8347105,0.060214147,0.5476759,-0.90411377,0.13012695,0.35205078,-0.7001953,0.49609375,0.01953125,8.71855,-17.281097,1.2466196,11.33859,0.9946289,-0.34472656,-0.14324951,0.045898438,0.32128906,-0.041015625,16.873327,-10.954699,-55.398823,11.605105,-0.4331665,-0.31781006,0.79089355,-0.3876953,-0.65234375,-0.017578125,29.47268,-21.91414,-126.2225,4.5055285,0.0,0.0,0.0,0.0,0.0,0.0,0.0,-22.691856,-137.83998,20.676441,0.0,0.0,0.0,0.0,0.0,0.0,0.0,0.8347105,-0.060214147,-0.5476759,-0.93170166,0.026062012,-0.26489258,-0.19140625,0.47070312,-0.24609375,4.8408813,17.281097,-1.2466196,-11.33859,0.96710205,-0.124938965,-0.19110107,0.15039062,0.2783203,-0.12792969,6.9385633,19.89373,-57.841866,-4.9706306,0.4421997,-0.31304932,0.8553467,-0.056640625,-0.046875,0.060546875,7.099814,14.772594,-129.16803,3.5404034,0.0,0.0,0.0,0.0,0.0,0.0,0.0,17.384598,-129.72351,23.364729,0.0,0.0,0.0,0.0,0.0,0.0,0.0,1.2059436,44.884254,-3.096819,
0.2539062462165021,13,-0.061401367,0.73724365,0.4180298,-0.2109375,0.24609375,0.31054688,0.0,0.0,0.0,0.0,0.0,0.0,0.0,0.0,0.0,0.0,0.0,-0.8354009,0.061689153,0.54604864,-0.9622803,0.08337402,0.10620117,-0.6816406,0.515625,0.01953125,8.4944935,-17.29539,1.2771566,11.304901,0.9817505,-0.32836914,-0.17791748,0.53808594,0.29492188,-0.045898438,15.783111,-11.336603,-55.414234,11.5568,-0.56799316,-0.2722168,0.7781372,-0.103515625,-0.55371094,-0.12597656,30.047663,-21.719624,-126.41757,5.4360914,0.0,0.0,0.0,0.0,0.0,0.0,0.0,-22.803457,-137.90564,21.720715,0.0,0.0,0.0,0.0,0.0,0.0,0.0,0.8354009,-0.061689153,-0.54604864,-0.9510498,0.082214355,-0.2654419,-0.22949219,0.53027344,-0.22460938,4.4269996,17.29539,-1.2771566,-11.304901,0.9893799,-0.11621094,-0.171875,0.34472656,0.27441406,-0.12988281,6.178284,19.477968,-57.93017,-5.3116827,0.43017578,-0.2738037,0.85235596,9.765625E-4,-0.06738281,0.041015625,7.178733,14.749836,-129.28796,3.204381,0.0,0.0,0.0,0.0,0.0,0.0,0.0,17.3521,-129.86627,23.02921,0.0,0.0,0.0,0.0,0.0,0.0,0.0,1.317821,44.873997,-3.053445,
0.2734374959254638,14,-0.103393555,0.80126953,0.46740723,-0.07910156,0.0703125,0.26953125,0.0,0.0,0.0,0.0,0.0,0.0,0.0,0.0,0.0,0.0,0.0,-0.83564687,0.062319208,0.54579186,-0.991272,0.006958008,0.10491943,-0.3408203,0.765625,-0.0546875,8.090609,-17.300482,1.2902007,11.299583,0.96655273,-0.21691895,-0.19934082,0.70410156,0.29492188,-0.19433594,14.225358,-12.076344,-55.47469,11.123547,-0.6201172,-0.20770264,0.79577637,-0.19824219,-0.55078125,-0.09082031,29.980347,-21.78498,-126.621445,5.7016625,0.0,0.0,0.0,0.0,0.0,0.0,0.0,-22.923542,-137.92068,22.102629,0.0,0.0,0.0,0.0,0.0,0.0,0.0,0.83564687,-0.062319208,-0.54579186,-0.9224243,0.04284668,-0.23724365,-0.42089844,0.4580078,-0.3046875,4.1164207,17.300482,-1.2902007,-11.299583,0.9899292,-0.06329346,-0.1593628,0.4033203,0.23730469,-0.111328125,5.417178,19.05968,-57.984016,-5.604743,0.40460205,-0.24749756,0.86724854,-0.036132812,-0.0087890625,0.07910156,7.2125134,14.75012,-129.37003,2.8402033,0.0,0.0,0.0,0.0,0.0,0.0,0.0,17.34419,-129.98546,22.663872,0.0,0.0,0.0,0.0,0.0,0.0,0.0,1.4350699,44.88349,-2.9276576,
0.2929687456344255,15,-0.086364746,0.8464966,0.47131348,0.17480469,0.0068359375,0.26367188,0.0,0.0,0.0,0.0,0.0,0.0,0.0,0.0,0.0,0.0,0.0,-0.8356487,0.057992447,0.54646325,-0.9803467,0.011169434,0.2543335,-0.24707031,0.59375,9.765625E-4,7.5785694,-17.300518,1.2006235,11.313482,0.9942627,-0.12872314,-0.22015381,0.32714844,0.2421875,-0.08984375,13.118027,-12.549068,-55.599117,10.859562,-0.5571289,-0.28729248,0.7692261,-0.16113281,-0.515625,-0.14648438,29.81674,-21.628128,-126.85135,5.7315693,0.0,0.0,0.0,0.0,0.0,0.0,0.0,-22.884724,-138.01495,22.228317,0.0,0.0,0.0,0.0,0.0,0.0,0.0,0.8356487,-0.057992447,-0.54646325,-0.9222412,-0.016479492,-0.2121582,-0.13378906,0.4892578,-0.3486328,3.760673,17.300518,-1.2006235,-11.313482,0.99279785,-0.037353516,-0.117126465,-0.00390625,0.28027344,-0.087890625,4.8514724,18.874437,-57.94681,-6.086269,0.41662598,-0.30651855,0.8475342,-0.07421875,0.01171875,0.00390625,7.152038,15.064221,-129.38808,2.1945539,0.0,0.0,0.0,0.0,0.0,0.0,0.0,17.658081,-130.0162,22.018753,0.0,0.0,0.0,0.0,0.0,0.0,0.0,1.3456204,44.90493,-2.7077408,
0.3124999953433872,16,-0.041259766,0.85217285,0.44830322,0.33691406,0.17285156,0.1875,0.0,0.0,0.0,0.0,0.0,0.0,0.0,0.0,0.0,0.0,0.0,-0.837046,0.05099564,0.54498786,-1.0064697,-0.015686035,0.1940918,-0.2861328,0.49609375,0.115234375,7.007427,-17.329447,1.0557678,11.282937,1.013977,-0.15020752,-0.20550537,-0.048828125,0.30371094,-0.043945312,12.304851,-12.861345,-55.76533,10.701153,-0.54571533,-0.26409912,0.78497314,-0.08496094,-0.5185547,-0.1640625,29.516115,-21.368889,-127.10829,5.788663,0.0,0.0,0.0,0.0,0.0,0.0,0.0,-22.762491,-138.08267,22.401588,0.0,0.0,0.0,0.0,0.0,0.0,0.0,0.837046,-0.05099564,-0.54498786,-0.961792,0.028259277,-0.20977783,0.38378906,0.8251953,-0.27246094,2.892997,17.329447,-1.0557678,-11.282937,0.9720459,-0.120788574,-0.06384277,-0.23535156,0.24707031,-0.08496094,4.18067,18.525341,-57.871105,-6.755912,0.4258423,-0.3017578,0.8553467,-0.072265625,0.049804688,-0.052734375,7.2449193,15.291073,-129.3376,1.5409632,0.0,0.0,0.0,0.0,0.0,0.0,0.0,17.874294,-129.97144,21.366066,0.0,0.0,0.0,0.0,0.0,0.0,0.0,1.0802281,44.920853,-2.5442164,
0.3320312450523489,17,0.009643555,0.86395264,0.48583984,0.2548828,0.060546875,0.18847656,0.0,0.0,0.0,0.0,0.0,0.0,0.0,0.0,0.0,0.0,0.0,-0.8381183,0.043186657,0.5439616,-1.0045776,0.029968262,0.13812256,-0.171875,0.6875,0.078125,6.2273073,-17.351646,0.89409775,11.261691,1.0054932,-0.20385742,-0.17669678,-0.05078125,0.28515625,-0.08203125,11.187078,-13.423677,-55.973408,10.488844,-0.55358887,-0.30444336,0.824646,-0.06640625,-0.46484375,-0.14550781,29.35669,-21.35186,-127.405304,5.9410663,0.0,0.0,0.0,0.0,0.0,0.0,0.0,-22.865986,-138.19249,22.664146,0.0,0.0,0.0,0.0,0.0,0.0,0.0,0.8381183,-0.043186657,-0.5439616,-0.9697876,0.031799316,-0.19012451,0.115234375,0.5595703,-0.3310547,2.0845015,17.351646,-0.89409775,-11.261691,1.0007935,-0.16314697,-0.051330566,-0.234375,0.17285156,-0.10253906,3.749044,18.17816,-57.761684,-7.314954,0.40948486,-0.2925415,0.86431885,-0.091796875,0.06933594,-0.0146484375,7.3723006,15.437839,-129.23305,1.0574503,0.0,0.0,0.0,0.0,0.0,0.0,0.0,18.021494,-129.8711,20.881199,0.0,0.0,0.0,0.0,0.0,0.0,0.0,0.79238486,44.936325,-2.3467417,
0.3515624947613106,18,-0.01965332,0.81292725,0.46728516,-0.119140625,0.03125,0.19726562,0.0,0.0,0.0,0.0,0.0,0.0,0.0,0.0,0.0,0.0,0.0,-0.839235,0.03711565,0.5426795,-0.99102783,0.11853027,0.18243408,-0.11425781,0.8417969,0.00390625,5.4645767,-17.374767,0.768409,11.235147,1.0266113,-0.17443848,-0.15881348,-0.19824219,0.26660156,0.047851562,9.844526,-14.150478,-56.136906,10.201409,-0.5510864,-0.2798462,0.81170654,-0.12402344,-0.40820312,-0.09082031,29.23115,-21.433598,-127.6671,6.026088,0.0,0.0,0.0,0.0,0.0,0.0,0.0,-23.045605,-138.28531,22.847364,0.0,0.0,0.0,0.0,0.0,0.0,0.0,0.839235,-0.03711565,-0.5426795,-0.9649048,0.021911621,-0.18725586,-0.23046875,0.1796875,-0.41015625,2.0622246,17.374767,-0.768409,-11.235147,0.9772949,-0.152771,-0.03112793,-0.11816406,0.059570312,-0.12207031,3.7625473,18.248163,-57.655785,-7.6783743,0.4095459,-0.2805786,0.86920166,0.00390625,0.06640625,-0.034179688,7.433026,15.909426,-129.14624,0.7409611,0.0,0.0,0.0,0.0,0.0,0.0,0.0,18.48601,-129.77763,20.566174,0.0,0.0,0.0,0.0,0.0,0.0,0.0,0.70470494,44.955048,-1.9848231,
0.37109374447027227,19,-0.02960205,0.7485962,0.4590454,-0.23242188,0.18652344,0.1640625,0.0,0.0,0.0,0.0,0.0,0.0,0.0,0.0,0.0,0.0,0.0,-0.83841795,0.038638294,0.5435065,-0.98394775,0.18457031,0.24633789,-0.24707031,0.6503906,0.040039062,5.0609765,-17.357851,0.7999325,11.252271,1.0128784,-0.27093506,-0.14709473,-0.36914062,0.28808594,0.04296875,8.741253,-14.733758,-56.132812,10.195335,-0.54400635,-0.27893066,0.7929077,-0.123046875,-0.40722656,-0.015625,29.283798,-21.462946,-127.73289,6.408389,0.0,0.0,0.0,0.0,0.0,0.0,0.0,-23.168709,-138.20622,23.310905,0.0,0.0,0.0,0.0,0.0,0.0,0.0,0.83841795,-0.038638294,-0.5435065,-0.9668579,0.026611328,-0.3012085,-0.115234375,0.21484375,-0.34960938,2.3498538,17.357851,-0.7999325,-11.252271,1.0447998,-0.12182617,-0.05834961,0.017578125,-0.016601562,-0.17871094,3.8602138,18.348797,-57.70923,-8.047579,0.40948486,-0.30541992,0.852478,0.00390625,0.0859375,-0.034179688,7.3658304,16.260921,-129.21292,0.24731636,0.0,0.0,0.0,0.0,0.0,0.0,0.0,18.837336,-129.84776,20.072414,0.0,0.0,0.0,0.0,0.0,0.0,0.0,0.9093684,44.951405,-1.79283,
0.39062499417923396,20,-0.062561035,0.78845215,0.49908447,0.0048828125,0.21777344,0.123046875,0.0,0.0,0.0,0.0,0.0,0.0,0.0,0.0,0.0,0.0,0.0,-0.8376488,0.041018385,0.5448039,-1.0117188,0.18035889,0.17150879,-0.26660156,0.4404297,0.018554688,4.758517,-17.341928,0.8492077,11.279128,0.98846436,-0.352417,-0.11029053,0.0625,0.2265625,-0.078125,7.917528,-15.120359,-56.105656,10.35644,-0.5095825,-0.25750732,0.82147217,-0.12402344,-0.33398438,0.001953125,29.643124,-21.453804,-127.776596,7.2847958,0.0,0.0,0.0,0.0,0.0,0.0,0.0,-23.276901,-138.11682,24.257174,0.0,0.0,0.0,0.0,0.0,0.0,0.0,0.8376488,-0.041018385,-0.5448039,-0.991333,0.0670166,-0.4570923,0.15136719,0.1484375,-0.23046875,2.3712459,17.341928,-0.8492077,-11.279128,1.0508423,-0.046081543,-0.09259033,0.13476562,0.018554688,-0.08691406,3.715994,18.141748,-57.779545,-8.426178,0.40545654,-0.26763916,0.8810425,0.00390625,0.06640625,-0.015625,7.2463007,16.271702,-129.32234,-0.3787079,0.0,0.0,0.0,0.0,0.0,0.0,0.0,18.837015,-129.97548,19.447615,0.0,0.0,0.0,0.0,0.0,0.0,0.0,1.1300246,44.958996,-1.6475316,
0.41015624388819566,21,-0.055847168,0.83288574,0.48431396,0.15722656,0.080078125,0.13671875,0.0,0.0,0.0,0.0,0.0,0.0,0.0,0.0,0.0,0.0,0.0,-0.8366546,0.03965972,0.54662883,-1.0057373,0.1293335,0.12982178,-0.3232422,0.34472656,0.017578125,4.385526,-17.321346,0.82107913,11.316914,0.9916382,-0.27313232,-0.11602783,0.49609375,0.14453125,-0.12207031,7.1436396,-15.427725,-56.14286,10.435095,-0.5270386,-0.27770996,0.83343506,-0.20019531,-0.2783203,-0.018554688,29.734531,-21.323048,-127.87339,7.947984,0.0,0.0,0.0,0.0,0.0,0.0,0.0,-23.219997,-138.09625,24.981176,0.0,0.0,0.0,0.0,0.0,0.0,0.0,0.8366546,-0.03965972,-0.54662883,-0.93963623,0.029052734,-0.42401123,-0.38476562,-0.08984375,-0.22460938,2.2452433,17.321346,-0.82107913,-11.316914,1.0162964,-0.08557129,-0.12023926,0.038085938,0.0390625,-0.029296875,3.6820629,18.004473,-57.761917,-8.6500225,0.4177246,-0.284729,0.86621094,0.00390625,0.06640625,-0.034179688,7.249603,16.223623,-129.3174,-0.69511795,0.0,0.0,0.0,0.0,0.0,0.0,0.0,18.770824,-129.99193,19.13286,0.0,0.0,0.0,0.0,0.0,0.0,0.0,1.1292151,44.967922,-1.5342257,
0.42968749359715736,22,0.018249512,0.8306885,0.44256592,0.060546875,0.12109375,0.15722656,0.0,0.0,0.0,0.0,0.0,0.0,0.0,0.0,0.0,0.0,0.0,-0.83778733,0.034954943,0.54510015,-0.98150635,0.09625244,0.1104126,-0.39941406,0.30664062,0.055664062,3.9214134,-17.344795,0.72367567,11.285263,1.015564,-0.21136475,-0.12799072,0.4404297,0.14453125,-0.06640625,6.4614716,-15.691807,-56.25326,10.398891,-0.49664307,-0.26391602,0.8373413,-0.10546875,-0.2265625,-0.017578125,29.678339,-21.149313,-128.03717,8.442976,0.0,0.0,0.0,0.0,0.0,0.0,0.0,-23.11019,-138.13179,25.54242,0.0,0.0,0.0,0.0,0.0,0.0,0.0,0.83778733,-0.034954943,-0.54510015,-0.9229126,-0.06781006,-0.27539062,-0.671875,-0.0029296875,-0.24121094,2.3048618,17.344795,-0.72367567,-11.285263,1.001709,-0.10437012,-0.15142822,0.018554688,0.0390625,-0.009765625,3.7358065,18.167185,-57.66451,-8.6854,0.42596436,-0.2927246,0.852417,-0.015625,0.06738281,-0.0146484375,7.231394,16.416878,-129.22882,-0.8304329,0.0,0.0,0.0,0.0,0.0,0.0,0.0,18.967955,-129.92334,18.996895,0.0,0.0,0.0,0.0,0.0,0.0,0.0,1.0107888,44.97445,-1.3304957,
0.44921874330611905,23,0.009460449,0.80914307,0.4555664,0.024414062,0.21875,0.1953125,0.0,0.0,0.0,0.0,0.0,0.0,0.0,0.0,0.0,0.0,0.0,-0.8400816,0.03158649,0.54171664,-1.0064087,0.07531738,0.16082764,-0.34277344,0.34472656,0.055664062,3.5292528,-17.392294,0.65393823,11.215215,0.9867554,-0.19146729,-0.13861084,0.25097656,0.12792969,-0.052734375,5.8728952,-15.963885,-56.3269,10.331213,-0.50909424,-0.2890625,0.8206177,-0.125,-0.17285156,-0.07519531,29.622879,-21.046816,-128.14786,8.7987995,0.0,0.0,0.0,0.0,0.0,0.0,0.0,-23.057152,-138.13287,25.958284,0.0,0.0,0.0,0.0,0.0,0.0,0.0,0.8400816,-0.03158649,-0.54171664,-0.9298706,0.014282227,-0.2649536,0.0546875,0.19042969,-0.10644531,2.414597,17.392294,-0.65393823,-11.215215,1.0351562,-0.11987305,-0.1687622,0.07714844,0.038085938,-0.0107421875,3.9197652,18.304852,-57.605198,-8.764929,0.41778564,-0.28363037,0.85443115,0.041992188,0.046875,-0.015625,7.2260475,16.486351,-129.1766,-0.9398308,0.0,0.0,0.0,0.0,0.0,0.0,0.0,19.028286,-129.8814,18.887714,0.0,0.0,0.0,0.0,0.0,0.0,0.0,0.98228437,44.980156,-1.0994055,
0.46874999301508075,24,0.010864258,0.79333496,0.48028564,-0.0146484375,0.23828125,0.16015625,0.0,0.0,0.0,0.0,0.0,0.0,0.0,0.0,0.0,0.0,0.0,-0.8416691,0.02910576,0.5394739,-1.0422363,0.024414062,0.15093994,-0.24804688,0.26953125,0.017578125,3.2895598,-17.42516,0.6025795,11.168782,1.0245361,-0.17730713,-0.15283203,0.15527344,0.12988281,-0.09375,5.417395,-16.120504,-56.376198,10.243072,-0.5130615,-0.2878418,0.80181885,-0.06933594,-0.10253906,-0.13085938,29.501732,-20.851704,-128.23097,9.011848,0.0,0.0,0.0,0.0,0.0,0.0,0.0,-22.8404,-138.13103,26.22533,0.0,0.0,0.0,0.0,0.0,0.0,0.0,0.8416691,-0.02910576,-0.5394739,-0.8963623,0.03491211,-0.33459473,-0.0029296875,0.09472656,-0.14648438,2.3816235,17.42516,-0.6025795,-11.168782,1.031311,-0.095825195,-0.1708374,0.115234375,0.037109375,-0.08691406,4.019221,18.249641,-57.564064,-8.955385,0.42785645,-0.29693604,0.87213135,0.060546875,0.045898438,-0.015625,7.186517,16.378672,-129.13895,-1.2223368,0.0,0.0,0.0,0.0,0.0,0.0,0.0,18.926579,-129.85655,18.604778,0.0,0.0,0.0,0.0,0.0,0.0,0.0,0.9997433,44.986965,-0.86737645,
0.48828124272404244,25,-0.0056152344,0.80755615,0.46191406,0.043945312,0.21582031,0.103515625,0.0,0.0,0.0,0.0,0.0,0.0,0.0,0.0,0.0,0.0,0.0,-0.8429993,0.028212328,0.53744614,-0.99432373,-0.0015869141,0.09277344,-0.20996094,0.2705078,-0.078125,3.2696214,-17.452698,0.5840826,11.1268015,0.98706055,-0.14550781,-0.115478516,-0.052734375,0.11328125,-0.060546875,4.9984965,-16.21087,-56.400246,10.041634,-0.5213623,-0.30145264,0.817688,-0.10644531,-0.064453125,-0.076171875,29.36749,-20.544834,-128.27649,8.955753,0.0,0.0,0.0,0.0,0.0,0.0,0.0,-22.531898,-138.1103,26.20809,0.0,0.0,0.0,0.0,0.0,0.0,0.0,0.8429993,-0.028212328,-0.53744614,-0.88964844,0.009643555,-0.42913818,0.09277344,0.111328125,-0.12792969,2.228356,17.452698,-0.5840826,-11.1268015,1.0393677,-0.081970215,-0.1720581,-9.765625E-4,0.057617188,-0.0859375,3.8914874,18.054007,-57.552376,-9.119079,0.39727783,-0.2654419,0.87908936,0.022460938,0.06640625,-0.015625,7.009498,16.179413,-129.15909,-1.6395187,0.0,0.0,0.0,0.0,0.0,0.0,0.0,18.710728,-129.88585,18.189606,0.0,0.0,0.0,0.0,0.0,0.0,0.0,1.0467066,44.98864,-0.7198143,
0.5078124924330042,26,-0.036193848,0.7992554,0.43475342,0.14257812,0.25097656,0.06542969,0.0,0.0,0.0,0.0,0.0,0.0,0.0,0.0,0.0,0.0,0.0,-0.8446278,0.026626652,0.53504205,-0.96539307,0.07556152,0.11004639,-0.15332031,0.25097656,-0.001953125,3.1396825,-17.486416,0.5512543,11.077028,0.9703369,-0.19970703,-0.12652588,-0.16503906,0.018554688,0.0126953125,4.583044,-16.387793,-56.433735,9.87941,-0.52948,-0.30511475,0.81970215,-0.06933594,-0.029296875,-0.038085938,29.300026,-20.41215,-128.33293,8.955991,0.0,0.0,0.0,0.0,0.0,0.0,0.0,-22.387875,-138.09943,26.249058,0.0,0.0,0.0,0.0,0.0,0.0,0.0,0.8446278,-0.026626652,-0.53504205,-0.9038696,0.0015869141,-0.40856934,0.036132812,0.22949219,-0.0859375,1.7459642,17.486416,-0.5512543,-11.077028,1.0394897,-0.06402588,-0.1751709,-0.07910156,0.095703125,-0.028320312,3.819929,17.752634,-57.531246,-9.374903,0.41778564,-0.27960205,0.8563843,0.00390625,0.06640625,-0.015625,6.908931,15.935836,-129.15742,-2.0859141,0.0,0.0,0.0,0.0,0.0,0.0,0.0,18.475662,-129.90027,17.7405,0.0,0.0,0.0,0.0,0.0,0.0,0.0,0.98882335,44.992462,-0.6780982,
0.5273437421419659,27,-0.05596924,0.8417969,0.4784546,0.18066406,0.19335938,0.08203125,0.0,0.0,0.0,0.0,0.0,0.0,0.0,0.0,0.0,0.0,0.0,-0.84535384,0.02514946,0.53372663,-0.9939575,0.10827637,0.16040039,-0.060546875,0.19238281,0.09277344,2.8558133,-17.501448,0.5206718,11.049796,0.97088623,-0.25268555,-0.12371826,0.005859375,0.09277344,-0.001953125,4.2747097,-16.564964,-56.468494,9.996437,-0.51672363,-0.3251953,0.8078613,-0.087890625,-0.046875,-0.038085938,29.416805,-20.417343,-128.37209,9.385757,0.0,0.0,0.0,0.0,0.0,0.0,0.0,-22.400318,-138.08531,26.709742,0.0,0.0,0.0,0.0,0.0,0.0,0.0,0.84535384,-0.02514946,-0.53372663,-0.94940186,-0.021606445,-0.34381104,-0.38476562,0.10546875,-0.1015625,1.3569618,17.501448,-0.5206718,-11.049796,1.0510864,-0.09814453,-0.18109131,0.017578125,0.11328125,-0.048828125,3.8155694,17.572598,-57.511566,-9.53201,0.43615723,-0.28216553,0.87597656,0.022460938,0.028320312,0.00390625,6.914578,15.803735,-129.14967,-2.3250914,0.0,0.0,0.0,0.0,0.0,0.0,0.0,18.329525,-129.915,17.50288,0.0,0.0,0.0,0.0,0.0,0.0,0.0,0.8907995,44.988293,-0.70895916,
0.5468749918509276,28,-0.06500244,0.828125,0.4805298,0.041015625,0.13867188,0.047851562,0.0,0.0,0.0,0.0,0.0,0.0,0.0,0.0,0.0,0.0,0.0,-0.84497494,0.025458045,0.53438324,-1.0814209,0.027648926,0.10614014,-0.060546875,0.07910156,0.053710938,2.7846692,-17.493599,0.52706045,11.063388,1.0389404,-0.20532227,-0.15106201,0.13476562,-0.0029296875,-0.07324219,4.1355963,-16.598635,-56.46399,10.09391,-0.51849365,-0.30749512,0.82562256,-0.06933594,-0.0107421875,-0.038085938,29.367002,-20.3387,-128.38182,9.721312,0.0,0.0,0.0,0.0,0.0,0.0,0.0,-22.33714,-138.02318,27.081741,0.0,0.0,0.0,0.0,0.0,0.0,0.0,0.84497494,-0.025458045,-0.53438324,-0.9091797,-0.092285156,-0.3256836,-0.11816406,0.078125,-0.06347656,1.2628456,17.493599,-0.52706045,-11.063388,1.0316772,-0.045959473,-0.17315674,0.076171875,0.09375,-0.048828125,3.9194157,17.539263,-57.5232,-9.752823,0.421875,-0.27288818,0.8731079,-0.016601562,0.009765625,0.00390625,6.966832,15.8618965,-129.1672,-2.6040583,0.0,0.0,0.0,0.0,0.0,0.0,0.0,18.391434,-129.96358,17.22152,0.0,0.0,0.0,0.0,0.0,0.0,0.0,0.90308195,44.989666,-0.7153431,
0.5664062415598893,29,-0.035827637,0.81536865,0.4677124,-0.095703125,0.14257812,0.06933594,0.0,0.0,0.0,0.0,0.0,0.0,0.0,0.0,0.0,0.0,0.0,-0.8448805,0.027710713,0.53444153,-0.97857666,0.08630371,0.0017089844,-0.09667969,0.08105469,-0.11816406,2.944306,-17.491644,0.57369775,11.064597,1.017456,-0.21228027,-0.1638794,0.0048828125,0.036132812,-0.020507812,4.034054,-16.620075,-56.414448,9.992241,-0.51208496,-0.28985596,0.80181885,0.0068359375,0.0234375,-0.018554688,29.21124,-20.26158,-128.34067,9.7291765,0.0,0.0,0.0,0.0,0.0,0.0,0.0,-22.259274,-137.90407,27.133732,0.0,0.0,0.0,0.0,0.0,0.0,0.0,0.8448805,-0.027710713,-0.53444153,-0.9059448,-0.075683594,-0.36584473,0.16894531,0.18652344,-0.026367188,1.2727243,17.491644,-0.57369775,-11.064597,1.0117188,-0.06964111,-0.16473389,-0.059570312,0.1328125,-0.029296875,4.0424438,17.437416,-57.571636,-10.05331,0.4177246,-0.2836914,0.8671875,0.0029296875,0.028320312,0.00390625,6.9335294,15.875485,-129.22784,-3.0220566,0.0,0.0,0.0,0.0,0.0,0.0,0.0,18.417181,-130.04124,16.800446,0.0,0.0,0.0,0.0,0.0,0.0,0.0,1.0370623,44.987633,-0.69314545,
0.585937491268851,30,-0.067871094,0.8392334,0.49365234,0.0390625,0.061523438,0.0107421875,0.0,0.0,0.0,0.0,0.0,0.0,0.0,0.0,0.0,0.0,0.0,-0.8439666,0.029498426,0.5357802,-0.9590454,0.12677002,0.12988281,0.053710938,0.080078125,-0.0234375,2.9050162,-17.472725,0.61070883,11.092309,0.95617676,-0.1930542,-0.16925049,-0.06933594,0.017578125,0.03515625,3.8958626,-16.69567,-56.383408,10.102918,-0.4802246,-0.24749756,0.8065796,-0.01171875,0.0234375,-0.01953125,29.000492,-20.281641,-128.30795,9.923224,0.0,0.0,0.0,0.0,0.0,0.0,0.0,-22.249523,-137.78505,27.374187,0.0,0.0,0.0,0.0,0.0,0.0,0.0,0.8439666,-0.029498426,-0.5357802,-0.9335327,-0.03729248,-0.35375977,0.2265625,0.18457031,-0.046875,1.2206111,17.472725,-0.61070883,-11.092309,1.0218506,-0.077697754,-0.15100098,-0.078125,0.095703125,-0.009765625,4.173778,17.22851,-57.617474,-10.370882,0.4421997,-0.3012085,0.87109375,-0.015625,0.029296875,-0.015625,6.9407396,15.811058,-129.28383,-3.416967,0.0,0.0,0.0,0.0,0.0,0.0,0.0,18.362547,-130.11592,16.40423,0.0,0.0,0.0,0.0,0.0,0.0,0.0,1.1460118,44.98512,-0.67153394,
0.6054687409778127,31,-0.029541016,0.81134033,0.48547363,0.037109375,0.022460938,-0.0078125,0.0,0.0,0.0,0.0,0.0,0.0,0.0,0.0,0.0,0.0,0.0,-0.8419592,0.02936621,0.5390569,-0.9508667,0.107666016,0.09967041,0.109375,0.041015625,0.052734375,2.7701507,-17.431164,0.60797155,11.160149,0.9760742,-0.2076416,-0.16644287,-0.07128906,0.037109375,-0.022460938,3.9176168,-16.629223,-56.390987,10.405829,-0.5244751,-0.30529785,0.8206787,-0.03125,0.024414062,-0.056640625,28.937271,-20.212585,-128.32278,10.349428,0.0,0.0,0.0,0.0,0.0,0.0,0.0,-22.183725,-137.73526,27.839165,0.0,0.0,0.0,0.0,0.0,0.0,0.0,0.8419592,-0.02936621,-0.5390569,-0.9451904,-0.010131836,-0.37713623,0.15039062,0.12890625,-0.045898438,1.1614641,17.431164,-0.60797155,-11.160149,1.0080566,-0.061584473,-0.14788818,-0.15625,0.11621094,-0.0087890625,4.2470384,17.048525,-57.612366,-10.630426,0.41784668,-0.27960205,0.8514404,-0.0546875,0.029296875,0.022460938,6.9569144,15.80968,-129.2851,-3.7473536,0.0,0.0,0.0,0.0,0.0,0.0,0.0,18.358202,-130.13412,16.074795,0.0,0.0,0.0,0.0,0.0,0.0,0.0,1.200548,44.987953,-0.57565933,
0.6249999906867744,32,-0.012878418,0.7897339,0.44104004,-0.059570312,0.06347656,-0.0048828125,0.0,0.0,0.0,0.0,0.0,0.0,0.0,0.0,0.0,0.0,0.0,-0.8407979,0.029278286,0.5405957,-1.024231,0.015075684,0.053222656,0.034179688,0.07910156,0.034179688,2.684309,-17.407122,0.6061512,11.192007,0.9765625,-0.18896484,-0.1763916,-0.0146484375,0.017578125,-0.020507812,3.811821,-16.692524,-56.394253,10.456543,-0.50109863,-0.29699707,0.78796387,-0.05078125,0.024414062,-0.076171875,28.776274,-20.254047,-128.31824,10.49925,0.0,0.0,0.0,0.0,0.0,0.0,0.0,-22.19808,-137.6551,28.03264,0.0,0.0,0.0,0.0,0.0,0.0,0.0,0.8407979,-0.029278286,-0.5405957,-0.9300537,-0.0030517578,-0.3171997,-0.0029296875,0.11328125,-0.044921875,1.1680162,17.407122,-0.6061512,-11.192007,1.0152588,-0.081604004,-0.12420654,-0.07910156,0.11425781,-0.028320312,4.255331,16.967844,-57.610794,-10.712229,0.4258423,-0.29589844,0.8691406,-0.016601562,0.029296875,0.00390625,6.9988837,15.907825,-129.2922,-3.8407173,0.0,0.0,0.0,0.0,0.0,0.0,0.0,18.444958,-130.14938,15.980673,0.0,0.0,0.0,0.0,0.0,0.0,0.0,1.2585615,44.980793,-0.478666,
0.6445312403957361,33,-0.024841309,0.80010986,0.4553833,-0.040039062,0.061523438,-0.060546875,0.0,0.0,0.0,0.0,0.0,0.0,0.0,0.0,0.0,0.0,0.0,-0.84018344,0.029504826,0.5416806,-1.0145264,0.04486084,0.00793457,-0.041015625,0.11816406,-0.00390625,2.7024777,-17.394402,0.61084133,11.214467,1.027771,-0.20178223,-0.19885254,-0.14648438,0.057617188,-0.025390625,3.7174163,-16.770962,-56.38332,10.325335,-0.50219727,-0.2980957,0.8156738,-0.05078125,0.060546875,-0.076171875,28.620924,-20.32124,-128.308,10.405163,0.0,0.0,0.0,0.0,0.0,0.0,0.0,-22.254509,-137.57242,27.979588,0.0,0.0,0.0,0.0,0.0,0.0,0.0,0.84018344,-0.029504826,-0.5416806,-0.91589355,0.0048217773,-0.32891846,0.03515625,0.07324219,-0.024414062,1.2472538,17.394402,-0.61084133,-11.214467,1.0317993,-0.071899414,-0.15228271,-0.13671875,0.13378906,0.009765625,4.225541,16.959986,-57.61434,-10.755532,0.40112305,-0.28179932,0.9105835,-0.0546875,0.0107421875,0.00390625,7.025906,16.059727,-129.3044,-3.9284272,0.0,0.0,0.0,0.0,0.0,0.0,0.0,18.595741,-130.17395,15.892826,0.0,0.0,0.0,0.0,0.0,0.0,0.0,1.3217578,44.98323,-0.4000575,
0.6640624901046978,34,-0.039794922,0.8234863,0.47387695,-0.119140625,0.044921875,-0.022460938,0.0,0.0,0.0,0.0,0.0,0.0,0.0,0.0,0.0,0.0,0.0,-0.8400988,0.030487014,0.54184,-0.9638672,0.13214111,0.100097656,0.109375,0.061523438,-0.00390625,2.6408613,-17.39265,0.6311756,11.217767,0.9395752,-0.21105957,-0.1541748,-0.107421875,0.037109375,0.033203125,3.6029902,-16.886301,-56.367413,10.372007,-0.5421753,-0.28796387,0.8097534,-0.06933594,0.025390625,-0.0390625,28.487726,-20.437244,-128.28882,10.515642,0.0,0.0,0.0,0.0,0.0,0.0,0.0,-22.323473,-137.48538,28.127748,0.0,0.0,0.0,0.0,0.0,0.0,0.0,0.8400988,-0.030487014,-0.54184,-0.90527344,-0.030639648,-0.36846924,0.15039062,0.109375,-0.026367188,1.3062621,17.39265,-0.6311756,-11.217767,1.0076904,-0.10449219,-0.15252686,-0.07910156,0.1328125,-0.009765625,4.2986503,16.90047,-57.633915,-10.850309,0.40948486,-0.28955078,0.8642578,-0.03515625,0.029296875,-0.0146484375,7.0940647,16.14205,-129.31941,-4.029163,0.0,0.0,0.0,0.0,0.0,0.0,0.0,18.673939,-130.20197,15.792255,0.0,0.0,0.0,0.0,0.0,0.0,0.0,1.4131229,44.982964,-0.34001422,
0.6835937398136595,35,-0.049865723,0.84661865,0.48327637,-0.001953125,0.022460938,-0.04296875,0.0,0.0,0.0,0.0,0.0,0.0,0.0,0.0,0.0,0.0,0.0,-0.83926636,0.031185696,0.5429392,-0.96069336,0.13909912,0.09124756,0.20410156,-0.0146484375,0.013671875,2.5882313,-17.375414,0.6456406,11.240524,0.99139404,-0.23858643,-0.17071533,-0.049804688,0.0546875,0.03515625,3.6263902,-16.86958,-56.35982,10.637241,-0.51623535,-0.30041504,0.7821045,0.025390625,0.022460938,-0.055664062,28.432388,-20.454723,-128.28712,10.899318,0.0,0.0,0.0,0.0,0.0,0.0,0.0,-22.332556,-137.42075,28.546669,0.0,0.0,0.0,0.0,0.0,0.0,0.0,0.83926636,-0.031185696,-0.5429392,-0.92059326,0.027770996,-0.3857422,0.2265625,0.22363281,0.0146484375,1.2054472,17.375414,-0.6456406,-11.240524,1.0081787,-0.07550049,-0.13201904,-0.07910156,0.1328125,-0.009765625,4.4620347,16.683516,-57.64915,-11.04471,0.4331665,-0.2779541,0.8602295,-0.015625,0.047851562,0.022460938,7.141525,16.063694,-129.34253,-4.223776,0.0,0.0,0.0,0.0,0.0,0.0,0.0,18.591877,-130.23471,15.598015,0.0,0.0,0.0,0.0,0.0,0.0,0.0,1.4827279,44.9774,-0.29146516,
0.7031249895226211,36,-0.031188965,0.82403564,0.4407959,0.036132812,-0.033203125,0.028320312,0.0,0.0,0.0,0.0,0.0,0.0,0.0,0.0,0.0,0.0,0.0,-0.8391071,0.030281834,0.5431448,-0.9761963,0.06213379,0.051086426,0.09082031,0.080078125,0.0146484375,2.4444053,-17.372118,0.62692785,11.2447815,0.9874878,-0.19927979,-0.15460205,-0.013671875,0.0546875,-0.001953125,3.5078292,-16.957747,-56.37767,10.704926,-0.49890137,-0.28240967,0.81066895,-0.03125,-0.030273438,-0.037109375,28.362259,-20.505287,-128.3096,11.10323,0.0,0.0,0.0,0.0,0.0,0.0,0.0,-22.363235,-137.38551,28.781178,0.0,0.0,0.0,0.0,0.0,0.0,0.0,0.8391071,-0.030281834,-0.5431448,-0.9382324,-0.015136719,-0.37719727,0.03515625,0.15136719,-0.024414062,1.0269821,17.372118,-0.62692785,-11.2447815,1.003418,-0.07342529,-0.11907959,-0.040039062,0.095703125,-0.009765625,4.617704,16.490738,-57.629604,-11.200892,0.3972168,-0.2803955,0.87316895,-0.015625,0.029296875,-0.015625,7.186217,16.015247,-129.32,-4.39158,0.0,0.0,0.0,0.0,0.0,0.0,0.0,18.545803,-130.2268,15.429064,0.0,0.0,0.0,0.0,0.0,0.0,0.0,1.4802064,44.975643,-0.22073942,
0.7226562392315828,37,-0.006652832,0.82647705,0.4640503,-0.0234375,-0.033203125,-0.0068359375,0.0,0.0,0.0,0.0,0.0,0.0,0.0,0.0,0.0,0.0,0.0,-0.83907795,0.028667733,0.5433726,-0.9920044,0.07458496,0.01739502,-0.0029296875,0.11816406,-0.041992188,2.313761,-17.371513,0.593511,11.2494955,1.0113525,-0.20996094,-0.19073486,-0.12792969,0.038085938,-0.024414062,3.3993788,-17.046387,-56.41174,10.62372,-0.5133667,-0.30358887,0.8097534,-0.06933594,0.025390625,-0.0390625,28.225813,-20.560043,-128.33453,11.062008,0.0,0.0,0.0,0.0,0.0,0.0,0.0,-22.393785,-137.3483,28.777628,0.0,0.0,0.0,0.0,0.0,0.0,0.0,0.83907795,-0.028667733,-0.5433726,-0.9232788,-0.020690918,-0.3624878,-0.15625,-0.018554688,-0.022460938,0.95059305,17.371513,-0.593511,-11.2494955,1.0048218,-0.04547119,-0.109436035,-0.11816406,0.20800781,-0.029296875,4.6067886,16.472395,-57.5983,-11.222986,0.4216919,-0.3017578,0.8671875,-0.0546875,0.029296875,0.060546875,7.195411,16.214018,-129.29478,-4.471101,0.0,0.0,0.0,0.0,0.0,0.0,0.0,18.7402,-130.21315,15.350045,0.0,0.0,0.0,0.0,0.0,0.0,0.0,1.4466538,44.979397,-0.1391345,
0.7421874889405445,38,-0.035583496,0.7885742,0.47747803,-0.13867188,0.02734375,0.0146484375,0.0,0.0,0.0,0.0,0.0,0.0,0.0,0.0,0.0,0.0,0.0,-0.8381413,0.029969014,0.54484195,-0.9830322,0.124938965,0.08300781,0.034179688,0.080078125,0.0146484375,2.2558532,-17.352125,0.62045157,11.279917,0.9584961,-0.22064209,-0.1673584,-0.013671875,0.036132812,-0.001953125,3.2355535,-17.212069,-56.38311,10.633617,-0.50909424,-0.2937622,0.78302,-0.06933594,-0.0107421875,-0.038085938,28.209526,-20.738947,-128.30779,11.174408,0.0,0.0,0.0,0.0,0.0,0.0,0.0,-22.558876,-137.27159,28.916868,0.0,0.0,0.0,0.0,0.0,0.0,0.0,0.8381413,-0.029969014,-0.54484195,-0.89849854,-0.047729492,-0.35388184,0.03515625,0.11230469,-0.044921875,1.1328057,17.352125,-0.62045157,-11.279917,0.9729614,-0.07891846,-0.09082031,-0.059570312,0.1328125,-0.0107421875,4.7306056,16.485033,-57.62318,-11.361008,0.4300537,-0.28186035,0.8592529,-0.015625,0.047851562,-0.015625,7.2453794,16.44642,-129.3198,-4.6109324,0.0,0.0,0.0,0.0,0.0,0.0,0.0,18.979826,-130.24709,15.209462,0.0,0.0,0.0,0.0,0.0,0.0,0.0,1.5641736,44.977974,-0.06781241,
0.7617187386495062,39,-0.052001953,0.78393555,0.45794678,0.038085938,0.041992188,0.0107421875,0.0,0.0,0.0,0.0,0.0,0.0,0.0,0.0,0.0,0.0,0.0,-0.8367359,0.030648753,0.54699683,-0.9760742,0.09295654,0.06854248,0.109375,0.00390625,0.033203125,2.322626,-17.323027,0.6345242,11.324532,0.96984863,-0.20922852,-0.1953125,0.025390625,0.053710938,0.018554688,3.329902,-17.13318,-56.371113,10.8183155,-0.51123047,-0.30065918,0.7949219,-0.087890625,0.0078125,-0.057617188,28.158304,-20.724464,-128.29048,11.438354,0.0,0.0,0.0,0.0,0.0,0.0,0.0,-22.517973,-137.20804,29.205936,0.0,0.0,0.0,0.0,0.0,0.0,0.0,0.8367359,-0.030648753,-0.54699683,-0.97717285,0.004333496,-0.30334473,0.20800781,0.18554688,-0.026367188,1.1834946,17.323027,-0.6345242,-11.324532,0.9929199,-0.057250977,-0.09729004,-9.765625E-4,0.13183594,0.0078125,4.945973,16.411451,-57.636448,-11.563096,0.41363525,-0.2915039,0.8534546,-0.0546875,0.029296875,0.022460938,7.3115835,16.561453,-129.33403,-4.776718,0.0,0.0,0.0,0.0,0.0,0.0,0.0,19.092052,-130.27043,15.043558,0.0,0.0,0.0,0.0,0.0,0.0,0.0,1.6199858,44.976936,-0.04202354,
0.7812499883584679,40,-0.051757812,0.83081055,0.48815918,-0.04296875,-0.032226562,0.01171875,0.0,0.0,0.0,0.0,0.0,0.0,0.0,0.0,0.0,0.0,0.0,-0.83529264,0.03081972,0.54927665,-0.99121094,0.058776855,0.02911377,0.053710938,0.13671875,-0.00390625,2.306899,-17.293144,0.6380637,11.371729,0.9923706,-0.1651001,-0.17944336,0.0625,0.07324219,0.0,3.2377913,-17.166567,-56.366943,10.850391,-0.5131836,-0.2929077,0.8295288,-0.01171875,-0.0126953125,-0.037109375,28.024544,-20.71199,-128.28827,11.535152,0.0,0.0,0.0,0.0,0.0,0.0,0.0,-22.491955,-137.1466,29.333725,0.0,0.0,0.0,0.0,0.0,0.0,0.0,0.83529264,-0.03081972,-0.54927665,-0.9447632,0.022827148,-0.3651123,-0.00390625,0.015625,-0.00390625,1.2773285,17.293144,-0.6380637,-11.371729,1.0130615,-0.057556152,-0.08581543,-0.0390625,0.05859375,-0.009765625,5.009459,16.428019,-57.639145,-11.63159,0.43310547,-0.28497314,0.8592529,-0.016601562,0.009765625,0.00390625,7.3676944,16.785036,-129.33485,-4.818858,0.0,0.0,0.0,0.0,0.0,0.0,0.0,19.335854,-130.28339,14.998046,0.0,0.0,0.0,0.0,0.0,0.0,0.0,1.6672764,44.977394,0.011784419,
0.8007812380674296,41,-0.049926758,0.79486084,0.46398926,-0.103515625,-0.08886719,-0.0234375,0.0,0.0,0.0,0.0,0.0,0.0,0.0,0.0,0.0,0.0,0.0,-0.83400774,0.031557623,0.5512144,-1.0070801,0.06738281,-0.0056152344,-0.09765625,0.15625,-0.022460938,2.2861035,-17.266544,0.6533406,11.411846,1.0073242,-0.17553711,-0.1706543,-0.10839844,0.056640625,-0.0048828125,3.0092132,-17.290682,-56.348785,10.745168,-0.48950195,-0.3201294,0.810791,-0.06933594,-0.01171875,-0.076171875,27.877848,-20.707859,-128.28157,11.460734,0.0,0.0,0.0,0.0,0.0,0.0,0.0,-22.47216,-137.0839,29.290455,0.0,0.0,0.0,0.0,0.0,0.0,0.0,0.83400774,-0.031557623,-0.5512144,-0.9428711,0.012145996,-0.3701172,0.03515625,0.07324219,-0.00390625,1.3805517,17.266544,-0.6533406,-11.411846,1.0369263,-0.053894043,-0.08831787,-0.15625,0.11621094,0.009765625,5.052995,16.401802,-57.652172,-11.674123,0.4300537,-0.2779541,0.8661499,-0.03515625,0.029296875,0.041015625,7.42925,16.991302,-129.34718,-4.858903,0.0,0.0,0.0,0.0,0.0,0.0,0.0,19.546822,-130.31166,14.956664,0.0,0.0,0.0,0.0,0.0,0.0,0.0,1.7603183,44.97452,0.08858633,
0.8203124877763913,42,-0.05029297,0.80163574,0.43914795,-0.04296875,-0.032226562,0.01171875,0.0,0.0,0.0,0.0,0.0,0.0,0.0,0.0,0.0,0.0,0.0,-0.8321979,0.0326724,0.55385107,-0.9885254,0.11273193,0.118652344,0.015625,0.21289062,-0.0029296875,2.2540302,-17.229074,0.67642,11.466434,0.96954346,-0.22302246,-0.16845703,-0.08984375,0.056640625,-0.00390625,2.7824893,-17.388218,-56.32645,10.815234,-0.50946045,-0.3116455,0.8137207,-0.01171875,0.005859375,-0.038085938,27.891115,-20.669653,-128.266,11.641924,0.0,0.0,0.0,0.0,0.0,0.0,0.0,-22.441795,-137.02051,29.495474,0.0,0.0,0.0,0.0,0.0,0.0,0.0,0.8321979,-0.0326724,-0.55385107,-0.9332886,-0.018005371,-0.34283447,0.053710938,0.0146484375,-0.025390625,1.5933589,17.229074,-0.67642,-11.466434,1.0368652,-0.057861328,-0.09020996,-0.11621094,0.059570312,0.009765625,5.0260925,16.459026,-57.678467,-11.77153,0.41351318,-0.28582764,0.88494873,-0.016601562,0.029296875,0.022460938,7.397302,17.146002,-129.37848,-5.039902,0.0,0.0,0.0,0.0,0.0,0.0,0.0,19.696754,-130.3514,14.774244,0.0,0.0,0.0,0.0,0.0,0.0,0.0,1.8544058,44.969948,0.13353124,
0.839843737485353,43,-0.02368164,0.8140869,0.4694214,-0.0029296875,-0.0126953125,0.047851562,0.0,0.0,0.0,0.0,0.0,0.0,0.0,0.0,0.0,0.0,0.0,-0.83135897,0.032726057,0.55482286,-0.9854126,0.10614014,0.10559082,0.109375,0.00390625,0.033203125,2.321446,-17.211708,0.6775308,11.486553,0.9834595,-0.23443604,-0.14672852,-0.051757812,0.036132812,-0.0029296875,2.818973,-17.308939,-56.329327,11.017482,-0.4970703,-0.29327393,0.81170654,-0.03125,-0.030273438,-0.037109375,27.828983,-20.58311,-128.26947,11.958959,0.0,0.0,0.0,0.0,0.0,0.0,0.0,-22.354843,-136.95561,29.844719,0.0,0.0,0.0,0.0,0.0,0.0,0.0,0.83135897,-0.032726057,-0.55482286,-0.92541504,-0.031433105,-0.3605957,-0.080078125,-0.059570312,-0.0234375,1.7190804,17.211708,-0.6775308,-11.486553,1.0480957,-0.0770874,-0.12786865,-0.11621094,0.059570312,0.047851562,4.963174,16.525623,-57.682262,-11.80118,0.41760254,-0.30169678,0.8652344,-0.03515625,0.029296875,0.022460938,7.381503,17.304306,-129.38815,-5.1592183,0.0,0.0,0.0,0.0,0.0,0.0,0.0,19.872263,-130.37683,14.653439,0.0,0.0,0.0,0.0,0.0,0.0,0.0,1.8894827,44.961246,0.17921793,
0.8593749871943147,44,-0.0056152344,0.81152344,0.46191406,-0.06347656,-0.049804688,0.030273438,0.0,0.0,0.0,0.0,0.0,0.0,0.0,0.0,0.0,0.0,0.0,-0.83064634,0.03183387,0.5560686,-0.96917725,0.06378174,0.06304932,0.034179688,0.060546875,0.052734375,2.3508532,-17.196955,0.6590597,11.512343,0.9760132,-0.21160889,-0.14654541,0.0625,0.03515625,0.0,2.7949133,-17.253714,-56.34804,11.143939,-0.4963379,-0.31195068,0.79296875,-0.03125,-0.030273438,-0.018554688,27.728369,-20.4457,-128.28996,12.213442,0.0,0.0,0.0,0.0,0.0,0.0,0.0,-22.19156,-136.92064,30.128645,0.0,0.0,0.0,0.0,0.0,0.0,0.0,0.83064634,-0.03183387,-0.5560686,-0.9059448,-0.0040893555,-0.37322998,0.091796875,0.032226562,0.015625,1.7574713,17.196955,-0.6590597,-11.512343,1.0045166,-0.04748535,-0.1251831,-0.0390625,0.07714844,0.0087890625,4.9698014,16.54962,-57.66578,-11.877849,0.421875,-0.29156494,0.8435669,-0.016601562,0.029296875,0.00390625,7.3519926,17.328985,-129.37505,-5.2804546,0.0,0.0,0.0,0.0,0.0,0.0,0.0,19.89627,-130.36568,14.532335,0.0,0.0,0.0,0.0,0.0,0.0,0.0,1.8903592,44.964066,0.24968123,
0.8789062369032764,45,-0.035888672,0.8153076,0.46276855,0.015625,-0.033203125,0.0107421875,0.0,0.0,0.0,0.0,0.0,0.0,0.0,0.0,0.0,0.0,0.0,-0.8301109,0.03106789,0.5570196,-1.0289917,0.027282715,0.024536133,-0.041015625,0.041992188,-0.00390625,2.3701727,-17.18587,0.64320165,11.532033,1.0286255,-0.21276855,-0.1550293,-0.033203125,0.036132812,-0.0029296875,2.7523572,-17.229816,-56.36107,11.119712,-0.5090332,-0.28503418,0.81365967,0.0068359375,0.0048828125,-0.018554688,27.586285,-20.322042,-128.30466,12.286211,0.0,0.0,0.0,0.0,0.0,0.0,0.0,-22.048117,-136.87114,30.23353,0.0,0.0,0.0,0.0,0.0,0.0,0.0,0.8301109,-0.03106789,-0.5570196,-0.9319458,0.001953125,-0.40161133,0.03515625,0.07324219,0.016601562,1.7400135,17.18587,-0.64320165,-11.532033,1.0084839,-0.035583496,-0.13226318,-9.765625E-4,0.076171875,0.02734375,4.9430413,16.514915,-57.645966,-11.933841,0.4208374,-0.277771,0.8642578,-0.015625,0.029296875,-0.015625,7.328844,17.2886,-129.36151,-5.4222345,0.0,0.0,0.0,0.0,0.0,0.0,0.0,19.85733,-130.36728,14.389857,0.0,0.0,0.0,0.0,0.0,0.0,0.0,1.8959347,44.966133,0.31746316,
0.8984374866122381,46,-0.023925781,0.83587646,0.45861816,-0.041992188,-0.013671875,-0.024414062,0.0,0.0,0.0,0.0,0.0,0.0,0.0,0.0,0.0,0.0,0.0,-0.83047587,0.029970795,0.5564747,-0.9637451,0.10559082,0.059814453,-0.022460938,0.061523438,-0.041992188,2.2905514,-17.193424,0.6204883,11.52075,0.9871826,-0.21209717,-0.14367676,-0.052734375,0.037109375,-0.022460938,2.6668239,-17.287073,-56.384895,11.104445,-0.5216675,-0.32110596,0.81378174,0.025390625,0.022460938,-0.055664062,27.505245,-20.309479,-128.32657,12.352874,0.0,0.0,0.0,0.0,0.0,0.0,0.0,-22.028309,-136.84622,30.324394,0.0,0.0,0.0,0.0,0.0,0.0,0.0,0.83047587,-0.029970795,-0.5564747,-0.9169922,-0.0017700195,-0.37908936,-0.022460938,-0.0029296875,-0.024414062,1.6593,17.193424,-0.6204883,-11.52075,1.0162354,-0.049682617,-0.14123535,-0.078125,0.09667969,0.0087890625,4.9074006,16.472113,-57.622017,-11.965737,0.42596436,-0.27789307,0.8671875,-0.016601562,0.029296875,0.00390625,7.265228,17.23958,-129.34999,-5.5675344,0.0,0.0,0.0,0.0,0.0,0.0,0.0,19.802645,-130.3647,14.243604,0.0,0.0,0.0,0.0,0.0,0.0,0.0,1.8721068,44.965183,0.37215927,
0.9179687363211998,47,-0.04498291,0.8195801,0.4640503,-0.061523438,-0.01171875,0.03125,0.0,0.0,0.0,0.0,0.0,0.0,0.0,0.0,0.0,0.0,0.0,-0.8296453,0.030640813,0.5574666,-0.9807129,0.08331299,0.12512207,0.12792969,-0.034179688,0.033203125,2.4524796,-17.17623,0.63435984,11.541286,0.96972656,-0.1809082,-0.16534424,-0.013671875,0.016601562,0.017578125,2.6721766,-17.19607,-56.372444,11.300491,-0.50531006,-0.30389404,0.8156738,-0.01171875,-0.0126953125,-0.056640625,27.373968,-20.177584,-128.3164,12.579261,0.0,0.0,0.0,0.0,0.0,0.0,0.0,-21.888874,-136.78226,30.577522,0.0,0.0,0.0,0.0,0.0,0.0,0.0,0.8296453,-0.030640813,-0.5574666,-0.93640137,-0.02709961,-0.3694458,0.03515625,0.0146484375,-0.00390625,1.7619199,17.17623,-0.63435984,-11.541286,1.0204468,-0.07165527,-0.11352539,-0.13574219,0.09667969,0.028320312,4.90788,16.483809,-57.640568,-12.044888,0.41766357,-0.28381348,0.87609863,-0.016601562,0.029296875,0.022460938,7.253526,17.315224,-129.38042,-5.7259355,0.0,0.0,0.0,0.0,0.0,0.0,0.0,19.883652,-130.4091,14.0837,0.0,0.0,0.0,0.0,0.0,0.0,0.0,1.9297605,44.957245,0.40090308,
0.9374999860301615,48,-0.06506348,0.848999,0.4807129,-0.04296875,-0.05078125,0.030273438,0.0,0.0,0.0,0.0,0.0,0.0,0.0,0.0,0.0,0.0,0.0,-0.82938653,0.030612066,0.55791056,-0.95788574,0.0647583,0.052124023,0.09082031,0.022460938,0.0146484375,2.4977136,-17.170874,0.63376474,11.550479,0.97088623,-0.21136475,-0.16442871,-0.0703125,0.037109375,-0.00390625,2.6794188,-17.16063,-56.37717,11.392588,-0.49725342,-0.30212402,0.8097534,0.0068359375,-0.0126953125,-0.018554688,27.301537,-20.1218,-128.31412,12.723936,0.0,0.0,0.0,0.0,0.0,0.0,0.0,-21.821516,-136.73167,30.74676,0.0,0.0,0.0,0.0,0.0,0.0,0.0,0.82938653,-0.030612066,-0.55791056,-0.9484253,-0.024536133,-0.34387207,0.053710938,0.053710938,0.015625,1.8611996,17.170874,-0.63376474,-11.550479,1.0206299,-0.076660156,-0.10064697,-0.05859375,0.07714844,0.028320312,4.953336,16.573523,-57.637165,-12.0876465,0.42486572,-0.2838745,0.8691406,-0.016601562,0.028320312,0.060546875,7.313408,17.513325,-129.37091,-5.7501097,0.0,0.0,0.0,0.0,0.0,0.0,0.0,20.08365,-130.41132,14.059026,0.0,0.0,0.0,0.0,0.0,0.0,0.0,1.9326959,44.95852,0.40629932,
0.9570312357391232,49,-0.028930664,0.80615234,0.4545288,0.015625,-0.033203125,0.029296875,0.0,0.0,0.0,0.0,0.0,0.0,0.0,0.0,0.0,0.0,0.0,-0.8291769,0.029975178,0.5584429,-0.98101807,0.068359375,0.030273438,0.034179688,0.041992188,0.0146484375,2.4716387,-17.16653,0.6205791,11.561501,0.98687744,-0.21984863,-0.16363525,-0.05078125,0.016601562,0.03515625,2.622863,-17.192211,-56.387123,11.404013,-0.5053711,-0.30969238,0.7959595,0.0068359375,-0.03125,-0.037109375,27.171726,-20.117186,-128.32904,12.780207,0.0,0.0,0.0,0.0,0.0,0.0,0.0,-21.788197,-136.69485,30.82835,0.0,0.0,0.0,0.0,0.0,0.0,0.0,0.8291769,-0.029975178,-0.5584429,-0.90496826,-0.0078125,-0.38305664,0.053710938,0.034179688,-0.0048828125,1.8813841,17.16653,-0.6205791,-11.561501,1.0322876,-0.056884766,-0.12963867,-0.05859375,0.095703125,0.0087890625,4.9464087,16.589592,-57.62417,-12.11325,0.42803955,-0.27789307,0.8632202,0.0029296875,0.028320312,0.00390625,7.3204865,17.562891,-129.35574,-5.8051624,0.0,0.0,0.0,0.0,0.0,0.0,0.0,20.132889,-130.40527,14.004324,0.0,0.0,0.0,0.0,0.0,0.0,0.0,1.9325533,44.962734,0.456023,
0.9765624854480849,50,-0.068847656,0.82232666,0.49157715,-0.025390625,-0.08984375,-0.0068359375,0.0,0.0,0.0,0.0,0.0,0.0,0.0,0.0,0.0,0.0,0.0,-0.82786614,0.030415138,0.56041455,-0.9991455,0.071777344,0.014343262,-0.00390625,0.00390625,-0.0048828125,2.459254,-17.139395,0.6296876,11.602318,1.0043945,-0.20977783,-0.15576172,-0.08984375,0.037109375,-0.0234375,2.536362,-17.237408,-56.37844,11.401436,-0.50177,-0.3324585,0.7930298,0.0068359375,0.022460938,-0.056640625,27.079613,-20.123646,-128.31793,12.800366,0.0,0.0,0.0,0.0,0.0,0.0,0.0,-21.792807,-136.63478,30.874481,0.0,0.0,0.0,0.0,0.0,0.0,0.0,0.82786614,-0.030415138,-0.56041455,-0.932251,-0.019165039,-0.3762207,-0.0029296875,0.015625,-0.024414062,1.9685143,17.139395,-0.6296876,-11.602318,1.0124512,-0.043640137,-0.13134766,-0.0390625,0.05859375,0.0087890625,4.89489,16.587854,-57.633484,-12.174434,0.421875,-0.27575684,0.8612671,-0.016601562,0.009765625,0.00390625,7.289492,17.57051,-129.3726,-5.952862,0.0,0.0,0.0,0.0,0.0,0.0,0.0,20.15089,-130.43591,13.853497,0.0,0.0,0.0,0.0,0.0,0.0,0.0,1.9806571,44.96169,0.4857169,
0.9960937351570466,51,-0.044189453,0.80249023,0.44396973,-0.0625,-0.032226562,-0.005859375,0.0,0.0,0.0,0.0,0.0,0.0,0.0,0.0,0.0,0.0,0.0,-0.8269335,0.030615771,0.56157297,-0.9760742,0.10827637,0.0847168,0.015625,0.041992188,-0.00390625,2.4505632,-17.120089,0.6338414,11.626302,0.96032715,-0.19232178,-0.14733887,-0.10839844,0.018554688,-0.0048828125,2.4634686,-17.2603,-56.374744,11.482986,-0.5192871,-0.30334473,0.7910156,0.025390625,0.022460938,-0.037109375,27.015244,-20.107624,-128.32317,12.937936,0.0,0.0,0.0,0.0,0.0,0.0,0.0,-21.76535,-136.59097,31.034374,0.0,0.0,0.0,0.0,0.0,0.0,0.0,0.8269335,-0.030615771,-0.56157297,-0.9122925,-0.027954102,-0.35272217,0.111328125,-0.0068359375,0.015625,2.033458,17.120089,-0.6338414,-11.626302,1.0129395,-0.039611816,-0.099731445,-0.13574219,0.041992188,0.029296875,4.9012094,16.612282,-57.638783,-12.262753,0.4216919,-0.28405762,0.8967285,-0.016601562,0.029296875,0.022460938,7.265471,17.654613,-129.38443,-6.1150827,0.0,0.0,0.0,0.0,0.0,0.0,0.0,20.234531,-130.45816,13.690946,0.0,0.0,0.0,0.0,0.0,0.0,0.0,1.9973681,44.955696,0.49029684,
1.0156249848660084,52,-0.01977539,0.8069458,0.4602661,-0.10253906,-0.068359375,0.049804688,0.0,0.0,0.0,0.0,0.0,0.0,0.0,0.0,0.0,0.0,0.0,-0.825698,0.031484216,0.56346244,-0.9650879,0.11444092,0.11273193,0.09082031,0.00390625,-0.0048828125,2.64012,-17.09451,0.6518208,11.665419,0.9666748,-0.21704102,-0.16143799,-0.08886719,0.017578125,0.015625,2.5177727,-17.146622,-56.35567,11.694938,-0.4942627,-0.30413818,0.80181885,0.0068359375,0.041015625,-0.038085938,26.987041,-19.984526,-128.29544,13.216751,0.0,0.0,0.0,0.0,0.0,0.0,0.0,-21.64409,-136.5127,31.336336,0.0,0.0,0.0,0.0,0.0,0.0,0.0,0.825698,-0.031484216,-0.56346244,-0.939209,-0.011291504,-0.33294678,0.14941406,0.03125,0.03515625,2.1603014,17.09451,-0.6518208,-11.665419,1.0011597,-0.02545166,-0.09765625,-0.13574219,0.07910156,0.047851562,4.869046,16.64655,-57.654438,-12.343673,0.40527344,-0.28381348,0.90563965,-0.015625,0.029296875,-0.015625,7.2094116,17.742361,-129.41283,-6.2842226,0.0,0.0,0.0,0.0,0.0,0.0,0.0,20.315653,-130.48624,13.52245,0.0,0.0,0.0,0.0,0.0,0.0,0.0,2.049323,44.95645,0.49107713,
1.03515623457497,53,-0.045898438,0.8265991,0.4720459,-0.04296875,-0.05078125,0.030273438,0.0,0.0,0.0,0.0,0.0,0.0,0.0,0.0,0.0,0.0,0.0,-0.82484955,0.031433407,0.5645957,-0.97302246,0.07287598,0.04626465,0.034179688,0.0029296875,0.033203125,2.764492,-17.076944,0.65076894,11.688883,0.989624,-0.1965332,-0.13665771,-0.08886719,0.036132812,0.034179688,2.5144277,-17.084564,-56.35399,11.779599,-0.5091553,-0.29296875,0.8186035,0.044921875,0.022460938,-0.037109375,26.922897,-19.862425,-128.29958,13.379986,0.0,0.0,0.0,0.0,0.0,0.0,0.0,-21.500698,-136.46362,31.52339,0.0,0.0,0.0,0.0,0.0,0.0,0.0,0.82484955,-0.031433407,-0.5645957,-0.91571045,0.015991211,-0.38781738,0.053710938,-0.024414062,-0.0048828125,2.231691,17.076944,-0.65076894,-11.688883,1.0241089,-0.07574463,-0.13330078,-0.05859375,0.05859375,0.028320312,4.8231235,16.652971,-57.653946,-12.3670025,0.4177246,-0.28076172,0.8711548,-0.03515625,0.047851562,0.041015625,7.1933656,17.726076,-129.4131,-6.3540993,0.0,0.0,0.0,0.0,0.0,0.0,0.0,20.300253,-130.49303,13.451981,0.0,0.0,0.0,0.0,0.0,0.0,0.0,2.0867822,44.95127,0.54607165,
1.0546874842839318,54,-0.028686523,0.81121826,0.47149658,0.09375,-0.0546875,-0.009765625,0.0,0.0,0.0,0.0,0.0,0.0,0.0,0.0,0.0,0.0,0.0,-0.8247663,0.030377403,0.56476927,-1.0175171,0.06695557,0.02722168,0.015625,-0.015625,-0.0048828125,2.764492,-17.075218,0.6289064,11.692474,1.0160522,-0.19366455,-0.1418457,-0.14746094,0.0,-0.0048828125,2.4508827,-17.080269,-56.37931,11.747639,-0.5013428,-0.30603027,0.8255615,0.044921875,0.040039062,-0.018554688,26.786652,-19.762615,-128.32544,13.359514,0.0,0.0,0.0,0.0,0.0,0.0,0.0,-21.398067,-136.43274,31.52878,0.0,0.0,0.0,0.0,0.0,0.0,0.0,0.8247663,-0.030377403,-0.56476927,-0.9362793,-0.018920898,-0.38409424,-0.041992188,-0.001953125,-0.0029296875,2.2100997,17.075218,-0.6289064,-11.692474,1.0162354,-0.09259033,-0.11920166,-9.765625E-4,0.057617188,0.0087890625,4.831929,16.645245,-57.632687,-12.394619,0.42596436,-0.2758789,0.8632202,-0.016601562,0.009765625,0.00390625,7.205683,17.695496,-129.391,-6.3973308,0.0,0.0,0.0,0.0,0.0,0.0,0.0,20.25947,-130.47893,13.410397,0.0,0.0,0.0,0.0,0.0,0.0,0.0,2.073699,44.950897,0.6105599,
1.0742187339928935,55,-0.03186035,0.81622314,0.46264648,0.055664062,-0.034179688,0.009765625,0.0,0.0,0.0,0.0,0.0,0.0,0.0,0.0,0.0,0.0,0.0,-0.8239392,0.029836897,0.5661431,-0.9851074,0.09429932,0.055603027,0.052734375,-0.034179688,-0.024414062,2.6882439,-17.058094,0.61771625,11.720918,0.9710083,-0.20843506,-0.15545654,-0.20410156,9.765625E-4,-0.0068359375,2.3835952,-17.083664,-56.392296,11.767083,-0.50427246,-0.3057251,0.7880249,0.026367188,0.0234375,0.0,26.655539,-19.708818,-128.34555,13.343125,0.0,0.0,0.0,0.0,0.0,0.0,0.0,-21.318068,-136.4085,31.534168,0.0,0.0,0.0,0.0,0.0,0.0,0.0,0.8239392,-0.029836897,-0.5661431,-0.9423218,-0.020812988,-0.38116455,0.053710938,0.034179688,0.015625,2.1807702,17.058094,-0.61771625,-11.720918,1.0185547,-0.056640625,-0.113586426,-0.01953125,0.05859375,0.02734375,4.7949343,16.649023,-57.61854,-12.44767,0.4197998,-0.28564453,0.8563843,-0.016601562,0.009765625,0.041015625,7.1763277,17.701864,-129.37952,-6.5238476,0.0,0.0,0.0,0.0,0.0,0.0,0.0,20.26146,-130.479,13.284332,0.0,0.0,0.0,0.0,0.0,0.0,0.0,2.0351505,44.95645,0.5925699,
1.0937499837018552,56,-0.046081543,0.8245239,0.46014404,-0.06347656,-0.06933594,0.030273438,0.0,0.0,0.0,0.0,0.0,0.0,0.0,0.0,0.0,0.0,0.0,-0.82337946,0.029557845,0.56697124,-0.96606445,0.12322998,0.11187744,0.109375,-0.034179688,-0.0048828125,2.7944932,-17.046505,0.611939,11.738062,0.9472046,-0.1897583,-0.17114258,-0.07128906,-0.0390625,-0.0029296875,2.4217198,-17.029606,-56.39652,11.917948,-0.5076294,-0.32147217,0.8018799,0.0068359375,0.0048828125,-0.018554688,26.615433,-19.673338,-128.34378,13.523436,0.0,0.0,0.0,0.0,0.0,0.0,0.0,-21.267298,-136.36539,31.735062,0.0,0.0,0.0,0.0,0.0,0.0,0.0,0.82337946,-0.029557845,-0.56697124,-0.9373779,-0.023986816,-0.33502197,0.07324219,0.033203125,0.015625,2.2670176,17.046505,-0.611939,-11.738062,1.0321655,-0.06982422,-0.12860107,-0.0390625,0.05859375,0.028320312,4.778072,16.713104,-57.615,-12.493342,0.40942383,-0.28375244,0.8869629,-0.036132812,0.009765625,0.022460938,7.143475,17.77058,-129.3845,-6.606472,0.0,0.0,0.0,0.0,0.0,0.0,0.0,20.333424,-130.4848,13.201046,0.0,0.0,0.0,0.0,0.0,0.0,0.0,2.0431137,44.95566,0.6234269,
1.1132812334108169,57,-0.015625,0.8277588,0.47131348,0.015625,-0.033203125,0.0107421875,0.0,0.0,0.0,0.0,0.0,0.0,0.0,0.0,0.0,0.0,0.0,-0.8222252,0.029789895,0.56863755,-0.96606445,0.083984375,0.072387695,0.052734375,-0.015625,-0.0048828125,2.9151738,-17.022612,0.6167431,11.77256,0.989624,-0.22570801,-0.19158936,-0.013671875,-0.021484375,0.017578125,2.478124,-16.968447,-56.391815,12.048482,-0.49127197,-0.30426025,0.80877686,0.0068359375,0.0234375,0.0,26.606312,-19.64193,-128.33395,13.731266,0.0,0.0,0.0,0.0,0.0,0.0,0.0,-21.236128,-136.31888,31.960468,0.0,0.0,0.0,0.0,0.0,0.0,0.0,0.8222252,-0.029789895,-0.56863755,-0.9293823,-0.030883789,-0.38024902,0.072265625,-0.005859375,0.036132812,2.3760285,17.022612,-0.6167431,-11.77256,1.0346069,-0.041931152,-0.1159668,-0.07714844,0.059570312,0.046875,4.7429714,16.755547,-57.61933,-12.585006,0.42199707,-0.26568604,0.85339355,-0.016601562,0.009765625,0.00390625,7.08939,17.806713,-129.40002,-6.7961197,0.0,0.0,0.0,0.0,0.0,0.0,0.0,20.377144,-130.50989,13.009134,0.0,0.0,0.0,0.0,0.0,0.0,0.0,2.076477,44.95394,0.64743984,
1.1328124831197786,58,-0.041015625,0.8463135,0.4661255,0.055664062,-0.034179688,0.028320312,0.0,0.0,0.0,0.0,0.0,0.0,0.0,0.0,0.0,0.0,0.0,-0.8227296,0.029283235,0.56791794,-0.98187256,0.072509766,0.014404297,0.034179688,0.022460938,0.0146484375,2.9040728,-17.033054,0.60625386,11.757663,0.9625244,-0.18353271,-0.17022705,0.024414062,-0.022460938,0.018554688,2.4487255,-16.999208,-56.39953,12.03989,-0.52124023,-0.29833984,0.7919922,-0.03125,0.005859375,-0.038085938,26.473085,-19.658178,-128.34718,13.731208,0.0,0.0,0.0,0.0,0.0,0.0,0.0,-21.21784,-136.29231,31.978207,0.0,0.0,0.0,0.0,0.0,0.0,0.0,0.8227296,-0.029283235,-0.56791794,-0.9090576,-0.010314941,-0.39782715,-0.00390625,0.0546875,0.016601562,2.3576703,17.033054,-0.60625386,-11.757663,1.0447388,-0.045043945,-0.1003418,-0.07714844,0.022460938,0.047851562,4.728866,16.758303,-57.60956,-12.60237,0.41156006,-0.25994873,0.9046631,-0.015625,0.047851562,0.041015625,7.0604143,17.844408,-129.39174,-6.8816247,0.0,0.0,0.0,0.0,0.0,0.0,0.0,20.422686,-130.50858,12.922712,0.0,0.0,0.0,0.0,0.0,0.0,0.0,2.0681243,44.95347,0.67813265,
1.1523437328287403,59,-0.049987793,0.8446045,0.4743042,-0.0234375,-0.032226562,0.030273438,0.0,0.0,0.0,0.0,0.0,0.0,0.0,0.0,0.0,0.0,0.0,-0.8226119,0.028632848,0.5681346,-1.017456,0.05847168,0.013122559,-0.00390625,0.0029296875,0.033203125,2.834761,-17.030619,0.5927886,11.762147,1.0021973,-0.21051025,-0.20361328,-0.08886719,-0.001953125,0.034179688,2.4169466,-17.059067,-56.41348,11.99415,-0.4862671,-0.30541992,0.80877686,-0.01171875,0.005859375,-0.038085938,26.392914,-19.743187,-128.35323,13.685502,0.0,0.0,0.0,0.0,0.0,0.0,0.0,-21.295708,-136.25761,31.952305,0.0,0.0,0.0,0.0,0.0,0.0,0.0,0.8226119,-0.028632848,-0.5681346,-0.9250488,-0.007019043,-0.40075684,0.015625,0.015625,-0.024414062,2.3403392,17.030619,-0.5927886,-11.762147,1.0291138,-0.023864746,-0.09326172,-0.078125,0.059570312,0.028320312,4.6744947,16.749613,-57.592598,-12.606699,0.40429688,-0.28076172,0.8987427,-0.03515625,0.029296875,0.00390625,7.0103655,17.849691,-129.37772,-6.960212,0.0,0.0,0.0,0.0,0.0,0.0,0.0,20.427164,-130.4978,12.843576,0.0,0.0,0.0,0.0,0.0,0.0,0.0,2.0588706,44.95365,0.71550065,
1.171874982537702,60,-0.02166748,0.8189697,0.47039795,-0.04296875,-0.03125,0.030273438,0.0,0.0,0.0,0.0,0.0,0.0,0.0,0.0,0.0,0.0,0.0,-0.8226141,0.028244566,0.56808865,-1.0010986,0.09008789,0.02960205,-0.00390625,0.00390625,-0.0048828125,2.8244534,-17.030663,0.58475006,11.761196,0.99487305,-0.18377686,-0.19049072,-0.10839844,0.037109375,-0.0048828125,2.4196985,-17.09463,-56.423347,11.97592,-0.51501465,-0.2838745,0.81073,0.025390625,0.0048828125,-0.037109375,26.309977,-19.827187,-128.36374,13.633791,0.0,0.0,0.0,0.0,0.0,0.0,0.0,-21.365025,-136.22481,31.919266,0.0,0.0,0.0,0.0,0.0,0.0,0.0,0.8226141,-0.028244566,-0.56808865,-0.92248535,-0.038085938,-0.3704834,0.07324219,0.033203125,0.015625,2.3544304,17.030663,-0.58475006,-11.761196,1.020935,-0.03173828,-0.10394287,-0.05859375,0.05859375,0.028320312,4.6415253,16.753872,-57.586033,-12.625301,0.4300537,-0.2741089,0.87994385,-0.016601562,0.009765625,0.00390625,6.9697037,17.875156,-129.37886,-7.048871,0.0,0.0,0.0,0.0,0.0,0.0,0.0,20.457226,-130.50513,12.754664,0.0,0.0,0.0,0.0,0.0,0.0,0.0,2.0657036,44.95107,0.7563141,
1.1914062322466636,61,-0.046936035,0.80670166,0.4630127,0.036132812,-0.033203125,0.046875,0.0,0.0,0.0,0.0,0.0,0.0,0.0,0.0,0.0,0.0,0.0,-0.8219071,0.028341388,0.56920075,-0.98236084,0.1060791,0.10461426,0.072265625,0.041992188,-0.0048828125,2.89827,-17.016024,0.58675456,11.78422,0.9616699,-0.21588135,-0.15838623,-0.05078125,-0.001953125,0.03515625,2.4202645,-17.08894,-56.421917,12.091463,-0.48919678,-0.30047607,0.81762695,-0.01171875,0.005859375,-0.018554688,26.262697,-19.84454,-128.37073,13.778504,0.0,0.0,0.0,0.0,0.0,0.0,0.0,-21.380806,-136.20094,32.078274,0.0,0.0,0.0,0.0,0.0,0.0,0.0,0.8219071,-0.028341388,-0.56920075,-0.9331665,-0.009521484,-0.3289795,0.091796875,0.051757812,0.015625,2.4299498,17.016024,-0.58675456,-11.78422,1.0504761,-0.05810547,-0.11224365,-0.0390625,0.040039062,0.046875,4.598362,16.782408,-57.588863,-12.662503,0.3972168,-0.26849365,0.88305664,-0.015625,0.06640625,0.041015625,6.939892,17.911776,-129.38583,-7.149373,0.0,0.0,0.0,0.0,0.0,0.0,0.0,20.49548,-130.5194,12.65241,0.0,0.0,0.0,0.0,0.0,0.0,0.0,2.0904834,44.951942,0.78036225,
1.2109374819556253,62,-0.03277588,0.83917236,0.4777832,0.036132812,-0.0146484375,0.028320312,0.0,0.0,0.0,0.0,0.0,0.0,0.0,0.0,0.0,0.0,0.0,-0.8217171,0.027880594,0.5694042,-0.9789429,0.0904541,0.04559326,0.015625,0.0029296875,0.033203125,2.9655712,-17.01209,0.5772148,11.788433,0.984375,-0.19909668,-0.17944336,0.005859375,-0.0029296875,0.037109375,2.4694998,-17.075226,-56.42919,12.19016,-0.4975586,-0.31799316,0.82958984,-0.01171875,-0.0126953125,-0.018554688,26.212284,-19.88934,-128.36731,13.909426,0.0,0.0,0.0,0.0,0.0,0.0,0.0,-21.414806,-136.16617,32.2238,0.0,0.0,0.0,0.0,0.0,0.0,0.0,0.8217171,-0.027880594,-0.5694042,-0.9333496,-0.026123047,-0.37139893,0.034179688,0.0146484375,0.016601562,2.453517,17.01209,-0.5772148,-11.788433,1.0396118,-0.04498291,-0.11010742,-0.0390625,0.040039062,0.028320312,4.5268826,16.804228,-57.578934,-12.666062,0.428833,-0.30603027,0.8800049,-0.016601562,0.028320312,0.041015625,6.862528,17.963215,-129.38092,-7.2432394,0.0,0.0,0.0,0.0,0.0,0.0,0.0,20.554546,-130.51302,12.558099,0.0,0.0,0.0,0.0,0.0,0.0,0.0,2.0868893,44.94917,0.81071234,
1.230468731664587,63,-0.028808594,0.80023193,0.46148682,-0.0029296875,-0.0126953125,0.06640625,0.0,0.0,0.0,0.0,0.0,0.0,0.0,0.0,0.0,0.0,0.0,-0.8213484,0.027289461,0.5698989,-0.98291016,0.0791626,0.02545166,-0.041015625,0.040039062,0.072265625,2.9318466,-17.004457,0.56497633,11.798674,0.9987793,-0.18988037,-0.17456055,0.0234375,0.016601562,-9.765625E-4,2.4132996,-17.130688,-56.441883,12.21905,-0.5214844,-0.31219482,0.8048706,0.044921875,0.00390625,-0.017578125,26.120678,-19.95062,-128.38312,13.964532,0.0,0.0,0.0,0.0,0.0,0.0,0.0,-21.454962,-136.15363,32.292236,0.0,0.0,0.0,0.0,0.0,0.0,0.0,0.8213484,-0.027289461,-0.5698989,-0.92230225,-0.027648926,-0.39794922,-0.041992188,-0.021484375,-0.0234375,2.4372687,17.004457,-0.56497633,-11.798674,1.0327148,-0.049865723,-0.104003906,-0.05859375,0.05859375,0.046875,4.479165,16.788582,-57.564804,-12.689349,0.41778564,-0.27972412,0.8642578,-0.036132812,0.009765625,0.041015625,6.8251567,17.968098,-129.37885,-7.3504543,0.0,0.0,0.0,0.0,0.0,0.0,0.0,20.558966,-130.52135,12.450539,0.0,0.0,0.0,0.0,0.0,0.0,0.0,2.0788271,44.94725,0.8437552,
1.2499999813735487,64,-0.023620605,0.8230591,0.47839355,-0.022460938,-0.0126953125,0.048828125,0.0,0.0,0.0,0.0,0.0,0.0,0.0,0.0,0.0,0.0,0.0,-0.820756,0.027025256,0.5707244,-1.0256958,0.06414795,0.030151367,-0.022460938,-0.034179688,-0.0048828125,2.916785,-16.992193,0.5595066,11.815764,1.0166626,-0.2053833,-0.1628418,-0.0146484375,-0.001953125,-0.001953125,2.3439326,-17.177279,-56.44335,12.208835,-0.5092163,-0.2987671,0.803833,0.0068359375,-0.0126953125,-0.018554688,26.040861,-19.975822,-128.38765,13.975805,0.0,0.0,0.0,0.0,0.0,0.0,0.0,-21.477127,-136.12247,32.32009,0.0,0.0,0.0,0.0,0.0,0.0,0.0,0.820756,-0.027025256,-0.5707244,-0.90515137,-0.0211792,-0.3949585,-0.041992188,-0.001953125,-0.0029296875,2.434215,16.992193,-0.5595066,-11.815764,1.0043945,-0.045532227,-0.13409424,-0.07714844,0.041015625,0.06640625,4.427884,16.744673,-57.562027,-12.707492,0.43011475,-0.28179932,0.84747314,-0.036132812,0.009765625,0.041015625,6.783534,17.891626,-129.37909,-7.437665,0.0,0.0,0.0,0.0,0.0,0.0,0.0,20.496754,-130.52745,12.362096,0.0,0.0,0.0,0.0,0.0,0.0,0.0,2.0975325,44.944504,0.8882144,
1.2695312310825104,65,-0.038024902,0.81036377,0.4508667,-0.001953125,0.025390625,0.047851562,0.0,0.0,0.0,0.0,0.0,0.0,0.0,0.0,0.0,0.0,0.0,-0.8201574,0.026908513,0.5716544,-0.99005127,0.107910156,0.059814453,-0.0029296875,-0.0146484375,-0.04296875,2.948226,-16.979801,0.5570896,11.835019,0.9640503,-0.20019531,-0.18127441,-0.07128906,0.017578125,-0.0029296875,2.3200123,-17.182642,-56.449978,12.245778,-0.4911499,-0.2993164,0.7998657,-0.03125,0.024414062,-0.01953125,25.929852,-19.974358,-128.38814,14.000843,0.0,0.0,0.0,0.0,0.0,0.0,0.0,-21.475048,-136.08537,32.36037,0.0,0.0,0.0,0.0,0.0,0.0,0.0,0.8201574,-0.026908513,-0.5716544,-0.96014404,-0.0015258789,-0.3564453,0.03515625,0.034179688,-0.00390625,2.4700544,16.979801,-0.5570896,-11.835019,1.024292,-0.051757812,-0.13348389,-0.0390625,0.040039062,0.028320312,4.4085116,16.745337,-57.55637,-12.74073,0.43011475,-0.2659912,0.87109375,0.0029296875,0.028320312,0.022460938,6.808296,17.85379,-129.3717,-7.5014486,0.0,0.0,0.0,0.0,0.0,0.0,0.0,20.46346,-130.5373,12.29621,0.0,0.0,0.0,0.0,0.0,0.0,0.0,2.1138124,44.94482,0.9170935,
1.2890624807914721,66,-0.028808594,0.8231201,0.4645996,-0.059570312,0.045898438,0.049804688,0.0,0.0,0.0,0.0,0.0,0.0,0.0,0.0,0.0,0.0,0.0,-0.8200147,0.026369222,0.5719001,-0.9619751,0.097351074,0.08557129,-0.00390625,0.0029296875,0.033203125,3.0497293,-16.976847,0.54592466,11.840105,0.95758057,-0.2156372,-0.17529297,0.0048828125,-0.001953125,-9.765625E-4,2.377593,-17.134787,-56.462,12.344369,-0.49157715,-0.32202148,0.81274414,-0.01171875,0.005859375,-0.018554688,25.895536,-19.950874,-128.40042,14.125951,0.0,0.0,0.0,0.0,0.0,0.0,0.0,-21.447842,-136.06909,32.499317,0.0,0.0,0.0,0.0,0.0,0.0,0.0,0.8200147,-0.026369222,-0.5719001,-0.9219971,-8.544922E-4,-0.37219238,0.015625,0.03515625,-0.00390625,2.4516015,16.976847,-0.54592466,-11.840105,1.0244751,-0.061767578,-0.11663818,-0.0390625,0.05859375,0.028320312,4.400418,16.731401,-57.544506,-12.759047,0.42181396,-0.28082275,0.8701172,-0.016601562,0.028320312,0.041015625,6.8037715,17.808504,-129.36752,-7.54272,0.0,0.0,0.0,0.0,0.0,0.0,0.0,20.425364,-130.53976,12.253341,0.0,0.0,0.0,0.0,0.0,0.0,0.0,2.105721,44.944992,0.9469447,
1.3085937305004338,67,-0.027954102,0.8110962,0.45355225,0.01953125,0.0625,0.047851562,0.0,0.0,0.0,0.0,0.0,0.0,0.0,0.0,0.0,0.0,0.0,-0.8199398,0.025545042,0.57212615,-0.97802734,0.07879639,0.04437256,-0.041015625,0.041015625,0.034179688,3.127813,-16.975296,0.5288616,11.844785,1.0021362,-0.2154541,-0.18670654,0.061523438,-0.0029296875,9.765625E-4,2.3996353,-17.123116,-56.476215,12.4038105,-0.49725342,-0.3040161,0.7939453,-0.03125,0.024414062,-9.765625E-4,25.824898,-19.954924,-128.41808,14.230003,0.0,0.0,0.0,0.0,0.0,0.0,0.0,-21.44846,-136.04999,32.61959,0.0,0.0,0.0,0.0,0.0,0.0,0.0,0.8199398,-0.025545042,-0.57212615,-0.92840576,-0.028442383,-0.35961914,-0.0029296875,0.0546875,-0.024414062,2.4742506,16.975296,-0.5288616,-11.844785,1.0244751,-0.061767578,-0.11663818,-0.0390625,0.05859375,0.028320312,4.423547,16.75239,-57.527817,-12.7919235,0.4136963,-0.2736206,0.86328125,-0.016601562,0.028320312,0.041015625,6.831792,17.829493,-129.35083,-7.575597,0.0,0.0,0.0,0.0,0.0,0.0,0.0,20.436028,-130.53236,12.221421,0.0,0.0,0.0,0.0,0.0,0.0,0.0,2.1015377,44.94602,1.0049992,
1.3281249802093955,68,-0.049865723,0.83270264,0.479187,0.09765625,0.060546875,0.028320312,0.0,0.0,0.0,0.0,0.0,0.0,0.0,0.0,0.0,0.0,0.0,-0.8188602,0.025437485,0.5734665,-0.9880371,0.07525635,0.030395508,-0.041015625,0.022460938,0.033203125,3.1052625,-16.952946,0.5266347,11.872534,0.98553467,-0.19226074,-0.18743896,0.08203125,0.0146484375,0.0390625,2.3546798,-17.140596,-56.477417,12.428067,-0.5106201,-0.32141113,0.8018799,0.0068359375,-0.03125,-0.018554688,25.719608,-19.96378,-128.41016,14.250872,0.0,0.0,0.0,0.0,0.0,0.0,0.0,-21.44904,-136.02037,32.650272,0.0,0.0,0.0,0.0,0.0,0.0,0.0,0.8188602,-0.025437485,-0.5734665,-0.9219971,-0.0036621094,-0.3781128,-0.00390625,-0.00390625,-0.00390625,2.455032,16.952946,-0.5266347,-11.872534,1.0093384,-0.02557373,-0.083984375,0.0,0.057617188,0.02734375,4.351047,16.703312,-57.52711,-12.821587,0.4179077,-0.2616577,0.85931396,0.0029296875,0.028320312,0.00390625,6.7648892,17.840809,-129.35329,-7.721524,0.0,0.0,0.0,0.0,0.0,0.0,0.0,20.451252,-130.54295,12.075354,0.0,0.0,0.0,0.0,0.0,0.0,0.0,2.106155,44.940216,1.0139745,
1.3476562299183572,69,-0.05206299,0.8078003,0.45916748,-0.001953125,0.025390625,0.047851562,0.0,0.0,0.0,0.0,0.0,0.0,0.0,0.0,0.0,0.0,0.0,-0.81853306,0.025157586,0.57404923,-1.0020752,0.08258057,0.012573242,-0.07910156,0.0029296875,-0.0048828125,3.001462,-16.946169,0.52084,11.884599,0.9880371,-0.2130127,-0.17059326,-0.05078125,0.036132812,0.03515625,2.3079169,-17.186853,-56.482937,12.382002,-0.5145874,-0.3192749,0.8029175,0.026367188,0.0234375,0.0,25.594444,-20.010036,-128.41568,14.204806,0.0,0.0,0.0,0.0,0.0,0.0,0.0,-21.478298,-135.98933,32.62125,0.0,0.0,0.0,0.0,0.0,0.0,0.0,0.81853306,-0.025157586,-0.57404923,-0.92333984,-0.026489258,-0.36450195,-0.15625,-0.018554688,-0.04296875,2.4278545,16.946169,-0.52084,-11.884599,1.0249023,-0.02178955,-0.10998535,-0.05859375,0.05859375,0.046875,4.2821255,16.693071,-57.523228,-12.817116,0.41778564,-0.26184082,0.87701416,-0.016601562,0.009765625,0.041015625,6.7227206,17.861366,-129.3499,-7.793403,0.0,0.0,0.0,0.0,0.0,0.0,0.0,20.470749,-130.5454,12.001566,0.0,0.0,0.0,0.0,0.0,0.0,0.0,2.0867057,44.943985,1.0057595,
1.367187479627319,70,-0.05255127,0.82696533,0.5061035,-0.08203125,-0.030273438,0.06738281,0.0,0.0,0.0,0.0,0.0,0.0,0.0,0.0,0.0,0.0,0.0,-0.817711,0.02704218,0.5752074,-0.9863281,0.08428955,0.070373535,-0.022460938,0.022460938,-0.0048828125,3.1583333,-16.929153,0.5598569,11.908576,0.97631836,-0.19683838,-0.17242432,-0.08984375,0.056640625,-0.00390625,2.313507,-17.146263,-56.443115,12.420684,-0.48931885,-0.31115723,0.79589844,-0.03125,0.0068359375,-9.765625E-4,25.544538,-19.948402,-128.37784,14.237707,0.0,0.0,0.0,0.0,0.0,0.0,0.0,-21.429459,-135.91812,32.667423,0.0,0.0,0.0,0.0,0.0,0.0,0.0,0.817711,-0.02704218,-0.5752074,-0.9043579,-0.034118652,-0.3479004,-0.00390625,-0.00390625,-0.00390625,2.6167364,16.929153,-0.5598569,-11.908576,1.0149536,-0.01965332,-0.10784912,-0.05859375,0.05859375,0.046875,4.2636533,16.7207,-57.560085,-12.86894,0.43414307,-0.26623535,0.8848877,-0.016601562,0.009765625,0.022460938,6.6991367,17.89475,-129.39651,-7.891782,0.0,0.0,0.0,0.0,0.0,0.0,0.0,20.506021,-130.59673,11.902778,0.0,0.0,0.0,0.0,0.0,0.0,0.0,2.202486,44.940075,1.0182754,
1.3867187293362806,71,-0.019897461,0.8198242,0.45343018,-0.001953125,0.025390625,0.06640625,0.0,0.0,0.0,0.0,0.0,0.0,0.0,0.0,0.0,0.0,0.0,-0.8172293,0.026420701,0.5758237,-0.98223877,0.09667969,0.08453369,0.015625,0.022460938,0.0146484375,3.2442546,-16.919182,0.5469905,11.921336,0.973938,-0.24371338,-0.1954956,-0.051757812,-0.020507812,0.016601562,2.400614,-17.0929,-56.460716,12.489344,-0.5062256,-0.30181885,0.79888916,-0.01171875,-0.01171875,0.0,25.52046,-19.954517,-128.39203,14.331576,0.0,0.0,0.0,0.0,0.0,0.0,0.0,-21.419872,-135.90341,32.772724,0.0,0.0,0.0,0.0,0.0,0.0,0.0,0.8172293,-0.026420701,-0.5758237,-0.9210205,-0.0025634766,-0.3427124,0.053710938,0.053710938,0.036132812,2.6738608,16.919182,-0.5469905,-11.921336,1.0184326,-0.060668945,-0.12145996,0.0,0.0390625,0.046875,4.281302,16.777716,-57.545105,-12.925262,0.39208984,-0.26940918,0.8869629,-0.015625,0.047851562,0.041015625,6.709112,17.928577,-129.38495,-7.9563956,0.0,0.0,0.0,0.0,0.0,0.0,0.0,20.53033,-130.5912,11.839668,0.0,0.0,0.0,0.0,0.0,0.0,0.0,2.194674,44.937153,1.0528932,
1.4062499790452423,72,-0.024658203,0.82110596,0.47644043,0.057617188,0.043945312,0.083984375,0.0,0.0,0.0,0.0,0.0,0.0,0.0,0.0,0.0,0.0,0.0,-0.81715775,0.02622099,0.5759594,-0.9760132,0.081604004,0.049438477,-0.041015625,0.022460938,0.0146484375,3.3314302,-16.917698,0.5428558,11.924145,0.9682007,-0.23675537,-0.15753174,0.0625,-0.00390625,0.01953125,2.4459264,-17.060753,-56.460613,12.559692,-0.5036011,-0.3206787,0.80981445,-0.049804688,0.0068359375,-9.765625E-4,25.498272,-19.941423,-128.3954,14.475522,0.0,0.0,0.0,0.0,0.0,0.0,0.0,-21.405872,-135.8752,32.92911,0.0,0.0,0.0,0.0,0.0,0.0,0.0,0.81715775,-0.02622099,-0.5759594,-0.93341064,-0.028564453,-0.35272217,-0.041992188,0.037109375,-0.0029296875,2.6637394,16.917698,-0.5428558,-11.924145,1.0013428,-0.029418945,-0.08477783,0.0,0.0390625,0.046875,4.2826743,16.758327,-57.543865,-12.946157,0.41149902,-0.28076172,0.88397217,-0.016601562,0.009765625,0.022460938,6.704609,17.937529,-129.38402,-8.009348,0.0,0.0,0.0,0.0,0.0,0.0,0.0,20.52726,-130.5963,11.787727,0.0,0.0,0.0,0.0,0.0,0.0,0.0,2.1997354,44.937023,1.0751407,
1.425781228754204,73,-0.036071777,0.8023071,0.4467163,0.018554688,0.04296875,0.029296875,0.0,0.0,0.0,0.0,0.0,0.0,0.0,0.0,0.0,0.0,0.0,-0.8165826,0.025992168,0.5767411,-0.99316406,0.07531738,0.030395508,-0.07910156,0.041015625,0.034179688,3.3233104,-16.90579,0.5381185,11.94033,0.993103,-0.17791748,-0.16351318,0.08105469,0.015625,0.01953125,2.4012663,-17.06248,-56.46622,12.554111,-0.5064087,-0.30969238,0.79693604,-0.01171875,-0.01171875,0.0,25.364605,-19.899809,-128.40134,14.490329,0.0,0.0,0.0,0.0,0.0,0.0,0.0,-21.357191,-135.85059,32.954372,0.0,0.0,0.0,0.0,0.0,0.0,0.0,0.8165826,-0.025992168,-0.5767411,-0.93304443,-0.0021362305,-0.39282227,-0.099609375,-0.040039062,-0.0234375,2.6444907,16.90579,-0.5381185,-11.94033,1.0245361,-0.041809082,-0.1217041,-0.057617188,0.040039062,0.06640625,4.2540426,16.719723,-57.53698,-12.952519,0.42193604,-0.2598877,0.87213135,-0.016601562,0.009765625,0.00390625,6.6907883,17.930498,-129.37703,-8.055189,0.0,0.0,0.0,0.0,0.0,0.0,0.0,20.517883,-130.59502,11.741932,0.0,0.0,0.0,0.0,0.0,0.0,0.0,2.2021012,44.935352,1.0927441,
1.4453124784631657,74,-0.036132812,0.80529785,0.44378662,0.018554688,0.04296875,0.029296875,0.0,0.0,0.0,0.0,0.0,0.0,0.0,0.0,0.0,0.0,0.0,-0.8155819,0.026408266,0.5781481,-1.0003662,0.0914917,0.06048584,-0.060546875,0.0029296875,0.0146484375,3.306774,-16.885075,0.54673284,11.969458,1.0045776,-0.1616211,-0.19146729,-0.06933594,0.055664062,0.015625,2.3277607,-17.044672,-56.455055,12.5679865,-0.49731445,-0.3079834,0.79888916,0.0068359375,0.005859375,0.0,25.22026,-19.795729,-128.39258,14.447073,0.0,0.0,0.0,0.0,0.0,0.0,0.0,-21.258562,-135.81204,32.92614,0.0,0.0,0.0,0.0,0.0,0.0,0.0,0.8155819,-0.026408266,-0.5781481,-0.8991699,-0.020874023,-0.3310547,-0.060546875,0.017578125,-0.0234375,2.6474497,16.885075,-0.54673284,-11.969458,1.0211792,-0.0256958,-0.08917236,0.0,0.057617188,0.046875,4.2188153,16.69018,-57.54675,-12.975442,0.4179077,-0.24188232,0.8800049,0.0029296875,0.046875,0.041015625,6.6907005,17.932257,-129.3917,-8.125658,0.0,0.0,0.0,0.0,0.0,0.0,0.0,20.518505,-130.62206,11.671217,0.0,0.0,0.0,0.0,0.0,0.0,0.0,2.2138052,44.935616,1.0704318,
1.4648437281721274,75,-0.051086426,0.8256836,0.4602661,0.0,0.064453125,0.08496094,0.0,0.0,0.0,0.0,0.0,0.0,0.0,0.0,0.0,0.0,0.0,-0.8152359,0.026085678,0.5787715,-0.972229,0.09246826,0.09643555,0.015625,0.022460938,-0.0048828125,3.3992062,-16.87791,0.54005444,11.982365,0.9675293,-0.22094727,-0.17938232,-0.049804688,0.0546875,0.03515625,2.3765228,-16.994768,-56.46384,12.65888,-0.52130127,-0.29748535,0.81274414,-0.03125,0.005859375,-0.01953125,25.157278,-19.757828,-128.39822,14.548802,0.0,0.0,0.0,0.0,0.0,0.0,0.0,-21.204285,-135.78708,33.04243,0.0,0.0,0.0,0.0,0.0,0.0,0.0,0.8152359,-0.026085678,-0.5787715,-0.91430664,-0.028137207,-0.3428955,0.07324219,0.033203125,-0.0048828125,2.6996515,16.87791,-0.54005444,-11.982365,1.0286255,-0.043823242,-0.1138916,0.0,0.0390625,0.046875,4.1749506,16.735205,-57.540447,-12.983221,0.41986084,-0.28857422,0.84454346,-0.015625,0.047851562,0.041015625,6.6549625,17.955276,-129.38603,-8.1627655,0.0,0.0,0.0,0.0,0.0,0.0,0.0,20.559912,-130.61325,11.631086,0.0,0.0,0.0,0.0,0.0,0.0,0.0,2.211017,44.93846,1.0889447,
1.484374977881089,76,-0.037841797,0.8134155,0.46679688,0.01953125,0.06347656,0.08496094,0.0,0.0,0.0,0.0,0.0,0.0,0.0,0.0,0.0,0.0,0.0,-0.8156885,0.025326956,0.57811487,-0.9793091,0.08117676,0.078308105,-0.060546875,-0.016601562,0.033203125,3.5043108,-16.88728,0.5243465,11.96877,0.982666,-0.22454834,-0.16955566,0.0068359375,0.03515625,0.037109375,2.438794,-16.949154,-56.479168,12.701138,-0.4934082,-0.3121338,0.817688,0.026367188,0.0048828125,-0.018554688,25.16483,-19.722462,-128.41835,14.66734,0.0,0.0,0.0,0.0,0.0,0.0,0.0,-21.163351,-135.78912,33.16866,0.0,0.0,0.0,0.0,0.0,0.0,0.0,0.8156885,-0.025326956,-0.57811487,-0.92907715,-0.00579834,-0.366333,-0.080078125,0.018554688,-0.0234375,2.7002313,16.88728,-0.5243465,-11.96877,1.0186157,-0.049682617,-0.11364746,0.01953125,0.057617188,0.045898438,4.105416,16.742516,-57.526176,-12.932474,0.42797852,-0.27990723,0.86621094,-0.015625,0.047851562,0.022460938,6.6265535,17.96262,-129.37833,-8.155054,0.0,0.0,0.0,0.0,0.0,0.0,0.0,20.570374,-130.60764,11.637457,0.0,0.0,0.0,0.0,0.0,0.0,0.0,2.2006807,44.93643,1.1363955,
1.5039062275900508,77,-0.02923584,0.82788086,0.4368286,0.07714844,0.0234375,0.046875,0.0,0.0,0.0,0.0,0.0,0.0,0.0,0.0,0.0,0.0,0.0,-0.81575453,0.024137348,0.5780162,-0.9859619,0.08111572,0.028503418,-0.041015625,0.021484375,0.052734375,3.4429295,-16.888647,0.4997179,11.966728,0.98461914,-0.19329834,-0.1585083,0.061523438,-0.0029296875,9.765625E-4,2.4310772,-16.96264,-56.501156,12.681709,-0.51434326,-0.30841064,0.78704834,-0.049804688,-0.029296875,0.0,25.120146,-19.737993,-128.4315,14.668686,0.0,0.0,0.0,0.0,0.0,0.0,0.0,-21.177391,-135.77945,33.181973,0.0,0.0,0.0,0.0,0.0,0.0,0.0,0.81575453,-0.024137348,-0.5780162,-0.9360962,-0.0053100586,-0.38006592,-0.11816406,0.01953125,-0.022460938,2.6138175,16.888647,-0.4997179,-11.966728,1.0046997,-0.0335083,-0.12335205,0.0,0.0390625,0.046875,4.0407963,16.7144,-57.501343,-12.895276,0.43011475,-0.2769165,0.8632202,-0.016601562,0.028320312,0.060546875,6.6231785,17.929045,-129.35254,-8.164775,0.0,0.0,0.0,0.0,0.0,0.0,0.0,20.531559,-130.59392,11.628625,0.0,0.0,0.0,0.0,0.0,0.0,0.0,2.1462522,44.937183,1.1524773,
1.5234374772990125,78,-0.043151855,0.80249023,0.44293213,0.01953125,0.061523438,0.01171875,0.0,0.0,0.0,0.0,0.0,0.0,0.0,0.0,0.0,0.0,0.0,-0.81567943,0.023657344,0.57829326,-1.0003052,0.07922363,0.038391113,-0.060546875,0.041015625,0.0146484375,3.3050566,-16.887093,0.48978046,11.972463,1.0070801,-0.18334961,-0.17364502,0.0048828125,-0.0029296875,0.017578125,2.3403392,-17.02043,-56.513058,12.627194,-0.4953003,-0.30419922,0.81073,-0.049804688,0.0068359375,-9.765625E-4,24.959223,-19.752834,-128.45293,14.568584,0.0,0.0,0.0,0.0,0.0,0.0,0.0,-21.1974,-135.75986,33.092823,0.0,0.0,0.0,0.0,0.0,0.0,0.0,0.81567943,-0.023657344,-0.57829326,-0.91748047,-0.040222168,-0.36853027,-0.15625,-0.018554688,-0.04296875,2.5604026,16.887093,-0.48978046,-11.972463,1.020935,-0.039733887,-0.09692383,0.0,0.020507812,0.046875,4.030169,16.715084,-57.49099,-12.912603,0.42181396,-0.28186035,0.8731079,0.001953125,0.0087890625,0.041015625,6.621669,17.9454,-129.34488,-8.213615,0.0,0.0,0.0,0.0,0.0,0.0,0.0,20.556166,-130.59387,11.577356,0.0,0.0,0.0,0.0,0.0,0.0,0.0,2.1075132,44.943424,1.1340489,
1.5429687270079742,79,-0.03704834,0.81726074,0.45288086,0.01953125,0.06347656,0.06640625,0.0,0.0,0.0,0.0,0.0,0.0,0.0,0.0,0.0,0.0,0.0,-0.8153083,0.023452826,0.57863677,-0.98620605,0.09503174,0.07055664,-0.060546875,0.00390625,-0.0048828125,3.3035755,-16.87941,0.48554623,11.979576,0.97979736,-0.18328857,-0.16046143,-0.051757812,0.017578125,0.016601562,2.3116453,-17.00778,-56.518852,12.631931,-0.5055542,-0.32147217,0.78808594,-0.01171875,0.024414062,0.0,24.921652,-19.698286,-128.46037,14.569946,0.0,0.0,0.0,0.0,0.0,0.0,0.0,-21.155586,-135.74751,33.1043,0.0,0.0,0.0,0.0,0.0,0.0,0.0,0.8153083,-0.023452826,-0.57863677,-0.93914795,-0.006164551,-0.34173584,-0.060546875,-0.001953125,-0.0029296875,2.5751908,16.87941,-0.48554623,-11.979576,1.0325928,-0.049865723,-0.11291504,0.0390625,0.020507812,0.02734375,3.9659054,16.725922,-57.485397,-12.897732,0.41778564,-0.27166748,0.86328125,-0.036132812,0.009765625,0.060546875,6.586391,17.952797,-129.34119,-8.247588,0.0,0.0,0.0,0.0,0.0,0.0,0.0,20.552168,-130.5915,11.545297,0.0,0.0,0.0,0.0,0.0,0.0,0.0,2.1002128,44.93877,1.1378114,
1.5624999767169359,80,-0.027954102,0.8319702,0.4597168,0.09765625,0.061523438,0.08300781,0.0,0.0,0.0,0.0,0.0,0.0,0.0,0.0,0.0,0.0,0.0,-0.81552035,0.022266306,0.5785315,-0.98327637,0.09289551,0.07849121,-0.060546875,-0.015625,-0.0048828125,3.3599281,-16.8838,0.46098158,11.977395,0.97802734,-0.2076416,-0.18939209,0.0068359375,0.03515625,0.037109375,2.367942,-16.95391,-56.54085,12.700976,-0.5095825,-0.3213501,0.7890625,0.0068359375,0.024414062,0.037109375,24.908031,-19.646479,-128.47353,14.659747,0.0,0.0,0.0,0.0,0.0,0.0,0.0,-21.102283,-135.748,33.19868,0.0,0.0,0.0,0.0,0.0,0.0,0.0,0.81552035,-0.022266306,-0.5785315,-0.9299927,0.0028076172,-0.35742188,0.03515625,0.053710938,-0.024414062,2.5349724,16.8838,-0.46098158,-11.977395,1.0324707,-0.053894043,-0.11779785,0.01953125,0.020507812,0.046875,3.903696,16.746887,-57.462383,-12.881215,0.416687,-0.2758789,0.88397217,-0.016601562,0.009765625,0.060546875,6.5523314,17.971817,-129.32239,-8.287678,0.0,0.0,0.0,0.0,0.0,0.0,0.0,20.57234,-130.57663,11.5059395,0.0,0.0,0.0,0.0,0.0,0.0,0.0,2.0482068,44.9445,1.1574247,
1.5820312264258976,81,-0.015075684,0.82354736,0.4354248,0.020507812,0.10058594,0.047851562,0.0,0.0,0.0,0.0,0.0,0.0,0.0,0.0,0.0,0.0,0.0,-0.8162527,0.021193724,0.5775377,-0.97302246,0.09869385,0.070617676,-0.060546875,0.0029296875,0.0146484375,3.4315374,-16.898964,0.4387758,11.9568205,0.96691895,-0.20922852,-0.16741943,0.0234375,0.016601562,-9.765625E-4,2.4047687,-16.933142,-56.561558,12.734548,-0.510376,-0.3076172,0.80285645,0.026367188,0.0234375,0.018554688,24.860674,-19.628784,-128.50069,14.721211,0.0,0.0,0.0,0.0,0.0,0.0,0.0,-21.0868,-135.74477,33.272007,0.0,0.0,0.0,0.0,0.0,0.0,0.0,0.8162527,-0.021193724,-0.5775377,-0.94085693,0.0138549805,-0.3612671,-0.15625,0.020507812,-0.022460938,2.524682,16.898964,-0.4387758,-11.9568205,1.024292,-0.049804688,-0.13250732,0.0390625,0.0390625,0.06542969,3.8681695,16.76968,-57.44107,-12.833229,0.4033203,-0.2697754,0.9017334,-0.016601562,0.047851562,0.060546875,6.543437,17.978313,-129.29883,-8.245011,0.0,0.0,0.0,0.0,0.0,0.0,0.0,20.58276,-130.55193,11.54782,0.0,0.0,0.0,0.0,0.0,0.0,0.0,2.0174892,44.944706,1.2020609,
1.6015624761348592,82,-0.022094727,0.8446655,0.44573975,0.0390625,0.06347656,0.083984375,0.0,0.0,0.0,0.0,0.0,0.0,0.0,0.0,0.0,0.0,0.0,-0.8170031,0.020932443,0.5764401,-0.9921875,0.06750488,0.033203125,-0.13574219,0.021484375,0.052734375,3.362666,-16.914497,0.43336648,11.934096,0.98779297,-0.18756104,-0.1595459,0.08105469,0.034179688,9.765625E-4,2.3766875,-16.977074,-56.5671,12.673308,-0.50128174,-0.30493164,0.79888916,-0.049804688,-0.0107421875,-0.01953125,24.806944,-19.671734,-128.50253,14.692098,0.0,0.0,0.0,0.0,0.0,0.0,0.0,-21.142075,-135.72542,33.2489,0.0,0.0,0.0,0.0,0.0,0.0,0.0,0.8170031,-0.020932443,-0.5764401,-0.9250488,-0.0048828125,-0.36730957,-0.11816406,0.01953125,-0.022460938,2.5176172,16.914497,-0.43336648,-11.934096,1.0144043,-0.04168701,-0.13336182,0.0390625,0.0390625,0.06542969,3.8078632,16.791422,-57.43426,-12.763268,0.42193604,-0.26782227,0.8671875,-0.016601562,0.029296875,0.022460938,6.5332994,17.988308,-129.29611,-8.188177,0.0,0.0,0.0,0.0,0.0,0.0,0.0,20.5922,-130.54987,11.605457,0.0,0.0,0.0,0.0,0.0,0.0,0.0,1.9972985,44.944523,1.1987376,
1.621093725843821,83,-0.033935547,0.8302002,0.46081543,0.020507812,0.1015625,0.06640625,0.0,0.0,0.0,0.0,0.0,0.0,0.0,0.0,0.0,0.0,0.0,-0.8170103,0.021655414,0.5763841,-0.99823,0.08874512,0.047546387,-0.1171875,0.0029296875,0.0146484375,3.282291,-16.91465,0.44833416,11.93294,0.9951172,-0.17803955,-0.15856934,-0.013671875,0.016601562,-0.001953125,2.3120685,-16.994001,-56.554688,12.644205,-0.51153564,-0.31359863,0.8216553,-0.01171875,0.024414062,0.018554688,24.719769,-19.629389,-128.49771,14.645158,0.0,0.0,0.0,0.0,0.0,0.0,0.0,-21.110785,-135.699,33.209282,0.0,0.0,0.0,0.0,0.0,0.0,0.0,0.8170103,-0.021655414,-0.5763841,-0.93548584,-0.034240723,-0.35766602,-0.09863281,-9.765625E-4,-0.0234375,2.49975,16.91465,-0.44833416,-11.93294,1.0007935,-0.033447266,-0.115356445,-0.038085938,0.021484375,0.06640625,3.7989051,16.800508,-57.454403,-12.789954,0.4248047,-0.28497314,0.8829346,0.0029296875,0.028320312,0.022460938,6.5086412,18.004036,-129.31665,-8.260715,0.0,0.0,0.0,0.0,0.0,0.0,0.0,20.603756,-130.57414,11.532348,0.0,0.0,0.0,0.0,0.0,0.0,0.0,1.996815,44.945538,1.141781,
1.6406249755527826,84,-0.0357666,0.82037354,0.47473145,0.041015625,0.12109375,0.10253906,0.0,0.0,0.0,0.0,0.0,0.0,0.0,0.0,0.0,0.0,0.0,-0.8180074,0.020712137,0.57498115,-0.9925537,0.097473145,0.10443115,-0.07910156,-0.016601562,0.033203125,3.3222497,-16.935287,0.42880544,11.903892,0.9730835,-0.20550537,-0.1694336,0.0048828125,-0.0029296875,0.017578125,2.3564246,-16.957308,-56.57079,12.649446,-0.49554443,-0.32183838,0.7949829,-0.01171875,0.024414062,0.0,24.636454,-19.581108,-128.51456,14.647762,0.0,0.0,0.0,0.0,0.0,0.0,0.0,-21.047201,-135.69955,33.22018,0.0,0.0,0.0,0.0,0.0,0.0,0.0,0.8180074,-0.020712137,-0.57498115,-0.9182739,-0.02331543,-0.37823486,-0.080078125,-9.765625E-4,-0.043945312,2.4432042,16.935287,-0.42880544,-11.903892,1.0082397,-0.041625977,-0.14801025,0.0,0.001953125,0.046875,3.7563488,16.811825,-57.43198,-12.759138,0.40960693,-0.25177002,0.8878784,-0.016601562,0.009765625,0.022460938,6.5102377,17.967815,-129.30014,-8.273811,0.0,0.0,0.0,0.0,0.0,0.0,0.0,20.555746,-130.57213,11.519751,0.0,0.0,0.0,0.0,0.0,0.0,0.0,1.9533036,44.94642,1.1598302,
1.6601562252617443,85,-0.030090332,0.8409424,0.45385742,0.018554688,0.044921875,0.10253906,0.0,0.0,0.0,0.0,0.0,0.0,0.0,0.0,0.0,0.0,0.0,-0.81920654,0.019302243,0.573368,-0.97424316,0.08782959,0.084350586,-0.060546875,-0.03515625,-0.0048828125,3.4399142,-16.960114,0.3996163,11.870495,0.96588135,-0.21014404,-0.16638184,0.08105469,-0.00390625,0.020507812,2.4331696,-16.916708,-56.602497,12.66759,-0.48754883,-0.32214355,0.81274414,0.0068359375,0.005859375,0.037109375,24.632137,-19.55764,-128.53749,14.70065,0.0,0.0,0.0,0.0,0.0,0.0,0.0,-21.042513,-135.70589,33.278454,0.0,0.0,0.0,0.0,0.0,0.0,0.0,0.81920654,-0.019302243,-0.573368,-0.9025879,-0.052001953,-0.378479,-0.022460938,0.036132812,-0.00390625,2.4117582,16.960114,-0.3996163,-11.870495,1.0245361,-0.061767578,-0.11364746,0.0,0.020507812,0.046875,3.784911,16.836933,-57.402157,-12.792267,0.4136963,-0.25976562,0.8790283,-0.036132812,0.009765625,0.022460938,6.4674473,17.965544,-129.27875,-8.347136,0.0,0.0,0.0,0.0,0.0,0.0,0.0,20.534618,-130.548,11.448582,0.0,0.0,0.0,0.0,0.0,0.0,0.0,1.9220839,44.947044,1.2330735,
1.679687474970706,86,-0.052124023,0.8306885,0.4623413,0.018554688,0.044921875,0.083984375,0.0,0.0,0.0,0.0,0.0,0.0,0.0,0.0,0.0,0.0,0.0,-0.81887245,0.018684465,0.57397425,-0.9750366,0.08532715,0.05847168,-0.09765625,-0.015625,-0.0048828125,3.4880705,-16.953197,0.38682643,11.883047,1.0032349,-0.17736816,-0.16461182,0.06347656,0.0146484375,0.0390625,2.4254348,-16.89373,-56.61436,12.691342,-0.5194702,-0.31030273,0.80981445,-0.03125,0.025390625,0.037109375,24.528566,-19.507153,-128.55142,14.729469,0.0,0.0,0.0,0.0,0.0,0.0,0.0,-20.984533,-135.70192,33.31432,0.0,0.0,0.0,0.0,0.0,0.0,0.0,0.81887245,-0.018684465,-0.57397425,-0.9350586,-0.0025024414,-0.3770752,-0.080078125,0.018554688,0.017578125,2.369099,16.953197,-0.38682643,-11.883047,1.008667,-0.04156494,-0.11743164,0.0,0.020507812,0.06542969,3.807761,16.790686,-57.385952,-12.84533,0.4053955,-0.27368164,0.8898926,-0.0546875,0.029296875,0.022460938,6.4497776,17.892393,-129.25621,-8.427608,0.0,0.0,0.0,0.0,0.0,0.0,0.0,20.467398,-130.52773,11.367585,0.0,0.0,0.0,0.0,0.0,0.0,0.0,1.9167206,44.949017,1.2713137,
1.6992187246796677,87,-0.055480957,0.8355713,0.4395752,0.01953125,0.0625,0.047851562,0.0,0.0,0.0,0.0,0.0,0.0,0.0,0.0,0.0,0.0,0.0,-0.81904453,0.018822137,0.57376444,-0.9840088,0.07904053,0.033447266,-0.060546875,0.022460938,0.0146484375,3.4034078,-16.95676,0.38967657,11.878703,1.0188599,-0.19555664,-0.18273926,-0.05078125,0.016601562,0.03515625,2.423982,-16.900316,-56.61299,12.63176,-0.48779297,-0.33496094,0.817749,-0.049804688,-0.0107421875,-9.765625E-4,24.452694,-19.513945,-128.55377,14.632048,0.0,0.0,0.0,0.0,0.0,0.0,0.0,-21.00211,-135.67874,33.22705,0.0,0.0,0.0,0.0,0.0,0.0,0.0,0.81904453,-0.018822137,-0.57376444,-0.9104004,-0.035339355,-0.37145996,-0.080078125,0.018554688,-0.0234375,2.282162,16.95676,-0.38967657,-11.878703,1.024231,-0.044799805,-0.14141846,-0.0390625,0.040039062,0.046875,3.816698,16.746738,-57.39038,-12.878348,0.41571045,-0.26086426,0.88494873,-0.03515625,0.029296875,0.022460938,6.426753,17.782711,-129.26634,-8.494653,0.0,0.0,0.0,0.0,0.0,0.0,0.0,20.352257,-130.54147,11.301919,0.0,0.0,0.0,0.0,0.0,0.0,0.0,1.9005337,44.95166,1.2383748,
1.7187499743886294,88,-0.042114258,0.82733154,0.4520874,-0.020507812,0.06347656,0.048828125,0.0,0.0,0.0,0.0,0.0,0.0,0.0,0.0,0.0,0.0,0.0,-0.8188582,0.018843923,0.5738513,-0.9628906,0.0927124,0.072509766,-0.041015625,-0.07324219,0.013671875,3.3670878,-16.952904,0.39012757,11.880501,0.9696655,-0.21508789,-0.19732666,-0.032226562,0.036132812,0.016601562,2.454474,-16.907068,-56.612312,12.633875,-0.5135498,-0.31536865,0.80285645,-0.03125,0.0068359375,0.018554688,24.430706,-19.573107,-128.55286,14.626031,0.0,0.0,0.0,0.0,0.0,0.0,0.0,-21.0625,-135.65822,33.227108,0.0,0.0,0.0,0.0,0.0,0.0,0.0,0.8188582,-0.018843923,-0.5738513,-0.9232788,-0.023071289,-0.38415527,-0.041992188,0.017578125,-0.0234375,2.20478,16.952904,-0.39012757,-11.880501,1.0202637,-0.06072998,-0.13336182,-0.078125,0.09667969,0.06542969,3.862445,16.692307,-57.390255,-12.907768,0.43206787,-0.29388428,0.852417,-0.036132812,0.009765625,0.060546875,6.454549,17.703543,-129.2667,-8.509151,0.0,0.0,0.0,0.0,0.0,0.0,0.0,20.287777,-130.5483,11.284691,0.0,0.0,0.0,0.0,0.0,0.0,0.0,1.8881257,44.948124,1.2182741,
1.7382812240975911,89,-0.036865234,0.81933594,0.4658203,-0.021484375,0.025390625,0.048828125,0.0,0.0,0.0,0.0,0.0,0.0,0.0,0.0,0.0,0.0,0.0,-0.8184936,0.019119134,0.5741976,-0.9760742,0.08428955,0.061401367,-0.00390625,-0.016601562,0.052734375,3.4045584,-16.945354,0.39582527,11.8876705,0.9696045,-0.22003174,-0.18341064,0.005859375,-0.0029296875,0.037109375,2.5277038,-16.868452,-56.60511,12.701848,-0.4996338,-0.32470703,0.8018799,0.0068359375,-0.0126953125,0.018554688,24.420431,-19.588,-128.53836,14.710491,0.0,0.0,0.0,0.0,0.0,0.0,0.0,-21.069586,-135.63118,33.31952,0.0,0.0,0.0,0.0,0.0,0.0,0.0,0.8184936,-0.019119134,-0.5741976,-0.9142456,-0.022338867,-0.3812256,0.053710938,0.07324219,0.016601562,2.1608453,16.945354,-0.39582527,-11.8876705,1.0240479,-0.081726074,-0.13330078,-0.0390625,0.05859375,0.06542969,3.9064038,16.658934,-57.396667,-12.946167,0.416687,-0.28570557,0.86920166,-0.016601562,0.029296875,0.022460938,6.4803805,17.628807,-129.27023,-8.5283375,0.0,0.0,0.0,0.0,0.0,0.0,0.0,20.21156,-130.55704,11.265068,0.0,0.0,0.0,0.0,0.0,0.0,0.0,1.884923,44.94475,1.1903442,
1.7578124738065528,90,-0.06414795,0.81903076,0.4625244,0.057617188,0.022460938,-0.0078125,0.0,0.0,0.0,0.0,0.0,0.0,0.0,0.0,0.0,0.0,0.0,-0.8188596,0.018944036,0.57377005,-0.99017334,0.0904541,0.056518555,-0.00390625,-0.016601562,0.052734375,3.4047883,-16.952932,0.39220032,11.87882,0.9830322,-0.20983887,-0.18048096,0.043945312,0.015625,0.038085938,2.5763304,-16.848248,-56.609886,12.705327,-0.50354004,-0.31481934,0.8275757,-0.049804688,0.0068359375,-0.01953125,24.40346,-19.59337,-128.5482,14.741498,0.0,0.0,0.0,0.0,0.0,0.0,0.0,-21.08563,-135.61836,33.3575,0.0,0.0,0.0,0.0,0.0,0.0,0.0,0.8188596,-0.018944036,-0.57377005,-0.9230957,-0.01159668,-0.37225342,0.053710938,0.053710938,0.036132812,2.1156287,16.952932,-0.39220032,-11.87882,1.0245361,-0.039794922,-0.1217041,-0.07714844,0.059570312,0.06640625,3.9407418,16.652164,-57.38872,-12.9552,0.40960693,-0.2645874,0.8682251,-0.0546875,0.029296875,0.022460938,6.4947376,17.689518,-129.26048,-8.536215,0.0,0.0,0.0,0.0,0.0,0.0,0.0,20.261616,-130.54941,11.257948,0.0,0.0,0.0,0.0,0.0,0.0,0.0,1.8655403,44.94817,1.178374,
1.7773437235155145,91,-0.032043457,0.8231201,0.44976807,0.057617188,0.0234375,0.028320312,0.0,0.0,0.0,0.0,0.0,0.0,0.0,0.0,0.0,0.0,0.0,-0.8185711,0.019023327,0.5742425,-0.9981079,0.08416748,0.029541016,-0.022460938,0.041015625,0.052734375,3.3877826,-16.94696,0.39384183,11.888599,0.9836426,-0.2244873,-0.19055176,0.005859375,0.015625,0.037109375,2.5768623,-16.86851,-56.60713,12.71529,-0.50128174,-0.3059082,0.8018799,0.0068359375,0.005859375,0.0,24.340647,-19.64497,-128.5379,14.758886,0.0,0.0,0.0,0.0,0.0,0.0,0.0,-21.12909,-135.58202,33.383858,0.0,0.0,0.0,0.0,0.0,0.0,0.0,0.8185711,-0.019023327,-0.5742425,-0.9182739,-0.022888184,-0.39691162,-0.022460938,0.036132812,0.016601562,2.056237,16.94696,-0.39384183,-11.888599,1.0247803,-0.05670166,-0.09790039,-0.09765625,0.115234375,0.06542969,3.9397974,16.58081,-57.395084,-12.963053,0.41766357,-0.27001953,0.8987427,-0.015625,0.047851562,0.00390625,6.5025225,17.678064,-129.26547,-8.58055,0.0,0.0,0.0,0.0,0.0,0.0,0.0,20.253807,-130.56511,11.212085,0.0,0.0,0.0,0.0,0.0,0.0,0.0,1.8697741,44.94969,1.176246,
1.7968749732244762,92,-0.039855957,0.8074951,0.46777344,-0.022460938,-0.013671875,0.01171875,0.0,0.0,0.0,0.0,0.0,0.0,0.0,0.0,0.0,0.0,0.0,-0.8178629,0.019362137,0.5751801,-0.9921875,0.097229004,0.06060791,-0.022460938,0.041015625,0.034179688,3.3499494,-16.932299,0.40085632,11.9080105,1.0006714,-0.19384766,-0.18261719,-0.030273438,0.0546875,0.0546875,2.5632296,-16.883488,-56.602276,12.726258,-0.49658203,-0.32092285,0.82263184,-0.01171875,0.024414062,0.0,24.289272,-19.678688,-128.5368,14.774947,0.0,0.0,0.0,0.0,0.0,0.0,0.0,-21.164007,-135.56181,33.40782,0.0,0.0,0.0,0.0,0.0,0.0,0.0,0.8178629,-0.019362137,-0.5751801,-0.93725586,-0.014953613,-0.34576416,-0.060546875,0.017578125,0.017578125,2.0917187,16.932299,-0.40085632,-11.9080105,1.008728,-0.044555664,-0.113464355,-0.15527344,0.060546875,0.06738281,3.9061031,16.600334,-57.397453,-12.997255,0.4258423,-0.28399658,0.881958,-0.03515625,0.0107421875,0.00390625,6.4777174,17.708868,-129.27563,-8.668226,0.0,0.0,0.0,0.0,0.0,0.0,0.0,20.280989,-130.58086,11.126396,0.0,0.0,0.0,0.0,0.0,0.0,0.0,1.877352,44.948357,1.1563687,
1.816406222933438,93,-0.0524292,0.8195801,0.43341064,-0.041992188,-0.0126953125,0.030273438,0.0,0.0,0.0,0.0,0.0,0.0,0.0,0.0,0.0,0.0,0.0,-0.8176202,0.019364001,0.57569563,-0.9761963,0.10131836,0.091552734,-0.00390625,-0.015625,0.033203125,3.4095004,-16.92727,0.40089488,11.918685,0.97906494,-0.2107544,-0.14953613,-0.05078125,0.036132812,0.03515625,2.5629241,-16.868328,-56.59938,12.816214,-0.5175781,-0.31726074,0.80389404,-0.01171875,0.005859375,-0.018554688,24.234936,-19.652023,-128.53325,14.897626,0.0,0.0,0.0,0.0,0.0,0.0,0.0,-21.12245,-135.54103,33.536816,0.0,0.0,0.0,0.0,0.0,0.0,0.0,0.8176202,-0.019364001,-0.57569563,-0.9463501,-0.018798828,-0.34088135,0.034179688,0.0146484375,0.016601562,2.1451187,16.92727,-0.40089488,-11.918685,1.0165405,-0.091552734,-0.10046387,-0.11621094,0.09667969,0.06640625,3.9842312,16.656664,-57.395733,-13.044943,0.42608643,-0.2578125,0.8602905,-0.0546875,0.030273438,0.00390625,6.5347705,17.813265,-129.27367,-8.652927,0.0,0.0,0.0,0.0,0.0,0.0,0.0,20.393284,-130.57932,11.13909,0.0,0.0,0.0,0.0,0.0,0.0,0.0,1.877008,44.95286,1.1537561,
1.8359374726423996,94,-0.042297363,0.83325195,0.44317627,-0.0029296875,-0.013671875,0.029296875,0.0,0.0,0.0,0.0,0.0,0.0,0.0,0.0,0.0,0.0,0.0,-0.81734324,0.019389722,0.5760951,-0.9761963,0.08691406,0.0803833,-0.00390625,0.0029296875,0.033203125,3.4698362,-16.921535,0.40142742,11.926954,0.98376465,-0.18334961,-0.19335938,0.0068359375,0.03515625,0.037109375,2.5902722,-16.820484,-56.595375,12.880865,-0.49926758,-0.30212402,0.817688,-0.06933594,0.025390625,-9.765625E-4,24.193668,-19.58549,-128.52893,14.982077,0.0,0.0,0.0,0.0,0.0,0.0,0.0,-21.052685,-135.51991,33.62806,0.0,0.0,0.0,0.0,0.0,0.0,0.0,0.81734324,-0.019389722,-0.5760951,-0.93426514,-0.018188477,-0.33496094,0.053710938,0.053710938,0.036132812,2.193388,16.921535,-0.40142742,-11.926954,1.0125732,-0.061584473,-0.11541748,-0.01953125,0.05859375,0.06542969,3.9961572,16.704056,-57.396614,-13.048459,0.421875,-0.277771,0.8652344,-0.015625,0.047851562,0.022460938,6.5732183,17.859354,-129.27124,-8.617697,0.0,0.0,0.0,0.0,0.0,0.0,0.0,20.448545,-130.57996,11.173124,0.0,0.0,0.0,0.0,0.0,0.0,0.0,1.8741817,44.95336,1.1460198,
1.8554687223513613,95,-0.049072266,0.8405762,0.46728516,-0.022460938,-0.013671875,0.01171875,0.0,0.0,0.0,0.0,0.0,0.0,0.0,0.0,0.0,0.0,0.0,-0.8168256,0.01903138,0.57684577,-0.9882202,0.070251465,0.040222168,-0.041015625,0.0029296875,0.052734375,3.4486685,-16.910822,0.39400852,11.942496,0.9994507,-0.20367432,-0.16864014,0.0048828125,0.036132812,-9.765625E-4,2.564451,-16.818247,-56.60522,12.872167,-0.49572754,-0.3345337,0.78411865,-0.01171875,0.024414062,0.0,24.160458,-19.56113,-128.53851,14.964244,0.0,0.0,0.0,0.0,0.0,0.0,0.0,-21.02909,-135.52473,33.613388,0.0,0.0,0.0,0.0,0.0,0.0,0.0,0.8168256,-0.01903138,-0.57684577,-0.9104004,-0.034240723,-0.37738037,-0.080078125,-9.765625E-4,0.017578125,2.1803215,16.910822,-0.39400852,-11.942496,0.99072266,-0.05328369,-0.11303711,-0.078125,0.09667969,0.06542969,4.019172,16.691986,-57.388496,-13.079659,0.42993164,-0.28808594,0.8789673,-0.03515625,0.029296875,0.022460938,6.573576,17.84695,-129.26198,-8.639262,0.0,0.0,0.0,0.0,0.0,0.0,0.0,20.440477,-130.56842,11.151786,0.0,0.0,0.0,0.0,0.0,0.0,0.0,1.8649602,44.95358,1.1577076,
1.874999972060323,96,-0.020446777,0.8374634,0.4177246,-0.022460938,-0.013671875,0.01171875,0.0,0.0,0.0,0.0,0.0,0.0,0.0,0.0,0.0,0.0,0.0,-0.817019,0.01857682,0.57660335,-0.986084,0.0914917,0.048583984,-0.00390625,-0.015625,0.033203125,3.424112,-16.914825,0.38459772,11.937475,0.9963379,-0.20446777,-0.18756104,0.024414062,0.015625,0.018554688,2.5501382,-16.84001,-56.614525,12.869532,-0.4869995,-0.29248047,0.79089355,-0.049804688,0.025390625,-9.765625E-4,24.094137,-19.586279,-128.54916,14.955125,0.0,0.0,0.0,0.0,0.0,0.0,0.0,-21.050615,-135.51117,33.609524,0.0,0.0,0.0,0.0,0.0,0.0,0.0,0.817019,-0.01857682,-0.57660335,-0.8936157,-0.057495117,-0.40014648,-0.00390625,-0.00390625,0.016601562,2.081871,16.914825,-0.38459772,-11.937475,1.036377,-0.033996582,-0.13183594,-0.07714844,0.059570312,0.046875,4.0585437,16.629482,-57.380608,-13.11956,0.43011475,-0.26898193,0.86712646,-0.0546875,0.029296875,0.022460938,6.575306,17.799002,-129.2501,-8.710288,0.0,0.0,0.0,0.0,0.0,0.0,0.0,20.393044,-130.56517,11.080581,0.0,0.0,0.0,0.0,0.0,0.0,0.0,1.8436667,44.954723,1.1640499,
1.8945312217692847,97,-0.028076172,0.80999756,0.4406128,-0.020507812,0.043945312,0.0126953125,0.0,0.0,0.0,0.0,0.0,0.0,0.0,0.0,0.0,0.0,0.0,-0.8169829,0.018216364,0.5765186,-0.9781494,0.090026855,0.07147217,-0.041015625,0.0029296875,0.0146484375,3.444351,-16.91408,0.3771352,11.935723,0.98443604,-0.19915771,-0.16253662,0.0068359375,0.015625,0.055664062,2.5679598,-16.809961,-56.622013,12.880233,-0.5218506,-0.32904053,0.82470703,-0.03125,0.025390625,0.037109375,24.090925,-19.541607,-128.55838,14.967237,0.0,0.0,0.0,0.0,0.0,0.0,0.0,-21.013361,-135.52,33.626087,0.0,0.0,0.0,0.0,0.0,0.0,0.0,0.8169829,-0.018216364,-0.5765186,-0.9063721,-0.03375244,-0.35968018,0.053710938,0.034179688,0.036132812,2.0875978,16.91408,-0.3771352,-11.935723,1.020935,-0.029724121,-0.10192871,-0.09667969,0.059570312,0.06640625,4.058013,16.657148,-57.37359,-13.143,0.4208374,-0.27581787,0.86816406,-0.0546875,0.029296875,0.022460938,6.570264,17.828077,-129.24588,-8.75699,0.0,0.0,0.0,0.0,0.0,0.0,0.0,20.421196,-130.56548,11.032635,0.0,0.0,0.0,0.0,0.0,0.0,0.0,1.8275805,44.951416,1.1695211,
1.9140624714782464,98,-0.038330078,0.82318115,0.434021,-0.0029296875,-0.0146484375,-0.0068359375,0.0,0.0,0.0,0.0,0.0,0.0,0.0,0.0,0.0,0.0,0.0,-0.8166483,0.017841375,0.577068,-0.9834595,0.08581543,0.09527588,-0.022460938,0.022460938,0.0146484375,3.4885757,-16.907152,0.36937174,11.947097,0.9708252,-0.2142334,-0.17242432,-0.01171875,0.053710938,0.0546875,2.5964613,-16.77783,-56.626663,12.924375,-0.4743042,-0.3126831,0.8067627,0.025390625,0.022460938,-0.018554688,24.069414,-19.513527,-128.56027,15.003517,0.0,0.0,0.0,0.0,0.0,0.0,0.0,-20.988892,-135.5102,33.66698,0.0,0.0,0.0,0.0,0.0,0.0,0.0,0.8166483,-0.017841375,-0.577068,-0.9238281,0.008666992,-0.36132812,-0.00390625,0.015625,0.016601562,2.115721,16.907152,-0.36937174,-11.947097,1.0308228,-0.043823242,-0.10205078,-0.0390625,0.05859375,0.06542969,4.041087,16.685665,-57.367348,-13.132335,0.40948486,-0.2796631,0.8810425,-0.016601562,0.028320312,0.041015625,6.592165,17.854767,-129.23627,-8.728907,0.0,0.0,0.0,0.0,0.0,0.0,0.0,20.442991,-130.5588,11.061291,0.0,0.0,0.0,0.0,0.0,0.0,0.0,1.8177359,44.95313,1.1825737,
1.933593721187208,99,-0.072631836,0.855896,0.44317627,-0.0029296875,-0.013671875,0.01171875,0.0,0.0,0.0,0.0,0.0,0.0,0.0,0.0,0.0,0.0,0.0,-0.8167855,0.01776102,0.5767991,-0.98114014,0.10070801,0.0736084,-0.00390625,-0.03515625,0.07128906,3.5156348,-16.909994,0.36770818,11.941529,0.97735596,-0.19787598,-0.15844727,0.0068359375,0.03515625,0.037109375,2.5929158,-16.75904,-56.62728,12.968988,-0.50683594,-0.3363037,0.8059082,0.0068359375,0.0048828125,-0.018554688,24.025843,-19.460695,-128.56299,15.045846,0.0,0.0,0.0,0.0,0.0,0.0,0.0,-20.919403,-135.50986,33.71028,0.0,0.0,0.0,0.0,0.0,0.0,0.0,0.8167855,-0.01776102,-0.5767991,-0.9168701,0.0038452148,-0.37017822,-0.060546875,0.037109375,-0.0029296875,2.1101635,16.909994,-0.36770818,-11.941529,0.99316406,-0.02935791,-0.097473145,0.0,0.0390625,0.083984375,4.085332,16.700087,-57.367268,-13.106575,0.41363525,-0.27764893,0.86724854,-0.016601562,0.028320312,0.041015625,6.6444335,17.943193,-129.23055,-8.635362,0.0,0.0,0.0,0.0,0.0,0.0,0.0,20.54219,-130.54967,11.154763,0.0,0.0,0.0,0.0,0.0,0.0,0.0,1.8035421,44.952034,1.1697541,
1.9531249708961698,100,-0.06549072,0.80895996,0.43463135,-0.041015625,0.025390625,0.03125,0.0,0.0,0.0,0.0,0.0,0.0,0.0,0.0,0.0,0.0,0.0,-0.81703156,0.017708821,0.5766024,-0.9902344,0.07501221,0.047302246,-0.00390625,0.0029296875,0.052734375,3.4814968,-16.915087,0.36662748,11.937457,0.9884033,-0.19927979,-0.17150879,0.005859375,0.015625,0.037109375,2.5827804,-16.759768,-56.63326,12.973408,-0.4852295,-0.30639648,0.803833,0.0078125,-0.06640625,0.01953125,23.976398,-19.443111,-128.56706,15.060603,0.0,0.0,0.0,0.0,0.0,0.0,0.0,-20.905396,-135.49902,33.729027,0.0,0.0,0.0,0.0,0.0,0.0,0.0,0.81703156,-0.017708821,-0.5766024,-0.9071655,-0.020080566,-0.35760498,-0.060546875,0.017578125,0.017578125,2.106822,16.915087,-0.36662748,-11.937457,1.0066528,-0.045532227,-0.11932373,0.0,0.057617188,0.06542969,4.1097546,16.73877,-57.36431,-13.135959,0.4136963,-0.27166748,0.86920166,-0.0546875,0.029296875,0.022460938,6.661148,17.981876,-129.2276,-8.664745,0.0,0.0,0.0,0.0,0.0,0.0,0.0,20.561401,-130.55295,11.127491,0.0,0.0,0.0,0.0,0.0,0.0,0.0,1.7817038,44.957474,1.1438811,
1.9726562206051315,101,-0.03289795,0.8321533,0.46679688,-0.061523438,-0.01171875,0.048828125,0.0,0.0,0.0,0.0,0.0,0.0,0.0,0.0,0.0,0.0,0.0,-0.8167833,0.017864771,0.57691455,-0.9984741,0.07489014,0.062194824,-0.00390625,-0.015625,0.033203125,3.4595513,-16.909946,0.36985615,11.943921,1.0105591,-0.2020874,-0.18469238,0.0048828125,0.016601562,-9.765625E-4,2.561702,-16.751154,-56.626854,12.98852,-0.47930908,-0.31152344,0.80578613,-0.049804688,0.0068359375,0.017578125,23.918135,-19.402859,-128.56104,15.081293,0.0,0.0,0.0,0.0,0.0,0.0,0.0,-20.861633,-135.47496,33.758095,0.0,0.0,0.0,0.0,0.0,0.0,0.0,0.8167833,-0.017864771,-0.57691455,-0.9315796,-0.04272461,-0.37542725,-0.022460938,-0.0029296875,0.016601562,2.1114616,16.909946,-0.36985615,-11.943921,1.0169067,-0.033691406,-0.105773926,-0.038085938,0.05859375,0.08496094,4.1587825,16.756115,-57.36504,-13.179835,0.4136963,-0.2805786,0.86035156,-0.0546875,0.0107421875,0.00390625,6.6849527,17.982264,-129.22888,-8.681419,0.0,0.0,0.0,0.0,0.0,0.0,0.0,20.569122,-130.55533,11.10902,0.0,0.0,0.0,0.0,0.0,0.0,0.0,1.7733155,44.957542,1.1184642,
1.9921874703140932,102,-0.038085938,0.83221436,0.45599365,0.015625,-0.052734375,0.0107421875,0.0,0.0,0.0,0.0,0.0,0.0,0.0,0.0,0.0,0.0,0.0,-0.8159534,0.017698389,0.5779725,-0.9803467,0.087890625,0.086364746,0.015625,0.00390625,0.0146484375,3.545084,-16.892767,0.36641154,11.965823,0.97595215,-0.20953369,-0.18243408,-0.05078125,0.016601562,0.03515625,2.5936704,-16.69215,-56.631344,13.066627,-0.51342773,-0.30755615,0.8137207,-0.03125,0.060546875,0.017578125,23.866825,-19.326832,-128.56905,15.153038,0.0,0.0,0.0,0.0,0.0,0.0,0.0,-20.78132,-135.47238,33.83383,0.0,0.0,0.0,0.0,0.0,0.0,0.0,0.8159534,-0.017698389,-0.5779725,-0.9092407,-0.024841309,-0.4038086,0.03515625,0.034179688,0.016601562,2.0929348,16.892767,-0.36641154,-11.965823,1.0202026,-0.0256958,-0.09008789,-0.05859375,0.07714844,0.06542969,4.150864,16.716888,-57.360962,-13.233334,0.399292,-0.26953125,0.8840332,-0.03515625,0.029296875,0.00390625,6.6329722,17.966782,-129.23413,-8.797083,0.0,0.0,0.0,0.0,0.0,0.0,0.0,20.557688,-130.55814,10.993254,0.0,0.0,0.0,0.0,0.0,0.0,0.0,1.7769055,44.953926,1.1319915,
2.011718720023055,103,-0.016967773,0.8366089,0.4505005,-0.001953125,0.0048828125,0.01171875,0.0,0.0,0.0,0.0,0.0,0.0,0.0,0.0,0.0,0.0,0.0,-0.8166892,0.017103579,0.5769801,-0.96899414,0.109069824,0.08770752,-0.022460938,0.022460938,-0.0048828125,3.6174164,-16.907999,0.35409716,11.945276,0.9851074,-0.20996094,-0.16357422,0.025390625,0.015625,0.037109375,2.626741,-16.673414,-56.640903,13.1291065,-0.49719238,-0.302063,0.7949219,-0.01171875,0.041992188,-9.765625E-4,23.852491,-19.30069,-128.57516,15.240405,0.0,0.0,0.0,0.0,0.0,0.0,0.0,-20.758118,-135.46474,33.925213,0.0,0.0,0.0,0.0,0.0,0.0,0.0,0.8166892,-0.017103579,-0.5769801,-0.92541504,-0.03253174,-0.35668945,0.03515625,0.11230469,0.037109375,2.019745,16.907999,-0.35409716,-11.945276,1.03656,-0.06591797,-0.104003906,-0.11621094,0.059570312,0.0859375,4.2314696,16.693813,-57.34971,-13.240027,0.43823242,-0.2850952,0.8632202,-0.0546875,0.029296875,0.041992188,6.696326,17.95714,-129.21503,-8.749531,0.0,0.0,0.0,0.0,0.0,0.0,0.0,20.563017,-130.54567,11.038395,0.0,0.0,0.0,0.0,0.0,0.0,0.0,1.7502123,44.95543,1.1447201,
2.0312499697320168,104,-0.066345215,0.7991333,0.4465332,0.016601562,-0.0146484375,0.0107421875,0.0,0.0,0.0,0.0,0.0,0.0,0.0,0.0,0.0,0.0,0.0,-0.81679314,0.016895035,0.57699436,-0.97698975,0.10662842,0.06677246,-0.022460938,0.0029296875,0.033203125,3.658911,-16.91015,0.34977964,11.945572,0.9963989,-0.20550537,-0.16265869,0.044921875,0.0146484375,0.057617188,2.6594002,-16.660927,-56.64328,13.199471,-0.515625,-0.32025146,0.80389404,-0.049804688,0.0068359375,-0.01953125,23.830683,-19.305025,-128.5752,15.344464,0.0,0.0,0.0,0.0,0.0,0.0,0.0,-20.76575,-135.44862,34.034855,0.0,0.0,0.0,0.0,0.0,0.0,0.0,0.81679314,-0.016895035,-0.57699436,-0.90893555,-0.0037841797,-0.38305664,0.034179688,0.0146484375,0.037109375,2.0046694,16.91015,-0.34977964,-11.945572,1.0126953,-0.06555176,-0.105529785,-0.11621094,0.041015625,0.06640625,4.235217,16.700901,-57.34709,-13.22251,0.41363525,-0.27764893,0.86920166,-0.016601562,0.009765625,-0.015625,6.7059546,17.9954,-129.21014,-8.711212,0.0,0.0,0.0,0.0,0.0,0.0,0.0,20.605885,-130.53769,11.075802,0.0,0.0,0.0,0.0,0.0,0.0,0.0,1.7340063,44.960255,1.1381726,
2.0507812194409785,105,-0.08026123,0.81555176,0.46691895,-0.001953125,0.024414062,0.01171875,0.0,0.0,0.0,0.0,0.0,0.0,0.0,0.0,0.0,0.0,0.0,-0.8163279,0.017472195,0.57766974,-0.99035645,0.0748291,0.05822754,-0.00390625,0.0029296875,0.033203125,3.6413698,-16.900518,0.36172855,11.959554,0.9880371,-0.17675781,-0.16546631,0.0068359375,0.03515625,0.055664062,2.6469321,-16.651543,-56.629932,13.224414,-0.5276489,-0.3189087,0.8019409,-0.01171875,0.024414062,0.0,23.782188,-19.276596,-128.56068,15.356272,0.0,0.0,0.0,0.0,0.0,0.0,0.0,-20.729198,-135.4313,34.048885,0.0,0.0,0.0,0.0,0.0,0.0,0.0,0.8163279,-0.017472195,-0.57766974,-0.9282837,-0.01940918,-0.33007812,-0.041992188,0.016601562,0.017578125,2.0279646,16.900518,-0.36172855,-11.959554,1.0209961,-0.03173828,-0.099975586,-0.11621094,0.059570312,0.06640625,4.193065,16.704832,-57.358303,-13.210565,0.41381836,-0.2487793,0.8770752,-0.0546875,0.0107421875,0.00390625,6.7140503,18.030203,-129.2196,-8.725004,0.0,0.0,0.0,0.0,0.0,0.0,0.0,20.633749,-130.55595,11.062946,0.0,0.0,0.0,0.0,0.0,0.0,0.0,1.7428705,44.96169,1.1030082,
2.07031246914994,106,-0.06542969,0.8209839,0.44470215,-0.06347656,-0.06933594,0.0126953125,0.0,0.0,0.0,0.0,0.0,0.0,0.0,0.0,0.0,0.0,0.0,-0.8160047,0.01796706,0.5778802,-0.99035645,0.08532715,0.0713501,0.0146484375,0.021484375,0.052734375,3.591505,-16.893827,0.3719738,11.963912,0.9748535,-0.2133789,-0.17944336,-0.087890625,0.017578125,0.053710938,2.6183069,-16.664608,-56.62162,13.222677,-0.5105591,-0.31744385,0.8009033,-0.0126953125,0.041992188,-0.01953125,23.764431,-19.280159,-128.5579,15.3587055,0.0,0.0,0.0,0.0,0.0,0.0,0.0,-20.735949,-135.42189,34.053123,0.0,0.0,0.0,0.0,0.0,0.0,0.0,0.8160047,-0.01796706,-0.5778802,-0.9193115,-0.024963379,-0.34979248,-0.041992188,-0.021484375,0.017578125,2.0388408,16.893827,-0.3719738,-11.963912,1.0039673,-0.059448242,-0.09057617,-0.09667969,0.022460938,0.06640625,4.193859,16.708641,-57.36715,-13.212868,0.41973877,-0.27990723,0.88397217,-0.036132812,-0.0087890625,0.00390625,6.704287,18.024042,-129.23486,-8.717194,0.0,0.0,0.0,0.0,0.0,0.0,0.0,20.633724,-130.56564,11.069262,0.0,0.0,0.0,0.0,0.0,0.0,0.0,1.7451038,44.956474,1.0664448,
2.089843718858902,107,-0.05633545,0.8297119,0.44750977,-0.00390625,-0.051757812,0.0107421875,0.0,0.0,0.0,0.0,0.0,0.0,0.0,0.0,0.0,0.0,0.0,-0.8159186,0.018457174,0.5780805,-0.9761963,0.10046387,0.08660889,0.034179688,0.0029296875,0.033203125,3.6043484,-16.892048,0.38212076,11.968057,0.96380615,-0.21203613,-0.16137695,-0.032226562,-0.0029296875,0.036132812,2.6538744,-16.627844,-56.6091,13.259196,-0.4946289,-0.32489014,0.80981445,-0.0126953125,0.041992188,-0.01953125,23.759829,-19.241777,-128.54646,15.410935,0.0,0.0,0.0,0.0,0.0,0.0,0.0,-20.700459,-135.40599,34.1075,0.0,0.0,0.0,0.0,0.0,0.0,0.0,0.8159186,-0.018457174,-0.5780805,-0.93499756,0.0025024414,-0.34069824,0.015625,0.09375,0.037109375,2.0441134,16.892048,-0.38212076,-11.968057,1.0194702,-0.057678223,-0.1204834,-0.057617188,0.021484375,0.047851562,4.1796856,16.713223,-57.37948,-13.212153,0.4208374,-0.27191162,0.881958,-0.015625,0.06738281,0.00390625,6.692869,18.016176,-129.24521,-8.723396,0.0,0.0,0.0,0.0,0.0,0.0,0.0,20.640316,-130.574,11.060829,0.0,0.0,0.0,0.0,0.0,0.0,0.0,1.7456259,44.9598,1.0283308,
2.1093749685678636,108,-0.04034424,0.8162842,0.434021,0.015625,-0.032226562,0.047851562,0.0,0.0,0.0,0.0,0.0,0.0,0.0,0.0,0.0,0.0,0.0,-0.8160763,0.018412597,0.57788694,-0.98413086,0.105651855,0.07373047,0.052734375,0.00390625,0.0146484375,3.6154134,-16.895311,0.38119784,11.964052,0.984375,-0.19812012,-0.17547607,-0.0126953125,0.016601562,0.036132812,2.6781764,-16.612825,-56.60957,13.30086,-0.49578857,-0.33746338,0.7821655,-0.01171875,0.024414062,0.0,23.802065,-19.230618,-128.54036,15.482529,0.0,0.0,0.0,0.0,0.0,0.0,0.0,-20.702482,-135.39853,34.177975,0.0,0.0,0.0,0.0,0.0,0.0,0.0,0.8160763,-0.018412597,-0.57788694,-0.93951416,-0.036132812,-0.3587036,0.034179688,-0.0048828125,0.037109375,2.0681005,16.895311,-0.38119784,-11.964052,1.008667,-0.057495117,-0.11138916,-0.07714844,0.059570312,0.06640625,4.1760764,16.763647,-57.3759,-13.215673,0.41778564,-0.26385498,0.8829346,-0.0546875,0.0107421875,0.00390625,6.6991663,18.047237,-129.2447,-8.721377,0.0,0.0,0.0,0.0,0.0,0.0,0.0,20.681225,-130.57463,11.061524,0.0,0.0,0.0,0.0,0.0,0.0,0.0,1.7278869,44.961674,1.007509,
