TOTAL_TIME,0m10s
TOTAL_FRAMES,500
SELECTED_FRAMES,500
NO_OF_JOINTS,12
FREQUENCY,51.2
DESCRIPTION,Capture 54
TIME_STAMP,Nov 1, 2010

Time,Frame,Pelvis_accelX_Pelvis,Pelvis_accelY_Pelvis,Pelvis_accelZ_Pelvis,Pelvis_gyroX_Pelvis,Pelvis_gyroY_Pelvis,Pelvis_gyroZ_Pelvis,Pelvis_Joint angle_Pelvis,Pelvis_Relative pos X_Pelvis,Pelvis_Relative pos Y_Pelvis,Pelvis_Relative pos Z_Pelvis,RightPelvis_accelX_RightPelvis,RightPelvis_accelY_RightPelvis,RightPelvis_accelZ_RightPelvis,RightPelvis_gyroX_RightPelvis,RightPelvis_gyroY_RightPelvis,RightPelvis_gyroZ_RightPelvis,RightPelvis_Joint angle_RightPelvis,RightPelvis_Relative pos X_RightPelvis,RightPelvis_Relative pos Y_RightPelvis,RightPelvis_Relative pos Z_RightPelvis,RightUpLeg_accelX_RightUpLeg,RightUpLeg_accelY_RightUpLeg,RightUpLeg_accelZ_RightUpLeg,RightUpLeg_gyroX_RightUpLeg,RightUpLeg_gyroY_RightUpLeg,RightUpLeg_gyroZ_RightUpLeg,RightUpLeg_Joint angle_RightUpLeg,RightUpLeg_Relative pos X_RightUpLeg,RightUpLeg_Relative pos Y_RightUpLeg,RightUpLeg_Relative pos Z_RightUpLeg,RightLeg_accelX_RightLeg,RightLeg_accelY_RightLeg,RightLeg_accelZ_RightLeg,RightLeg_gyroX_RightLeg,RightLeg_gyroY_RightLeg,RightLeg_gyroZ_RightLeg,RightLeg_Joint angle_RightLeg,RightLeg_Relative pos X_RightLeg,RightLeg_Relative pos Y_RightLeg,RightLeg_Relative pos Z_RightLeg,RightFoot_accelX_RightFoot,RightFoot_accelY_RightFoot,RightFoot_accelZ_RightFoot,RightFoot_gyroX_RightFoot,RightFoot_gyroY_RightFoot,RightFoot_gyroZ_RightFoot,RightFoot_Joint angle_RightFoot,RightFoot_Relative pos X_RightFoot,RightFoot_Relative pos Y_RightFoot,RightFoot_Relative pos Z_RightFoot,RightFootEnd_accelX_RightFootEnd,RightFootEnd_accelY_RightFootEnd,RightFootEnd_accelZ_RightFootEnd,RightFootEnd_gyroX_RightFootEnd,RightFootEnd_gyroY_RightFootEnd,RightFootEnd_gyroZ_RightFootEnd,RightFootEnd_Joint angle_RightFootEnd,RightFootEnd_Relative pos X_RightFootEnd,RightFootEnd_Relative pos Y_RightFootEnd,RightFootEnd_Relative pos Z_RightFootEnd,LeftPelvis_accelX_LeftPelvis,LeftPelvis_accelY_LeftPelvis,LeftPelvis_accelZ_LeftPelvis,LeftPelvis_gyroX_LeftPelvis,LeftPelvis_gyroY_LeftPelvis,LeftPelvis_gyroZ_LeftPelvis,LeftPelvis_Joint angle_LeftPelvis,LeftPelvis_Relative pos X_LeftPelvis,LeftPelvis_Relative pos Y_LeftPelvis,LeftPelvis_Relative pos Z_LeftPelvis,LeftUpLeg_accelX_LeftUpLeg,LeftUpLeg_accelY_LeftUpLeg,LeftUpLeg_accelZ_LeftUpLeg,LeftUpLeg_gyroX_LeftUpLeg,LeftUpLeg_gyroY_LeftUpLeg,LeftUpLeg_gyroZ_LeftUpLeg,LeftUpLeg_Joint angle_LeftUpLeg,LeftUpLeg_Relative pos X_LeftUpLeg,LeftUpLeg_Relative pos Y_LeftUpLeg,LeftUpLeg_Relative pos Z_LeftUpLeg,LeftLeg_accelX_LeftLeg,LeftLeg_accelY_LeftLeg,LeftLeg_accelZ_LeftLeg,LeftLeg_gyroX_LeftLeg,LeftLeg_gyroY_LeftLeg,LeftLeg_gyroZ_LeftLeg,LeftLeg_Joint angle_LeftLeg,LeftLeg_Relative pos X_LeftLeg,LeftLeg_Relative pos Y_LeftLeg,LeftLeg_Relative pos Z_LeftLeg,LeftFoot_accelX_LeftFoot,LeftFoot_accelY_LeftFoot,LeftFoot_accelZ_LeftFoot,LeftFoot_gyroX_LeftFoot,LeftFoot_gyroY_LeftFoot,LeftFoot_gyroZ_LeftFoot,LeftFoot_Joint angle_LeftFoot,LeftFoot_Relative pos X_LeftFoot,LeftFoot_Relative pos Y_LeftFoot,LeftFoot_Relative pos Z_LeftFoot,LeftFootEnd_accelX_LeftFootEnd,LeftFootEnd_accelY_LeftFootEnd,LeftFootEnd_accelZ_LeftFootEnd,LeftFootEnd_gyroX_LeftFootEnd,LeftFootEnd_gyroY_LeftFootEnd,LeftFootEnd_gyroZ_LeftFootEnd,LeftFootEnd_Joint angle_LeftFootEnd,LeftFootEnd_Relative pos X_LeftFootEnd,LeftFootEnd_Relative pos Y_LeftFootEnd,LeftFootEnd_Relative pos Z_LeftFootEnd,Spine_accelX_Spine,Spine_accelY_Spine,Spine_accelZ_Spine,Spine_gyroX_Spine,Spine_gyroY_Spine,Spine_gyroZ_Spine,Spine_Joint angle_Spine,Spine_Relative pos X_Spine,Spine_Relative pos Y_Spine,Spine_Relative pos Z_Spine,
0.0,0,-0.4993286,1.3170776,1.0552368,-1.4501953,0.76464844,-0.8642578,0.0,0.0,0.0,0.0,0.0,0.0,0.0,0.0,0.0,0.0,0.0,-0.5839088,-0.16943124,-0.7938267,-1.0106812,0.171875,-0.5574951,1.4746094,2.4335938,-0.3642578,87.25186,-12.088722,-3.5077524,-16.434673,1.2277222,-1.4985962,-1.0618286,-6.78125,-1.1953125,1.1347656,52.459423,-21.4913,-59.615406,-12.831928,-0.5773926,-0.055480957,0.82196045,-0.16503906,0.20898438,-0.0234375,105.16705,5.1592827,-106.14021,35.238388,0.0,0.0,0.0,0.0,0.0,0.0,0.0,16.201767,-103.36491,18.79858,0.0,0.0,0.0,0.0,0.0,0.0,0.0,0.5839088,0.16943124,0.7938267,-1.920227,-0.21881104,-1.0756226,-0.25195312,-3.4921875,1.0351562,102.919395,12.088722,3.5077524,16.434673,0.6524658,-0.3544922,-1.8817749,3.7480469,-2.225586,-1.0644531,48.408115,17.38692,-53.198544,13.955309,-0.9783325,1.1375732,1.999939,0.061523438,-1.5966797,-2.256836,103.16465,73.79759,-96.09732,1.4044666,0.0,0.0,0.0,0.0,0.0,0.0,0.0,82.72169,-100.63993,-15.891291,0.0,0.0,0.0,0.0,0.0,0.0,0.0,36.52672,-5.57812,-25.677095,
0.0195312497089617,1,-0.4993286,1.3170776,1.0552368,-1.4501953,0.76464844,-0.8642578,0.0,0.0,0.0,0.0,0.0,0.0,0.0,0.0,0.0,0.0,0.0,-0.5839088,-0.16943124,-0.7938267,-1.0106812,0.171875,-0.5574951,1.4746094,2.4335938,-0.3642578,87.25186,-12.088722,-3.5077524,-16.434673,1.2277222,-1.4985962,-1.0618286,-6.78125,-1.1953125,1.1347656,52.459423,-21.4913,-59.615406,-12.831928,-0.5773926,-0.055480957,0.82196045,-0.16503906,0.20898438,-0.0234375,105.16705,5.1592827,-106.14021,35.238388,0.0,0.0,0.0,0.0,0.0,0.0,0.0,16.201767,-103.36491,18.79858,0.0,0.0,0.0,0.0,0.0,0.0,0.0,0.5839088,0.16943124,0.7938267,-1.920227,-0.21881104,-1.0756226,-0.25195312,-3.4921875,1.0351562,102.919395,12.088722,3.5077524,16.434673,0.6524658,-0.3544922,-1.8817749,3.7480469,-2.225586,-1.0644531,48.408115,17.38692,-53.198544,13.955309,-0.9783325,1.1375732,1.999939,0.061523438,-1.5966797,-2.256836,103.16465,73.79759,-96.09732,1.4044666,0.0,0.0,0.0,0.0,0.0,0.0,0.0,82.72169,-100.63993,-15.891291,0.0,0.0,0.0,0.0,0.0,0.0,0.0,36.52672,-5.57812,-25.677095,
0.0390624994179234,2,-0.4993286,1.3170776,1.0552368,-1.4501953,0.76464844,-0.8642578,0.0,0.0,0.0,0.0,0.0,0.0,0.0,0.0,0.0,0.0,0.0,-0.5839088,-0.16943124,-0.7938267,-1.0106812,0.171875,-0.5574951,1.4746094,2.4335938,-0.3642578,87.25186,-12.088722,-3.5077524,-16.434673,1.2277222,-1.4985962,-1.0618286,-6.78125,-1.1953125,1.1347656,52.459423,-21.4913,-59.615406,-12.831928,-0.5773926,-0.055480957,0.82196045,-0.16503906,0.20898438,-0.0234375,105.16705,5.1592827,-106.14021,35.238388,0.0,0.0,0.0,0.0,0.0,0.0,0.0,16.201767,-103.36491,18.79858,0.0,0.0,0.0,0.0,0.0,0.0,0.0,0.5839088,0.16943124,0.7938267,-1.920227,-0.21881104,-1.0756226,-0.25195312,-3.4921875,1.0351562,102.919395,12.088722,3.5077524,16.434673,0.6524658,-0.3544922,-1.8817749,3.7480469,-2.225586,-1.0644531,48.408115,17.38692,-53.198544,13.955309,-0.9783325,1.1375732,1.999939,0.061523438,-1.5966797,-2.256836,103.16465,73.79759,-96.09732,1.4044666,0.0,0.0,0.0,0.0,0.0,0.0,0.0,82.72169,-100.63993,-15.891291,0.0,0.0,0.0,0.0,0.0,0.0,0.0,36.52672,-5.57812,-25.677095,
0.0585937491268851,3,-0.078186035,0.8175049,0.4718628,-0.041992188,-0.01171875,0.048828125,0.0,0.0,0.0,0.0,0.0,0.0,0.0,0.0,0.0,0.0,0.0,0.2748353,3.9468706E-4,-0.961659,-1.005188,0.049926758,-0.010925293,0.0146484375,1.15625,0.65527344,3.5833728,5.689942,0.008171231,-19.909323,0.963562,-0.13519287,-0.26379395,-0.01171875,0.053710938,0.0546875,2.2906368,4.529025,-56.970448,-21.166035,-0.60046387,-4.272461E-4,0.7862549,0.0068359375,0.059570312,-0.01953125,14.029248,4.646302,-128.97882,-21.34616,0.0,0.0,0.0,0.0,0.0,0.0,0.0,-10.420539,-128.88733,-34.498764,0.0,0.0,0.0,0.0,0.0,0.0,0.0,-0.2748353,-3.9468706E-4,0.961659,-0.9281616,-0.16143799,-0.36547852,-0.0234375,-0.0029296875,0.057617188,3.2927718,-5.689942,-0.008171231,19.909323,1.0161743,0.02709961,-0.18023682,-0.13574219,0.09765625,0.08496094,3.0479317,-0.5681329,-56.767155,21.119482,-0.37750244,0.012817383,0.9310303,-0.068359375,0.61328125,1.0966797,2.1997142,2.0259886,-128.61678,25.207905,0.0,0.0,0.0,0.0,0.0,0.0,0.0,-17.856579,-129.2062,23.131535,0.0,0.0,0.0,0.0,0.0,0.0,0.0,-1.5200803,44.97966,-0.41596743,
0.0781249988358468,4,-0.064086914,0.83203125,0.47460938,-0.04296875,-0.03125,0.048828125,0.0,0.0,0.0,0.0,0.0,0.0,0.0,0.0,0.0,0.0,0.0,0.2759913,1.7034262E-4,-0.9611923,-0.99194336,0.043151855,-0.023925781,-0.022460938,0.796875,0.4609375,3.1323164,5.7138753,0.0035266206,-19.899662,0.9692383,-0.15112305,-0.24993896,-0.068359375,0.07421875,0.053710938,1.8465258,5.6386757,-56.9718,-21.736795,-0.6175537,-0.0037841797,0.77441406,-0.01171875,-0.030273438,0.0,14.040907,5.734394,-128.98671,-21.939583,0.0,0.0,0.0,0.0,0.0,0.0,0.0,-9.3218975,-128.89859,-35.10323,0.0,0.0,0.0,0.0,0.0,0.0,0.0,-0.2759913,-1.7034262E-4,0.9611923,-0.9232178,-0.16394043,-0.34490967,-0.00390625,-0.00390625,0.057617188,3.2933664,-5.7138753,-0.0035266206,19.899662,1.0192871,-0.0048217773,-0.15838623,-0.09667969,0.059570312,0.08496094,3.1421134,-0.5840149,-56.76854,21.134218,-0.40509033,0.02142334,0.9222412,-0.03125,0.5185547,0.9638672,3.3456802,1.8129542,-128.62445,25.189932,0.0,0.0,0.0,0.0,0.0,0.0,0.0,-18.024103,-129.20926,22.724205,0.0,0.0,0.0,0.0,0.0,0.0,0.0,-1.526239,44.973446,-0.43026537,
0.09765624854480849,5,-0.057128906,0.8317871,0.46343994,-0.061523438,0.0078125,0.049804688,0.0,0.0,0.0,0.0,0.0,0.0,0.0,0.0,0.0,0.0,0.0,0.2765376,-3.9116293E-4,-0.9610188,-0.9798584,0.06188965,0.008239746,0.09082031,0.19335938,0.07324219,3.1413658,5.725185,-0.008098282,-19.89607,0.96551514,-0.137146,-0.27575684,-0.049804688,0.0546875,0.053710938,1.9149953,6.130415,-56.97209,-22.023054,-0.60546875,0.0015869141,0.80010986,-0.01171875,0.005859375,-0.018554688,14.111634,6.17256,-128.9876,-22.239544,0.0,0.0,0.0,0.0,0.0,0.0,0.0,-8.872328,-128.89755,-35.41492,0.0,0.0,0.0,0.0,0.0,0.0,0.0,-0.2765376,3.9116293E-4,0.9610188,-0.9008789,-0.14697266,-0.3359375,-0.00390625,0.015625,0.037109375,3.260147,-5.725185,0.008098282,19.89607,1.0039673,-0.0056762695,-0.18078613,-0.01953125,0.095703125,0.083984375,3.202774,-0.6072583,-56.75418,21.173906,-0.39257812,0.04534912,0.9064331,-0.05078125,0.40625,0.64453125,4.247177,1.5878277,-128.61694,25.162815,0.0,0.0,0.0,0.0,0.0,0.0,0.0,-18.215458,-129.1873,22.426159,0.0,0.0,0.0,0.0,0.0,0.0,0.0,-1.5441716,44.9718,-0.46264726,
0.11718749825377019,6,-0.046020508,0.83551025,0.46417236,-0.13964844,0.009765625,0.05078125,0.0,0.0,0.0,0.0,0.0,0.0,0.0,0.0,0.0,0.0,0.0,0.275526,-4.0972978E-4,-0.9612739,-0.993042,0.053527832,-0.0038452148,0.0146484375,-0.03515625,0.051757812,3.2433496,5.7042413,-0.008482657,-19.90135,0.97320557,-0.15423584,-0.25097656,0.0068359375,0.07324219,0.036132812,1.928438,6.022605,-56.97431,-22.053345,-0.6096802,-0.010131836,0.80804443,0.0078125,-0.030273438,0.0,14.193066,6.02083,-128.99033,-22.298763,0.0,0.0,0.0,0.0,0.0,0.0,0.0,-9.017459,-128.9004,-35.481533,0.0,0.0,0.0,0.0,0.0,0.0,0.0,-0.275526,4.0972978E-4,0.9612739,-0.92700195,-0.14697266,-0.31726074,-0.00390625,0.015625,0.037109375,3.1490839,-5.7042413,0.008482657,19.90135,0.9924927,0.014526367,-0.1609497,-9.765625E-4,0.11328125,0.064453125,3.278113,-0.647315,-56.758865,21.17654,-0.41308594,0.033813477,0.89959717,-0.051757812,0.21875,0.2109375,4.7267118,1.424972,-128.62424,25.262146,0.0,0.0,0.0,0.0,0.0,0.0,0.0,-18.3575,-129.2136,22.385014,0.0,0.0,0.0,0.0,0.0,0.0,0.0,-1.582379,44.968838,-0.47271803,
0.1367187479627319,7,-0.063964844,0.84106445,0.48364258,-0.17871094,0.0107421875,0.0703125,0.0,0.0,0.0,0.0,0.0,0.0,0.0,0.0,0.0,0.0,0.0,0.2753403,1.7750077E-4,-0.9613387,-0.9777832,0.064819336,0.0063476562,-0.022460938,0.0029296875,0.033203125,3.3854702,5.700397,0.0036747884,-19.90269,0.9637451,-0.13134766,-0.237854,-0.029296875,0.14941406,0.053710938,1.940679,5.94217,-56.96073,-22.062157,-0.60424805,0.010498047,0.7852173,0.026367188,-0.013671875,9.765625E-4,14.320935,5.80536,-128.97598,-22.29172,0.0,0.0,0.0,0.0,0.0,0.0,0.0,-9.226226,-128.8873,-35.48495,0.0,0.0,0.0,0.0,0.0,0.0,0.0,-0.2753403,-1.7750077E-4,0.9613387,-0.93914795,-0.1538086,-0.34777832,-0.022460938,-0.0029296875,0.037109375,2.9472961,-5.700397,-0.0036747884,19.90269,1.0244141,0.016052246,-0.15765381,-0.09667969,0.09667969,0.103515625,3.3417573,-0.6877122,-56.774612,21.164156,-0.4152832,0.027709961,0.91638184,0.0029296875,0.028320312,0.00390625,4.825722,1.2562008,-128.64561,25.270193,0.0,0.0,0.0,0.0,0.0,0.0,0.0,-18.523167,-129.24078,22.383526,0.0,0.0,0.0,0.0,0.0,0.0,0.0,-1.7055298,44.964752,-0.48018435,
0.1562499976716936,8,-0.049072266,0.8116455,0.45513916,-0.061523438,-0.01171875,0.06738281,0.0,0.0,0.0,0.0,0.0,0.0,0.0,0.0,0.0,0.0,0.0,0.27502114,-3.3200532E-4,-0.96145576,-0.9837036,0.06329346,-0.01361084,-0.041015625,-0.03515625,0.033203125,3.5193083,5.6937904,-0.006873511,-19.905117,0.958313,-0.14282227,-0.25476074,-0.068359375,0.0546875,0.053710938,1.9213209,5.8660145,-56.97056,-22.058746,-0.59417725,0.014038086,0.80200195,0.0068359375,0.0048828125,-0.018554688,14.348646,5.6457887,-128.98334,-22.30723,0.0,0.0,0.0,0.0,0.0,0.0,0.0,-9.389153,-128.88612,-35.495155,0.0,0.0,0.0,0.0,0.0,0.0,0.0,-0.27502114,3.3200532E-4,0.96145576,-0.90826416,-0.17144775,-0.3302002,-0.022460938,0.016601562,0.016601562,2.820639,-5.6937904,0.006873511,19.905117,1.0003052,-0.0075683594,-0.16290283,-0.15527344,0.13476562,0.123046875,3.4335907,-0.7135806,-56.767803,21.193872,-0.41912842,0.07159424,0.93011475,0.001953125,0.0087890625,0.041015625,4.9717326,1.0362506,-128.64522,25.319084,0.0,0.0,0.0,0.0,0.0,0.0,0.0,-18.747646,-129.23871,22.466728,0.0,0.0,0.0,0.0,0.0,0.0,0.0,-1.7767812,44.962624,-0.5237684,
0.1757812473806553,9,-0.06500244,0.7803345,0.46325684,0.016601562,-0.013671875,0.06542969,0.0,0.0,0.0,0.0,0.0,0.0,0.0,0.0,0.0,0.0,0.0,0.27561045,-9.80936E-4,-0.9613981,-0.9920654,0.06964111,0.020324707,-0.022460938,0.0029296875,0.052734375,3.6205544,5.7059903,-0.020308398,-19.903923,0.98065186,-0.18011475,-0.23022461,0.026367188,0.034179688,0.056640625,1.9031035,5.784195,-56.98582,-22.06189,-0.6184082,0.005065918,0.7833252,0.0068359375,-0.0126953125,0.018554688,14.433851,5.4853306,-128.99715,-22.34889,0.0,0.0,0.0,0.0,0.0,0.0,0.0,-9.538897,-128.90059,-35.54939,0.0,0.0,0.0,0.0,0.0,0.0,0.0,-0.27561045,9.80936E-4,0.9613981,-0.93481445,-0.13092041,-0.284729,-0.022460938,0.016601562,0.016601562,2.722611,-5.7059903,0.020308398,19.903923,0.99609375,-0.008544922,-0.17663574,-0.0390625,0.05859375,0.06542969,3.429825,-0.8147445,-56.762737,21.236032,-0.4192505,0.039794922,0.90948486,0.0029296875,0.009765625,-0.015625,5.2023234,0.75166845,-128.64684,25.304466,0.0,0.0,0.0,0.0,0.0,0.0,0.0,-19.033169,-129.24557,22.456293,0.0,0.0,0.0,0.0,0.0,0.0,0.0,-1.7855086,44.966698,-0.55774415,
0.19531249708961698,10,-0.047729492,0.7928467,0.47485352,-0.041015625,0.026367188,0.06738281,0.0,0.0,0.0,0.0,0.0,0.0,0.0,0.0,0.0,0.0,0.0,0.2698182,-0.008269739,-0.95986664,-0.9994507,0.032836914,0.015686035,-0.00390625,0.022460938,0.033203125,3.19163,5.5860724,-0.17120923,-19.872215,0.97650146,-0.14556885,-0.24499512,0.044921875,0.072265625,0.037109375,1.8471617,5.594005,-57.13507,-21.995193,-0.59020996,0.011962891,0.80200195,0.026367188,0.0048828125,-0.018554688,14.541137,5.2228136,-129.14694,-22.314058,0.0,0.0,0.0,0.0,0.0,0.0,0.0,-9.796581,-129.04062,-35.51883,0.0,0.0,0.0,0.0,0.0,0.0,0.0,-0.2698182,0.008269739,0.95986664,-0.9197998,-0.13708496,-0.32507324,-0.080078125,0.018554688,0.038085938,3.6931076,-5.5860724,0.17120923,19.872215,1.022522,0.008117676,-0.1496582,0.0,0.09472656,0.064453125,3.4928384,-0.7650347,-56.620884,21.20271,-0.40600586,0.029541016,0.9143677,0.021484375,0.0087890625,0.0029296875,5.4067864,0.65227115,-128.5002,25.323006,0.0,0.0,0.0,0.0,0.0,0.0,0.0,-19.13213,-129.10558,22.473362,0.0,0.0,0.0,0.0,0.0,0.0,0.0,-0.9345021,44.8552,-0.64913857,
0.21484374679857868,11,-0.08721924,0.80285645,0.47198486,-0.140625,-0.028320312,0.05078125,0.0,0.0,0.0,0.0,0.0,0.0,0.0,0.0,0.0,0.0,0.0,0.26899078,-0.0086102355,-0.96265763,-0.9995117,0.028869629,0.019592285,0.0146484375,-0.03515625,0.033203125,3.1251206,5.5689435,-0.17825855,-19.929998,0.97094727,-0.12976074,-0.2189331,-0.049804688,0.07421875,0.053710938,1.8433436,5.468097,-57.14326,-22.000761,-0.62939453,0.012207031,0.7991333,0.0068359375,0.0048828125,-0.018554688,14.680986,5.0148306,-129.15413,-22.27305,0.0,0.0,0.0,0.0,0.0,0.0,0.0,-9.999635,-129.04076,-35.482906,0.0,0.0,0.0,0.0,0.0,0.0,0.0,-0.26899078,0.0086102355,0.96265763,-0.90411377,-0.16400146,-0.31640625,-0.041992188,0.036132812,0.05859375,3.7621305,-5.5689435,0.17825855,19.929998,0.98516846,0.034606934,-0.13128662,-0.13574219,0.11621094,0.08496094,3.593794,-0.8011718,-56.61504,21.283855,-0.4152832,0.019714355,0.911438,0.001953125,0.009765625,0.022460938,5.5188174,0.47001648,-128.48424,25.545143,0.0,0.0,0.0,0.0,0.0,0.0,0.0,-19.316153,-129.09016,22.711016,0.0,0.0,0.0,0.0,0.0,0.0,0.0,-0.8445777,44.968185,-0.6382022,
0.23437499650754037,12,-0.0793457,0.81243896,0.45690918,-0.08203125,-0.030273438,0.049804688,0.0,0.0,0.0,0.0,0.0,0.0,0.0,0.0,0.0,0.0,0.0,0.26798332,-0.0072464333,-0.9635602,-0.9767456,0.061950684,0.0012817383,0.034179688,-0.015625,0.013671875,3.1578994,5.548086,-0.15002364,-19.948683,0.9556885,-0.13208008,-0.2208252,-0.12597656,0.055664062,0.051757812,1.8880297,5.3143287,-57.119152,-21.984924,-0.6043091,0.012329102,0.8099365,0.0068359375,0.0234375,0.018554688,14.923931,4.797888,-129.13239,-22.187172,0.0,0.0,0.0,0.0,0.0,0.0,0.0,-10.200889,-129.01494,-35.415462,0.0,0.0,0.0,0.0,0.0,0.0,0.0,-0.26798332,0.0072464333,0.9635602,-0.8792114,-0.1809082,-0.32635498,0.034179688,0.0146484375,0.057617188,3.61498,-5.548086,0.15002364,19.948683,0.9851074,0.0146484375,-0.12524414,-0.09667969,0.059570312,0.10449219,3.631462,-0.82062006,-56.63998,21.356781,-0.44189453,0.038085938,0.92529297,0.0029296875,0.009765625,0.00390625,5.786485,0.28104556,-128.5204,25.589903,0.0,0.0,0.0,0.0,0.0,0.0,0.0,-19.50654,-129.13069,22.762768,0.0,0.0,0.0,0.0,0.0,0.0,0.0,-0.9439882,44.993195,-0.60091025,
0.2539062462165021,13,-0.066223145,0.81414795,0.45959473,-0.04296875,-0.03125,0.06738281,0.0,0.0,0.0,0.0,0.0,0.0,0.0,0.0,0.0,0.0,0.0,0.26717114,-0.006911329,-0.9637837,-1.0054321,0.058044434,0.029052734,0.015625,0.00390625,0.0146484375,3.2245831,5.531271,-0.14308594,-19.953308,0.9711304,-0.15716553,-0.23797607,-0.08886719,-0.040039062,0.053710938,1.9110054,5.182198,-57.112682,-21.97845,-0.5963135,0.0073242188,0.788208,-0.01171875,0.005859375,-0.018554688,15.176356,4.6305566,-129.1257,-22.174896,0.0,0.0,0.0,0.0,0.0,0.0,0.0,-10.356569,-129.00826,-35.41802,0.0,0.0,0.0,0.0,0.0,0.0,0.0,-0.26717114,0.006911329,0.9637837,-0.91729736,-0.17230225,-0.32922363,-0.00390625,0.03515625,0.037109375,3.5488377,-5.531271,0.14308594,19.953308,0.9923096,0.0025024414,-0.16674805,-0.0390625,0.05859375,0.06542969,3.6281717,-0.82947063,-56.652252,21.427633,-0.4317627,0.029785156,0.9420166,-0.016601562,0.009765625,0.022460938,6.0203414,0.16916478,-128.5401,25.61945,0.0,0.0,0.0,0.0,0.0,0.0,0.0,-19.620735,-129.15564,22.799328,0.0,0.0,0.0,0.0,0.0,0.0,0.0,-0.9874606,44.992123,-0.59637487,
0.2734374959254638,14,-0.051696777,0.79901123,0.4819336,-0.00390625,-0.032226562,0.047851562,0.0,0.0,0.0,0.0,0.0,0.0,0.0,0.0,0.0,0.0,0.0,0.26694003,-0.0067525455,-0.96386236,-0.9871216,0.05218506,0.013061523,0.015625,0.00390625,0.0146484375,3.3402922,5.526485,-0.13979864,-19.954937,0.9638672,-0.16369629,-0.23693848,-0.01171875,0.03515625,0.055664062,1.9315815,5.0800714,-57.106796,-22.014479,-0.59472656,-0.01550293,0.809021,0.0068359375,0.0234375,0.0,15.262411,4.487096,-129.11678,-22.258997,0.0,0.0,0.0,0.0,0.0,0.0,0.0,-10.504181,-128.99649,-35.49615,0.0,0.0,0.0,0.0,0.0,0.0,0.0,-0.26694003,0.0067525455,0.96386236,-0.9420166,-0.14239502,-0.33099365,0.091796875,0.051757812,0.056640625,3.4745164,-5.526485,0.13979864,19.954937,1.0043945,-0.01159668,-0.15112305,-0.07714844,0.059570312,0.103515625,3.6070635,-0.85204697,-56.655178,21.481441,-0.41015625,0.017700195,0.9025879,0.001953125,0.009765625,0.022460938,6.124039,0.06854749,-128.54507,25.608088,0.0,0.0,0.0,0.0,0.0,0.0,0.0,-19.720934,-129.16257,22.787447,0.0,0.0,0.0,0.0,0.0,0.0,0.0,-1.0335193,44.99161,-0.6014297,
0.2929687456344255,15,-0.07171631,0.81152344,0.49853516,-0.06347656,-0.06933594,0.048828125,0.0,0.0,0.0,0.0,0.0,0.0,0.0,0.0,0.0,0.0,0.0,0.26818478,-0.0067607826,-0.9635036,-1.0063477,0.048583984,0.010986328,0.015625,0.00390625,0.0146484375,3.4318795,5.552256,-0.13996917,-19.947512,0.965271,-0.15307617,-0.21899414,-0.068359375,0.016601562,0.07324219,1.9242727,5.043062,-57.105503,-22.000053,-0.61431885,0.008911133,0.7792969,0.0078125,-0.030273438,0.01953125,15.388998,4.38824,-129.11487,-22.252895,0.0,0.0,0.0,0.0,0.0,0.0,0.0,-10.598132,-128.98941,-35.495888,0.0,0.0,0.0,0.0,0.0,0.0,0.0,-0.26818478,0.0067607826,0.9635036,-0.9046631,-0.1307373,-0.3161621,0.053710938,0.072265625,0.07714844,3.3647032,-5.552256,0.13996917,19.947512,1.0202637,-0.005859375,-0.1593628,-0.11621094,0.059570312,0.10449219,3.6024466,-0.9054799,-56.654694,21.47193,-0.41827393,0.025878906,0.9016113,-0.016601562,0.009765625,0.00390625,6.2543874,-0.084872484,-128.55615,25.458527,0.0,0.0,0.0,0.0,0.0,0.0,0.0,-19.875725,-129.1709,22.64636,0.0,0.0,0.0,0.0,0.0,0.0,0.0,-1.0954772,44.989315,-0.62060297,
0.3124999953433872,16,-0.06072998,0.8161621,0.4942627,0.015625,-0.052734375,-0.0078125,0.0,0.0,0.0,0.0,0.0,0.0,0.0,0.0,0.0,0.0,0.0,0.26745218,-0.006920792,-0.9637126,-0.9838867,0.06011963,2.4414062E-4,0.052734375,0.0029296875,0.033203125,3.5216444,5.5370893,-0.14328188,-19.951838,0.9544678,-0.13983154,-0.2288208,-0.06933594,0.036132812,0.053710938,1.9607444,4.979167,-57.10773,-22.00463,-0.6063843,0.007446289,0.81292725,0.0068359375,-0.0126953125,0.0,15.380387,4.3101053,-129.11375,-22.228828,0.0,0.0,0.0,0.0,0.0,0.0,0.0,-10.683739,-128.98343,-35.462894,0.0,0.0,0.0,0.0,0.0,0.0,0.0,-0.26745218,0.006920792,0.9637126,-0.9390259,-0.14544678,-0.3300171,-0.041992188,0.055664062,0.05859375,3.237731,-5.5370893,0.14328188,19.951838,1.0128784,0.016235352,-0.13269043,-0.07714844,0.059570312,0.103515625,3.6109152,-0.93080187,-56.658497,21.41352,-0.3908081,0.0012817383,0.91430664,0.0029296875,0.009765625,0.00390625,6.2377825,-0.16151786,-128.56227,25.34609,0.0,0.0,0.0,0.0,0.0,0.0,0.0,-19.95451,-129.18088,22.556484,0.0,0.0,0.0,0.0,0.0,0.0,0.0,-1.1498955,44.987934,-0.64219797,
0.3320312450523489,17,-0.07623291,0.8114624,0.46380615,0.034179688,-0.07128906,0.028320312,0.0,0.0,0.0,0.0,0.0,0.0,0.0,0.0,0.0,0.0,0.0,0.26638252,-0.007329546,-0.9640317,-0.9973755,0.03668213,0.01776123,0.072265625,0.060546875,0.052734375,3.6047285,5.514945,-0.1517443,-19.958445,0.9794922,-0.14868164,-0.23608398,-0.06933594,0.016601562,0.053710938,1.9470218,4.9112697,-57.117786,-22.012487,-0.6222534,0.016967773,0.7822876,-0.01171875,0.005859375,-0.018554688,15.501422,4.2202716,-129.1259,-22.271862,0.0,0.0,0.0,0.0,0.0,0.0,0.0,-10.760405,-128.9954,-35.52066,0.0,0.0,0.0,0.0,0.0,0.0,0.0,-0.26638252,0.007329546,0.9640317,-0.91845703,-0.111083984,-0.35040283,0.053710938,0.052734375,0.07714844,3.128251,-5.514945,0.1517443,19.958445,1.0164185,0.017150879,-0.15942383,-0.07714844,0.022460938,0.0859375,3.5580945,-0.9639864,-56.65712,21.40842,-0.43164062,0.024108887,0.9026489,0.0029296875,0.009765625,0.00390625,6.311307,-0.20648253,-128.56053,25.295858,0.0,0.0,0.0,0.0,0.0,0.0,0.0,-19.998104,-129.17914,22.50341,0.0,0.0,0.0,0.0,0.0,0.0,0.0,-1.1861305,44.987717,-0.66979545,
0.3515624947613106,18,-0.06390381,0.81121826,0.47839355,-0.043945312,-0.06933594,0.030273438,0.0,0.0,0.0,0.0,0.0,0.0,0.0,0.0,0.0,0.0,0.0,0.26528904,-0.007508948,-0.9642593,-1.0002441,0.042785645,0.0029296875,0.052734375,0.0029296875,0.052734375,3.6846676,5.4923058,-0.15545847,-19.96316,0.9743042,-0.14831543,-0.27288818,-0.087890625,0.036132812,0.052734375,1.9542456,4.811783,-57.1194,-22.009247,-0.5878296,0.031677246,0.78515625,0.0068359375,0.005859375,0.0,15.56694,4.1019716,-129.12813,-22.286673,0.0,0.0,0.0,0.0,0.0,0.0,0.0,-10.878642,-128.99223,-35.536194,0.0,0.0,0.0,0.0,0.0,0.0,0.0,-0.26528904,0.007508948,0.9642593,-0.9169922,-0.15112305,-0.3133545,0.034179688,0.034179688,0.078125,3.0309925,-5.4923058,0.15545847,19.96316,1.0040283,0.002319336,-0.18084717,-0.078125,0.078125,0.046875,3.543703,-0.9943743,-56.657467,21.406904,-0.39056396,0.027404785,0.8945923,0.0029296875,0.009765625,0.00390625,6.3675356,-0.27377796,-128.56464,25.307205,0.0,0.0,0.0,0.0,0.0,0.0,0.0,-20.067646,-129.18098,22.528414,0.0,0.0,0.0,0.0,0.0,0.0,0.0,-1.2178292,44.98349,-0.6853503,
0.37109374447027227,19,-0.07006836,0.800354,0.46655273,-0.0048828125,-0.0703125,0.047851562,0.0,0.0,0.0,0.0,0.0,0.0,0.0,0.0,0.0,0.0,0.0,0.26474932,-0.007787911,-0.9643806,-0.97979736,0.06774902,0.008361816,0.109375,0.00390625,0.033203125,3.777661,5.481131,-0.1612339,-19.965668,0.96643066,-0.14318848,-0.2518921,-0.08691406,0.036132812,0.072265625,1.9909546,4.779572,-57.124268,-22.02441,-0.6054077,0.0026245117,0.7961426,0.0068359375,-0.0126953125,0.0,15.723259,4.0770717,-129.13757,-22.282433,0.0,0.0,0.0,0.0,0.0,0.0,0.0,-10.904366,-128.99924,-35.531197,0.0,0.0,0.0,0.0,0.0,0.0,0.0,-0.26474932,0.007787911,0.9643806,-0.9293213,-0.17181396,-0.3390503,0.034179688,0.034179688,0.09765625,2.8979323,-5.481131,0.1612339,19.965668,1.038147,-0.010070801,-0.16070557,-0.07714844,0.059570312,0.103515625,3.557434,-1.037919,-56.657295,21.388756,-0.40893555,0.049682617,0.9015503,0.021484375,0.0087890625,0.0029296875,6.431663,-0.3950317,-128.55907,25.284466,0.0,0.0,0.0,0.0,0.0,0.0,0.0,-20.190237,-129.17833,22.515522,0.0,0.0,0.0,0.0,0.0,0.0,0.0,-1.2724986,44.980476,-0.71257865,
0.39062499417923396,20,-0.04675293,0.803833,0.47888184,0.034179688,-0.091796875,-0.0087890625,0.0,0.0,0.0,0.0,0.0,0.0,0.0,0.0,0.0,0.0,0.0,0.2646394,-0.007919544,-0.96450955,-0.98583984,0.07556152,0.009460449,0.052734375,0.022460938,0.052734375,3.902191,5.4788566,-0.16395913,-19.968338,0.9603882,-0.1772461,-0.25891113,-0.087890625,0.036132812,0.052734375,2.0209074,4.7460203,-57.12208,-22.084415,-0.6144409,0.0067749023,0.8109741,0.0068359375,0.005859375,0.0,15.779356,4.0638847,-129.12907,-22.403082,0.0,0.0,0.0,0.0,0.0,0.0,0.0,-10.921674,-128.98439,-35.647366,0.0,0.0,0.0,0.0,0.0,0.0,0.0,-0.2646394,0.007919544,0.96450955,-0.9213257,-0.17315674,-0.33117676,0.072265625,-0.005859375,0.07714844,2.8023276,-5.4788566,0.16395913,19.968338,0.99243164,0.0065307617,-0.1628418,-0.15429688,0.060546875,0.0859375,3.580421,-1.0659852,-56.65367,21.4034,-0.40905762,0.03161621,0.9094238,-0.016601562,0.009765625,-0.015625,6.6521325,-0.5041443,-128.55252,25.293993,0.0,0.0,0.0,0.0,0.0,0.0,0.0,-20.299917,-129.1765,22.516544,0.0,0.0,0.0,0.0,0.0,0.0,0.0,-1.3232504,44.983032,-0.7324234,
0.41015624388819566,21,-0.08428955,0.8186035,0.46704102,-0.06347656,-0.049804688,0.030273438,0.0,0.0,0.0,0.0,0.0,0.0,0.0,0.0,0.0,0.0,0.0,0.26327205,-0.008145519,-0.9648066,-0.9847412,0.064208984,-0.009643555,0.052734375,0.060546875,0.034179688,3.983789,5.450547,-0.16863748,-19.97449,0.9682617,-0.15112305,-0.24194336,-0.05078125,-0.0029296875,0.0546875,2.0355744,4.700558,-57.129723,-22.136284,-0.62023926,0.013000488,0.7753906,-0.01171875,-0.01171875,0.018554688,15.896106,4.0025826,-129.13528,-22.494844,0.0,0.0,0.0,0.0,0.0,0.0,0.0,-10.965748,-128.99634,-35.75831,0.0,0.0,0.0,0.0,0.0,0.0,0.0,-0.26327205,0.008145519,0.9648066,-0.9216919,-0.125,-0.33770752,-0.00390625,0.015625,0.057617188,2.729074,-5.450547,0.16863748,19.97449,0.98760986,0.0075683594,-0.15289307,-0.11621094,0.041015625,0.06640625,3.557214,-1.0799618,-56.651604,21.42881,-0.41729736,0.04156494,0.93115234,0.00390625,0.0859375,0.00390625,6.839252,-0.5300703,-128.5538,25.362753,0.0,0.0,0.0,0.0,0.0,0.0,0.0,-20.32405,-129.18481,22.575825,0.0,0.0,0.0,0.0,0.0,0.0,0.0,-1.3481112,44.978767,-0.7476063,
0.42968749359715736,22,-0.058654785,0.7982178,0.4901123,-0.04296875,-0.05078125,0.048828125,0.0,0.0,0.0,0.0,0.0,0.0,0.0,0.0,0.0,0.0,0.0,0.2625413,-0.008311201,-0.96501684,-0.9834595,0.09350586,-0.016113281,0.015625,-0.03515625,0.013671875,4.0708294,5.4354186,-0.17206766,-19.978842,0.960083,-0.15270996,-0.2578125,-0.06933594,0.036132812,0.034179688,2.0260336,4.6859846,-57.126328,-22.169529,-0.6012573,0.009460449,0.7753296,-0.01171875,0.005859375,0.0,15.883646,3.997743,-129.133,-22.58441,0.0,0.0,0.0,0.0,0.0,0.0,0.0,-10.959878,-128.99658,-35.86118,0.0,0.0,0.0,0.0,0.0,0.0,0.0,-0.2625413,0.008311201,0.96501684,-0.91290283,-0.14526367,-0.31628418,0.111328125,0.0126953125,0.036132812,2.642121,-5.4354186,0.17206766,19.978842,1.0123291,-0.0256958,-0.1472168,-0.15429688,0.041992188,0.06738281,3.5283651,-1.0809617,-56.646908,21.443779,-0.4171753,0.049682617,0.92126465,0.0029296875,0.009765625,0.00390625,7.142541,-0.51863694,-128.55026,25.376907,0.0,0.0,0.0,0.0,0.0,0.0,0.0,-20.311312,-129.18742,22.583305,0.0,0.0,0.0,0.0,0.0,0.0,0.0,-1.4026318,44.977295,-0.7689649,
0.44921874330611905,23,-0.05596924,0.79003906,0.46209717,0.016601562,-0.013671875,0.047851562,0.0,0.0,0.0,0.0,0.0,0.0,0.0,0.0,0.0,0.0,0.0,0.26267192,-0.00809044,-0.9649728,-0.98168945,0.06414795,-0.010620117,-0.022460938,0.0029296875,0.0146484375,4.114517,5.438123,-0.16749717,-19.977928,0.93536377,-0.16937256,-0.24468994,-0.049804688,0.07421875,0.053710938,2.0052552,4.7066193,-57.125843,-22.208443,-0.61602783,0.028564453,0.7871704,0.0068359375,0.005859375,0.018554688,15.906976,4.0127163,-129.13248,-22.68898,0.0,0.0,0.0,0.0,0.0,0.0,0.0,-10.932782,-128.99149,-35.976585,0.0,0.0,0.0,0.0,0.0,0.0,0.0,-0.26267192,0.00809044,0.9649728,-0.93200684,-0.1451416,-0.3477173,0.034179688,-0.0048828125,0.037109375,2.5941987,-5.438123,0.16749717,19.977928,0.97869873,-0.012207031,-0.13873291,-0.0390625,0.07714844,0.06542969,3.6059232,-1.090261,-56.656815,21.434124,-0.41729736,0.021850586,0.9025879,-0.016601562,0.009765625,0.00390625,7.373897,-0.6729133,-128.55702,25.30432,0.0,0.0,0.0,0.0,0.0,0.0,0.0,-20.46733,-129.19339,22.529053,0.0,0.0,0.0,0.0,0.0,0.0,0.0,-1.4344053,44.97586,-0.76753736,
0.46874999301508075,24,-0.045410156,0.8178711,0.50579834,0.017578125,0.025390625,0.06640625,0.0,0.0,0.0,0.0,0.0,0.0,0.0,0.0,0.0,0.0,0.0,0.2636408,-0.00824786,-0.9647115,-1.0131226,0.087646484,0.009643555,-0.0029296875,0.041992188,-0.00390625,4.224058,5.458182,-0.17075625,-19.97252,0.9624634,-0.17633057,-0.2559204,-0.049804688,0.0546875,0.03515625,2.0110052,4.692319,-57.12112,-22.24495,-0.6104126,0.0048217773,0.78326416,0.0068359375,0.005859375,0.0,15.940883,3.9786801,-129.13194,-22.78371,0.0,0.0,0.0,0.0,0.0,0.0,0.0,-10.960991,-128.98509,-36.079407,0.0,0.0,0.0,0.0,0.0,0.0,0.0,-0.2636408,0.00824786,0.9647115,-0.9265747,-0.117248535,-0.37109375,-0.099609375,0.038085938,0.017578125,2.503584,-5.458182,0.17075625,19.97252,0.9995117,-0.003540039,-0.14910889,0.0,0.0390625,0.083984375,3.630384,-1.1371913,-56.655663,21.398615,-0.42340088,0.028015137,0.90063477,0.0029296875,0.009765625,-0.015625,7.4548783,-0.7962446,-128.56638,25.213978,0.0,0.0,0.0,0.0,0.0,0.0,0.0,-20.590656,-129.20099,22.446676,0.0,0.0,0.0,0.0,0.0,0.0,0.0,-1.477314,44.9743,-0.7882376,
0.48828124272404244,25,-0.07208252,0.8233032,0.47375488,-0.021484375,0.0078125,0.103515625,0.0,0.0,0.0,0.0,0.0,0.0,0.0,0.0,0.0,0.0,0.0,0.26468697,-0.008711893,-0.9644009,-0.9938965,0.068115234,-0.0045776367,-0.07910156,0.022460938,0.0146484375,4.331602,5.4798417,-0.1803632,-19.96609,0.9624634,-0.17633057,-0.2559204,-0.049804688,0.0546875,0.03515625,2.0493727,4.700501,-57.13042,-22.274183,-0.6092529,0.0154418945,0.81292725,0.0068359375,-0.0126953125,0.018554688,15.922494,3.9868622,-129.14124,-22.812944,0.0,0.0,0.0,0.0,0.0,0.0,0.0,-10.956978,-128.98573,-36.10337,0.0,0.0,0.0,0.0,0.0,0.0,0.0,-0.26468697,0.008711893,0.9644009,-0.91052246,-0.12030029,-0.33966064,-0.041992188,0.016601562,0.038085938,2.3835952,-5.4798417,0.1803632,19.96609,1.0041504,-0.023620605,-0.16088867,-0.057617188,0.040039062,0.046875,3.6096678,-1.2041006,-56.649246,21.314518,-0.42126465,0.042907715,0.9025879,0.0029296875,0.009765625,0.00390625,7.441917,-0.84294105,-128.56427,25.131603,0.0,0.0,0.0,0.0,0.0,0.0,0.0,-20.638718,-129.19751,22.36996,0.0,0.0,0.0,0.0,0.0,0.0,0.0,-1.5219857,44.97131,-0.82396746,
0.5078124924330042,26,-0.02722168,0.79052734,0.50213623,-0.020507812,0.044921875,0.06738281,0.0,0.0,0.0,0.0,0.0,0.0,0.0,0.0,0.0,0.0,0.0,0.26688197,-0.010421398,-0.9637617,-0.9906616,0.0770874,-0.01739502,-0.059570312,0.022460938,-0.0048828125,4.497102,5.5252843,-0.21575522,-19.952856,0.9640503,-0.1538086,-0.26586914,-0.03125,0.0546875,0.03515625,1.9782335,4.74324,-57.169807,-22.287823,-0.60839844,0.002746582,0.788208,-0.049804688,0.0068359375,-0.01953125,15.947261,3.9651992,-129.17764,-22.930536,0.0,0.0,0.0,0.0,0.0,0.0,0.0,-10.981148,-129.01836,-36.217205,0.0,0.0,0.0,0.0,0.0,0.0,0.0,-0.26688197,0.010421398,0.9637617,-0.9163208,-0.17456055,-0.35772705,-0.080078125,-0.020507812,0.017578125,2.262178,-5.5252843,0.21575522,19.952856,1.0083618,-0.013671875,-0.15118408,0.0,0.0390625,0.06542969,3.595646,-1.283299,-56.62102,21.250864,-0.43151855,0.054016113,0.91345215,0.001953125,-0.009765625,0.00390625,7.42542,-0.91973174,-128.52632,25.054317,0.0,0.0,0.0,0.0,0.0,0.0,0.0,-20.718746,-129.1503,22.305439,0.0,0.0,0.0,0.0,0.0,0.0,0.0,-1.5775776,44.966717,-0.9230944,
0.5273437421419659,27,-0.0647583,0.79833984,0.4862671,-0.021484375,0.026367188,0.08496094,0.0,0.0,0.0,0.0,0.0,0.0,0.0,0.0,0.0,0.0,0.0,0.2684111,-0.011168638,-0.9632284,-0.98864746,0.0703125,-0.023498535,-0.09765625,-0.03515625,0.013671875,4.614564,5.5569415,-0.23122542,-19.941814,0.9660034,-0.15985107,-0.24298096,-0.013671875,0.036132812,-0.001953125,1.9737766,4.755228,-57.178757,-22.300825,-0.6187134,-0.0087890625,0.79418945,-0.01171875,0.005859375,0.0,16.00181,3.9771693,-129.18353,-22.99715,0.0,0.0,0.0,0.0,0.0,0.0,0.0,-10.9576235,-129.03503,-36.29719,0.0,0.0,0.0,0.0,0.0,0.0,0.0,-0.2684111,0.011168638,0.9632284,-0.9048462,-0.14642334,-0.35559082,-0.15625,-0.018554688,-0.001953125,2.1660922,-5.5569415,0.23122542,19.941814,1.0076294,0.022277832,-0.15240479,0.0,0.0390625,0.06542969,3.5596352,-1.3498712,-56.607574,21.191956,-0.40509033,0.022399902,0.92718506,0.001953125,-0.009765625,0.00390625,7.42349,-0.9713011,-128.5162,24.947836,0.0,0.0,0.0,0.0,0.0,0.0,0.0,-20.769417,-129.14673,22.192318,0.0,0.0,0.0,0.0,0.0,0.0,0.0,-1.6224974,44.959717,-0.9734297,
0.5468749918509276,28,-0.087890625,0.8109741,0.49890137,-0.020507812,0.064453125,0.0859375,0.0,0.0,0.0,0.0,0.0,0.0,0.0,0.0,0.0,0.0,0.0,0.26873603,-0.011354273,-0.9631493,-0.9929199,0.06036377,-0.0076904297,-0.1171875,0.041015625,0.034179688,4.6870914,5.5636687,-0.23506862,-19.940178,0.9780884,-0.16235352,-0.2321167,0.005859375,0.03515625,0.017578125,1.9828777,4.7458305,-57.18704,-22.32754,-0.60266113,-0.007385254,0.8129883,-0.01171875,0.005859375,0.0,15.929114,3.9574718,-129.19296,-23.055147,0.0,0.0,0.0,0.0,0.0,0.0,0.0,-10.98543,-129.04263,-36.347153,0.0,0.0,0.0,0.0,0.0,0.0,0.0,-0.26873603,0.011354273,0.9631493,-0.91937256,-0.17541504,-0.3184204,-0.080078125,-9.765625E-4,0.038085938,2.133775,-5.5636687,0.23506862,19.940178,0.98883057,0.026550293,-0.14709473,0.0,0.057617188,0.046875,3.5705643,-1.3519502,-56.60427,21.163616,-0.44799805,0.042297363,0.9154663,-0.016601562,0.029296875,0.022460938,7.432815,-0.96467817,-128.51718,24.916737,0.0,0.0,0.0,0.0,0.0,0.0,0.0,-20.763742,-129.15337,22.160236,0.0,0.0,0.0,0.0,0.0,0.0,0.0,-1.6514776,44.958874,-0.9907983,
0.5664062415598893,29,-0.085998535,0.8138428,0.48797607,-0.040039062,0.06542969,0.0859375,0.0,0.0,0.0,0.0,0.0,0.0,0.0,0.0,0.0,0.0,0.0,0.2690681,-0.011212377,-0.9630603,-1.0113525,0.045959473,-0.0029907227,-0.07910156,0.0029296875,0.033203125,4.702655,5.5705447,-0.23213096,-19.938334,0.9611206,-0.14978027,-0.2617798,0.005859375,0.0546875,0.017578125,1.9868218,4.6904984,-57.184017,-22.294207,-0.61602783,0.031433105,0.8029785,-0.01171875,0.005859375,0.0,15.926104,3.9130125,-129.18944,-23.031725,0.0,0.0,0.0,0.0,0.0,0.0,0.0,-11.019206,-129.0393,-36.33624,0.0,0.0,0.0,0.0,0.0,0.0,0.0,-0.2690681,0.011212377,0.9630603,-0.9086304,-0.1260376,-0.34661865,-0.041992188,0.055664062,0.017578125,2.1359754,-5.5705447,0.23213096,19.938334,0.9981079,0.014404297,-0.18377686,-0.01953125,0.040039062,0.046875,3.5427084,-1.3492937,-56.60146,21.201527,-0.40496826,0.029541016,0.9074707,0.0029296875,0.009765625,-0.015625,7.381663,-0.93955386,-128.51366,24.949875,0.0,0.0,0.0,0.0,0.0,0.0,0.0,-20.74462,-129.15338,22.211681,0.0,0.0,0.0,0.0,0.0,0.0,0.0,-1.6575263,44.95883,-0.9865247,
0.585937491268851,30,-0.084472656,0.83447266,0.45721436,-0.041015625,0.02734375,0.103515625,0.0,0.0,0.0,0.0,0.0,0.0,0.0,0.0,0.0,0.0,0.0,0.2690704,-0.011865551,-0.9630249,-0.9851074,0.0501709,0.014038086,-0.041015625,-0.03515625,0.013671875,4.739087,5.570592,-0.24565369,-19.9376,0.93652344,-0.16351318,-0.24969482,-0.01171875,0.053710938,0.0546875,1.9548465,4.65913,-57.193577,-22.269707,-0.6253662,0.009216309,0.7822876,0.0068359375,-0.0126953125,0.0,15.955238,3.865972,-129.19926,-23.04088,0.0,0.0,0.0,0.0,0.0,0.0,0.0,-11.05806,-129.05139,-36.353447,0.0,0.0,0.0,0.0,0.0,0.0,0.0,-0.2690704,0.011865551,0.9630249,-0.93688965,-0.1381836,-0.34765625,-0.080078125,-0.020507812,0.017578125,2.144571,-5.570592,0.24565369,19.9376,0.9920044,0.0044555664,-0.19049072,-0.07714844,0.059570312,0.103515625,3.5254784,-1.3357496,-56.591923,21.166975,-0.4100952,0.035583496,0.9143677,-0.016601562,0.009765625,0.022460938,7.3589807,-0.89422107,-128.5084,24.854214,0.0,0.0,0.0,0.0,0.0,0.0,0.0,-20.696545,-129.15146,22.112183,0.0,0.0,0.0,0.0,0.0,0.0,0.0,-1.6617321,44.956802,-1.0182085,
0.6054687409778127,31,-0.07196045,0.84729004,0.49084473,-0.10058594,0.0087890625,0.068359375,0.0,0.0,0.0,0.0,0.0,0.0,0.0,0.0,0.0,0.0,0.0,0.2683484,-0.011563258,-0.9633107,-0.97576904,0.06286621,0.006286621,-0.00390625,-0.015625,0.033203125,4.8160105,5.5556436,-0.2393953,-19.943518,0.9690552,-0.15899658,-0.2420044,0.0068359375,0.091796875,0.036132812,1.9575475,4.5988245,-57.18968,-22.272581,-0.6343994,0.011413574,0.79022217,0.0068359375,-0.0126953125,0.0,15.991474,3.7613387,-129.19078,-23.044312,0.0,0.0,0.0,0.0,0.0,0.0,0.0,-11.155264,-129.04733,-36.36577,0.0,0.0,0.0,0.0,0.0,0.0,0.0,-0.2683484,0.011563258,0.9633107,-0.91748047,-0.18737793,-0.3519287,-0.099609375,-0.040039062,0.017578125,2.085628,-5.5556436,0.2393953,19.943518,0.9926758,0.016479492,-0.15106201,-0.057617188,0.05859375,0.06640625,3.534741,-1.3044434,-56.597523,21.165857,-0.42144775,0.033691406,0.9291992,0.001953125,0.0087890625,0.041015625,7.310134,-0.84567845,-128.50902,24.858973,0.0,0.0,0.0,0.0,0.0,0.0,0.0,-20.647003,-129.15674,22.118324,0.0,0.0,0.0,0.0,0.0,0.0,0.0,-1.7212288,44.958046,-1.0191422,
0.6249999906867744,32,-0.07312012,0.83032227,0.47680664,-0.061523438,0.0078125,0.06738281,0.0,0.0,0.0,0.0,0.0,0.0,0.0,0.0,0.0,0.0,0.0,0.26696146,-0.010261367,-0.963548,-0.9994507,0.03955078,0.02178955,-0.00390625,0.0029296875,0.0146484375,4.8471904,5.5269303,-0.2124421,-19.948431,0.991333,-0.15789795,-0.25616455,0.0068359375,0.053710938,0.055664062,1.9562474,4.5311575,-57.16465,-22.258896,-0.6057739,-0.018981934,0.7833252,0.0078125,-0.030273438,0.01953125,15.9915495,3.6811252,-129.16684,-23.032564,0.0,0.0,0.0,0.0,0.0,0.0,0.0,-11.228859,-129.03123,-36.361454,0.0,0.0,0.0,0.0,0.0,0.0,0.0,-0.26696146,0.010261367,0.963548,-0.90979004,-0.137146,-0.37121582,0.015625,0.0546875,0.037109375,2.055285,-5.5269303,0.2124421,19.948431,0.99694824,-0.0044555664,-0.12042236,-0.078125,0.09667969,0.06542969,3.6371732,-1.2148547,-56.61506,21.19868,-0.40704346,0.0335083,0.9192505,0.0029296875,0.028320312,-0.034179688,7.3362565,-0.82721627,-128.53003,24.91845,0.0,0.0,0.0,0.0,0.0,0.0,0.0,-20.630388,-129.17688,22.18345,0.0,0.0,0.0,0.0,0.0,0.0,0.0,-1.7923943,44.949173,-0.9752915,
0.6445312403957361,33,-0.0602417,0.8239136,0.45648193,0.015625,-0.032226562,0.047851562,0.0,0.0,0.0,0.0,0.0,0.0,0.0,0.0,0.0,0.0,0.0,0.26464435,-0.0105420435,-0.96429724,-0.9881592,0.05493164,0.02508545,0.015625,0.0029296875,0.033203125,4.894129,5.4789586,-0.21825297,-19.963942,0.9743042,-0.15136719,-0.24700928,-0.05078125,0.036132812,0.03515625,1.9707997,4.395519,-57.164165,-22.24194,-0.6033325,0.0065307617,0.7862549,0.0068359375,-0.0126953125,0.0,16.03907,3.5025465,-129.16724,-22.99942,0.0,0.0,0.0,0.0,0.0,0.0,0.0,-11.395054,-129.02899,-36.342243,0.0,0.0,0.0,0.0,0.0,0.0,0.0,-0.26464435,0.0105420435,0.96429724,-0.91851807,-0.11407471,-0.30621338,0.015625,0.07421875,0.037109375,2.0599458,-5.4789586,0.21825297,19.963942,1.0168457,0.006225586,-0.12780762,-0.07714844,0.115234375,0.12207031,3.7971523,-1.1590171,-56.60962,21.205875,-0.4008789,0.029418945,0.9182739,0.060546875,0.06542969,-0.015625,7.4059715,-0.94907427,-128.52171,24.991034,0.0,0.0,0.0,0.0,0.0,0.0,0.0,-20.754976,-129.1635,22.267843,0.0,0.0,0.0,0.0,0.0,0.0,0.0,-1.7950001,44.953793,-0.98407555,
0.6640624901046978,34,-0.051635742,0.7920532,0.48590088,-0.0234375,-0.03125,0.047851562,0.0,0.0,0.0,0.0,0.0,0.0,0.0,0.0,0.0,0.0,0.0,0.26474738,-0.010785642,-0.96428716,-0.99224854,0.054016113,0.025024414,0.015625,0.00390625,0.0146484375,4.928156,5.4810905,-0.22329627,-19.963734,0.98223877,-0.15759277,-0.24407959,-0.068359375,0.0546875,0.053710938,1.9441047,4.3305206,-57.17035,-22.194714,-0.6212158,0.01977539,0.80303955,0.0068359375,0.005859375,0.018554688,16.162287,3.3871808,-129.17618,-22.959412,0.0,0.0,0.0,0.0,0.0,0.0,0.0,-11.503811,-129.0399,-36.310356,0.0,0.0,0.0,0.0,0.0,0.0,0.0,-0.26474738,0.010785642,0.96428716,-0.9370117,-0.14434814,-0.29656982,-0.080078125,-9.765625E-4,0.038085938,1.9654298,-5.4810905,0.22329627,19.963734,1.0135498,0.002319336,-0.080322266,-0.0390625,0.11425781,0.06542969,3.9653618,-1.2434025,-56.61195,21.197203,-0.413208,0.021728516,0.9104614,0.060546875,0.02734375,-0.015625,7.627817,-1.2633405,-128.50484,25.187794,0.0,0.0,0.0,0.0,0.0,0.0,0.0,-21.071596,-129.13924,22.471703,0.0,0.0,0.0,0.0,0.0,0.0,0.0,-1.80427,44.954025,-0.9981818,
0.6835937398136595,35,-0.051940918,0.80688477,0.47009277,-0.041992188,-0.0126953125,0.030273438,0.0,0.0,0.0,0.0,0.0,0.0,0.0,0.0,0.0,0.0,0.0,0.26367018,-0.010766179,-0.9646806,-0.99328613,0.054016113,0.027038574,0.034179688,0.041015625,0.034179688,4.982007,5.4587893,-0.22289331,-19.971878,0.9569092,-0.16156006,-0.2189331,-0.03125,0.03515625,0.036132812,1.9455135,4.234355,-57.170425,-22.196587,-0.61535645,0.00982666,0.7921753,0.0068359375,0.005859375,0.0,16.266747,3.1988554,-129.1717,-22.94945,0.0,0.0,0.0,0.0,0.0,0.0,0.0,-11.706259,-129.02858,-36.28337,0.0,0.0,0.0,0.0,0.0,0.0,0.0,-0.26367018,0.010766179,0.9646806,-0.98706055,-0.1329956,-0.28173828,-0.00390625,-0.0234375,0.057617188,1.8371755,-5.4587893,0.22289331,19.971878,0.9702759,0.027954102,-0.05987549,0.038085938,0.057617188,0.045898438,4.008096,-1.3387713,-56.617966,21.266483,-0.42529297,0.06188965,0.9104614,0.041015625,0.02734375,0.022460938,7.88914,-1.5072505,-128.50397,25.449347,0.0,0.0,0.0,0.0,0.0,0.0,0.0,-21.315483,-129.1376,22.743557,0.0,0.0,0.0,0.0,0.0,0.0,0.0,-1.8122787,44.95799,-0.99708605,
0.7031249895226211,36,-0.044128418,0.8234253,0.45507812,-0.0625,-0.030273438,0.048828125,0.0,0.0,0.0,0.0,0.0,0.0,0.0,0.0,0.0,0.0,0.0,0.25558743,-0.01733863,-0.9636577,-0.98724365,0.032714844,0.01373291,-0.022460938,0.022460938,0.033203125,4.349921,5.2914524,-0.35896337,-19.950699,0.9882202,-0.16479492,-0.2232666,-0.03125,0.0546875,0.03515625,1.928438,3.9930391,-57.307404,-22.13477,-0.6026001,-0.009216309,0.78430176,0.0068359375,-0.0126953125,0.0,16.35499,2.8762374,-129.3059,-22.871042,0.0,0.0,0.0,0.0,0.0,0.0,0.0,-12.030487,-129.16605,-36.20355,0.0,0.0,0.0,0.0,0.0,0.0,0.0,-0.25558743,0.01733863,0.9636577,-0.94866943,-0.18890381,-0.2654419,-0.08105469,-0.15722656,0.017578125,2.7391686,-5.2914524,0.35896337,19.950699,0.99768066,0.014526367,-0.08502197,-0.056640625,-0.08886719,0.10546875,3.7939537,-1.3713937,-56.49115,21.493416,-0.42236328,0.018066406,0.89178467,0.021484375,0.0087890625,0.0029296875,8.017019,-1.6120063,-128.37651,25.763603,0.0,0.0,0.0,0.0,0.0,0.0,0.0,-21.4202,-129.01678,23.061506,0.0,0.0,0.0,0.0,0.0,0.0,0.0,-0.9486087,44.848183,-1.058528,
0.7226562392315828,37,-0.07873535,0.83117676,0.43518066,-0.0234375,-0.03125,0.047851562,0.0,0.0,0.0,0.0,0.0,0.0,0.0,0.0,0.0,0.0,0.0,0.2525597,-0.018393043,-0.966948,-0.9838257,0.08319092,0.016601562,-0.059570312,0.060546875,-0.00390625,4.318742,5.228768,-0.38079304,-20.01882,0.97332764,-0.15338135,-0.22607422,-0.049804688,0.03515625,0.0546875,1.9501354,3.8884974,-57.32773,-22.215921,-0.6078491,0.038085938,0.8069458,-0.01171875,-0.01171875,0.018554688,16.398315,2.712562,-129.3269,-22.928003,0.0,0.0,0.0,0.0,0.0,0.0,0.0,-12.203222,-129.18005,-36.250908,0.0,0.0,0.0,0.0,0.0,0.0,0.0,-0.2525597,0.018393043,0.966948,-0.94818115,-0.15344238,-0.27600098,-0.1953125,-0.13476562,-0.022460938,2.6535792,-5.228768,0.38079304,20.01882,1.0288696,-0.05279541,-0.0960083,-0.21191406,-0.03125,0.125,3.6031532,-1.5488889,-56.483063,21.726402,-0.4130249,0.045837402,0.8946533,-0.016601562,0.009765625,0.022460938,8.364311,-1.9307828,-128.36267,25.999104,0.0,0.0,0.0,0.0,0.0,0.0,0.0,-21.74306,-128.99283,23.317783,0.0,0.0,0.0,0.0,0.0,0.0,0.0,-0.8403864,44.959343,-1.0747081,
0.7421874889405445,38,-0.06512451,0.82611084,0.4696045,0.017578125,0.005859375,0.083984375,0.0,0.0,0.0,0.0,0.0,0.0,0.0,0.0,0.0,0.0,0.0,0.25130132,-0.019173486,-0.9676335,-0.9902954,0.046203613,0.022888184,-0.13574219,0.09765625,0.034179688,4.3577485,5.2027154,-0.39695057,-20.033014,0.9769287,-0.16918945,-0.22912598,-0.06933594,0.036132812,0.034179688,1.9198945,3.8486075,-57.343586,-22.230598,-0.5986328,-0.010437012,0.7991333,0.0068359375,0.0234375,0.0,16.495872,2.6010501,-129.34009,-22.949482,0.0,0.0,0.0,0.0,0.0,0.0,0.0,-12.3140135,-129.18877,-36.27076,0.0,0.0,0.0,0.0,0.0,0.0,0.0,-0.25130132,0.019173486,0.9676335,-0.9130249,-0.15447998,-0.29864502,0.015625,-0.00390625,0.037109375,2.5798988,-5.2027154,0.39695057,20.033014,1.0229492,-0.03186035,-0.1671753,-0.056640625,-0.08886719,0.10546875,3.467635,-1.6163929,-56.466713,21.862696,-0.42138672,0.04949951,0.9468994,-0.016601562,0.029296875,0.00390625,8.612218,-2.0802574,-128.35573,25.968006,0.0,0.0,0.0,0.0,0.0,0.0,0.0,-21.892376,-128.98563,23.304523,0.0,0.0,0.0,0.0,0.0,0.0,0.0,-0.8350777,44.97488,-1.108045,
0.7617187386495062,39,-0.025756836,0.8399658,0.4736328,-0.041992188,-0.01171875,0.08496094,0.0,0.0,0.0,0.0,0.0,0.0,0.0,0.0,0.0,0.0,0.0,0.25087827,-0.021423778,-0.9678297,-0.9923096,0.04425049,0.025878906,-0.15429688,0.07910156,0.034179688,4.4368987,5.1939573,-0.44353864,-20.037075,0.97161865,-0.17675781,-0.23706055,-0.051757812,-0.059570312,0.036132812,1.8339771,3.8956437,-57.39243,-22.201618,-0.61206055,0.026489258,0.79016113,0.026367188,0.0048828125,0.0,16.629105,2.5995264,-129.38525,-22.926838,0.0,0.0,0.0,0.0,0.0,0.0,0.0,-12.3089485,-129.23006,-36.256935,0.0,0.0,0.0,0.0,0.0,0.0,0.0,-0.25087827,0.021423778,0.9678297,-0.918396,-0.10662842,-0.33172607,0.111328125,-0.026367188,0.036132812,2.5191717,-5.1939573,0.44353864,20.037075,0.9923706,-0.017456055,-0.15478516,0.020507812,-0.09082031,0.047851562,3.3615012,-1.6143627,-56.423195,21.877708,-0.41522217,0.037719727,0.91534424,-0.016601562,0.009765625,0.00390625,8.584671,-2.0051596,-128.31978,25.851105,0.0,0.0,0.0,0.0,0.0,0.0,0.0,-21.816633,-128.95026,23.202644,0.0,0.0,0.0,0.0,0.0,0.0,0.0,-0.8629762,44.9773,-1.2193112,
0.7812499883584679,40,-0.04058838,0.81365967,0.49072266,-0.0234375,-0.049804688,0.08496094,0.0,0.0,0.0,0.0,0.0,0.0,0.0,0.0,0.0,0.0,0.0,0.25066075,-0.022734957,-0.9679049,-0.9904175,0.03729248,0.034729004,-0.15429688,0.11621094,0.053710938,4.503761,5.189454,-0.4706841,-20.038633,0.95562744,-0.16931152,-0.22894287,-0.0126953125,-0.0029296875,0.036132812,1.7705623,3.9646547,-57.418625,-22.208073,-0.61364746,-0.006958008,0.7892456,0.0068359375,0.0234375,0.0,16.796455,2.6283123,-129.413,-22.947554,0.0,0.0,0.0,0.0,0.0,0.0,0.0,-12.267843,-129.26056,-36.29087,0.0,0.0,0.0,0.0,0.0,0.0,0.0,-0.25066075,0.022734957,0.9679049,-0.92004395,-0.080566406,-0.3560791,-0.080078125,-9.765625E-4,0.05859375,2.4675171,-5.189454,0.4706841,20.038633,1.0061035,0.0072631836,-0.1809082,-0.19238281,-0.049804688,0.06933594,3.238275,-1.5978651,-56.396423,21.79258,-0.41815186,0.047851562,0.9025879,-0.036132812,-0.0087890625,0.041015625,8.477855,-1.7794702,-128.30067,25.717493,0.0,0.0,0.0,0.0,0.0,0.0,0.0,-21.591436,-128.933,23.066208,0.0,0.0,0.0,0.0,0.0,0.0,0.0,-0.9014972,44.976696,-1.2899129,
0.8007812380674296,41,-0.04449463,0.79193115,0.49365234,0.09667969,0.041992188,0.045898438,0.0,0.0,0.0,0.0,0.0,0.0,0.0,0.0,0.0,0.0,0.0,0.24926168,-0.022767283,-0.9682606,-1.0063477,0.060180664,0.016174316,-0.09765625,0.1171875,0.053710938,4.472645,5.160489,-0.4713533,-20.045994,0.95202637,-0.15142822,-0.2487793,-0.032226562,-0.0029296875,0.036132812,1.7109787,3.9881382,-57.424835,-22.213675,-0.62249756,0.005065918,0.8060303,0.0068359375,0.0234375,0.0,16.788404,2.6281128,-129.41995,-22.983973,0.0,0.0,0.0,0.0,0.0,0.0,0.0,-12.270507,-129.2719,-36.323635,0.0,0.0,0.0,0.0,0.0,0.0,0.0,-0.24926168,0.022767283,0.9682606,-0.9066162,-0.12384033,-0.31610107,-0.060546875,0.017578125,-0.0029296875,2.4416013,-5.160489,0.4713533,20.045994,0.99957275,-0.021606445,-0.20233154,-0.26953125,-0.06738281,0.08886719,3.1171548,-1.5945683,-56.39799,21.749249,-0.4029541,0.02154541,0.90649414,-0.0546875,0.0107421875,0.00390625,8.653194,-1.6954343,-128.30669,25.486134,0.0,0.0,0.0,0.0,0.0,0.0,0.0,-21.509579,-128.94011,22.850365,0.0,0.0,0.0,0.0,0.0,0.0,0.0,-0.8999787,44.97654,-1.2892435,
0.8203124877763913,42,-0.03277588,0.8282471,0.4727173,0.09472656,-0.034179688,0.045898438,0.0,0.0,0.0,0.0,0.0,0.0,0.0,0.0,0.0,0.0,0.0,0.24830687,-0.023619317,-0.96849734,-1.0054932,0.03112793,0.0076904297,-0.060546875,0.07910156,0.053710938,4.4005957,5.140722,-0.48899308,-20.050898,0.9725952,-0.14147949,-0.24493408,-0.032226562,-0.0029296875,0.036132812,1.659418,4.0274277,-57.44092,-22.187382,-0.59350586,-0.006591797,0.7862549,-0.01171875,0.005859375,0.018554688,16.781013,2.6683242,-129.43365,-22.95024,0.0,0.0,0.0,0.0,0.0,0.0,0.0,-12.23022,-129.28606,-36.28993,0.0,0.0,0.0,0.0,0.0,0.0,0.0,-0.24830687,0.023619317,0.96849734,-0.9100952,-0.16046143,-0.3380127,-0.11816406,0.0,0.017578125,2.5023327,-5.140722,0.48899308,20.050898,0.99542236,-0.05645752,-0.19604492,9.765625E-4,-0.016601562,0.046875,3.03738,-1.5910809,-56.384098,21.71754,-0.42547607,0.035827637,0.91937256,-0.0546875,0.0107421875,0.00390625,8.681545,-1.6669117,-128.304,25.251873,0.0,0.0,0.0,0.0,0.0,0.0,0.0,-21.483376,-128.93338,22.625057,0.0,0.0,0.0,0.0,0.0,0.0,0.0,-0.83851403,44.97759,-1.3118763,
0.839843737485353,43,-0.056518555,0.7922363,0.4979248,0.018554688,0.043945312,0.06640625,0.0,0.0,0.0,0.0,0.0,0.0,0.0,0.0,0.0,0.0,0.0,0.24963439,-0.022556065,-0.9681657,-0.9800415,0.03186035,-2.4414062E-4,-0.022460938,0.09863281,0.034179688,4.3259015,5.1682053,-0.46698052,-20.044033,0.9741211,-0.122924805,-0.24285889,-0.06933594,-0.001953125,0.053710938,1.6373358,4.089595,-57.420563,-22.140081,-0.6086426,-0.010009766,0.78234863,0.026367188,0.0048828125,-0.018554688,16.755978,2.7535787,-129.41644,-22.873579,0.0,0.0,0.0,0.0,0.0,0.0,0.0,-12.141514,-129.27196,-36.219288,0.0,0.0,0.0,0.0,0.0,0.0,0.0,-0.24963439,0.022556065,0.9681657,-0.9313965,-0.17828369,-0.3538208,-0.13769531,0.01953125,0.0390625,2.4650571,-5.1682053,0.46698052,20.044033,1.0082397,0.018249512,-0.17608643,0.09667969,-0.017578125,0.0087890625,2.9962397,-1.6138473,-56.406532,21.67705,-0.4019165,0.017578125,0.8985596,-0.0546875,0.0107421875,0.041992188,8.585014,-1.6507901,-128.33954,25.106611,0.0,0.0,0.0,0.0,0.0,0.0,0.0,-21.469578,-128.96991,22.482632,0.0,0.0,0.0,0.0,0.0,0.0,0.0,-0.8716397,44.9774,-1.2726173,
0.8593749871943147,44,-0.0847168,0.7821045,0.4996338,0.017578125,0.025390625,0.06640625,0.0,0.0,0.0,0.0,0.0,0.0,0.0,0.0,0.0,0.0,0.0,0.24976724,-0.021361982,-0.96820277,-0.98779297,0.070007324,-0.003540039,0.034179688,0.060546875,0.034179688,4.299835,5.1709557,-0.44225928,-20.044798,0.9642334,-0.14697266,-0.2658081,-0.14453125,-9.765625E-4,0.07128906,1.6823738,4.120325,-57.39673,-22.148073,-0.6086426,-0.004272461,0.81396484,-0.01171875,0.0234375,-0.01953125,16.774908,2.8492813,-129.39684,-22.843014,0.0,0.0,0.0,0.0,0.0,0.0,0.0,-12.04987,-129.25645,-36.185146,0.0,0.0,0.0,0.0,0.0,0.0,0.0,-0.24976724,0.021361982,0.96820277,-0.9130249,-0.2267456,-0.3453369,-0.00390625,0.0546875,0.057617188,2.4948123,-5.1709557,0.44225928,20.044798,0.9998169,0.014343262,-0.20452881,-0.038085938,-0.015625,0.06640625,2.951345,-1.5335276,-56.42268,21.747572,-0.413208,0.01184082,0.89764404,-0.03515625,0.0107421875,0.00390625,8.234733,-1.4486111,-128.35666,25.140163,0.0,0.0,0.0,0.0,0.0,0.0,0.0,-21.270678,-128.99236,22.52084,0.0,0.0,0.0,0.0,0.0,0.0,0.0,-0.9174415,44.979633,-1.2290823,
0.8789062369032764,45,-0.075805664,0.8086548,0.4946289,0.016601562,-0.013671875,0.047851562,0.0,0.0,0.0,0.0,0.0,0.0,0.0,0.0,0.0,0.0,0.0,0.24999505,-0.020587204,-0.96810526,-0.989563,0.087768555,-0.018188477,-0.00390625,0.041015625,0.052734375,4.343523,5.175673,-0.42621896,-20.042782,0.963562,-0.1694336,-0.27783203,-0.12597656,-9.765625E-4,0.052734375,1.733478,4.1501303,-57.37788,-22.198763,-0.5844116,-0.0048217773,0.7753906,0.0068359375,0.005859375,0.018554688,16.805908,2.9644456,-129.37717,-22.91809,0.0,0.0,0.0,0.0,0.0,0.0,0.0,-11.935598,-129.23975,-36.25875,0.0,0.0,0.0,0.0,0.0,0.0,0.0,-0.24999505,0.020587204,0.96810526,-0.90405273,-0.15802002,-0.36254883,0.034179688,0.07324219,0.057617188,2.533196,-5.175673,0.42621896,20.042782,1.0122681,0.022155762,-0.1751709,-0.15429688,0.041992188,0.10546875,2.9902227,-1.4342418,-56.432865,21.742199,-0.4019165,0.017578125,0.90252686,-0.016601562,0.009765625,0.00390625,8.147386,-1.2604426,-128.36375,25.15435,0.0,0.0,0.0,0.0,0.0,0.0,0.0,-21.082697,-129.00052,22.55524,0.0,0.0,0.0,0.0,0.0,0.0,0.0,-0.970701,44.97669,-1.2071154,
0.8984374866122381,46,-0.052368164,0.80914307,0.51190186,-0.021484375,0.025390625,0.048828125,0.0,0.0,0.0,0.0,0.0,0.0,0.0,0.0,0.0,0.0,0.0,0.25374946,-0.02021367,-0.9670951,-0.9987793,0.07055664,-0.02746582,-0.041015625,0.022460938,0.033203125,4.4303603,5.2534,-0.4184856,-20.021866,0.9758911,-0.16204834,-0.28289795,-0.0126953125,-0.0029296875,0.055664062,1.7265776,4.2775874,-57.372005,-22.235254,-0.59332275,0.0051879883,0.80303955,0.0068359375,0.005859375,0.0,16.764622,3.133846,-129.3714,-23.026033,0.0,0.0,0.0,0.0,0.0,0.0,0.0,-11.769396,-129.23282,-36.363792,0.0,0.0,0.0,0.0,0.0,0.0,0.0,-0.25374946,0.02021367,0.9670951,-0.9039917,-0.15356445,-0.34387207,0.053710938,0.09277344,0.037109375,2.4827795,-5.2534,0.4184856,20.021866,1.0079346,0.010253906,-0.19281006,-0.095703125,0.022460938,0.10449219,3.016815,-1.4561903,-56.44057,21.683708,-0.41522217,0.025756836,0.90649414,0.001953125,0.009765625,0.022460938,8.171617,-1.2541957,-128.37929,25.027597,0.0,0.0,0.0,0.0,0.0,0.0,0.0,-21.078636,-129.01518,22.439344,0.0,0.0,0.0,0.0,0.0,0.0,0.0,-1.0519844,44.972843,-1.2160196,
0.9179687363211998,47,-0.051940918,0.77648926,0.53552246,-9.765625E-4,0.044921875,0.08496094,0.0,0.0,0.0,0.0,0.0,0.0,0.0,0.0,0.0,0.0,0.0,0.25717977,-0.020347526,-0.9662302,-0.9844971,0.083862305,-0.020263672,-0.041015625,0.07910156,0.053710938,4.559004,5.324418,-0.42125684,-20.00396,0.9572754,-0.14276123,-0.25775146,-0.0126953125,0.03515625,0.036132812,1.7430475,4.412624,-57.369873,-22.288216,-0.5946045,-0.011474609,0.795166,0.026367188,-0.0126953125,0.01953125,16.643824,3.3286762,-129.36496,-23.134884,0.0,0.0,0.0,0.0,0.0,0.0,0.0,-11.5779,-129.23016,-36.469,0.0,0.0,0.0,0.0,0.0,0.0,0.0,-0.25717977,0.020347526,0.9662302,-0.9249878,-0.14868164,-0.3673706,0.015625,0.07421875,-0.00390625,2.3689337,-5.324418,0.42125684,20.00396,0.98046875,-0.0072631836,-0.15661621,-0.07714844,0.041015625,0.123046875,3.0679054,-1.5191033,-56.4344,21.616776,-0.425354,0.058776855,0.9242554,-0.016601562,0.009765625,0.00390625,8.132698,-1.3934027,-128.36821,24.837599,0.0,0.0,0.0,0.0,0.0,0.0,0.0,-21.215837,-129.00371,22.259188,0.0,0.0,0.0,0.0,0.0,0.0,0.0,-1.1457082,44.971504,-1.2519913,
0.9374999860301615,48,-0.06341553,0.7845459,0.50701904,0.038085938,0.04296875,0.047851562,0.0,0.0,0.0,0.0,0.0,0.0,0.0,0.0,0.0,0.0,0.0,0.2599433,-0.019804908,-0.9655244,-0.9998169,0.057006836,-0.033691406,-0.060546875,0.021484375,0.033203125,4.606151,5.3816323,-0.41002294,-19.989347,0.95721436,-0.14569092,-0.2647705,0.0068359375,0.015625,0.055664062,1.728277,4.537134,-57.358017,-22.307022,-0.6092529,0.01361084,0.7891846,-0.01171875,0.005859375,0.0,16.603798,3.4824028,-129.35895,-23.189342,0.0,0.0,0.0,0.0,0.0,0.0,0.0,-11.414369,-129.22314,-36.53292,0.0,0.0,0.0,0.0,0.0,0.0,0.0,-0.2599433,0.019804908,0.9655244,-0.9263916,-0.10180664,-0.3237915,-0.080078125,-9.765625E-4,0.017578125,2.2453303,-5.3816323,0.41002294,19.989347,0.9885254,-0.009399414,-0.14782715,-0.07714844,0.041015625,0.10449219,3.0748527,-1.5973358,-56.45056,21.565632,-0.45819092,0.046569824,0.9105835,-0.016601562,0.009765625,0.00390625,8.230654,-1.5359867,-128.40012,24.644346,0.0,0.0,0.0,0.0,0.0,0.0,0.0,-21.357195,-129.04218,22.054092,0.0,0.0,0.0,0.0,0.0,0.0,0.0,-1.225877,44.970364,-1.2524722,
0.9570312357391232,49,-0.08074951,0.7789917,0.49450684,0.05859375,0.08105469,0.046875,0.0,0.0,0.0,0.0,0.0,0.0,0.0,0.0,0.0,0.0,0.0,0.26358327,-0.018979708,-0.96448076,-0.9798584,0.05706787,0.0051879883,-0.060546875,0.0029296875,0.033203125,4.60513,5.456991,-0.39293882,-19.967741,0.95684814,-0.16046143,-0.2388916,-0.0126953125,0.016601562,0.036132812,1.6963905,4.6192265,-57.341537,-22.258001,-0.6000366,0.02319336,0.78222656,0.0068359375,0.005859375,0.018554688,16.61583,3.5653908,-129.33795,-23.147442,0.0,0.0,0.0,0.0,0.0,0.0,0.0,-11.331529,-129.19708,-36.48941,0.0,0.0,0.0,0.0,0.0,0.0,0.0,-0.26358327,0.018979708,0.96448076,-0.9465332,-0.10687256,-0.3414917,-0.17578125,-0.037109375,0.018554688,2.0960183,-5.456991,0.39293882,19.967741,0.9807129,0.006713867,-0.14880371,-0.01953125,0.040039062,0.06542969,3.02498,-1.7442193,-56.473747,21.427414,-0.42962646,0.026916504,0.92529297,-0.016601562,0.009765625,-0.015625,8.201691,-1.6890893,-128.41942,24.422853,0.0,0.0,0.0,0.0,0.0,0.0,0.0,-21.509779,-129.06665,21.833961,0.0,0.0,0.0,0.0,0.0,0.0,0.0,-1.2885815,44.96587,-1.237026,
0.9765624854480849,50,-0.09350586,0.7615967,0.5175781,0.038085938,0.04296875,0.047851562,0.0,0.0,0.0,0.0,0.0,0.0,0.0,0.0,0.0,0.0,0.0,0.26883167,-0.017073877,-0.96307594,-1.0040283,0.061584473,-0.0126953125,-0.060546875,-0.03515625,0.013671875,4.623681,5.5656486,-0.35348216,-19.938658,0.9562988,-0.14575195,-0.2368164,-0.03125,0.03515625,0.036132812,1.71589,4.699928,-57.308903,-22.21623,-0.5969238,0.030883789,0.8039551,0.0068359375,0.005859375,0.0,16.688824,3.6522872,-129.31041,-23.084301,0.0,0.0,0.0,0.0,0.0,0.0,0.0,-11.233854,-129.17017,-36.438786,0.0,0.0,0.0,0.0,0.0,0.0,0.0,-0.26883167,0.017073877,0.96307594,-0.9393921,-0.171875,-0.32824707,-0.099609375,-9.765625E-4,0.017578125,1.9636368,-5.5656486,0.35348216,19.938658,1.0002441,0.002380371,-0.171875,-0.07714844,0.00390625,0.06640625,3.0482526,-1.858237,-56.514286,21.372974,-0.4060669,0.02746582,0.9222412,0.001953125,-0.009765625,0.00390625,8.209157,-1.8529503,-128.4716,24.291027,0.0,0.0,0.0,0.0,0.0,0.0,0.0,-21.672153,-129.12065,21.704002,0.0,0.0,0.0,0.0,0.0,0.0,0.0,-1.3871388,44.96476,-1.1843611,
0.9960937351570466,51,-0.11090088,0.76885986,0.50115967,-0.08105469,0.0087890625,0.0859375,0.0,0.0,0.0,0.0,0.0,0.0,0.0,0.0,0.0,0.0,0.0,0.27327308,-0.014936157,-0.961856,-1.0112915,0.0546875,1.2207031E-4,-0.00390625,-0.111328125,0.013671875,4.624571,5.657601,-0.30922472,-19.913403,0.97106934,-0.1560669,-0.2689209,-0.16308594,0.017578125,0.0703125,1.7530115,4.750028,-57.264347,-22.164707,-0.60821533,0.01361084,0.7783203,0.0068359375,0.005859375,0.0,16.737286,3.7451162,-129.26657,-23.001698,0.0,0.0,0.0,0.0,0.0,0.0,0.0,-11.141831,-129.12033,-36.35691,0.0,0.0,0.0,0.0,0.0,0.0,0.0,-0.27327308,0.014936157,0.961856,-0.9229126,-0.1430664,-0.3585205,-0.041992188,-0.080078125,0.037109375,1.8541411,-5.657601,0.30922472,19.913403,1.0119019,0.0021972656,-0.18688965,0.0390625,0.020507812,0.06542969,2.9989824,-1.9463246,-56.55866,21.389406,-0.425354,0.0390625,0.89868164,-0.016601562,0.009765625,0.00390625,8.197812,-1.898715,-128.51324,24.262383,0.0,0.0,0.0,0.0,0.0,0.0,0.0,-21.71669,-129.1702,21.660692,0.0,0.0,0.0,0.0,0.0,0.0,0.0,-1.4759787,44.963436,-1.1175543,
1.0156249848660084,52,-0.07611084,0.8413696,0.4829712,-0.17773438,0.05078125,0.14355469,0.0,0.0,0.0,0.0,0.0,0.0,0.0,0.0,0.0,0.0,0.0,0.27449915,-0.013809137,-0.96171594,-1.0117798,0.09020996,-0.030151367,0.034179688,-0.16796875,-0.0068359375,4.828522,5.6829834,-0.28589195,-19.910501,0.9663696,-0.17736816,-0.2849121,-0.14453125,0.037109375,0.0703125,1.8636165,4.6578293,-57.238575,-22.192436,-0.59503174,0.021057129,0.7852173,0.0078125,-0.030273438,0.01953125,16.834538,3.7393384,-129.24156,-23.05785,0.0,0.0,0.0,0.0,0.0,0.0,0.0,-11.14691,-129.085,-36.412132,0.0,0.0,0.0,0.0,0.0,0.0,0.0,-0.27449915,0.013809137,0.96171594,-0.9121704,-0.16851807,-0.40881348,-0.13769531,-0.1171875,0.017578125,1.6548121,-5.6829834,0.28589195,19.910501,0.9995117,0.014282227,-0.22424316,0.0,0.020507812,0.06542969,2.8808596,-1.9949968,-56.577957,21.495323,-0.40911865,0.023620605,0.9143677,-0.016601562,0.009765625,0.022460938,7.9420843,-1.8642106,-128.533,24.33743,0.0,0.0,0.0,0.0,0.0,0.0,0.0,-21.683538,-129.18626,21.741898,0.0,0.0,0.0,0.0,0.0,0.0,0.0,-1.6216462,44.966972,-1.1085348,
1.03515623457497,53,-0.020874023,0.84472656,0.46362305,-0.33496094,0.0546875,0.16503906,0.0,0.0,0.0,0.0,0.0,0.0,0.0,0.0,0.0,0.0,0.0,0.2740888,-0.013810463,-0.9617167,-0.96154785,0.12402344,-0.059387207,0.0146484375,-0.1484375,-0.025390625,5.218193,5.6744876,-0.28591937,-19.910517,0.9483032,-0.16870117,-0.3106079,0.0068359375,0.053710938,0.036132812,1.940578,4.582387,-57.23205,-22.28171,-0.6029053,0.030151367,0.78912354,0.0068359375,-0.0126953125,0.018554688,16.751167,3.7423851,-129.23232,-23.266012,0.0,0.0,0.0,0.0,0.0,0.0,0.0,-11.137311,-129.06956,-36.62831,0.0,0.0,0.0,0.0,0.0,0.0,0.0,-0.2740888,0.013810463,0.9617167,-0.8740845,-0.17315674,-0.36761475,0.034179688,-0.043945312,0.016601562,1.3959166,-5.6744876,0.28591937,19.910517,0.9795532,0.010620117,-0.22381592,-0.057617188,0.05859375,0.103515625,2.8405554,-1.9196327,-56.574825,21.508472,-0.40081787,0.034484863,0.9064331,0.0029296875,0.009765625,0.00390625,7.6996226,-1.6842058,-128.53075,24.2072,0.0,0.0,0.0,0.0,0.0,0.0,0.0,-21.498636,-129.18723,21.594624,0.0,0.0,0.0,0.0,0.0,0.0,0.0,-1.8725665,44.950386,-1.179178,
1.0546874842839318,54,0.010498047,0.8339844,0.46569824,-0.17871094,0.030273438,0.107421875,0.0,0.0,0.0,0.0,0.0,0.0,0.0,0.0,0.0,0.0,0.0,0.27447784,-0.015304172,-0.9616028,-0.9463501,0.1295166,-0.049316406,-0.13574219,-0.03515625,0.013671875,5.588932,5.6825414,-0.31684378,-19.90816,0.9581909,-0.14068604,-0.3106079,0.13867188,0.07128906,0.001953125,1.9973339,4.682516,-57.259247,-22.428871,-0.61834717,0.007019043,0.7803345,-0.01171875,-0.030273438,0.0,16.463524,3.967282,-129.2597,-23.524282,0.0,0.0,0.0,0.0,0.0,0.0,0.0,-10.90185,-129.0979,-36.896767,0.0,0.0,0.0,0.0,0.0,0.0,0.0,-0.27447784,0.015304172,0.9616028,-0.90722656,-0.17175293,-0.3587036,-0.00390625,-0.0234375,-0.024414062,1.1958312,-5.6825414,0.31684378,19.90816,0.991272,-0.03149414,-0.21984863,-0.07714844,0.078125,0.08496094,2.987865,-1.8421068,-56.53926,21.458408,-0.3864746,0.03717041,0.90838623,0.001953125,0.009765625,0.022460938,7.55102,-1.69021,-128.5086,24.071836,0.0,0.0,0.0,0.0,0.0,0.0,0.0,-21.506021,-129.15942,21.460752,0.0,0.0,0.0,0.0,0.0,0.0,0.0,-2.0983264,44.937523,-1.3141346,
1.0742187339928935,55,-0.019958496,0.803833,0.44232178,-0.020507812,0.064453125,0.0859375,0.0,0.0,0.0,0.0,0.0,0.0,0.0,0.0,0.0,0.0,0.0,0.27401924,-0.017258137,-0.9615745,-0.9920044,0.044921875,-0.012939453,-0.2109375,0.059570312,0.034179688,5.7559533,5.673049,-0.3572969,-19.907574,0.9550171,-0.15045166,-0.27471924,0.08203125,0.091796875,0.01953125,1.9765509,4.6976047,-57.292305,-22.470623,-0.61450195,0.0,0.7833252,0.0078125,-0.030273438,0.01953125,16.187334,3.9327424,-129.28813,-23.597822,0.0,0.0,0.0,0.0,0.0,0.0,0.0,-10.933095,-129.12439,-36.97471,0.0,0.0,0.0,0.0,0.0,0.0,0.0,-0.27401924,0.017258137,0.9615745,-0.8985596,-0.12731934,-0.34069824,-0.13769531,0.01953125,0.018554688,1.1489289,-5.673049,0.3572969,19.907574,1.0142822,1.2207031E-4,-0.22741699,-0.078125,0.115234375,0.06542969,3.03738,-1.8473971,-56.50182,21.383938,-0.42132568,0.037841797,0.911438,0.021484375,0.0087890625,-0.015625,7.3286033,-1.7605927,-128.46977,23.997278,0.0,0.0,0.0,0.0,0.0,0.0,0.0,-21.57943,-129.1175,21.407875,0.0,0.0,0.0,0.0,0.0,0.0,0.0,-2.1554234,44.926117,-1.4205542,
1.0937499837018552,56,-0.043762207,0.7967529,0.47277832,-0.057617188,0.10253906,0.049804688,0.0,0.0,0.0,0.0,0.0,0.0,0.0,0.0,0.0,0.0,0.0,0.27403894,-0.0174442,-0.9615481,-1.0047607,0.017150879,0.027404785,-0.07910156,0.059570312,0.052734375,5.695639,5.673455,-0.361149,-19.907026,0.97991943,-0.13000488,-0.25793457,0.064453125,0.11035156,0.038085938,1.910903,4.655282,-57.30529,-22.39059,-0.59851074,-0.0064086914,0.78131104,-0.01171875,-0.01171875,0.0,16.10978,3.7274036,-129.3081,-23.443413,0.0,0.0,0.0,0.0,0.0,0.0,0.0,-11.127686,-129.1468,-36.83358,0.0,0.0,0.0,0.0,0.0,0.0,0.0,-0.27403894,0.0174442,0.9615481,-0.8991699,-0.095458984,-0.36309814,0.07324219,0.091796875,0.036132812,1.2381206,-5.673455,0.361149,19.907026,0.9819946,-0.015319824,-0.1842041,-0.078125,0.17089844,0.064453125,3.1402438,-1.8391373,-56.501263,21.254538,-0.41918945,0.022155762,0.87597656,0.021484375,0.0087890625,0.0029296875,7.3240237,-1.8200288,-128.45737,23.947365,0.0,0.0,0.0,0.0,0.0,0.0,0.0,-21.637985,-129.11028,21.354126,0.0,0.0,0.0,0.0,0.0,0.0,0.0,-2.1229455,44.926926,-1.4200891,
1.1132812334108169,57,-0.090026855,0.7850952,0.4798584,-0.19628906,0.068359375,0.07128906,0.0,0.0,0.0,0.0,0.0,0.0,0.0,0.0,0.0,0.0,0.0,0.2733507,-0.014423825,-0.9617758,-0.99157715,0.032226562,0.046569824,-0.00390625,-0.03515625,0.033203125,5.6781316,5.6592064,-0.29861787,-19.91174,0.9655762,-0.14129639,-0.22094727,-0.047851562,0.15039062,0.052734375,1.8618304,4.537463,-57.2411,-22.320757,-0.6286011,-6.1035156E-4,0.79125977,0.026367188,-0.03125,9.765625E-4,16.234015,3.3728714,-129.23701,-23.28065,0.0,0.0,0.0,0.0,0.0,0.0,0.0,-11.4797125,-129.06947,-36.67369,0.0,0.0,0.0,0.0,0.0,0.0,0.0,-0.2733507,0.014423825,0.9617758,-0.901062,-0.088256836,-0.33746338,-0.080078125,0.07714844,-0.0029296875,1.1721972,-5.6592064,0.29861787,19.91174,0.986145,-0.044311523,-0.15545654,-0.0390625,0.11425781,0.06542969,3.3429875,-1.798213,-56.565315,21.072653,-0.40093994,0.018493652,0.90545654,0.001953125,0.009765625,0.022460938,7.4267936,-1.8994355,-128.51643,23.913734,0.0,0.0,0.0,0.0,0.0,0.0,0.0,-21.716064,-129.16971,21.312498,0.0,0.0,0.0,0.0,0.0,0.0,0.0,-2.2131903,44.925335,-1.3027697,
1.1328124831197786,58,-0.06768799,0.80444336,0.4963379,-0.19628906,0.068359375,0.07128906,0.0,0.0,0.0,0.0,0.0,0.0,0.0,0.0,0.0,0.0,0.0,0.2719549,-0.012084334,-0.9622141,-0.9875488,0.05041504,0.061828613,0.034179688,-0.072265625,0.013671875,5.7965364,5.630309,-0.25018314,-19.920815,0.9696045,-0.14453125,-0.19708252,0.0068359375,0.091796875,0.036132812,1.8456779,4.3634577,-57.189007,-22.268608,-0.6151123,0.018798828,0.774353,0.0078125,-0.06640625,0.01953125,16.481674,2.98346,-129.18555,-23.152214,0.0,0.0,0.0,0.0,0.0,0.0,0.0,-11.863335,-129.01338,-36.551044,0.0,0.0,0.0,0.0,0.0,0.0,0.0,-0.2719549,0.012084334,0.9622141,-0.9203491,-0.10223389,-0.31103516,-0.42382812,0.0087890625,9.765625E-4,0.93251216,-5.630309,0.25018314,19.920815,1.006958,-0.03363037,-0.16680908,-9.765625E-4,0.16894531,0.044921875,3.4110506,-1.8941245,-56.623936,20.946762,-0.413208,0.018737793,0.9104614,0.001953125,0.009765625,0.022460938,7.5391083,-2.1533043,-128.58145,23.86295,0.0,0.0,0.0,0.0,0.0,0.0,0.0,-21.972406,-129.2366,21.254192,0.0,0.0,0.0,0.0,0.0,0.0,0.0,-2.3483257,44.92104,-1.2278757,
1.1523437328287403,59,-0.051635742,0.78411865,0.48583984,-0.040039062,0.045898438,0.06738281,0.0,0.0,0.0,0.0,0.0,0.0,0.0,0.0,0.0,0.0,0.0,0.2709811,-0.010541659,-0.96270853,-0.9897461,0.045288086,0.07965088,0.034179688,-0.03515625,0.051757812,5.9367313,5.61015,-0.21824509,-19.931051,0.9545288,-0.14093018,-0.19494629,-0.01171875,0.07324219,0.0546875,1.8948588,4.167377,-57.155045,-22.254663,-0.5961304,0.016174316,0.7871704,0.0068359375,-0.0126953125,0.0,16.673868,2.6182055,-129.14413,-23.063774,0.0,0.0,0.0,0.0,0.0,0.0,0.0,-12.226122,-128.96342,-36.464676,0.0,0.0,0.0,0.0,0.0,0.0,0.0,-0.2709811,0.010541659,0.96270853,-0.9324951,-0.18041992,-0.26342773,-0.080078125,0.07714844,0.038085938,0.745461,-5.61015,0.21824509,19.931051,1.0003052,-0.0115356445,-0.15893555,0.037109375,0.13183594,0.026367188,3.5005095,-1.9261184,-56.661255,21.006155,-0.41314697,0.029724121,0.90948486,-0.016601562,-0.0087890625,0.00390625,7.6972775,-2.3258953,-128.60266,24.09596,0.0,0.0,0.0,0.0,0.0,0.0,0.0,-22.145115,-129.26068,21.481506,0.0,0.0,0.0,0.0,0.0,0.0,0.0,-2.421524,44.927353,-1.17356,
1.171874982537702,60,-0.073791504,0.7727661,0.48431396,-0.040039062,0.044921875,0.03125,0.0,0.0,0.0,0.0,0.0,0.0,0.0,0.0,0.0,0.0,0.0,0.26986408,-0.009755351,-0.96306443,-1.0027466,0.038146973,0.053649902,-0.00390625,-0.015625,0.033203125,5.979534,5.587022,-0.20196599,-19.93842,0.9735718,-0.14758301,-0.19714355,-0.01171875,0.053710938,0.0546875,1.9427954,3.9962714,-57.13853,-22.224092,-0.60198975,0.028137207,0.7930908,0.0078125,-0.030273438,0.0,16.919645,2.3221467,-129.12575,-22.94925,0.0,0.0,0.0,0.0,0.0,0.0,0.0,-12.512992,-128.93535,-36.361847,0.0,0.0,0.0,0.0,0.0,0.0,0.0,-0.26986408,0.009755351,0.96306443,-0.93743896,-0.17633057,-0.26635742,0.11230469,0.22753906,0.036132812,0.83180714,-5.587022,0.20196599,19.93842,1.0007935,0.014404297,-0.14135742,-9.765625E-4,0.11328125,0.064453125,3.7497752,-1.7834826,-56.667477,21.027351,-0.44592285,0.042236328,0.91741943,0.021484375,0.0087890625,-0.015625,7.741441,-2.2996411,-128.6013,24.307055,0.0,0.0,0.0,0.0,0.0,0.0,0.0,-22.118343,-129.25575,21.703392,0.0,0.0,0.0,0.0,0.0,0.0,0.0,-2.408794,44.930622,-1.1301017,
1.1914062322466636,61,-0.071777344,0.78167725,0.48632812,-0.13867188,0.029296875,0.06933594,0.0,0.0,0.0,0.0,0.0,0.0,0.0,0.0,0.0,0.0,0.0,0.26835087,-0.008700679,-0.9635068,-0.9925537,0.049621582,0.05480957,0.015625,-0.034179688,-0.0048828125,6.0662737,5.5556955,-0.1801311,-19.947578,0.9700928,-0.16314697,-0.19915771,-0.087890625,0.036132812,0.052734375,1.9623407,3.8306854,-57.117355,-22.16726,-0.6012573,0.008483887,0.77734375,0.0068359375,0.005859375,0.018554688,16.991852,2.0582585,-129.10104,-22.823994,0.0,0.0,0.0,0.0,0.0,0.0,0.0,-12.792543,-128.904,-36.219685,0.0,0.0,0.0,0.0,0.0,0.0,0.0,-0.26835087,0.008700679,0.9635068,-0.97766113,-0.17932129,-0.31549072,-0.060546875,0.115234375,0.038085938,0.84418297,-5.5556955,0.1801311,19.947578,0.9970703,-0.005432129,-0.113464355,-0.09765625,0.13378906,0.06542969,4.00966,-1.6508479,-56.682507,21.046764,-0.40905762,0.034606934,0.9094238,0.001953125,-0.009765625,-0.015625,7.926275,-2.3071795,-128.6026,24.541142,0.0,0.0,0.0,0.0,0.0,0.0,0.0,-22.12268,-129.26259,21.927992,0.0,0.0,0.0,0.0,0.0,0.0,0.0,-2.4595118,44.929264,-1.0907316,
1.2109374819556253,62,-0.06781006,0.81140137,0.49041748,-0.1015625,-0.030273438,0.013671875,0.0,0.0,0.0,0.0,0.0,0.0,0.0,0.0,0.0,0.0,0.0,0.26726052,-0.007016885,-0.96383345,-0.9750366,0.06329346,0.036193848,-0.022460938,-0.015625,0.033203125,6.190204,5.5331206,-0.14527133,-19.95434,0.94750977,-0.16687012,-0.25775146,-0.087890625,0.036132812,0.052734375,2.0011518,3.7167633,-57.078056,-22.15038,-0.6224365,0.005126953,0.7892456,0.0068359375,0.0234375,0.018554688,17.184465,1.9383194,-129.06732,-22.79418,0.0,0.0,0.0,0.0,0.0,0.0,0.0,-12.908402,-128.87204,-36.19275,0.0,0.0,0.0,0.0,0.0,0.0,0.0,-0.26726052,0.007016885,0.96383345,-0.97442627,-0.16290283,-0.30847168,0.091796875,0.051757812,0.036132812,0.6199199,-5.5331206,0.14527133,19.95434,1.0309448,6.1035156E-5,-0.11419678,-0.19335938,0.09765625,0.12402344,4.0575786,-1.6839294,-56.71672,21.169098,-0.41003418,0.038635254,0.9094238,0.0029296875,0.009765625,0.00390625,8.273388,-2.4486299,-128.62593,24.873152,0.0,0.0,0.0,0.0,0.0,0.0,0.0,-22.263264,-129.29012,22.253838,0.0,0.0,0.0,0.0,0.0,0.0,0.0,-2.5591528,44.925404,-1.0366902,
1.230468731664587,63,-0.08026123,0.80358887,0.4628296,-0.043945312,-0.06933594,0.030273438,0.0,0.0,0.0,0.0,0.0,0.0,0.0,0.0,0.0,0.0,0.0,0.26469076,-0.0058271457,-0.96436596,-0.9935303,0.032470703,0.03564453,-0.00390625,0.022460938,0.033203125,6.126375,5.47992,-0.120640025,-19.965366,0.9769287,-0.16314697,-0.27294922,-0.049804688,0.03515625,0.0546875,1.9831738,3.635097,-57.051674,-22.138407,-0.6204834,0.0021362305,0.78430176,0.0078125,-0.048828125,0.01953125,17.27136,1.864414,-129.03632,-22.81387,0.0,0.0,0.0,0.0,0.0,0.0,0.0,-12.971534,-128.84935,-36.225025,0.0,0.0,0.0,0.0,0.0,0.0,0.0,-0.26469076,0.0058271457,0.96436596,-0.9569702,-0.13500977,-0.3024292,0.26464844,0.0859375,0.0546875,0.61357445,-5.47992,0.120640025,19.965366,0.98114014,-0.009216309,-0.11315918,-0.15429688,0.0048828125,0.08691406,4.041426,-1.6747565,-56.740265,21.328264,-0.40905762,0.034606934,0.91241455,-0.016601562,0.009765625,0.00390625,8.664492,-2.5342374,-128.64333,25.088652,0.0,0.0,0.0,0.0,0.0,0.0,0.0,-22.349718,-129.30664,22.477345,0.0,0.0,0.0,0.0,0.0,0.0,0.0,-2.535254,44.920296,-0.9672837,
1.2499999813735487,64,-0.105407715,0.80926514,0.46954346,-0.06347656,-0.0703125,-0.005859375,0.0,0.0,0.0,0.0,0.0,0.0,0.0,0.0,0.0,0.0,0.0,0.26174173,-0.0054649245,-0.9651058,-0.99328613,0.049194336,0.023925781,0.034179688,0.041992188,-0.00390625,6.0684385,5.418865,-0.113140866,-19.98068,0.9765625,-0.14257812,-0.25494385,-0.049804688,0.016601562,0.0546875,1.9612432,3.5453181,-57.049736,-22.117504,-0.60943604,0.004638672,0.81292725,0.026367188,-0.013671875,9.765625E-4,17.332174,1.7407802,-129.03632,-22.7828,0.0,0.0,0.0,0.0,0.0,0.0,0.0,-13.0918865,-128.85095,-36.196873,0.0,0.0,0.0,0.0,0.0,0.0,0.0,-0.26174173,0.0054649245,0.9651058,-0.9326172,-0.1159668,-0.2993164,0.053710938,-0.0048828125,0.056640625,0.607807,-5.418865,0.113140866,19.98068,0.9887085,-0.028320312,-0.12799072,-0.15429688,0.041992188,0.12402344,4.0012994,-1.7009916,-56.75366,21.409199,-0.42138672,0.04168701,0.9291992,-0.016601562,0.009765625,0.00390625,8.987911,-2.674218,-128.65472,25.118597,0.0,0.0,0.0,0.0,0.0,0.0,0.0,-22.492392,-129.31804,22.512993,0.0,0.0,0.0,0.0,0.0,0.0,0.0,-2.5002358,44.920086,-0.93243754,
1.2695312310825104,65,-0.08392334,0.79089355,0.48669434,-0.083984375,-0.08886719,-0.005859375,0.0,0.0,0.0,0.0,0.0,0.0,0.0,0.0,0.0,0.0,0.0,0.25741467,-0.004955427,-0.966327,-0.9727783,0.083862305,0.028564453,0.09082031,0.061523438,-0.00390625,6.0579305,5.3292813,-0.10259268,-20.005966,0.958313,-0.1428833,-0.25177002,-0.16210938,0.055664062,0.08886719,1.992134,3.4345121,-57.037636,-22.140514,-0.59039307,0.0040283203,0.8139038,0.0068359375,0.0234375,0.018554688,17.34635,1.6644176,-129.02563,-22.802267,0.0,0.0,0.0,0.0,0.0,0.0,0.0,-13.178938,-128.83243,-36.20378,0.0,0.0,0.0,0.0,0.0,0.0,0.0,-0.25741467,0.004955427,0.966327,-0.90704346,-0.15777588,-0.3291626,-0.041992188,-0.041992188,0.078125,0.53522307,-5.3292813,0.10259268,20.005966,0.98846436,-0.009399414,-0.15478516,-0.038085938,0.0029296875,0.06640625,3.9154167,-1.7027764,-56.770206,21.405643,-0.42944336,0.0579834,0.9124756,0.0029296875,0.028320312,0.00390625,9.182882,-2.6606333,-128.67455,25.11716,0.0,0.0,0.0,0.0,0.0,0.0,0.0,-22.475615,-129.33969,22.505375,0.0,0.0,0.0,0.0,0.0,0.0,0.0,-2.4987257,44.923325,-0.8959935,
1.2890624807914721,66,-0.03552246,0.80059814,0.48553467,-0.024414062,-0.0703125,0.01171875,0.0,0.0,0.0,0.0,0.0,0.0,0.0,0.0,0.0,0.0,0.0,0.2545865,-0.006127999,-0.96724224,-0.9901123,0.08862305,0.04852295,0.052734375,0.07910156,0.034179688,6.1638293,5.270729,-0.12686856,-20.024914,0.9569702,-0.1918335,-0.24694824,-0.22070312,0.01953125,0.049804688,2.0547137,3.3553772,-57.05957,-22.23923,-0.6043091,0.008544922,0.7862549,-0.01171875,0.005859375,0.0,17.538101,1.6263095,-129.05023,-22.953403,0.0,0.0,0.0,0.0,0.0,0.0,0.0,-13.225226,-128.84708,-36.346794,0.0,0.0,0.0,0.0,0.0,0.0,0.0,-0.2545865,0.006127999,0.96724224,-0.88549805,-0.12738037,-0.38885498,0.034179688,0.034179688,0.037109375,0.48091987,-5.270729,0.12686856,20.024914,1.0238647,-0.028869629,-0.1730957,-0.115234375,0.00390625,0.0859375,3.9153666,-1.6453669,-56.746902,21.386568,-0.42541504,0.049804688,0.9232788,-0.016601562,0.009765625,-0.015625,9.244479,-2.6100955,-128.66104,25.037807,0.0,0.0,0.0,0.0,0.0,0.0,0.0,-22.425585,-129.32202,22.426987,0.0,0.0,0.0,0.0,0.0,0.0,0.0,-2.508821,44.9293,-0.94499445,
1.3085937305004338,67,-0.01953125,0.8170166,0.47827148,-0.0048828125,-0.0703125,0.029296875,0.0,0.0,0.0,0.0,0.0,0.0,0.0,0.0,0.0,0.0,0.0,0.24687204,-0.013653817,-0.96575534,-0.99072266,0.09423828,0.0037841797,0.052734375,0.022460938,0.052734375,5.4760404,5.1110163,-0.28267634,-19.99413,0.9672241,-0.18634033,-0.25006104,-0.0703125,-0.020507812,0.03515625,2.0754688,3.196402,-57.20758,-22.283524,-0.6055298,-0.0032348633,0.7892456,0.0068359375,0.0234375,0.018554688,17.79844,1.4820116,-129.19368,-23.069324,0.0,0.0,0.0,0.0,0.0,0.0,0.0,-13.360424,-128.99394,-36.47378,0.0,0.0,0.0,0.0,0.0,0.0,0.0,-0.24687204,0.013653817,0.96575534,-0.897522,-0.12506104,-0.3554077,0.07324219,0.091796875,0.036132812,1.5321238,-5.1110163,0.28267634,19.99413,1.0148315,-0.029785156,-0.17687988,-0.11621094,0.022460938,0.06738281,3.9252567,-1.4548407,-56.596138,21.25735,-0.43463135,0.042114258,0.911499,0.0029296875,0.028320312,0.00390625,9.304278,-2.3568668,-128.50934,24.872292,0.0,0.0,0.0,0.0,0.0,0.0,0.0,-22.17152,-129.1675,22.256771,0.0,0.0,0.0,0.0,0.0,0.0,0.0,-1.6807973,44.81653,-1.0632696,
1.3281249802093955,68,-0.041625977,0.7817993,0.47753906,0.055664062,-0.03515625,-0.0087890625,0.0,0.0,0.0,0.0,0.0,0.0,0.0,0.0,0.0,0.0,0.0,0.24590659,-0.015710063,-0.9686189,-0.97979736,0.066833496,0.002380371,-0.00390625,0.09765625,0.072265625,5.390052,5.091029,-0.32524705,-20.053415,0.94433594,-0.1716919,-0.2557373,0.04296875,0.015625,0.0,2.016836,3.2362878,-57.248528,-22.395174,-0.6031494,0.016357422,0.7911377,-0.01171875,0.005859375,-0.018554688,17.815739,1.5307279,-129.23837,-23.28808,0.0,0.0,0.0,0.0,0.0,0.0,0.0,-13.305166,-129.036,-36.69906,0.0,0.0,0.0,0.0,0.0,0.0,0.0,-0.24590659,0.015710063,0.9686189,-0.9180298,-0.15509033,-0.35272217,0.015625,0.03515625,0.037109375,1.6960444,-5.091029,0.32524705,20.053415,0.9840698,-0.029296875,-0.17034912,-0.07714844,0.041015625,0.06640625,3.865486,-1.4560742,-56.553387,21.2656,-0.4378662,0.028076172,0.92333984,0.001953125,0.009765625,0.022460938,9.328581,-2.2970471,-128.47253,24.830576,0.0,0.0,0.0,0.0,0.0,0.0,0.0,-22.112354,-129.12604,22.208483,0.0,0.0,0.0,0.0,0.0,0.0,0.0,-1.5482187,44.935474,-1.1218617,
1.3476562299183572,69,-0.07269287,0.79364014,0.49542236,0.09472656,-0.016601562,-0.0087890625,0.0,0.0,0.0,0.0,0.0,0.0,0.0,0.0,0.0,0.0,0.0,0.24464554,-0.016735565,-0.9694424,-1.0063477,0.048706055,0.005004883,-0.00390625,0.059570312,0.072265625,5.270167,5.0649204,-0.34647807,-20.070463,0.97613525,-0.15625,-0.27294922,0.024414062,-0.0029296875,0.018554688,1.9877082,3.2725883,-57.271793,-22.39748,-0.6185913,-0.0029296875,0.80010986,0.0068359375,0.005859375,0.0,17.7458,1.5942538,-129.25948,-23.27596,0.0,0.0,0.0,0.0,0.0,0.0,0.0,-13.240872,-129.06494,-36.686985,0.0,0.0,0.0,0.0,0.0,0.0,0.0,-0.24464554,0.016735565,0.9694424,-0.923645,-0.12164307,-0.3534546,-0.041992188,0.07519531,0.038085938,1.8144519,-5.0649204,0.34647807,20.070463,0.9996948,-0.008544922,-0.1352539,-0.11621094,0.041015625,0.06640625,3.814594,-1.4326723,-56.532036,21.289555,-0.4296875,0.029724121,0.9420166,-0.016601562,0.009765625,0.00390625,9.418076,-2.2196198,-128.45471,24.83595,0.0,0.0,0.0,0.0,0.0,0.0,0.0,-22.03357,-129.11057,22.210522,0.0,0.0,0.0,0.0,0.0,0.0,0.0,-1.4550406,44.960815,-1.1433517,
1.367187479627319,70,-0.095703125,0.7883911,0.51086426,-0.00390625,-0.033203125,0.01171875,0.0,0.0,0.0,0.0,0.0,0.0,0.0,0.0,0.0,0.0,0.0,0.24513811,-0.014767902,-0.9694884,-1.0134277,0.038208008,-0.0021362305,-0.00390625,0.060546875,0.034179688,5.213798,5.075118,-0.30574134,-20.071415,0.9819946,-0.13012695,-0.23901367,-0.07128906,0.017578125,-0.0029296875,1.9699057,3.338059,-57.240166,-22.370777,-0.59954834,-0.005493164,0.8060303,-0.01171875,0.005859375,0.018554688,17.639923,1.6831506,-129.23267,-23.205698,0.0,0.0,0.0,0.0,0.0,0.0,0.0,-13.160244,-129.03716,-36.606415,0.0,0.0,0.0,0.0,0.0,0.0,0.0,-0.24513811,0.014767902,0.9694884,-0.93408203,-0.15008545,-0.3447876,-0.022460938,0.09472656,0.037109375,1.7290694,-5.075118,0.30574134,20.071415,1.0195923,-0.015808105,-0.13360596,-0.0390625,0.05859375,0.06542969,3.8151076,-1.4243577,-56.573597,21.27459,-0.41931152,0.049621582,0.9321289,0.001953125,-0.009765625,0.00390625,9.392244,-2.1882534,-128.4909,24.802296,0.0,0.0,0.0,0.0,0.0,0.0,0.0,-22.003902,-129.14404,22.190552,0.0,0.0,0.0,0.0,0.0,0.0,0.0,-1.5309687,44.96609,-1.0720639,
1.3867187293362806,71,-0.061462402,0.7904663,0.5060425,-0.0234375,-0.032226562,0.030273438,0.0,0.0,0.0,0.0,0.0,0.0,0.0,0.0,0.0,0.0,0.0,0.24536473,-0.013889041,-0.96937877,-0.99713135,0.042907715,-0.0060424805,0.052734375,0.022460938,0.0146484375,5.173771,5.0798106,-0.2875462,-20.069147,0.96661377,-0.1362915,-0.25982666,-0.14550781,0.037109375,0.032226562,1.9519409,3.37669,-57.223354,-22.291233,-0.5965576,-0.007507324,0.7932129,0.0068359375,0.041015625,-0.01953125,17.629925,1.7810818,-129.21623,-23.07024,0.0,0.0,0.0,0.0,0.0,0.0,0.0,-13.070508,-129.01434,-36.461357,0.0,0.0,0.0,0.0,0.0,0.0,0.0,-0.24536473,0.013889041,0.96937877,-0.9263916,-0.17663574,-0.3046875,0.015625,0.0546875,0.057617188,1.6636581,-5.0798106,0.2875462,20.069147,0.9692383,0.030822754,-0.12799072,-0.01953125,0.040039062,0.06542969,3.8052914,-1.4067202,-56.589493,21.310291,-0.4232788,0.07366943,0.9321289,-0.018554688,-0.08496094,0.00390625,9.351328,-2.1218305,-128.51346,24.902756,0.0,0.0,0.0,0.0,0.0,0.0,0.0,-21.936539,-129.16127,22.286861,0.0,0.0,0.0,0.0,0.0,0.0,0.0,-1.5962427,44.961533,-1.0482323,
1.4062499790452423,72,-0.06524658,0.8105469,0.53015137,0.016601562,-0.013671875,0.029296875,0.0,0.0,0.0,0.0,0.0,0.0,0.0,0.0,0.0,0.0,0.0,0.2454549,-0.012798042,-0.96933764,-0.9776001,0.073791504,-0.008483887,0.052734375,0.022460938,0.033203125,5.186669,5.0816774,-0.26495916,-20.068295,0.9715576,-0.17370605,-0.2709961,-0.12597656,0.017578125,0.052734375,1.9780356,3.4240851,-57.19852,-22.314148,-0.5940552,0.021972656,0.79901123,-0.01171875,0.005859375,0.018554688,17.689522,1.8919706,-129.18875,-23.08609,0.0,0.0,0.0,0.0,0.0,0.0,0.0,-12.961997,-128.98228,-36.475754,0.0,0.0,0.0,0.0,0.0,0.0,0.0,-0.2454549,0.012798042,0.96933764,-0.93951416,-0.1807251,-0.3283081,-0.00390625,-0.0234375,0.037109375,1.5949548,-5.0816774,0.26495916,20.068295,1.0048218,0.002380371,-0.13146973,-0.13476562,0.0234375,0.06738281,3.763952,-1.3938017,-56.608994,21.392324,-0.4335327,0.0579834,0.9232788,-0.016601562,0.009765625,0.00390625,9.25852,-2.0542169,-128.51779,25.042004,0.0,0.0,0.0,0.0,0.0,0.0,0.0,-21.870277,-129.16191,22.432266,0.0,0.0,0.0,0.0,0.0,0.0,0.0,-1.6604528,44.958538,-1.0140405,
1.425781228754204,73,-0.055725098,0.8060913,0.48809814,-0.043945312,-0.06933594,0.06640625,0.0,0.0,0.0,0.0,0.0,0.0,0.0,0.0,0.0,0.0,0.0,0.24534565,-0.012286099,-0.96950555,-0.97875977,0.06970215,0.0064086914,-0.00390625,0.041015625,0.034179688,5.2405996,5.079416,-0.25436032,-20.07177,0.94055176,-0.16265869,-0.26068115,-0.03125,0.016601562,0.0546875,2.008863,3.4465728,-57.191704,-22.376204,-0.59124756,0.010009766,0.8000488,0.0068359375,0.0048828125,-0.018554688,17.650728,1.9783154,-129.18716,-23.19819,0.0,0.0,0.0,0.0,0.0,0.0,0.0,-12.869785,-128.98068,-36.59524,0.0,0.0,0.0,0.0,0.0,0.0,0.0,-0.24534565,0.012286099,0.96950555,-0.9069824,-0.15209961,-0.36346436,-0.00390625,-0.0234375,0.037109375,1.5780559,-5.079416,0.25436032,20.07177,1.0081177,-0.028625488,-0.1609497,-0.09667969,0.041015625,0.0859375,3.7607772,-1.3530369,-56.616074,21.445274,-0.413208,0.022766113,0.90356445,0.0029296875,0.009765625,0.00390625,9.411603,-1.9947627,-128.5337,25.078217,0.0,0.0,0.0,0.0,0.0,0.0,0.0,-21.812153,-129.1825,22.470348,0.0,0.0,0.0,0.0,0.0,0.0,0.0,-1.7068365,44.96291,-1.0017309,
1.4453124784631657,74,-0.057434082,0.81225586,0.5100708,-0.1015625,-0.029296875,0.049804688,0.0,0.0,0.0,0.0,0.0,0.0,0.0,0.0,0.0,0.0,0.0,0.24535987,-0.011610875,-0.96933955,-0.9818115,0.07067871,0.0064086914,-0.022460938,0.041015625,0.0146484375,5.3198295,5.079709,-0.2403811,-20.068333,0.9609375,-0.15661621,-0.2658081,-0.05078125,0.036132812,0.03515625,2.033458,3.4682758,-57.17089,-22.420568,-0.6045532,-0.0014038086,0.80700684,0.0068359375,-0.0126953125,0.018554688,17.576408,2.0433483,-129.16418,-23.276363,0.0,0.0,0.0,0.0,0.0,0.0,0.0,-12.812162,-128.9556,-36.665337,0.0,0.0,0.0,0.0,0.0,0.0,0.0,-0.24535987,0.011610875,0.96933955,-0.8968506,-0.14874268,-0.34674072,0.091796875,0.07128906,0.056640625,1.505972,-5.079709,0.2403811,20.068333,1.0063477,-0.009643555,-0.15710449,-0.07714844,0.022460938,0.06640625,3.7550976,-1.3281922,-56.62515,21.435505,-0.4029541,0.025512695,0.90844727,0.0029296875,0.009765625,0.00390625,9.376473,-1.9192327,-128.5413,25.086084,0.0,0.0,0.0,0.0,0.0,0.0,0.0,-21.735271,-129.19514,22.469246,0.0,0.0,0.0,0.0,0.0,0.0,0.0,-1.7838485,44.952724,-0.9899784,
1.4648437281721274,75,-0.06359863,0.8083496,0.5022583,-0.1015625,-0.029296875,0.049804688,0.0,0.0,0.0,0.0,0.0,0.0,0.0,0.0,0.0,0.0,0.0,0.24419528,-0.010861,-0.9696008,-0.994812,0.07891846,-0.007385254,0.015625,0.022460938,-0.0048828125,5.378916,5.0556,-0.22485638,-20.073742,0.9517822,-0.15820312,-0.26574707,-0.06933594,0.036132812,0.053710938,2.033458,3.4684017,-57.15924,-22.442423,-0.6094971,0.0026855469,0.809021,0.0068359375,-0.0126953125,0.018554688,17.486961,2.0895665,-129.15053,-23.330944,0.0,0.0,0.0,0.0,0.0,0.0,0.0,-12.772519,-128.94228,-36.712597,0.0,0.0,0.0,0.0,0.0,0.0,0.0,-0.24419528,0.010861,0.9696008,-0.9179077,-0.1453247,-0.35162354,0.034179688,-0.0048828125,0.016601562,1.4104208,-5.0556,0.22485638,20.073742,1.0215454,-0.039855957,-0.18878174,-0.078125,0.09667969,0.06542969,3.7509239,-1.2909317,-56.642227,21.412281,-0.4069214,0.041625977,0.90448,0.0029296875,0.009765625,0.00390625,9.350509,-1.8649082,-128.5528,25.015007,0.0,0.0,0.0,0.0,0.0,0.0,0.0,-21.681784,-129.2081,22.405685,0.0,0.0,0.0,0.0,0.0,0.0,0.0,-1.8687441,44.94781,-0.97412944,
1.484374977881089,76,-0.075683594,0.7828369,0.49639893,-0.12109375,-0.029296875,0.05078125,0.0,0.0,0.0,0.0,0.0,0.0,0.0,0.0,0.0,0.0,0.0,0.24383205,-0.00927999,-0.9696437,-0.987854,0.073791504,0.0014648438,0.0146484375,-0.015625,0.033203125,5.4329634,5.04808,-0.19212456,-20.074633,0.960022,-0.18792725,-0.27990723,-0.03125,0.03515625,0.0546875,1.9786292,3.4748096,-57.12681,-22.44993,-0.5964966,-0.0016479492,0.7991333,-0.01171875,0.005859375,0.0,17.373636,2.0822468,-129.11734,-23.409946,0.0,0.0,0.0,0.0,0.0,0.0,0.0,-12.796398,-128.90895,-36.771736,0.0,0.0,0.0,0.0,0.0,0.0,0.0,-0.24383205,0.00927999,0.9696437,-0.90441895,-0.112854004,-0.3690796,-0.11816406,-0.05859375,0.017578125,1.2538259,-5.04808,0.19212456,20.074633,1.0097046,-0.033691406,-0.18267822,-0.0390625,0.095703125,0.06542969,3.7146235,-1.3061295,-56.677147,21.357832,-0.42126465,0.041931152,0.8996582,-0.016601562,0.009765625,-0.015625,9.299398,-1.8501866,-128.59628,24.912054,0.0,0.0,0.0,0.0,0.0,0.0,0.0,-21.667547,-129.25209,22.302723,0.0,0.0,0.0,0.0,0.0,0.0,0.0,-1.9741209,44.941475,-0.9265366,
1.5039062275900508,77,-0.06970215,0.7975464,0.4963379,-0.061523438,-0.01171875,0.06738281,0.0,0.0,0.0,0.0,0.0,0.0,0.0,0.0,0.0,0.0,0.0,0.24095875,-0.008725074,-0.9704371,-0.9899292,0.067993164,0.0014038086,0.034179688,0.0029296875,0.033203125,5.4593744,4.9885926,-0.18063602,-20.091057,0.977417,-0.1505127,-0.2420044,0.024414062,0.0546875,-9.765625E-4,1.970601,3.4222414,-57.115353,-22.472826,-0.62060547,-0.0029296875,0.809021,-0.01171875,0.005859375,0.0,17.286077,2.067428,-129.1062,-23.478716,0.0,0.0,0.0,0.0,0.0,0.0,0.0,-12.816034,-128.89407,-36.83689,0.0,0.0,0.0,0.0,0.0,0.0,0.0,-0.24095875,0.008725074,0.9704371,-0.883667,-0.13659668,-0.33294678,-0.00390625,-0.0234375,0.016601562,1.1680162,-4.9885926,0.18063602,20.091057,1.0158081,-0.0078125,-0.18890381,-0.07714844,0.059570312,0.046875,3.701951,-1.2701259,-56.693344,21.30196,-0.41723633,0.025878906,0.89959717,0.021484375,0.0087890625,-0.015625,9.241333,-1.7911105,-128.61053,24.843313,0.0,0.0,0.0,0.0,0.0,0.0,0.0,-21.60761,-129.27324,22.222183,0.0,0.0,0.0,0.0,0.0,0.0,0.0,-2.0206337,44.942905,-0.9057975,
1.5234374772990125,78,-0.027770996,0.8171387,0.46557617,-0.099609375,0.028320312,0.068359375,0.0,0.0,0.0,0.0,0.0,0.0,0.0,0.0,0.0,0.0,0.0,0.2396689,-0.009216092,-0.9706169,-0.9949341,0.0748291,0.0025024414,0.034179688,0.022460938,0.033203125,5.5449266,4.9618907,-0.19080168,-20.094778,0.9633179,-0.14398193,-0.26281738,-0.08886719,0.036132812,0.034179688,1.9878066,3.4200225,-57.122494,-22.493174,-0.61450195,0.0018310547,0.809021,0.0068359375,0.0234375,0.0,17.251806,2.1387005,-129.11392,-23.5282,0.0,0.0,0.0,0.0,0.0,0.0,0.0,-12.737398,-128.9016,-36.89366,0.0,0.0,0.0,0.0,0.0,0.0,0.0,-0.2396689,0.009216092,0.9706169,-0.9168701,-0.14196777,-0.32904053,0.053710938,0.07324219,0.016601562,1.0660615,-4.9618907,0.19080168,20.094778,1.012207,-0.021728516,-0.15515137,-0.1171875,0.115234375,0.06640625,3.7188382,-1.2603285,-56.68398,21.306835,-0.42358398,0.018798828,0.92523193,-0.016601562,0.029296875,0.00390625,9.368127,-1.8129783,-128.6076,24.87882,0.0,0.0,0.0,0.0,0.0,0.0,0.0,-21.629955,-129.27315,22.25719,0.0,0.0,0.0,0.0,0.0,0.0,0.0,-2.0857887,44.93328,-0.9416776,
1.5429687270079742,79,-0.037475586,0.8115845,0.4946289,-0.059570312,0.045898438,0.068359375,0.0,0.0,0.0,0.0,0.0,0.0,0.0,0.0,0.0,0.0,0.0,0.23953786,-0.010881579,-0.9708181,-0.97784424,0.074279785,0.02142334,-0.041015625,0.060546875,0.034179688,5.656864,4.9591756,-0.22528242,-20.098944,0.97161865,-0.17272949,-0.27197266,-0.0126953125,0.03515625,0.036132812,1.9833713,3.420855,-57.15995,-22.541607,-0.5964966,-0.0064697266,0.78131104,0.0068359375,0.0234375,0.0,17.296637,2.1248555,-129.15285,-23.622519,0.0,0.0,0.0,0.0,0.0,0.0,0.0,-12.748762,-128.942,-36.990936,0.0,0.0,0.0,0.0,0.0,0.0,0.0,-0.23953786,0.010881579,0.9708181,-0.9336548,-0.11816406,-0.32781982,-0.11816406,0.0390625,0.018554688,1.0149071,-4.9591756,0.22528242,20.098944,1.005188,0.022338867,-0.11779785,-9.765625E-4,0.076171875,-0.0107421875,3.750036,-1.2899432,-56.651325,21.294876,-0.40289307,0.02947998,0.91137695,0.0029296875,0.028320312,-0.015625,9.406777,-1.8913178,-128.57324,24.922512,0.0,0.0,0.0,0.0,0.0,0.0,0.0,-21.708286,-129.24112,22.300396,0.0,0.0,0.0,0.0,0.0,0.0,0.0,-2.10446,44.938778,-1.0229543,
1.5624999767169359,80,-0.03778076,0.80548096,0.47070312,-0.020507812,0.064453125,0.06738281,0.0,0.0,0.0,0.0,0.0,0.0,0.0,0.0,0.0,0.0,0.0,0.23830575,-0.011271084,-0.9711731,-0.98895264,0.08123779,0.024475098,-0.041015625,0.07910156,0.034179688,5.714603,4.933667,-0.23334639,-20.106293,0.96203613,-0.16082764,-0.21203613,0.044921875,0.053710938,0.038085938,1.9853437,3.406036,-57.164124,-22.599869,-0.6342163,0.022216797,0.7941284,0.0068359375,0.0048828125,-0.018554688,17.389217,2.0619717,-129.15451,-23.689383,0.0,0.0,0.0,0.0,0.0,0.0,0.0,-12.796836,-128.94788,-37.07396,0.0,0.0,0.0,0.0,0.0,0.0,0.0,-0.23830575,0.011271084,0.9711731,-0.96765137,-0.10821533,-0.3100586,-0.15625,9.765625E-4,-0.022460938,0.9310421,-4.933667,0.23334639,20.106293,0.9928589,0.020507812,-0.14221191,-0.07714844,0.059570312,0.046875,3.7361212,-1.3476801,-56.6497,21.210289,-0.41729736,0.025817871,0.90649414,0.0029296875,0.009765625,0.00390625,9.445833,-1.9434991,-128.56665,24.899414,0.0,0.0,0.0,0.0,0.0,0.0,0.0,-21.759098,-129.24191,22.267838,0.0,0.0,0.0,0.0,0.0,0.0,0.0,-2.1206837,44.94004,-1.0419297,
1.5820312264258976,81,-0.03967285,0.791687,0.47558594,9.765625E-4,0.12109375,0.06738281,0.0,0.0,0.0,0.0,0.0,0.0,0.0,0.0,0.0,0.0,0.0,0.23905662,-0.011191325,-0.97094166,-0.99816895,0.06011963,0.014160156,-0.11621094,0.07910156,0.034179688,5.7741084,4.9492135,-0.23169515,-20.101503,0.97442627,-0.15045166,-0.22705078,0.043945312,0.034179688,0.038085938,1.9910531,3.3943174,-57.162014,-22.610884,-0.60272217,-0.015197754,0.7922363,0.0068359375,0.005859375,0.018554688,17.500334,2.0018206,-129.15063,-23.700417,0.0,0.0,0.0,0.0,0.0,0.0,0.0,-12.843661,-128.94424,-37.09969,0.0,0.0,0.0,0.0,0.0,0.0,0.0,-0.23905662,0.011191325,0.97094166,-0.9165039,-0.11529541,-0.29833984,-0.080078125,0.057617188,-0.0234375,0.81517375,-4.9492135,0.23169515,20.101503,0.98309326,7.324219E-4,-0.12017822,-0.057617188,0.05859375,0.06640625,3.6876955,-1.4449244,-56.659653,21.226032,-0.42547607,0.022949219,0.90753174,0.0029296875,0.028320312,0.00390625,9.530607,-2.0647488,-128.57022,24.960243,0.0,0.0,0.0,0.0,0.0,0.0,0.0,-21.879852,-129.23958,22.339943,0.0,0.0,0.0,0.0,0.0,0.0,0.0,-2.1466296,44.936615,-1.0464752,
1.6015624761348592,82,-0.0513916,0.7852173,0.5027466,-0.038085938,0.123046875,0.10449219,0.0,0.0,0.0,0.0,0.0,0.0,0.0,0.0,0.0,0.0,0.0,0.23491177,-0.01693652,-0.96888417,-1.0056763,0.037475586,0.035705566,-0.11621094,0.059570312,0.034179688,5.1176457,4.863402,-0.35063848,-20.058905,0.9766846,-0.14074707,-0.22302246,-0.0126953125,0.036132812,0.017578125,1.9989011,3.3017073,-57.281178,-22.555477,-0.6121826,0.016723633,0.77734375,-0.01171875,0.005859375,0.0,17.552147,1.8915939,-129.27115,-23.61,0.0,0.0,0.0,0.0,0.0,0.0,0.0,-12.948173,-129.06969,-37.015907,0.0,0.0,0.0,0.0,0.0,0.0,0.0,-0.23491177,0.01693652,0.96888417,-0.9371338,-0.15576172,-0.30944824,-0.11816406,0.05859375,-0.022460938,1.7502184,-4.863402,0.35063848,20.058905,0.97320557,0.014831543,-0.121032715,0.018554688,0.057617188,0.02734375,3.5853395,-1.4372215,-56.53847,21.229084,-0.42138672,0.025939941,0.9016113,-0.016601562,0.009765625,0.00390625,9.582013,-2.0315056,-128.4416,24.978603,0.0,0.0,0.0,0.0,0.0,0.0,0.0,-21.843378,-129.11983,22.350658,0.0,0.0,0.0,0.0,0.0,0.0,0.0,-1.3403425,44.83574,-1.1087226,
1.621093725843821,83,-0.06762695,0.7994995,0.49829102,-0.057617188,0.10449219,0.10449219,0.0,0.0,0.0,0.0,0.0,0.0,0.0,0.0,0.0,0.0,0.0,0.2369735,-0.018203065,-0.97093076,-0.99853516,0.042236328,0.0357666,-0.13574219,0.041015625,0.034179688,5.041311,4.9060855,-0.3768599,-20.101276,0.96429443,-0.1459961,-0.26281738,0.024414062,0.03515625,-9.765625E-4,1.9489306,3.3163583,-57.30749,-22.536983,-0.616333,0.01184082,0.7891846,0.026367188,0.0048828125,0.0,17.638708,1.8766723,-129.30052,-23.601255,0.0,0.0,0.0,0.0,0.0,0.0,0.0,-12.9531555,-129.10493,-37.018986,0.0,0.0,0.0,0.0,0.0,0.0,0.0,-0.2369735,0.018203065,0.97093076,-0.9061279,-0.16375732,-0.32720947,-0.09863281,0.038085938,-0.0234375,1.881072,-4.9060855,0.3768599,20.101276,1.0011597,4.8828125E-4,-0.10864258,0.01953125,0.0390625,0.046875,3.6013048,-1.4853694,-56.518585,21.24673,-0.4376831,0.040222168,0.9036255,-0.016601562,0.009765625,0.022460938,9.682025,-2.0648108,-128.42795,25.042797,0.0,0.0,0.0,0.0,0.0,0.0,0.0,-21.874134,-129.10875,22.390837,0.0,0.0,0.0,0.0,0.0,0.0,0.0,-1.2435822,44.950066,-1.1462455,
1.6406249755527826,84,-0.06378174,0.800354,0.48828125,-0.05859375,0.08496094,0.10449219,0.0,0.0,0.0,0.0,0.0,0.0,0.0,0.0,0.0,0.0,0.0,0.23768362,-0.018782169,-0.9712632,-0.9819336,0.04937744,0.0020751953,-0.11621094,0.060546875,-0.0234375,5.060473,4.9207873,-0.38884917,-20.10816,0.95202637,-0.15142822,-0.2557373,-0.013671875,0.016601562,0.017578125,1.9165276,3.317235,-57.320656,-22.477823,-0.60510254,0.020324707,0.7970581,-0.01171875,0.005859375,0.018554688,17.65753,1.8767343,-129.30865,-23.528269,0.0,0.0,0.0,0.0,0.0,0.0,0.0,-12.949791,-129.1111,-36.950394,0.0,0.0,0.0,0.0,0.0,0.0,0.0,-0.23768362,0.018782169,0.9712632,-0.923584,-0.19006348,-0.31658936,-0.080078125,0.018554688,-0.0234375,1.8348304,-4.9207873,0.38884917,20.10816,0.99664307,4.8828125E-4,-0.144104,0.0,0.020507812,0.046875,3.5579295,-1.5009289,-56.50505,21.322592,-0.39367676,0.03326416,0.9152832,-0.016601562,0.009765625,0.00390625,9.7182045,-2.050451,-128.414,25.149557,0.0,0.0,0.0,0.0,0.0,0.0,0.0,-21.858435,-129.09653,22.48679,0.0,0.0,0.0,0.0,0.0,0.0,0.0,-1.2771902,44.970802,-1.1821887,
1.6601562252617443,85,-0.033203125,0.8255615,0.5155029,-0.05859375,0.08496094,0.10449219,0.0,0.0,0.0,0.0,0.0,0.0,0.0,0.0,0.0,0.0,0.0,0.24076003,-0.018571079,-0.9705808,-0.9879761,0.06585693,0.011291504,-0.11621094,0.041015625,0.0146484375,5.210038,4.9844785,-0.38447893,-20.094034,0.96276855,-0.16662598,-0.23693848,-0.013671875,0.016601562,0.017578125,1.9079305,3.3744853,-57.316906,-22.466099,-0.597229,0.014160156,0.79907227,-0.01171875,-0.030273438,-0.018554688,17.598923,1.9286659,-129.3066,-23.537277,0.0,0.0,0.0,0.0,0.0,0.0,0.0,-12.898801,-129.1097,-36.957138,0.0,0.0,0.0,0.0,0.0,0.0,0.0,-0.24076003,0.018571079,0.9705808,-0.9320679,-0.15002441,-0.3477173,-0.080078125,-9.765625E-4,-0.043945312,1.6565851,-4.9844785,0.38447893,20.094034,1.0145264,-0.0037231445,-0.14349365,-0.01953125,0.0029296875,0.028320312,3.5268667,-1.5697212,-56.507908,21.3359,-0.42944336,0.036193848,0.8937378,-0.017578125,-0.028320312,0.00390625,9.753949,-2.0909598,-128.41167,25.178772,0.0,0.0,0.0,0.0,0.0,0.0,0.0,-21.89451,-129.09961,22.490988,0.0,0.0,0.0,0.0,0.0,0.0,0.0,-1.4163531,44.968975,-1.2117729,
1.679687474970706,86,-0.06439209,0.79852295,0.51708984,0.0390625,0.06347656,0.10253906,0.0,0.0,0.0,0.0,0.0,0.0,0.0,0.0,0.0,0.0,0.0,0.24268305,-0.018778823,-0.97000575,-0.993103,0.06201172,0.013244629,-0.09765625,0.041015625,-0.00390625,5.3111663,5.0242925,-0.38877985,-20.082125,0.9640503,-0.15582275,-0.2588501,-0.013671875,0.036132812,-0.001953125,1.9094687,3.372757,-57.320786,-22.435722,-0.5963745,0.0072021484,0.8109741,0.0068359375,0.005859375,0.0,17.5024,1.9367576,-129.30972,-23.539143,0.0,0.0,0.0,0.0,0.0,0.0,0.0,-12.908131,-129.11026,-36.9384,0.0,0.0,0.0,0.0,0.0,0.0,0.0,-0.24268305,0.018778823,0.97000575,-0.888855,-0.14996338,-0.34283447,-0.080078125,-9.765625E-4,-0.0234375,1.5958135,-5.0242925,0.38877985,20.082125,1.0001221,-0.01953125,-0.16680908,-0.057617188,-0.015625,0.047851562,3.5225894,-1.597837,-56.50522,21.294,-0.4418335,0.034301758,0.90167236,-0.016601562,0.009765625,0.041015625,9.739001,-2.092694,-128.41263,25.106686,0.0,0.0,0.0,0.0,0.0,0.0,0.0,-21.8964,-129.09541,22.412338,0.0,0.0,0.0,0.0,0.0,0.0,0.0,-1.4853473,44.961906,-1.2420548,
1.6992187246796677,87,-0.072265625,0.79486084,0.5302124,0.059570312,0.10058594,0.06542969,0.0,0.0,0.0,0.0,0.0,0.0,0.0,0.0,0.0,0.0,0.0,0.24396664,-0.018504705,-0.9697193,-1.0054321,0.048461914,0.016967773,-0.09765625,0.060546875,0.0146484375,5.3288093,5.050866,-0.38310477,-20.076195,0.9682007,-0.15008545,-0.26086426,-0.0126953125,0.036132812,0.017578125,1.8945489,3.3750231,-57.319218,-22.39476,-0.5963745,0.0072021484,0.8109741,0.0068359375,0.005859375,0.0,17.485495,1.9315779,-129.308,-23.503954,0.0,0.0,0.0,0.0,0.0,0.0,0.0,-12.913311,-129.10854,-36.903214,0.0,0.0,0.0,0.0,0.0,0.0,0.0,-0.24396664,0.018504705,0.9697193,-0.92333984,-0.09954834,-0.33654785,-0.080078125,0.018554688,-0.0234375,1.5276468,-5.050866,0.38310477,20.076195,1.0018921,-0.016601562,-0.18463135,-0.057617188,0.021484375,0.047851562,3.4894733,-1.6579804,-56.50899,21.259878,-0.41326904,0.017700195,0.9104614,-0.016601562,0.009765625,0.022460938,9.759331,-2.1384542,-128.41411,25.051256,0.0,0.0,0.0,0.0,0.0,0.0,0.0,-21.942997,-129.10071,22.363937,0.0,0.0,0.0,0.0,0.0,0.0,0.0,-1.5192869,44.962143,-1.2402213,
1.7187499743886294,88,-0.061462402,0.80236816,0.5081177,0.040039062,0.1015625,0.083984375,0.0,0.0,0.0,0.0,0.0,0.0,0.0,0.0,0.0,0.0,0.0,0.24580747,-0.017807603,-0.9692916,-0.9758301,0.057922363,0.010192871,-0.041015625,0.07910156,0.0146484375,5.294945,5.0889764,-0.3686726,-20.06734,0.9595947,-0.17034912,-0.2479248,-0.049804688,0.0546875,0.03515625,1.8578317,3.4094954,-57.302364,-22.335827,-0.5951538,0.015136719,0.79315186,-0.01171875,0.024414062,0.0,17.471178,1.9650722,-129.29355,-23.45246,0.0,0.0,0.0,0.0,0.0,0.0,0.0,-12.884697,-129.09161,-36.845833,0.0,0.0,0.0,0.0,0.0,0.0,0.0,-0.24580747,0.017807603,0.9692916,-0.9324951,-0.10784912,-0.3513794,-0.080078125,0.018554688,0.017578125,1.5190398,-5.0889764,0.3686726,20.06734,1.0045776,0.019348145,-0.15527344,0.0,0.020507812,0.028320312,3.4840267,-1.676511,-56.525764,21.213247,-0.4060669,0.01751709,0.9143677,-0.016601562,0.009765625,0.00390625,9.670058,-2.0987916,-128.43977,24.999308,0.0,0.0,0.0,0.0,0.0,0.0,0.0,-21.904287,-129.13242,22.305845,0.0,0.0,0.0,0.0,0.0,0.0,0.0,-1.5436609,44.962994,-1.2175144,
1.7382812240975911,89,-0.06958008,0.8065796,0.50634766,-0.07910156,0.046875,0.08691406,0.0,0.0,0.0,0.0,0.0,0.0,0.0,0.0,0.0,0.0,0.0,0.24714562,-0.016712714,-0.96896124,-0.97698975,0.05682373,0.019104004,-0.041015625,0.060546875,0.0146484375,5.295426,5.11668,-0.34600496,-20.060501,0.97540283,-0.1494751,-0.24298096,-0.0126953125,0.036132812,0.017578125,1.8279915,3.4647532,-57.280464,-22.314285,-0.60058594,-0.007446289,0.802124,0.0068359375,0.0234375,0.0,17.506418,2.025361,-129.27081,-23.434755,0.0,0.0,0.0,0.0,0.0,0.0,0.0,-12.820046,-129.06903,-36.835617,0.0,0.0,0.0,0.0,0.0,0.0,0.0,-0.24714562,0.016712714,0.96896124,-0.91308594,-0.15905762,-0.31341553,-0.11816406,-0.0390625,0.017578125,1.43763,-5.11668,0.34600496,20.060501,1.0004883,0.011413574,-0.15911865,-0.07714844,0.00390625,0.06640625,3.4339898,-1.6933522,-56.54803,21.2051,-0.4050293,0.03338623,0.92419434,0.001953125,0.009765625,0.022460938,9.494796,-2.0278287,-128.46428,24.988728,0.0,0.0,0.0,0.0,0.0,0.0,0.0,-21.832829,-129.15741,22.297607,0.0,0.0,0.0,0.0,0.0,0.0,0.0,-1.6102302,44.96108,-1.1862011,
1.7578124738065528,90,-0.07879639,0.7988281,0.49658203,-0.15820312,0.048828125,0.08886719,0.0,0.0,0.0,0.0,0.0,0.0,0.0,0.0,0.0,0.0,0.0,0.24721918,-0.014910795,-0.9689541,-0.9928589,0.06439209,-0.015625,-0.059570312,0.022460938,-0.0048828125,5.3541956,5.1182036,-0.30869964,-20.060352,0.9786377,-0.1749878,-0.26605225,-0.06933594,0.036132812,0.034179688,1.7973295,3.4904735,-57.247673,-22.30394,-0.61535645,0.013549805,0.82873535,-0.049804688,0.025390625,-0.01953125,17.442822,2.0550566,-129.23306,-23.438988,0.0,0.0,0.0,0.0,0.0,0.0,0.0,-12.797904,-129.02997,-36.829475,0.0,0.0,0.0,0.0,0.0,0.0,0.0,-0.24721918,0.014910795,0.9689541,-0.90753174,-0.19396973,-0.3303833,-0.080078125,-0.020507812,0.017578125,1.3103007,-5.1182036,0.30869964,20.060352,1.012085,-0.0256958,-0.16107178,-0.078125,0.09667969,0.046875,3.46707,-1.6330335,-56.58258,21.206894,-0.40289307,0.025634766,0.89959717,-0.016601562,0.029296875,0.00390625,9.506507,-1.9444667,-128.49754,24.97873,0.0,0.0,0.0,0.0,0.0,0.0,0.0,-21.747595,-129.1962,22.280983,0.0,0.0,0.0,0.0,0.0,0.0,0.0,-1.7496965,44.95633,-1.1382306,
1.7773437235155145,91,-0.066711426,0.80444336,0.49334717,-0.059570312,0.06542969,0.0859375,0.0,0.0,0.0,0.0,0.0,0.0,0.0,0.0,0.0,0.0,0.0,0.24575713,-0.015256841,-0.9692173,-0.9906006,0.083984375,-0.023254395,-0.07910156,0.041015625,0.034179688,5.4742146,5.0879354,-0.3158639,-20.065802,0.9644165,-0.17633057,-0.27886963,-0.0126953125,0.03515625,0.036132812,1.7854217,3.5106533,-57.251446,-22.355476,-0.5924072,0.0012207031,0.7921753,-0.01171875,0.005859375,0.0,17.319927,2.1203418,-129.23819,-23.555176,0.0,0.0,0.0,0.0,0.0,0.0,0.0,-12.739922,-129.02989,-36.939095,0.0,0.0,0.0,0.0,0.0,0.0,0.0,-0.24575713,0.015256841,0.9692173,-0.9003906,-0.18640137,-0.36669922,0.03515625,0.053710938,0.016601562,1.2739538,-5.0879354,0.3158639,20.065802,1.0030518,0.011291504,-0.18481445,0.0,0.0390625,0.046875,3.45757,-1.520623,-56.565025,21.239187,-0.41723633,0.022949219,0.89276123,-0.016601562,0.009765625,0.00390625,9.487299,-1.7762475,-128.48145,24.937721,0.0,0.0,0.0,0.0,0.0,0.0,0.0,-21.575806,-129.18134,22.221127,0.0,0.0,0.0,0.0,0.0,0.0,0.0,-1.8481598,44.946903,-1.1761513,
1.7968749732244762,92,-0.059692383,0.8340454,0.49835205,-9.765625E-4,0.044921875,0.08496094,0.0,0.0,0.0,0.0,0.0,0.0,0.0,0.0,0.0,0.0,0.0,0.2467727,-0.016333781,-0.9689245,-0.987854,0.066101074,-0.0026245117,-0.041015625,0.022460938,-0.0048828125,5.5614786,5.1089616,-0.3381599,-20.059742,0.9664917,-0.17852783,-0.2420044,0.06347656,0.034179688,0.038085938,1.7501066,3.5851817,-57.2726,-22.40296,-0.60565186,-0.011108398,0.7793579,0.0068359375,0.005859375,0.0,17.290089,2.206635,-129.25638,-23.678831,0.0,0.0,0.0,0.0,0.0,0.0,0.0,-12.658594,-129.04514,-37.056835,0.0,0.0,0.0,0.0,0.0,0.0,0.0,-0.2467727,0.016333781,0.9689245,-0.91741943,-0.10845947,-0.37890625,-0.022460938,0.055664062,-0.00390625,1.2884636,-5.1089616,0.3381599,20.059742,1.0162354,-0.0037841797,-0.16326904,-0.0390625,0.07714844,0.046875,3.4419627,-1.515837,-56.54473,21.195555,-0.41314697,0.029785156,0.8986206,0.001953125,-0.028320312,-0.015625,9.305123,-1.7117919,-128.45572,24.854168,0.0,0.0,0.0,0.0,0.0,0.0,0.0,-21.514072,-129.15155,22.151716,0.0,0.0,0.0,0.0,0.0,0.0,0.0,-1.8844719,44.942997,-1.237584,
1.816406222933438,93,-0.061340332,0.786499,0.51397705,0.09667969,0.041992188,0.064453125,0.0,0.0,0.0,0.0,0.0,0.0,0.0,0.0,0.0,0.0,0.0,0.24701229,-0.015962088,-0.9690049,-1.0065308,0.032958984,0.016723633,-0.022460938,0.07910156,0.053710938,5.4955096,5.11392,-0.33046472,-20.061405,0.979187,-0.15838623,-0.2510376,0.043945312,0.034179688,0.038085938,1.7027236,3.6240773,-57.266026,-22.355001,-0.6035156,-0.0032958984,0.78723145,-0.01171875,0.005859375,0.0,17.22062,2.2681947,-129.25246,-23.632114,0.0,0.0,0.0,0.0,0.0,0.0,0.0,-12.604437,-129.03911,-37.002037,0.0,0.0,0.0,0.0,0.0,0.0,0.0,-0.24701229,0.015962088,0.9690049,-0.90356445,-0.1227417,-0.32495117,-0.09863281,0.038085938,-0.0234375,1.2837468,-5.11392,0.33046472,20.061405,1.0124512,-0.0256958,-0.13934326,-0.078125,0.078125,0.028320312,3.4774454,-1.5291417,-56.552265,21.143902,-0.40600586,0.026550293,0.9094238,0.0029296875,0.028320312,-0.015625,9.360698,-1.7328866,-128.4642,24.826859,0.0,0.0,0.0,0.0,0.0,0.0,0.0,-21.535667,-129.15955,22.122066,0.0,0.0,0.0,0.0,0.0,0.0,0.0,-1.8922858,44.94898,-1.2227981,
1.8359374726423996,94,-0.083862305,0.79296875,0.49169922,0.078125,0.060546875,0.028320312,0.0,0.0,0.0,0.0,0.0,0.0,0.0,0.0,0.0,0.0,0.0,0.24582753,-0.01576502,-0.9694566,-0.9995117,0.029846191,0.022644043,-0.00390625,0.060546875,0.034179688,5.4287415,5.0893936,-0.32638484,-20.070757,0.9847412,-0.14001465,-0.25598145,-0.0126953125,0.036132812,0.017578125,1.7297482,3.5808437,-57.26321,-22.329536,-0.59539795,0.0013427734,0.7961426,-0.01171875,0.005859375,-0.018554688,17.103495,2.241627,-129.25302,-23.552633,0.0,0.0,0.0,0.0,0.0,0.0,0.0,-12.641821,-129.03674,-36.90925,0.0,0.0,0.0,0.0,0.0,0.0,0.0,-0.24582753,0.01576502,0.9694566,-0.9678955,-0.12738037,-0.3269043,-0.11816406,0.01953125,-0.022460938,1.2594321,-5.0893936,0.32638484,20.070757,0.98638916,-0.0053710938,-0.16070557,-0.05859375,0.05859375,0.046875,3.4316514,-1.5943723,-56.562202,21.093065,-0.4500122,0.03540039,0.9086304,-0.016601562,0.009765625,0.022460938,9.428462,-1.7944651,-128.48114,24.778858,0.0,0.0,0.0,0.0,0.0,0.0,0.0,-21.598236,-129.17514,22.074528,0.0,0.0,0.0,0.0,0.0,0.0,0.0,-1.853015,44.957634,-1.2009616,
1.8554687223513613,95,-0.06890869,0.8043823,0.48046875,-0.001953125,0.025390625,0.047851562,0.0,0.0,0.0,0.0,0.0,0.0,0.0,0.0,0.0,0.0,0.0,0.24405625,-0.014972454,-0.96987736,-0.98809814,0.055114746,0.013122559,-0.041015625,0.07910156,0.0146484375,5.4049735,5.052721,-0.30997622,-20.079468,0.94244385,-0.16973877,-0.23480225,-0.06933594,0.055664062,0.034179688,1.6984657,3.5466068,-57.249596,-22.297806,-0.59332275,0.0061035156,0.80895996,-0.03125,0.0068359375,-9.765625E-4,17.130424,2.179462,-129.24036,-23.492788,0.0,0.0,0.0,0.0,0.0,0.0,0.0,-12.704699,-129.02438,-36.849472,0.0,0.0,0.0,0.0,0.0,0.0,0.0,-0.24405625,0.014972454,0.96987736,-0.9338379,-0.13568115,-0.33190918,-0.11816406,-0.0390625,-0.0029296875,1.1463712,-5.052721,0.30997622,20.079468,0.98883057,0.019592285,-0.144104,-9.765625E-4,0.057617188,0.0087890625,3.3971894,-1.6092756,-56.580196,21.11778,-0.39678955,0.035339355,0.91729736,-0.016601562,0.009765625,0.022460938,9.47098,-1.8170749,-128.49268,24.833424,0.0,0.0,0.0,0.0,0.0,0.0,0.0,-21.620321,-129.19357,22.122505,0.0,0.0,0.0,0.0,0.0,0.0,0.0,-1.8900025,44.955208,-1.1695877,
1.874999972060323,96,-0.06774902,0.81243896,0.49639893,-0.021484375,0.0068359375,0.06640625,0.0,0.0,0.0,0.0,0.0,0.0,0.0,0.0,0.0,0.0,0.0,0.2456201,-0.013780259,-0.9695287,-0.99194336,0.07562256,0.012451172,-0.060546875,0.059570312,0.052734375,5.405554,5.0850973,-0.2852941,-20.07225,0.9655762,-0.17352295,-0.2539673,-0.06933594,0.017578125,0.03515625,1.6891071,3.63096,-57.22883,-22.312124,-0.5946655,-0.010620117,0.809021,-0.01171875,0.005859375,0.0,17.095083,2.2539287,-129.22032,-23.474894,0.0,0.0,0.0,0.0,0.0,0.0,0.0,-12.643335,-129.00731,-36.817734,0.0,0.0,0.0,0.0,0.0,0.0,0.0,-0.2456201,0.013780259,0.9695287,-0.9257202,-0.2000122,-0.30975342,-0.11816406,-0.05859375,0.017578125,1.0321138,-5.0850973,0.2852941,20.07225,1.0360107,-0.024047852,-0.16156006,0.0,0.0390625,0.02734375,3.3920565,-1.6441135,-56.606247,21.175129,-0.41314697,0.03869629,0.911438,-0.016601562,0.029296875,0.00390625,9.470149,-1.8630753,-128.51147,24.945885,0.0,0.0,0.0,0.0,0.0,0.0,0.0,-21.665354,-129.20866,22.24062,0.0,0.0,0.0,0.0,0.0,0.0,0.0,-1.9503642,44.954815,-1.1330633,
1.8945312217692847,97,-0.06359863,0.82128906,0.5073242,0.017578125,0.025390625,0.06640625,0.0,0.0,0.0,0.0,0.0,0.0,0.0,0.0,0.0,0.0,0.0,0.2476792,-0.012499317,-0.96879476,-0.9939575,0.075683594,0.011474609,-0.07910156,0.059570312,0.034179688,5.493477,5.127727,-0.2587746,-20.057055,0.9708252,-0.12963867,-0.24987793,-0.013671875,0.036132812,-0.001953125,1.744843,3.6183515,-57.20038,-22.332205,-0.6072998,0.012451172,0.8139038,0.0068359375,0.0048828125,-0.018554688,17.095108,2.2178712,-129.19365,-23.486673,0.0,0.0,0.0,0.0,0.0,0.0,0.0,-12.68362,-128.98323,-36.822845,0.0,0.0,0.0,0.0,0.0,0.0,0.0,-0.2476792,0.012499317,0.96879476,-0.9447632,-0.19714355,-0.33233643,-0.00390625,0.07421875,0.057617188,0.9869508,-5.127727,0.2587746,20.057055,1.0089111,0.022277832,-0.13464355,-0.0390625,0.040039062,0.028320312,3.4211376,-1.6205759,-56.62869,21.244303,-0.41833496,0.021850586,0.9055176,-0.03515625,0.0107421875,0.00390625,9.482429,-1.8187802,-128.5401,25.090595,0.0,0.0,0.0,0.0,0.0,0.0,0.0,-21.62323,-129.24307,22.39986,0.0,0.0,0.0,0.0,0.0,0.0,0.0,-2.0102756,44.943222,-1.0937953,
1.9140624714782464,98,-0.060668945,0.8291626,0.4993286,0.015625,-0.032226562,0.083984375,0.0,0.0,0.0,0.0,0.0,0.0,0.0,0.0,0.0,0.0,0.0,0.24837074,-0.012981857,-0.9685084,-0.9902344,0.04437256,0.016906738,-0.060546875,0.022460938,0.0146484375,5.5233965,5.1420445,-0.26876467,-20.051126,0.95739746,-0.14093018,-0.23883057,-0.013671875,0.016601562,-0.001953125,1.7292957,3.6111097,-57.209854,-22.277445,-0.59729004,0.0073242188,0.79315186,0.0068359375,0.005859375,0.0,17.087507,2.211597,-129.20073,-23.424469,0.0,0.0,0.0,0.0,0.0,0.0,0.0,-12.689894,-128.99031,-36.76064,0.0,0.0,0.0,0.0,0.0,0.0,0.0,-0.24837074,0.012981857,0.9685084,-0.9310913,-0.15246582,-0.32910156,0.03515625,0.034179688,0.016601562,0.96021926,-5.1420445,0.26876467,20.051126,0.98065186,0.035705566,-0.1015625,-0.07714844,0.022460938,0.029296875,3.395979,-1.6232541,-56.614872,21.335108,-0.4255371,0.021911621,0.9154053,0.0029296875,0.009765625,0.00390625,9.405398,-1.7899057,-128.51361,25.270977,0.0,0.0,0.0,0.0,0.0,0.0,0.0,-21.594711,-129.21756,22.587776,0.0,0.0,0.0,0.0,0.0,0.0,0.0,-2.0322924,44.937004,-1.1235089,
1.933593721187208,99,-0.051879883,0.8048706,0.4720459,-0.020507812,0.06347656,0.048828125,0.0,0.0,0.0,0.0,0.0,0.0,0.0,0.0,0.0,0.0,0.0,0.2495791,-0.014102284,-0.96826875,-0.9807129,0.052612305,-0.018798828,-0.059570312,0.041992188,-0.00390625,5.551885,5.1670604,-0.291961,-20.046165,0.9738159,-0.16595459,-0.26898193,-0.051757812,-0.021484375,0.036132812,1.6906126,3.666962,-57.237972,-22.234575,-0.60424805,0.01727295,0.8148804,-0.01171875,0.024414062,0.018554688,16.996325,2.2899878,-129.22508,-23.386116,0.0,0.0,0.0,0.0,0.0,0.0,0.0,-12.613874,-129.01009,-36.720833,0.0,0.0,0.0,0.0,0.0,0.0,0.0,-0.2495791,0.014102284,0.96826875,-0.92022705,-0.16577148,-0.31347656,-0.022460938,-0.022460938,-0.00390625,0.9575664,-5.1670604,0.291961,20.046165,1.0231323,0.010070801,-0.175354,-0.11621094,0.022460938,0.06738281,3.3586462,-1.6217468,-56.587517,21.383041,-0.40911865,0.021606445,0.9133911,-0.0546875,0.030273438,0.00390625,9.356497,-1.7327912,-128.48273,25.331966,0.0,0.0,0.0,0.0,0.0,0.0,0.0,-21.53845,-129.18852,22.651142,0.0,0.0,0.0,0.0,0.0,0.0,0.0,-2.0586257,44.938007,-1.1851238,
1.9531249708961698,100,-0.045776367,0.7848511,0.47076416,-0.04296875,-0.03125,0.048828125,0.0,0.0,0.0,0.0,0.0,0.0,0.0,0.0,0.0,0.0,0.0,0.25001037,-0.014244197,-0.9681355,-0.99090576,0.07086182,0.0043945312,-0.041015625,0.041015625,0.034179688,5.5825114,5.17599,-0.29489905,-20.043407,0.9680786,-0.15600586,-0.25494385,-0.05078125,0.036132812,0.015625,1.6899178,3.6860256,-57.237637,-22.206816,-0.59210205,0.018920898,0.7970581,-0.03125,0.0068359375,-9.765625E-4,16.979797,2.343297,-129.23117,-23.350536,0.0,0.0,0.0,0.0,0.0,0.0,0.0,-12.558123,-129.01535,-36.68742,0.0,0.0,0.0,0.0,0.0,0.0,0.0,-0.25001037,0.014244197,0.9681355,-0.9321289,-0.15576172,-0.3546753,-0.0234375,-0.061523438,0.016601562,0.8645667,-5.17599,0.29489905,20.043407,1.0079346,-0.01171875,-0.17980957,-0.038085938,0.021484375,0.06640625,3.254076,-1.6673985,-56.58772,21.433577,-0.41314697,0.034729004,0.9055176,0.0029296875,0.009765625,0.00390625,9.430297,-1.7244375,-128.49712,25.36421,0.0,0.0,0.0,0.0,0.0,0.0,0.0,-21.52516,-129.20784,22.658386,0.0,0.0,0.0,0.0,0.0,0.0,0.0,-2.0998833,44.934742,-1.2033975,
1.9726562206051315,101,-0.035705566,0.8074341,0.47460938,-0.061523438,-0.01171875,0.048828125,0.0,0.0,0.0,0.0,0.0,0.0,0.0,0.0,0.0,0.0,0.0,0.24367267,-0.021315943,-0.9665803,-0.98876953,0.05102539,-0.031799316,-0.041015625,-0.015625,-0.0048828125,4.916056,5.0447783,-0.4413061,-20.011208,0.96728516,-0.14709473,-0.26483154,-0.049804688,0.03515625,0.0546875,1.6827228,3.5858743,-57.388752,-22.15735,-0.59295654,0.027770996,0.8039551,0.0068359375,0.0234375,0.0,16.848106,2.2892528,-129.379,-23.299248,0.0,0.0,0.0,0.0,0.0,0.0,0.0,-12.613674,-129.16335,-36.63624,0.0,0.0,0.0,0.0,0.0,0.0,0.0,-0.24367267,0.021315943,0.9665803,-0.9104004,-0.11047363,-0.38085938,0.015625,0.0546875,-0.024414062,1.9743714,-5.0447783,0.4413061,20.011208,1.010376,0.03515625,-0.17523193,-0.057617188,-0.015625,0.047851562,3.2342825,-1.4936023,-56.44003,21.392334,-0.4295044,0.022277832,0.8829346,-0.016601562,0.029296875,0.00390625,9.361075,-1.4817624,-128.34491,25.287048,0.0,0.0,0.0,0.0,0.0,0.0,0.0,-21.281208,-129.06352,22.566557,0.0,0.0,0.0,0.0,0.0,0.0,0.0,-1.2661184,44.8303,-1.3078258,
1.9921874703140932,102,-0.028625488,0.80133057,0.47540283,0.017578125,0.025390625,0.083984375,0.0,0.0,0.0,0.0,0.0,0.0,0.0,0.0,0.0,0.0,0.0,0.24386951,-0.023216683,-0.96908194,-1.0030518,0.05871582,-0.01373291,-0.041015625,0.080078125,-0.00390625,4.855791,5.048855,-0.4806573,-20.063,0.9707031,-0.1687622,-0.27392578,-0.087890625,0.055664062,0.052734375,1.6609503,3.649438,-57.427216,-22.20678,-0.6335449,0.003479004,0.79125977,-0.01171875,0.005859375,-0.018554688,16.840351,2.405297,-129.4146,-23.362963,0.0,0.0,0.0,0.0,0.0,0.0,0.0,-12.479634,-129.2102,-36.718327,0.0,0.0,0.0,0.0,0.0,0.0,0.0,-0.24386951,0.023216683,0.96908194,-0.8954468,-0.11639404,-0.3494873,-0.060546875,0.056640625,0.017578125,2.1447537,-5.048855,0.4806573,20.063,1.0075073,-0.01574707,-0.2074585,-0.057617188,0.021484375,0.06640625,3.1946952,-1.481173,-56.400417,21.381872,-0.42333984,0.055664062,0.93310547,0.001953125,0.009765625,0.022460938,9.296143,-1.3998827,-128.312,25.182545,0.0,0.0,0.0,0.0,0.0,0.0,0.0,-21.197979,-129.02962,22.456875,0.0,0.0,0.0,0.0,0.0,0.0,0.0,-1.1651365,44.944477,-1.3699594,
2.011718720023055,103,-0.035339355,0.80859375,0.5015259,0.018554688,0.044921875,0.083984375,0.0,0.0,0.0,0.0,0.0,0.0,0.0,0.0,0.0,0.0,0.0,0.24456444,-0.024538955,-0.96923524,-0.987854,0.06896973,-0.0025634766,-0.060546875,0.059570312,0.034179688,4.9386,5.063242,-0.5080324,-20.066174,0.97717285,-0.15631104,-0.2579956,-0.0126953125,0.036132812,0.017578125,1.6390082,3.7165275,-57.451954,-22.25356,-0.6272583,0.016113281,0.788208,0.0068359375,-0.0126953125,0.0,16.826954,2.4938514,-129.44345,-23.457357,0.0,0.0,0.0,0.0,0.0,0.0,0.0,-12.383607,-129.24579,-36.82239,0.0,0.0,0.0,0.0,0.0,0.0,0.0,-0.24456444,0.024538955,0.96923524,-0.9251709,-0.16375732,-0.3517456,-0.080078125,-9.765625E-4,0.017578125,2.1612978,-5.063242,0.5080324,20.066174,1.0042114,0.010314941,-0.1749878,0.0,0.0390625,0.06542969,3.1423004,-1.4890261,-56.376007,21.342615,-0.42126465,0.051818848,0.91241455,-0.016601562,0.009765625,0.00390625,9.150726,-1.3170909,-128.28613,25.095888,0.0,0.0,0.0,0.0,0.0,0.0,0.0,-21.117062,-128.99957,22.374031,0.0,0.0,0.0,0.0,0.0,0.0,0.0,-1.1798726,44.957798,-1.4359488,
2.0312499697320168,104,-0.03656006,0.79260254,0.4794922,-0.020507812,0.044921875,0.06738281,0.0,0.0,0.0,0.0,0.0,0.0,0.0,0.0,0.0,0.0,0.0,0.24509141,-0.024840083,-0.9693173,-0.98779297,0.056640625,-0.020690918,-0.07910156,0.09863281,0.015625,4.9935946,5.074152,-0.5142668,-20.067873,0.9717407,-0.1315918,-0.2668457,0.0068359375,0.03515625,0.037109375,1.633866,3.7799783,-57.46364,-22.273226,-0.6188965,-0.021606445,0.7942505,0.0068359375,0.005859375,0.037109375,16.761852,2.58366,-129.45593,-23.469566,0.0,0.0,0.0,0.0,0.0,0.0,0.0,-12.294548,-129.26628,-36.83475,0.0,0.0,0.0,0.0,0.0,0.0,0.0,-0.24509141,0.024840083,0.9693173,-0.92022705,-0.16723633,-0.3734131,-0.022460938,0.055664062,-0.00390625,2.1378987,-5.074152,0.5142668,20.067873,1.0272217,0.019958496,-0.17352295,-0.07714844,0.041015625,0.028320312,3.1000886,-1.460516,-56.362415,21.353964,-0.42962646,0.023010254,0.91052246,0.0029296875,0.009765625,0.00390625,8.983494,-1.1884067,-128.27037,25.096766,0.0,0.0,0.0,0.0,0.0,0.0,0.0,-20.989222,-128.98665,22.379612,0.0,0.0,0.0,0.0,0.0,0.0,0.0,-1.2361784,44.96508,-1.4648589,
2.0507812194409785,105,-0.059326172,0.7904663,0.5159302,0.0390625,0.06347656,0.083984375,0.0,0.0,0.0,0.0,0.0,0.0,0.0,0.0,0.0,0.0,0.0,0.24757645,-0.025443336,-0.96868247,-0.9789429,0.05029297,0.0040893555,-0.07910156,0.041015625,-0.00390625,5.0893893,5.1255994,-0.5267559,-20.054731,0.96954346,-0.14141846,-0.23492432,-0.03125,0.0546875,0.03515625,1.6312288,3.8313353,-57.477375,-22.22743,-0.59436035,3.6621094E-4,0.7783203,-0.01171875,0.005859375,0.0,16.709171,2.6397562,-129.46745,-23.3932,0.0,0.0,0.0,0.0,0.0,0.0,0.0,-12.236146,-129.27777,-36.758244,0.0,0.0,0.0,0.0,0.0,0.0,0.0,-0.24757645,0.025443336,0.96868247,-0.92211914,-0.1595459,-0.32617188,-0.022460938,0.055664062,-0.0234375,2.0842202,-5.1255994,0.5267559,20.054731,1.0042725,0.0033569336,-0.16900635,-0.038085938,0.040039062,0.06640625,3.0765076,-1.4630947,-56.347164,21.382694,-0.39770508,0.037475586,0.90148926,0.0029296875,0.009765625,0.00390625,8.882014,-1.1238985,-128.25455,25.13011,0.0,0.0,0.0,0.0,0.0,0.0,0.0,-20.926525,-128.97427,22.42277,0.0,0.0,0.0,0.0,0.0,0.0,0.0,-1.3249091,44.961285,-1.5195706,
2.07031246914994,106,-0.0736084,0.77978516,0.5003052,0.038085938,0.043945312,0.06542969,0.0,0.0,0.0,0.0,0.0,0.0,0.0,0.0,0.0,0.0,0.0,0.2505575,-0.023816096,-0.9679045,-0.9920044,0.06213379,0.0032958984,-0.022460938,0.0029296875,0.052734375,5.049815,5.1873174,-0.49306703,-20.038624,0.96899414,-0.15789795,-0.26989746,-0.05078125,0.036132812,0.03515625,1.6076646,3.9167304,-57.440434,-22.171465,-0.6013794,0.0045166016,0.7862549,-0.01171875,0.005859375,-0.018554688,16.640177,2.75795,-129.43373,-23.331411,0.0,0.0,0.0,0.0,0.0,0.0,0.0,-12.12532,-129.24423,-36.689167,0.0,0.0,0.0,0.0,0.0,0.0,0.0,-0.2505575,0.023816096,0.9679045,-0.94348145,-0.17858887,-0.33221436,-0.080078125,0.038085938,-0.0234375,1.9886926,-5.1873174,0.49306703,20.038624,0.9876709,0.016601562,-0.15197754,-0.0390625,0.05859375,0.028320312,3.0643938,-1.4937179,-56.378548,21.422165,-0.41119385,0.026611328,0.9193115,0.0029296875,0.009765625,0.00390625,8.778097,-1.1299694,-128.28596,25.185364,0.0,0.0,0.0,0.0,0.0,0.0,0.0,-20.936037,-129.00359,22.507225,0.0,0.0,0.0,0.0,0.0,0.0,0.0,-1.4013237,44.958355,-1.4689927,
2.089843718858902,107,-0.06439209,0.8005371,0.5151367,-0.060546875,0.02734375,0.0859375,0.0,0.0,0.0,0.0,0.0,0.0,0.0,0.0,0.0,0.0,0.0,0.25385714,-0.022912106,-0.96703374,-1.0071411,0.04144287,-0.026000977,-0.041015625,-0.015625,0.033203125,5.0595436,5.25563,-0.4743516,-20.020596,0.9656372,-0.13427734,-0.26281738,-0.0126953125,0.03515625,0.036132812,1.6000998,3.99876,-57.422157,-22.139332,-0.6014404,5.493164E-4,0.7862549,-0.03125,0.0068359375,-9.765625E-4,16.641535,2.8566384,-129.41821,-23.294058,0.0,0.0,0.0,0.0,0.0,0.0,0.0,-12.032383,-129.23564,-36.646805,0.0,0.0,0.0,0.0,0.0,0.0,0.0,-0.25385714,0.022912106,0.96703374,-0.93896484,-0.140625,-0.3260498,-0.060546875,0.056640625,-0.0029296875,1.8938255,-5.25563,0.4743516,20.020596,1.0005493,0.010375977,-0.15216064,-0.057617188,0.021484375,0.047851562,3.0360262,-1.5650072,-56.394108,21.44064,-0.40997314,0.03375244,0.8946533,0.001953125,-0.009765625,0.00390625,8.740017,-1.1774093,-128.30228,25.226189,0.0,0.0,0.0,0.0,0.0,0.0,0.0,-20.986649,-129.02238,22.558395,0.0,0.0,0.0,0.0,0.0,0.0,0.0,-1.4641354,44.955578,-1.4494925,
