TOTAL_TIME,0m13s
TOTAL_FRAMES,671
SELECTED_FRAMES,671
NO_OF_JOINTS,12
FREQUENCY,51.2
DESCRIPTION,Capture 39
TIME_STAMP,Nov 1, 2010

Time,Frame,Pelvis_accelX_Pelvis,Pelvis_accelY_Pelvis,Pelvis_accelZ_Pelvis,Pelvis_gyroX_Pelvis,Pelvis_gyroY_Pelvis,Pelvis_gyroZ_Pelvis,Pelvis_Joint angle_Pelvis,Pelvis_Relative pos X_Pelvis,Pelvis_Relative pos Y_Pelvis,Pelvis_Relative pos Z_Pelvis,RightPelvis_accelX_RightPelvis,RightPelvis_accelY_RightPelvis,RightPelvis_accelZ_RightPelvis,RightPelvis_gyroX_RightPelvis,RightPelvis_gyroY_RightPelvis,RightPelvis_gyroZ_RightPelvis,RightPelvis_Joint angle_RightPelvis,RightPelvis_Relative pos X_RightPelvis,RightPelvis_Relative pos Y_RightPelvis,RightPelvis_Relative pos Z_RightPelvis,RightUpLeg_accelX_RightUpLeg,RightUpLeg_accelY_RightUpLeg,RightUpLeg_accelZ_RightUpLeg,RightUpLeg_gyroX_RightUpLeg,RightUpLeg_gyroY_RightUpLeg,RightUpLeg_gyroZ_RightUpLeg,RightUpLeg_Joint angle_RightUpLeg,RightUpLeg_Relative pos X_RightUpLeg,RightUpLeg_Relative pos Y_RightUpLeg,RightUpLeg_Relative pos Z_RightUpLeg,RightLeg_accelX_RightLeg,RightLeg_accelY_RightLeg,RightLeg_accelZ_RightLeg,RightLeg_gyroX_RightLeg,RightLeg_gyroY_RightLeg,RightLeg_gyroZ_RightLeg,RightLeg_Joint angle_RightLeg,RightLeg_Relative pos X_RightLeg,RightLeg_Relative pos Y_RightLeg,RightLeg_Relative pos Z_RightLeg,RightFoot_accelX_RightFoot,RightFoot_accelY_RightFoot,RightFoot_accelZ_RightFoot,RightFoot_gyroX_RightFoot,RightFoot_gyroY_RightFoot,RightFoot_gyroZ_RightFoot,RightFoot_Joint angle_RightFoot,RightFoot_Relative pos X_RightFoot,RightFoot_Relative pos Y_RightFoot,RightFoot_Relative pos Z_RightFoot,RightFootEnd_accelX_RightFootEnd,RightFootEnd_accelY_RightFootEnd,RightFootEnd_accelZ_RightFootEnd,RightFootEnd_gyroX_RightFootEnd,RightFootEnd_gyroY_RightFootEnd,RightFootEnd_gyroZ_RightFootEnd,RightFootEnd_Joint angle_RightFootEnd,RightFootEnd_Relative pos X_RightFootEnd,RightFootEnd_Relative pos Y_RightFootEnd,RightFootEnd_Relative pos Z_RightFootEnd,LeftPelvis_accelX_LeftPelvis,LeftPelvis_accelY_LeftPelvis,LeftPelvis_accelZ_LeftPelvis,LeftPelvis_gyroX_LeftPelvis,LeftPelvis_gyroY_LeftPelvis,LeftPelvis_gyroZ_LeftPelvis,LeftPelvis_Joint angle_LeftPelvis,LeftPelvis_Relative pos X_LeftPelvis,LeftPelvis_Relative pos Y_LeftPelvis,LeftPelvis_Relative pos Z_LeftPelvis,LeftUpLeg_accelX_LeftUpLeg,LeftUpLeg_accelY_LeftUpLeg,LeftUpLeg_accelZ_LeftUpLeg,LeftUpLeg_gyroX_LeftUpLeg,LeftUpLeg_gyroY_LeftUpLeg,LeftUpLeg_gyroZ_LeftUpLeg,LeftUpLeg_Joint angle_LeftUpLeg,LeftUpLeg_Relative pos X_LeftUpLeg,LeftUpLeg_Relative pos Y_LeftUpLeg,LeftUpLeg_Relative pos Z_LeftUpLeg,LeftLeg_accelX_LeftLeg,LeftLeg_accelY_LeftLeg,LeftLeg_accelZ_LeftLeg,LeftLeg_gyroX_LeftLeg,LeftLeg_gyroY_LeftLeg,LeftLeg_gyroZ_LeftLeg,LeftLeg_Joint angle_LeftLeg,LeftLeg_Relative pos X_LeftLeg,LeftLeg_Relative pos Y_LeftLeg,LeftLeg_Relative pos Z_LeftLeg,LeftFoot_accelX_LeftFoot,LeftFoot_accelY_LeftFoot,LeftFoot_accelZ_LeftFoot,LeftFoot_gyroX_LeftFoot,LeftFoot_gyroY_LeftFoot,LeftFoot_gyroZ_LeftFoot,LeftFoot_Joint angle_LeftFoot,LeftFoot_Relative pos X_LeftFoot,LeftFoot_Relative pos Y_LeftFoot,LeftFoot_Relative pos Z_LeftFoot,LeftFootEnd_accelX_LeftFootEnd,LeftFootEnd_accelY_LeftFootEnd,LeftFootEnd_accelZ_LeftFootEnd,LeftFootEnd_gyroX_LeftFootEnd,LeftFootEnd_gyroY_LeftFootEnd,LeftFootEnd_gyroZ_LeftFootEnd,LeftFootEnd_Joint angle_LeftFootEnd,LeftFootEnd_Relative pos X_LeftFootEnd,LeftFootEnd_Relative pos Y_LeftFootEnd,LeftFootEnd_Relative pos Z_LeftFootEnd,Spine_accelX_Spine,Spine_accelY_Spine,Spine_accelZ_Spine,Spine_gyroX_Spine,Spine_gyroY_Spine,Spine_gyroZ_Spine,Spine_Joint angle_Spine,Spine_Relative pos X_Spine,Spine_Relative pos Y_Spine,Spine_Relative pos Z_Spine,
0.0,0,-0.2857666,0.6359863,0.59228516,-0.22265625,1.0947266,0.6464844,0.0,0.0,0.0,0.0,0.0,0.0,0.0,0.0,0.0,0.0,0.0,0.08994594,-0.99085754,-0.09416838,-0.8986206,0.37231445,0.057434082,-2.2509766,0.34179688,1.1074219,88.64299,1.8621608,-20.513823,-1.9495773,0.6444702,-0.2635498,-0.72283936,3.4453125,-0.6933594,-1.7851562,52.46091,4.7880836,-76.566086,-11.914926,-0.8227539,-0.14013672,0.3746338,-4.970703,0.17285156,3.3251953,42.50114,41.150257,-126.63835,24.912277,0.0,0.0,0.0,0.0,0.0,0.0,0.0,52.31903,-129.33627,8.543047,0.0,0.0,0.0,0.0,0.0,0.0,0.0,-0.08994594,0.99085754,0.09416838,-0.47174072,0.23278809,-0.347229,-1.3720703,1.2089844,-0.5986328,87.84086,-1.8621608,20.513823,1.9495773,0.8488159,0.50567627,-0.103027344,-2.0273438,0.18261719,0.7480469,49.839066,0.7366587,-35.95983,-5.4083304,-0.41296387,0.06262207,0.91534424,0.119140625,0.1015625,0.0029296875,95.20677,15.000365,-88.98811,41.17312,0.0,0.0,0.0,0.0,0.0,0.0,0.0,32.53593,-85.93824,32.050903,0.0,0.0,0.0,0.0,0.0,0.0,0.0,44.096653,4.712578,-7.467203,
0.0195312497089617,1,-0.2857666,0.6359863,0.59228516,-0.22265625,1.0947266,0.6464844,0.0,0.0,0.0,0.0,0.0,0.0,0.0,0.0,0.0,0.0,0.0,0.08994594,-0.99085754,-0.09416838,-0.8986206,0.37231445,0.057434082,-2.2509766,0.34179688,1.1074219,88.64299,1.8621608,-20.513823,-1.9495773,0.6444702,-0.2635498,-0.72283936,3.4453125,-0.6933594,-1.7851562,52.46091,4.7880836,-76.566086,-11.914926,-0.8227539,-0.14013672,0.3746338,-4.970703,0.17285156,3.3251953,42.50114,41.150257,-126.63835,24.912277,0.0,0.0,0.0,0.0,0.0,0.0,0.0,52.31903,-129.33627,8.543047,0.0,0.0,0.0,0.0,0.0,0.0,0.0,-0.08994594,0.99085754,0.09416838,-0.47174072,0.23278809,-0.347229,-1.3720703,1.2089844,-0.5986328,87.84086,-1.8621608,20.513823,1.9495773,0.8488159,0.50567627,-0.103027344,-2.0273438,0.18261719,0.7480469,49.839066,0.7366587,-35.95983,-5.4083304,-0.41296387,0.06262207,0.91534424,0.119140625,0.1015625,0.0029296875,95.20677,15.000365,-88.98811,41.17312,0.0,0.0,0.0,0.0,0.0,0.0,0.0,32.53593,-85.93824,32.050903,0.0,0.0,0.0,0.0,0.0,0.0,0.0,44.096653,4.712578,-7.467203,
0.0390624994179234,2,-0.2857666,0.6359863,0.59228516,-0.22265625,1.0947266,0.6464844,0.0,0.0,0.0,0.0,0.0,0.0,0.0,0.0,0.0,0.0,0.0,0.08994594,-0.99085754,-0.09416838,-0.8986206,0.37231445,0.057434082,-2.2509766,0.34179688,1.1074219,88.64299,1.8621608,-20.513823,-1.9495773,0.6444702,-0.2635498,-0.72283936,3.4453125,-0.6933594,-1.7851562,52.46091,4.7880836,-76.566086,-11.914926,-0.8227539,-0.14013672,0.3746338,-4.970703,0.17285156,3.3251953,42.50114,41.150257,-126.63835,24.912277,0.0,0.0,0.0,0.0,0.0,0.0,0.0,52.31903,-129.33627,8.543047,0.0,0.0,0.0,0.0,0.0,0.0,0.0,-0.08994594,0.99085754,0.09416838,-0.47174072,0.23278809,-0.347229,-1.3720703,1.2089844,-0.5986328,87.84086,-1.8621608,20.513823,1.9495773,0.8488159,0.50567627,-0.103027344,-2.0273438,0.18261719,0.7480469,49.839066,0.7366587,-35.95983,-5.4083304,-0.41296387,0.06262207,0.91534424,0.119140625,0.1015625,0.0029296875,95.20677,15.000365,-88.98811,41.17312,0.0,0.0,0.0,0.0,0.0,0.0,0.0,32.53593,-85.93824,32.050903,0.0,0.0,0.0,0.0,0.0,0.0,0.0,44.096653,4.712578,-7.467203,
0.0585937491268851,3,-0.09197998,0.80804443,0.49102783,-0.0234375,-0.05078125,0.06640625,0.0,0.0,0.0,0.0,0.0,0.0,0.0,0.0,0.0,0.0,0.0,0.29915696,0.024210215,-0.9539016,-0.9888916,0.04498291,-0.019897461,0.034179688,1.1757812,0.61816406,3.7791638,6.193477,0.50122654,-19.74872,0.9784546,-0.11639404,-0.20300293,-0.01171875,0.053710938,0.0546875,3.3948257,5.402353,-56.488037,-20.640587,-0.5824585,-0.0021972656,0.8218384,-0.03125,0.04296875,-0.01953125,14.132742,2.3825111,-128.36566,-17.360163,0.0,0.0,0.0,0.0,0.0,0.0,0.0,-14.932764,-127.88931,-27.358059,0.0,0.0,0.0,0.0,0.0,0.0,0.0,-0.29915696,-0.024210215,0.9539016,-0.92626953,-0.095947266,-0.3227539,0.072265625,-0.005859375,0.036132812,2.1654594,-6.193477,-0.50122654,19.74872,1.0031128,-0.08251953,-0.20098877,-0.0390625,0.11425781,0.045898438,2.6950068,-5.2208295,-57.496864,20.083157,-0.40905762,0.042541504,0.9202881,-0.049804688,0.59375,1.0771484,14.113358,-6.0874767,-129.44843,17.228931,0.0,0.0,0.0,0.0,0.0,0.0,0.0,-22.727003,-129.86697,6.1342926,0.0,0.0,0.0,0.0,0.0,0.0,0.0,-2.3280768,44.938076,0.41041964,
0.0781249988358468,4,-0.07165527,0.79364014,0.4993286,0.053710938,-0.072265625,0.045898438,0.0,0.0,0.0,0.0,0.0,0.0,0.0,0.0,0.0,0.0,0.0,0.30046952,0.024139669,-0.9534958,-1.0020142,0.03955078,-0.033996582,0.0146484375,0.81640625,0.46191406,3.0273736,6.2206497,0.499766,-19.740316,0.98205566,-0.13122559,-0.21411133,-0.06933594,0.055664062,0.034179688,4.3838286,6.416256,-56.478977,-21.37177,-0.5834961,-2.4414062E-4,0.8307495,-0.01171875,-0.030273438,-0.018554688,14.025472,3.4133074,-128.35318,-18.149582,0.0,0.0,0.0,0.0,0.0,0.0,0.0,-13.904015,-127.87632,-28.141836,0.0,0.0,0.0,0.0,0.0,0.0,0.0,-0.30046952,-0.024139669,0.9534958,-0.9538574,-0.05505371,-0.29296875,0.03515625,0.07324219,0.037109375,2.2210538,-6.2206497,-0.499766,19.740316,1.0012817,-0.10241699,-0.18005371,0.038085938,0.057617188,-0.0107421875,2.6363363,-5.292473,-57.49977,20.041496,-0.4243164,0.06573486,0.9242554,-0.0126953125,0.5175781,0.9638672,15.21129,-6.287302,-129.44928,17.251358,0.0,0.0,0.0,0.0,0.0,0.0,0.0,-22.713812,-129.8265,5.848608,0.0,0.0,0.0,0.0,0.0,0.0,0.0,-2.3572247,44.93691,0.39485013,
0.09765624854480849,5,-0.07775879,0.80078125,0.49658203,0.0546875,-0.052734375,0.045898438,0.0,0.0,0.0,0.0,0.0,0.0,0.0,0.0,0.0,0.0,0.0,0.301668,0.023654096,-0.9531702,-1.0029297,0.03881836,-0.046936035,0.053710938,0.25097656,0.0546875,2.7388113,6.245462,0.48971313,-19.73358,0.97869873,-0.14483643,-0.21014404,-0.08886719,-0.001953125,0.034179688,4.86196,6.9541063,-56.47593,-21.681948,-0.5810547,0.01953125,0.8069458,0.0068359375,-0.0126953125,-0.018554688,14.107516,3.9559512,-128.35419,-18.512846,0.0,0.0,0.0,0.0,0.0,0.0,0.0,-13.359762,-127.86628,-28.508808,0.0,0.0,0.0,0.0,0.0,0.0,0.0,-0.301668,-0.023654096,0.9531702,-0.9482422,-0.083618164,-0.3295288,-0.00390625,0.03515625,0.016601562,2.2667587,-6.245462,-0.48971313,19.73358,0.99560547,-0.07940674,-0.17120361,-0.11621094,0.041015625,0.06640625,2.5849774,-5.3798027,-57.488976,20.010616,-0.4006958,0.057434082,0.9104004,-0.03125,0.40625,0.625,16.039686,-6.420973,-129.44257,17.248041,0.0,0.0,0.0,0.0,0.0,0.0,0.0,-22.690956,-129.79173,5.6215153,0.0,0.0,0.0,0.0,0.0,0.0,0.0,-2.3634605,44.938564,0.36719662,
0.11718749825377019,6,-0.0692749,0.78582764,0.52612305,0.0146484375,-0.07128906,0.046875,0.0,0.0,0.0,0.0,0.0,0.0,0.0,0.0,0.0,0.0,0.0,0.3036289,0.02370037,-0.95245206,-0.9805908,0.07684326,-0.013427734,0.052734375,0.041992188,0.0146484375,2.7844584,6.2860594,0.49067113,-19.71871,0.97332764,-0.15234375,-0.23504639,-0.05078125,0.036132812,0.015625,4.8109636,7.0114913,-56.473896,-21.679165,-0.5845947,-0.010864258,0.7991333,-0.01171875,-0.030273438,0.0,14.112489,4.025978,-128.35924,-18.603905,0.0,0.0,0.0,0.0,0.0,0.0,0.0,-13.280319,-127.869606,-28.614792,0.0,0.0,0.0,0.0,0.0,0.0,0.0,-0.3036289,-0.02370037,0.95245206,-0.9640503,-0.06512451,-0.3126831,0.07324219,-0.005859375,0.015625,2.3652127,-6.2860594,-0.49067113,19.71871,0.98358154,-0.07720947,-0.17791748,-0.15429688,0.0234375,0.06738281,2.5039747,-5.4910975,-57.491627,19.959452,-0.40270996,0.059509277,0.9035034,-0.051757812,0.20019531,0.19238281,16.593027,-6.5360203,-129.44537,17.230127,0.0,0.0,0.0,0.0,0.0,0.0,0.0,-22.733767,-129.79044,5.501566,0.0,0.0,0.0,0.0,0.0,0.0,0.0,-2.403111,44.93254,0.35200095,
0.1367187479627319,7,-0.07727051,0.80493164,0.53344727,0.036132812,-0.033203125,0.028320312,0.0,0.0,0.0,0.0,0.0,0.0,0.0,0.0,0.0,0.0,0.0,0.30433607,0.023297243,-0.95235276,-0.9718628,0.04333496,0.003967285,0.052734375,-0.015625,0.052734375,2.9417117,6.3006988,0.48232517,-19.716654,0.9807739,-0.13891602,-0.23504639,-0.013671875,0.016601562,0.017578125,4.709897,6.92752,-56.483643,-21.691444,-0.5935669,-0.0056762695,0.8031006,0.0068359375,0.0048828125,-0.018554688,14.089291,3.9666915,-128.37292,-18.696825,0.0,0.0,0.0,0.0,0.0,0.0,0.0,-13.333704,-127.87823,-28.716373,0.0,0.0,0.0,0.0,0.0,0.0,0.0,-0.30433607,-0.023297243,0.95235276,-0.9351196,-0.07904053,-0.32556152,0.053710938,-0.024414062,0.036132812,2.42858,-6.3006988,-0.48232517,19.716654,0.9971924,-0.09240723,-0.19091797,0.0,0.020507812,0.028320312,2.4770968,-5.540324,-57.484646,19.929482,-0.41290283,0.07171631,0.9055176,0.0029296875,0.028320312,0.00390625,16.641832,-6.6034317,-129.43788,17.19343,0.0,0.0,0.0,0.0,0.0,0.0,0.0,-22.802387,-129.77908,5.4685745,0.0,0.0,0.0,0.0,0.0,0.0,0.0,-2.4434733,44.935616,0.31841046,
0.1562499976716936,8,-0.08465576,0.8060303,0.51171875,0.07324219,-0.072265625,0.045898438,0.0,0.0,0.0,0.0,0.0,0.0,0.0,0.0,0.0,0.0,0.0,0.30518654,0.023294253,-0.9521084,-0.9916382,0.04650879,-0.053771973,0.072265625,0.041992188,0.0146484375,2.9682765,6.318308,0.48226327,-19.711596,0.9859619,-0.13427734,-0.23205566,-0.06738281,0.11230469,0.052734375,4.6831613,6.9423265,-56.486053,-21.675907,-0.59143066,1.8310547E-4,0.8040161,0.0068359375,0.005859375,0.0,14.055483,3.967484,-128.37735,-18.711964,0.0,0.0,0.0,0.0,0.0,0.0,0.0,-13.328638,-127.87698,-28.742321,0.0,0.0,0.0,0.0,0.0,0.0,0.0,-0.30518654,-0.023294253,0.9521084,-0.9346924,-0.04901123,-0.31359863,-0.041992188,0.036132812,0.038085938,2.463548,-6.318308,-0.48226327,19.711596,1.0007324,-0.0925293,-0.21966553,-9.765625E-4,0.09472656,0.02734375,2.4645014,-5.5702157,-57.485714,19.92097,-0.40063477,0.06549072,0.90148926,0.001953125,0.009765625,0.022460938,16.55703,-6.661752,-129.43872,17.202114,0.0,0.0,0.0,0.0,0.0,0.0,0.0,-22.872406,-129.77432,5.491599,0.0,0.0,0.0,0.0,0.0,0.0,0.0,-2.4653273,44.935677,0.30916476,
0.1757812473806553,9,-0.06781006,0.8104248,0.49145508,0.09375,-0.07324219,0.044921875,0.0,0.0,0.0,0.0,0.0,0.0,0.0,0.0,0.0,0.0,0.0,0.30648193,0.022770278,-0.951868,-1.0009766,0.026123047,-0.046142578,-0.022460938,0.060546875,0.034179688,2.8866293,6.3451266,0.47141534,-19.706617,0.9915161,-0.11883545,-0.2230835,-0.087890625,0.055664062,0.052734375,4.6653504,7.0258265,-56.49336,-21.66198,-0.5734863,-0.0063476562,0.81884766,0.0068359375,-0.0126953125,0.018554688,14.125369,4.0962715,-128.38464,-18.729362,0.0,0.0,0.0,0.0,0.0,0.0,0.0,-13.196171,-127.88298,-28.764435,0.0,0.0,0.0,0.0,0.0,0.0,0.0,-0.30648193,-0.022770278,0.951868,-0.9493408,-0.09289551,-0.30993652,-0.041992188,-0.041015625,0.016601562,2.453517,-6.3451266,-0.47141534,19.706617,0.98321533,-0.07324219,-0.2055664,-9.765625E-4,0.057617188,0.0087890625,2.4213965,-5.64202,-57.47428,19.903652,-0.4015503,0.08148193,0.90448,0.001953125,-0.028320312,-0.015625,16.41743,-6.8049965,-129.4273,17.232773,0.0,0.0,0.0,0.0,0.0,0.0,0.0,-23.031643,-129.74686,5.5459366,0.0,0.0,0.0,0.0,0.0,0.0,0.0,-2.4284306,44.94479,0.29325002,
0.19531249708961698,10,-0.07598877,0.79364014,0.47558594,0.015625,-0.051757812,0.046875,0.0,0.0,0.0,0.0,0.0,0.0,0.0,0.0,0.0,0.0,0.0,0.30514318,0.02198077,-0.9523544,-0.994812,0.062561035,-0.020629883,0.052734375,0.0234375,-0.0234375,2.8955672,6.31741,0.4550701,-19.716688,0.9639282,-0.16479492,-0.21008301,-0.14550781,0.038085938,0.013671875,4.562311,6.979459,-56.51352,-21.636438,-0.58062744,-0.010192871,0.8347168,0.0068359375,0.0234375,0.0,14.312608,4.0692286,-128.40596,-18.783737,0.0,0.0,0.0,0.0,0.0,0.0,0.0,-13.216698,-127.90376,-28.82909,0.0,0.0,0.0,0.0,0.0,0.0,0.0,-0.30514318,-0.02198077,0.9523544,-0.9016113,-0.05493164,-0.33917236,0.13085938,0.109375,0.036132812,2.3850727,-6.31741,-0.4550701,19.716688,0.9951172,-0.10333252,-0.1907959,0.095703125,0.09375,-0.01171875,2.400614,-5.569884,-57.45603,19.888494,-0.39257812,0.05908203,0.92907715,0.001953125,-0.009765625,0.022460938,16.446827,-6.8796268,-129.40323,17.29839,0.0,0.0,0.0,0.0,0.0,0.0,0.0,-23.106085,-129.7105,5.6100054,0.0,0.0,0.0,0.0,0.0,0.0,0.0,-2.4201226,44.947056,0.26196867,
0.21484374679857868,11,-0.08355713,0.80700684,0.5196533,0.03515625,-0.052734375,0.028320312,0.0,0.0,0.0,0.0,0.0,0.0,0.0,0.0,0.0,0.0,0.0,0.30622405,0.021712162,-0.9519964,-0.97442627,0.0625,-0.03253174,0.0146484375,-0.016601562,0.052734375,2.990812,6.3397875,0.44950905,-19.709276,0.9612427,-0.14990234,-0.23492432,0.0048828125,0.036132812,-9.765625E-4,4.468702,6.954753,-56.516262,-21.65733,-0.57055664,-0.011352539,0.809021,-0.01171875,-0.01171875,0.0,14.352794,4.0724154,-128.41562,-18.926178,0.0,0.0,0.0,0.0,0.0,0.0,0.0,-13.198487,-127.91551,-28.998343,0.0,0.0,0.0,0.0,0.0,0.0,0.0,-0.30622405,-0.021712162,0.9519964,-0.9656372,-0.033996582,-0.34588623,0.053710938,0.13085938,0.057617188,2.2852473,-6.3397875,-0.44950905,19.709276,0.989624,-0.061340332,-0.18011475,0.115234375,0.055664062,0.0078125,2.3950634,-5.485383,-57.448555,19.791834,-0.40997314,0.051513672,0.9192505,0.040039062,-0.0107421875,-0.015625,16.23868,-6.8552256,-129.39366,17.198517,0.0,0.0,0.0,0.0,0.0,0.0,0.0,-23.093834,-129.69809,5.526206,0.0,0.0,0.0,0.0,0.0,0.0,0.0,-2.442851,44.945213,0.23928452,
0.23437499650754037,12,-0.07788086,0.81463623,0.49176025,0.055664062,-0.015625,0.009765625,0.0,0.0,0.0,0.0,0.0,0.0,0.0,0.0,0.0,0.0,0.0,0.30566943,0.021071361,-0.9522005,-0.9827881,0.029663086,-0.040100098,0.09082031,0.060546875,0.0146484375,2.979861,6.328305,0.43624246,-19.713501,0.9840698,-0.13226318,-0.2230835,-0.0126953125,-0.0029296875,0.036132812,4.386286,6.9381204,-56.531307,-21.634071,-0.576416,-0.0013427734,0.81689453,0.0068359375,-0.0126953125,0.0,14.264274,4.0663557,-128.43504,-18.977894,0.0,0.0,0.0,0.0,0.0,0.0,0.0,-13.203168,-127.93664,-29.053146,0.0,0.0,0.0,0.0,0.0,0.0,0.0,-0.30566943,-0.021071361,0.9522005,-0.928772,-0.055725098,-0.2831421,-0.15625,-0.038085938,-0.001953125,2.298484,-6.328305,-0.43624246,19.713501,0.970459,-0.0680542,-0.1954956,0.05859375,-0.016601562,0.02734375,2.3229632,-5.5201674,-57.437817,19.740368,-0.37817383,0.06488037,0.92211914,0.001953125,-0.009765625,0.022460938,15.981009,-6.871072,-129.38773,17.1381,0.0,0.0,0.0,0.0,0.0,0.0,0.0,-23.123405,-129.68771,5.4849205,0.0,0.0,0.0,0.0,0.0,0.0,0.0,-2.427042,44.946682,0.21551675,
0.2539062462165021,13,-0.088134766,0.8078613,0.4790039,0.115234375,-0.015625,0.044921875,0.0,0.0,0.0,0.0,0.0,0.0,0.0,0.0,0.0,0.0,0.0,0.30563045,0.019863734,-0.95205057,-1.0140991,0.038879395,-0.04296875,0.034179688,0.022460938,0.0146484375,2.8651202,6.3274984,0.41124088,-19.710398,0.991272,-0.12463379,-0.2390747,-0.05078125,0.055664062,0.015625,4.3781066,6.979,-56.555798,-21.63364,-0.59765625,-0.006713867,0.8377075,0.0068359375,0.005859375,0.0,14.186936,4.1410713,-128.46156,-19.003477,0.0,0.0,0.0,0.0,0.0,0.0,0.0,-13.12562,-127.96425,-29.084133,0.0,0.0,0.0,0.0,0.0,0.0,0.0,-0.30563045,-0.019863734,0.95205057,-0.9211426,-0.08795166,-0.3345337,-0.19433594,0.021484375,-0.021484375,2.201671,-6.3274984,-0.41124088,19.710398,0.99884033,-0.0715332,-0.22369385,0.0,0.0390625,0.0087890625,2.176638,-5.55923,-57.41203,19.630459,-0.39666748,0.053222656,0.92510986,0.0029296875,0.009765625,0.00390625,15.786977,-6.837031,-129.36797,17.03192,0.0,0.0,0.0,0.0,0.0,0.0,0.0,-23.095234,-129.66824,5.387063,0.0,0.0,0.0,0.0,0.0,0.0,0.0,-2.3302505,44.943836,0.18965065,
0.2734374959254638,14,-0.07598877,0.7906494,0.47558594,0.07519531,-0.0146484375,0.064453125,0.0,0.0,0.0,0.0,0.0,0.0,0.0,0.0,0.0,0.0,0.0,0.30531764,0.018286178,-0.9521519,-0.9928589,0.03277588,-0.046020508,0.072265625,-0.0146484375,-0.024414062,2.762863,6.321021,0.37858063,-19.712496,0.98114014,-0.12921143,-0.21508789,-0.14453125,0.017578125,0.051757812,4.286331,6.998476,-56.589764,-21.554466,-0.5907593,-0.013793945,0.83374023,-0.01171875,-0.030273438,0.018554688,14.227623,4.2112823,-128.49518,-18.94556,0.0,0.0,0.0,0.0,0.0,0.0,0.0,-13.054556,-127.99547,-29.025524,0.0,0.0,0.0,0.0,0.0,0.0,0.0,-0.30531764,-0.018286178,0.9521519,-0.93792725,-0.064331055,-0.3255005,0.016601562,0.19140625,0.016601562,1.9988033,-6.321021,-0.37858063,19.712496,1.0350952,-0.08496094,-0.19274902,-0.07714844,0.022460938,0.029296875,2.0747142,-5.4455347,-57.375767,19.514261,-0.40283203,0.06512451,0.9458618,0.021484375,0.0087890625,0.022460938,15.71939,-6.7006397,-129.33275,16.976261,0.0,0.0,0.0,0.0,0.0,0.0,0.0,-22.960836,-129.629,5.3329926,0.0,0.0,0.0,0.0,0.0,0.0,0.0,-2.2600904,44.946293,0.13847643,
0.2929687456344255,15,-0.07873535,0.7928467,0.49554443,0.017578125,0.005859375,0.083984375,0.0,0.0,0.0,0.0,0.0,0.0,0.0,0.0,0.0,0.0,0.0,0.3065699,0.017428707,-0.9517369,-0.96661377,0.07043457,0.008422852,0.09082031,0.0234375,-0.0048828125,2.82577,6.3469467,0.36082822,-19.703905,0.9538574,-0.16033936,-0.23986816,-0.08886719,0.055664062,0.0146484375,4.242425,7.0055385,-56.60788,-21.56859,-0.5765381,-0.010192871,0.8119507,0.0068359375,-0.0126953125,0.018554688,14.322909,4.246871,-128.5182,-19.021004,0.0,0.0,0.0,0.0,0.0,0.0,0.0,-13.013215,-128.01804,-29.111164,0.0,0.0,0.0,0.0,0.0,0.0,0.0,-0.3065699,-0.017428707,0.9517369,-0.98101807,-0.058166504,-0.30377197,0.07324219,0.111328125,-0.0048828125,1.8879262,-6.3469467,-0.36082822,19.703905,1.0072021,-0.080566406,-0.1921997,-0.09667969,0.078125,0.046875,2.0589004,-5.352784,-57.358536,19.403624,-0.39660645,0.06921387,0.9221802,0.041015625,0.0087890625,0.0029296875,15.861231,-6.6354675,-129.31761,16.88227,0.0,0.0,0.0,0.0,0.0,0.0,0.0,-22.899372,-129.60771,5.243105,0.0,0.0,0.0,0.0,0.0,0.0,0.0,-2.2600539,44.94518,0.09505987,
0.3124999953433872,16,-0.10418701,0.81134033,0.48742676,0.016601562,-0.0126953125,0.083984375,0.0,0.0,0.0,0.0,0.0,0.0,0.0,0.0,0.0,0.0,0.0,0.3082659,0.01626003,-0.9511541,-0.9818115,0.07745361,0.009521484,0.034179688,-0.03515625,0.033203125,2.9950633,6.382059,0.33663303,-19.69184,0.97753906,-0.14666748,-0.23101807,-0.068359375,0.11230469,0.034179688,4.1492124,6.9138355,-56.633,-21.57531,-0.59716797,0.015136719,0.79608154,0.0068359375,-0.0126953125,0.0,14.210104,4.1601,-128.55013,-19.091496,0.0,0.0,0.0,0.0,0.0,0.0,0.0,-13.098531,-128.04626,-29.185509,0.0,0.0,0.0,0.0,0.0,0.0,0.0,-0.3082659,-0.01626003,0.9511541,-0.9499512,-0.060913086,-0.2949829,-0.060546875,-0.021484375,-0.0029296875,1.9631383,-6.382059,-0.33663303,19.69184,1.0273438,-0.08782959,-0.17474365,-9.765625E-4,0.13183594,0.0078125,2.067438,-5.4446225,-57.334934,19.40204,-0.38146973,0.03289795,0.9329834,0.001953125,-0.028320312,0.00390625,15.896193,-6.8763113,-129.28474,16.942993,0.0,0.0,0.0,0.0,0.0,0.0,0.0,-23.152977,-129.56001,5.322402,0.0,0.0,0.0,0.0,0.0,0.0,0.0,-2.2684956,44.942463,0.03308189,
0.3320312450523489,17,-0.08892822,0.81695557,0.49902344,0.055664062,-0.013671875,0.1015625,0.0,0.0,0.0,0.0,0.0,0.0,0.0,0.0,0.0,0.0,0.0,0.30880433,0.014904279,-0.9509702,-0.99664307,0.06011963,-0.048583984,0.0146484375,0.021484375,0.052734375,3.0664372,6.3932076,0.30856475,-19.68803,0.98986816,-0.14025879,-0.23413086,-0.013671875,0.016601562,0.017578125,4.130242,6.897916,-56.66101,-21.615633,-0.58825684,0.008972168,0.795105,0.0068359375,0.0048828125,-0.018554688,14.227636,4.135479,-128.58328,-19.201448,0.0,0.0,0.0,0.0,0.0,0.0,0.0,-13.116634,-128.07611,-29.307114,0.0,0.0,0.0,0.0,0.0,0.0,0.0,-0.30880433,-0.014904279,0.9509702,-0.94714355,-0.076538086,-0.2999878,-0.041992188,0.037109375,-0.0029296875,1.9716932,-6.3932076,-0.30856475,19.68803,1.0145874,-0.075683594,-0.1706543,-0.040039062,0.11425781,0.0087890625,2.0719767,-5.48929,-57.309486,19.42969,-0.39050293,0.051208496,0.91430664,0.001953125,-0.029296875,0.041015625,15.9977455,-7.1054473,-129.26123,17.124784,0.0,0.0,0.0,0.0,0.0,0.0,0.0,-23.390606,-129.5245,5.5145273,0.0,0.0,0.0,0.0,0.0,0.0,0.0,-2.2442327,44.94234,-0.024391532,
0.3515624947613106,18,-0.07574463,0.7887573,0.49145508,0.09472656,-0.034179688,0.08203125,0.0,0.0,0.0,0.0,0.0,0.0,0.0,0.0,0.0,0.0,0.0,0.311176,0.012359312,-0.9503833,-1.0142822,0.024169922,-0.035217285,-0.09765625,0.07910156,0.015625,3.0447829,6.4423075,0.25587606,-19.675882,1.0037842,-0.1496582,-0.2322998,0.025390625,0.015625,0.037109375,4.113422,7.004431,-56.71228,-21.580473,-0.5664673,-0.005554199,0.8119507,0.0068359375,-0.0126953125,0.0,14.216933,4.2316437,-128.63103,-19.208998,0.0,0.0,0.0,0.0,0.0,0.0,0.0,-13.021765,-128.12292,-29.309261,0.0,0.0,0.0,0.0,0.0,0.0,0.0,-0.311176,-0.012359312,0.9503833,-0.96307373,-0.06628418,-0.3078003,-0.00390625,-0.00390625,-0.00390625,1.9580475,-6.4423075,-0.25587606,19.675882,0.9902954,-0.060302734,-0.13671875,-0.11621094,0.059570312,0.06640625,2.0037906,-5.5648994,-57.254677,19.391558,-0.43536377,0.09399414,0.91937256,0.0029296875,0.009765625,0.00390625,16.091356,-7.2319503,-129.20929,17.190458,0.0,0.0,0.0,0.0,0.0,0.0,0.0,-23.526918,-129.45615,5.593685,0.0,0.0,0.0,0.0,0.0,0.0,0.0,-2.1880581,44.95135,-0.1318453,
0.37109374447027227,19,-0.07299805,0.80944824,0.4786377,0.016601562,-0.013671875,0.06542969,0.0,0.0,0.0,0.0,0.0,0.0,0.0,0.0,0.0,0.0,0.0,0.31250125,0.010971012,-0.94995034,-0.9817505,0.059387207,-0.014709473,0.015625,0.022460938,-0.0048828125,3.0456827,6.4697456,0.22713393,-19.666918,0.96728516,-0.1149292,-0.2218628,-0.0703125,0.036132812,0.015625,4.039003,7.0180755,-56.742096,-21.51178,-0.59033203,0.006958008,0.8139038,-0.01171875,-0.01171875,0.0,14.136084,4.2465844,-128.66618,-19.161911,0.0,0.0,0.0,0.0,0.0,0.0,0.0,-13.0089,-128.15108,-29.259768,0.0,0.0,0.0,0.0,0.0,0.0,0.0,-0.31250125,-0.010971012,0.94995034,-0.94085693,-0.05822754,-0.2930298,-0.022460938,0.016601562,-0.00390625,1.9926251,-6.4697456,-0.22713393,19.666918,1.0041504,-0.06945801,-0.14086914,-0.15527344,0.041992188,0.048828125,1.9717923,-5.650345,-57.227394,19.43265,-0.37701416,0.06604004,0.9043579,0.001953125,-0.028320312,0.00390625,16.253986,-7.329184,-129.18103,17.293364,0.0,0.0,0.0,0.0,0.0,0.0,0.0,-23.640612,-129.4121,5.7225018,0.0,0.0,0.0,0.0,0.0,0.0,0.0,-2.1649003,44.951607,-0.1930308,
0.39062499417923396,20,-0.077819824,0.7967529,0.49157715,-0.041992188,-0.01171875,0.06738281,0.0,0.0,0.0,0.0,0.0,0.0,0.0,0.0,0.0,0.0,0.0,0.31380635,0.010617485,-0.94943225,-0.9899292,0.039123535,-0.020019531,0.034179688,0.041015625,0.034179688,3.0936408,6.496765,0.21981488,-19.65619,0.96813965,-0.15704346,-0.23297119,-0.08886719,-0.001953125,0.034179688,3.9535415,6.998133,-56.75107,-21.470009,-0.5861206,0.020568848,0.82476807,-0.01171875,0.005859375,0.0,14.172954,4.286031,-128.67029,-19.137611,0.0,0.0,0.0,0.0,0.0,0.0,0.0,-12.967929,-128.14949,-29.238392,0.0,0.0,0.0,0.0,0.0,0.0,0.0,-0.31380635,-0.010617485,0.94943225,-0.94317627,-0.08312988,-0.35510254,0.09277344,0.09082031,0.015625,2.01538,-6.496765,-0.21981488,19.65619,1.0074463,-0.079589844,-0.18035889,-0.11621094,0.041015625,0.06640625,1.9694089,-5.6763067,-57.218708,19.428799,-0.4151001,0.059509277,0.93011475,0.001953125,-0.009765625,0.022460938,16.457788,-7.3707786,-129.17639,17.320332,0.0,0.0,0.0,0.0,0.0,0.0,0.0,-23.692625,-129.39613,5.762224,0.0,0.0,0.0,0.0,0.0,0.0,0.0,-2.179195,44.946873,-0.21762747,
0.41015624388819566,21,-0.10015869,0.8251343,0.48840332,0.0146484375,-0.0703125,0.083984375,0.0,0.0,0.0,0.0,0.0,0.0,0.0,0.0,0.0,0.0,0.0,0.31352043,0.010787502,-0.9495702,-0.99780273,0.0435791,-0.045837402,0.052734375,0.0029296875,0.033203125,3.0900316,6.490845,0.22333474,-19.659044,0.97491455,-0.13690186,-0.19110107,-0.0126953125,0.0546875,0.036132812,3.897119,6.9623823,-56.752205,-21.446419,-0.5852661,0.009765625,0.81585693,-0.01171875,0.005859375,-0.018554688,14.282392,4.2317085,-128.68121,-19.14994,0.0,0.0,0.0,0.0,0.0,0.0,0.0,-13.016573,-128.16225,-29.261684,0.0,0.0,0.0,0.0,0.0,0.0,0.0,-0.31352043,-0.010787502,0.9495702,-0.9633789,-0.09185791,-0.34136963,0.14941406,0.05078125,0.0146484375,1.9470218,-6.490845,-0.22333474,19.659044,1.0353394,-0.077941895,-0.17694092,-0.07714844,0.041015625,0.047851562,2.0362473,-5.604385,-57.22304,19.436626,-0.3883667,0.06518555,0.91326904,-0.016601562,0.009765625,-0.015625,16.487572,-7.3177977,-129.18669,17.321241,0.0,0.0,0.0,0.0,0.0,0.0,0.0,-23.642906,-129.40083,5.76972,0.0,0.0,0.0,0.0,0.0,0.0,0.0,-2.179058,44.948864,-0.20882428,
0.42968749359715736,22,-0.09429932,0.822937,0.4753418,0.015625,-0.051757812,0.06542969,0.0,0.0,0.0,0.0,0.0,0.0,0.0,0.0,0.0,0.0,0.0,0.31205073,0.010347085,-0.9499907,-0.9805908,0.041381836,-0.047851562,-0.059570312,0.060546875,0.0146484375,3.005633,6.4604187,0.21421672,-19.667753,0.99823,-0.1348877,-0.20227051,-0.051757812,-0.001953125,0.016601562,3.8812084,6.9793973,-56.75793,-21.420834,-0.5610962,0.012939453,0.81481934,-0.01171875,-0.01171875,0.0,14.271257,4.242195,-128.68425,-19.143354,0.0,0.0,0.0,0.0,0.0,0.0,0.0,-13.005312,-128.1652,-29.255175,0.0,0.0,0.0,0.0,0.0,0.0,0.0,-0.31205073,-0.010347085,0.9499907,-0.9380493,-0.07470703,-0.34326172,-0.04296875,-0.13867188,0.057617188,1.9536445,-6.4604187,-0.21421672,19.667753,1.0093384,-0.06964111,-0.18835449,-0.15527344,0.11621094,0.10449219,1.9944904,-5.621459,-57.217873,19.447535,-0.39672852,0.05114746,0.9359741,0.0029296875,0.009765625,0.00390625,16.49954,-7.3660226,-129.18141,17.381876,0.0,0.0,0.0,0.0,0.0,0.0,0.0,-23.697004,-129.38528,5.837866,0.0,0.0,0.0,0.0,0.0,0.0,0.0,-2.1455889,44.947517,-0.21521977,
0.44921874330611905,23,-0.08416748,0.81170654,0.47296143,-0.044921875,-0.087890625,0.06640625,0.0,0.0,0.0,0.0,0.0,0.0,0.0,0.0,0.0,0.0,0.0,0.30962256,0.009220876,-0.9509122,-1.0031128,0.051879883,-0.0138549805,0.015625,0.041992188,-0.0234375,2.993952,6.4101467,0.19090074,-19.686829,0.9752197,-0.12011719,-0.22894287,-0.087890625,0.055664062,0.034179688,3.868777,6.958495,-56.7864,-21.414104,-0.5845947,-0.009887695,0.802063,-0.01171875,0.005859375,0.018554688,14.275649,4.2367463,-128.70868,-19.135098,0.0,0.0,0.0,0.0,0.0,0.0,0.0,-13.0157585,-128.19035,-29.236656,0.0,0.0,0.0,0.0,0.0,0.0,0.0,-0.30962256,-0.009220876,0.9509122,-0.90618896,-0.09259033,-0.3139038,-0.0234375,-0.10058594,0.057617188,2.0450706,-6.4101467,-0.19090074,19.686829,0.9918823,-0.07928467,-0.15533447,-0.15527344,0.11621094,0.06640625,1.9726855,-5.6966143,-57.19013,19.595104,-0.4006958,0.06536865,0.91430664,0.0029296875,0.047851562,-0.015625,16.691334,-7.546334,-129.15036,17.675917,0.0,0.0,0.0,0.0,0.0,0.0,0.0,-23.876966,-129.34903,6.13064,0.0,0.0,0.0,0.0,0.0,0.0,0.0,-2.1343813,44.952778,-0.25906554,
0.46874999301508075,24,-0.109191895,0.8144531,0.49157715,-0.044921875,-0.107421875,0.047851562,0.0,0.0,0.0,0.0,0.0,0.0,0.0,0.0,0.0,0.0,0.0,0.3070203,0.008975517,-0.9518329,-0.9970703,0.045898438,-0.010986328,0.09082031,-0.034179688,-0.0048828125,3.044011,6.3562713,0.185821,-19.705893,0.96313477,-0.15283203,-0.2518921,-0.087890625,0.055664062,0.034179688,3.7454906,6.8434424,-56.790146,-21.4076,-0.61053467,-0.001159668,0.7991333,-0.01171875,-0.0126953125,-0.037109375,14.327589,4.1724925,-128.71822,-19.199871,0.0,0.0,0.0,0.0,0.0,0.0,0.0,-13.073635,-128.20396,-29.31324,0.0,0.0,0.0,0.0,0.0,0.0,0.0,-0.3070203,-0.008975517,0.9518329,-0.913208,-0.096069336,-0.32769775,0.14941406,0.0703125,0.03515625,2.00935,-6.3562713,-0.185821,19.705893,1.0133057,-0.09259033,-0.18035889,-0.078125,0.09667969,0.028320312,2.1037543,-5.599377,-57.18815,19.685442,-0.41290283,0.07366943,0.91137695,-0.016601562,-0.0087890625,0.00390625,16.750694,-7.5481544,-129.15031,17.779434,0.0,0.0,0.0,0.0,0.0,0.0,0.0,-23.88443,-129.34349,6.2406607,0.0,0.0,0.0,0.0,0.0,0.0,0.0,-2.149209,44.955223,-0.26932716,
0.48828124272404244,25,-0.1083374,0.7984619,0.47351074,-0.026367188,-0.14648438,0.029296875,0.0,0.0,0.0,0.0,0.0,0.0,0.0,0.0,0.0,0.0,0.0,0.30467108,0.008723671,-0.9523823,-0.98358154,0.049194336,-0.04473877,0.09082031,0.00390625,-0.0048828125,3.0695002,6.307636,0.180607,-19.717268,0.9738159,-0.13372803,-0.23693848,-0.05078125,0.016601562,0.03515625,3.6836047,6.7888036,-56.79254,-21.403982,-0.578125,0.016418457,0.81781006,0.0078125,-0.030273438,0.0,14.338734,4.122197,-128.7243,-19.25919,0.0,0.0,0.0,0.0,0.0,0.0,0.0,-13.114467,-128.20795,-29.387611,0.0,0.0,0.0,0.0,0.0,0.0,0.0,-0.30467108,-0.008723671,0.9523823,-0.97039795,-0.09063721,-0.34625244,0.20605469,-0.048828125,0.0546875,1.9984115,-6.307636,-0.180607,19.717268,1.0115356,-0.081604004,-0.17150879,-0.15429688,0.041992188,0.06738281,2.1901734,-5.5277195,-57.18507,19.805628,-0.40075684,0.049438477,0.9104004,0.0029296875,0.009765625,0.00390625,16.859837,-7.5024366,-129.146,17.942253,0.0,0.0,0.0,0.0,0.0,0.0,0.0,-23.838009,-129.33923,6.401696,0.0,0.0,0.0,0.0,0.0,0.0,0.0,-2.1698065,44.945255,-0.2824388,
0.5078124924330042,26,-0.07800293,0.7738037,0.47052002,-0.028320312,-0.20507812,-0.0078125,0.0,0.0,0.0,0.0,0.0,0.0,0.0,0.0,0.0,0.0,0.0,0.301226,0.007876083,-0.95351374,-1.0018921,0.046447754,-0.04083252,0.015625,0.060546875,0.034179688,3.1050735,6.236313,0.16305932,-19.74069,0.9959717,-0.14160156,-0.20825195,-0.051757812,-0.040039062,0.036132812,3.7120926,6.7720995,-56.81296,-21.445393,-0.5866089,-0.009887695,0.8189087,0.0068359375,-0.0126953125,-0.018554688,14.31508,4.1109314,-128.74857,-19.319666,0.0,0.0,0.0,0.0,0.0,0.0,0.0,-13.121504,-128.23466,-29.456734,0.0,0.0,0.0,0.0,0.0,0.0,0.0,-0.301226,-0.007876083,0.95351374,-0.92596436,-0.06982422,-0.35009766,0.033203125,-0.18066406,0.056640625,2.1371663,-6.236313,-0.16305932,19.74069,1.0231934,-0.077819824,-0.19055176,-0.21191406,0.024414062,0.08691406,2.1540415,-5.558431,-57.168655,19.890697,-0.40081787,0.050354004,0.9212036,-0.016601562,0.009765625,0.00390625,17.009861,-7.5115833,-129.12886,18.026371,0.0,0.0,0.0,0.0,0.0,0.0,0.0,-23.860058,-129.31474,6.505127,0.0,0.0,0.0,0.0,0.0,0.0,0.0,-2.1999753,44.944748,-0.3237511,
0.5273437421419659,27,-0.10015869,0.83013916,0.49145508,-0.028320312,-0.20507812,-0.0078125,0.0,0.0,0.0,0.0,0.0,0.0,0.0,0.0,0.0,0.0,0.0,0.2983412,0.0070162583,-0.9544124,-1.000061,0.03552246,-0.026062012,0.09082031,0.041992188,0.034179688,3.1486487,6.1765885,0.14525826,-19.759295,0.9644165,-0.1461792,-0.2189331,-0.08886719,0.037109375,0.0146484375,3.6407244,6.7226696,-56.83121,-21.408787,-0.5996094,-0.0064697266,0.8050537,-0.01171875,0.005859375,0.0,14.386714,4.072718,-128.76689,-19.319038,0.0,0.0,0.0,0.0,0.0,0.0,0.0,-13.155409,-128.25621,-29.46244,0.0,0.0,0.0,0.0,0.0,0.0,0.0,-0.2983412,-0.0070162583,0.9544124,-0.91619873,-0.09338379,-0.31488037,0.09082031,-0.14355469,0.055664062,2.362646,-6.1765885,-0.14525826,19.759295,1.0109253,-0.09161377,-0.20599365,-0.13476562,-0.013671875,0.06738281,2.1251357,-5.668214,-57.15075,20.037983,-0.38012695,0.06109619,0.9063721,-0.016601562,0.009765625,-0.015625,17.108694,-7.568256,-129.11536,18.1696,0.0,0.0,0.0,0.0,0.0,0.0,0.0,-23.918526,-129.29485,6.6523905,0.0,0.0,0.0,0.0,0.0,0.0,0.0,-2.249535,44.941284,-0.37280467,
0.5468749918509276,28,-0.082214355,0.8066406,0.46990967,-0.028320312,-0.18554688,-0.0078125,0.0,0.0,0.0,0.0,0.0,0.0,0.0,0.0,0.0,0.0,0.0,0.294979,0.0056741945,-0.9555213,-0.98168945,0.044067383,-0.030883789,0.09082031,0.041992188,0.034179688,3.239907,6.1069794,0.11747341,-19.782253,0.98480225,-0.14208984,-0.22509766,-0.107421875,0.055664062,0.033203125,3.6154675,6.6535935,-56.855396,-21.42428,-0.56256104,-0.01550293,0.802063,-0.01171875,0.005859375,-0.038085938,14.538578,4.033617,-128.79416,-19.343666,0.0,0.0,0.0,0.0,0.0,0.0,0.0,-13.1851845,-128.2891,-29.50212,0.0,0.0,0.0,0.0,0.0,0.0,0.0,-0.294979,-0.0056741945,0.9555213,-0.932251,-0.08892822,-0.3256836,0.20605469,-0.009765625,0.07519531,2.400614,-6.1069794,-0.11747341,19.782253,1.006958,-0.081604004,-0.20800781,-0.15527344,0.060546875,0.06738281,2.203626,-5.5845804,-57.118595,20.145384,-0.3862915,0.051330566,0.8925781,-0.016601562,-0.0087890625,0.00390625,17.176765,-7.446861,-129.08205,18.253498,0.0,0.0,0.0,0.0,0.0,0.0,0.0,-23.79849,-129.24944,6.7366657,0.0,0.0,0.0,0.0,0.0,0.0,0.0,-2.2905996,44.940987,-0.44025686,
0.5664062415598893,29,-0.092285156,0.8317871,0.47729492,-0.047851562,-0.18554688,-0.043945312,0.0,0.0,0.0,0.0,0.0,0.0,0.0,0.0,0.0,0.0,0.0,0.2908793,0.0043426305,-0.9568574,-0.98083496,0.039978027,-0.020019531,0.18457031,0.0234375,0.0146484375,3.3197737,6.0221047,0.08990589,-19.809914,0.96380615,-0.12945557,-0.23284912,-0.10644531,0.036132812,0.052734375,3.543095,6.54255,-56.89119,-21.427036,-0.56225586,0.0079956055,0.8286743,-0.01171875,0.005859375,0.0,14.582754,3.9517846,-128.82912,-19.379854,0.0,0.0,0.0,0.0,0.0,0.0,0.0,-13.267704,-128.3184,-29.539146,0.0,0.0,0.0,0.0,0.0,0.0,0.0,-0.2908793,-0.0043426305,0.9568574,-0.93359375,-0.04046631,-0.34594727,0.12988281,-0.06640625,0.1171875,2.5039747,-6.0221047,-0.08990589,19.809914,1.0049438,-0.07159424,-0.21392822,-0.13574219,0.09765625,0.06640625,2.109978,-5.5529714,-57.093933,20.106712,-0.3904419,0.05029297,0.9024658,0.001953125,-0.009765625,0.00390625,17.19931,-7.3530316,-129.05609,18.192047,0.0,0.0,0.0,0.0,0.0,0.0,0.0,-23.696732,-129.21834,6.6641226,0.0,0.0,0.0,0.0,0.0,0.0,0.0,-2.317962,44.94211,-0.50068104,
0.585937491268851,30,-0.039978027,0.8173828,0.45892334,0.0107421875,-0.1875,-0.044921875,0.0,0.0,0.0,0.0,0.0,0.0,0.0,0.0,0.0,0.0,0.0,0.28650594,0.0017291531,-0.9581755,-0.9814453,0.0579834,-0.047546387,0.109375,-0.034179688,0.033203125,3.4567206,5.9315624,0.03579887,-19.837204,0.9908447,-0.14031982,-0.23614502,-0.049804688,0.0546875,0.03515625,3.5014603,6.4430366,-56.944916,-21.48762,-0.5686035,-0.015258789,0.8010864,0.0068359375,-0.03125,-0.018554688,14.599048,3.883013,-128.88483,-19.516645,0.0,0.0,0.0,0.0,0.0,0.0,0.0,-13.335016,-128.3735,-29.678253,0.0,0.0,0.0,0.0,0.0,0.0,0.0,-0.28650594,-0.0017291531,0.9581755,-0.90185547,-0.07098389,-0.32159424,0.033203125,-0.12207031,0.11816406,2.7637837,-5.9315624,-0.03579887,19.837204,1.0109253,-0.10357666,-0.2000122,-0.05859375,0.11425781,0.02734375,1.9544458,-5.6862993,-57.03843,20.102463,-0.4015503,0.09326172,0.92614746,-0.017578125,-0.028320312,0.022460938,17.10304,-7.566714,-129.00192,18.258236,0.0,0.0,0.0,0.0,0.0,0.0,0.0,-23.912708,-129.1577,6.734236,0.0,0.0,0.0,0.0,0.0,0.0,0.0,-2.3253348,44.939938,-0.6142029,
0.6054687409778127,31,-0.052978516,0.8277588,0.47125244,0.01171875,-0.16796875,-0.044921875,0.0,0.0,0.0,0.0,0.0,0.0,0.0,0.0,0.0,0.0,0.0,0.2827784,-5.8853254E-4,-0.9591414,-0.9923706,0.055664062,-0.07751465,0.18554688,0.0234375,-0.0048828125,3.4926703,5.8543897,-0.012184437,-19.8572,0.9751587,-0.121032715,-0.24487305,-0.032226562,0.0546875,0.016601562,3.4982715,6.4468737,-56.99081,-21.49526,-0.59729004,0.012084961,0.8148804,-0.049804688,0.0068359375,-9.765625E-4,14.550559,3.9001317,-128.9355,-19.56757,0.0,0.0,0.0,0.0,0.0,0.0,0.0,-13.318594,-128.42194,-29.728323,0.0,0.0,0.0,0.0,0.0,0.0,0.0,-0.2827784,5.8853254E-4,0.9591414,-0.9258423,-0.060791016,-0.32055664,-0.061523438,-0.13867188,0.057617188,2.9367833,-5.8543897,0.012184437,19.8572,1.0170898,-0.06976318,-0.20233154,-0.078125,0.1328125,0.02734375,1.8985734,-5.752889,-56.993477,20.152464,-0.40063477,0.070373535,0.9133301,-0.016601562,-0.0087890625,-0.015625,17.104214,-7.7119675,-128.95242,18.370762,0.0,0.0,0.0,0.0,0.0,0.0,0.0,-24.059063,-129.10378,6.848016,0.0,0.0,0.0,0.0,0.0,0.0,0.0,-2.3343072,44.931824,-0.71578133,
0.6249999906867744,32,-0.068847656,0.84924316,0.49975586,-0.06640625,-0.16601562,-0.04296875,0.0,0.0,0.0,0.0,0.0,0.0,0.0,0.0,0.0,0.0,0.0,0.2793056,-0.0022850167,-0.96017575,-0.9854126,0.072631836,-0.047302246,0.16601562,0.00390625,0.033203125,3.5785067,5.782492,-0.047306895,-19.878614,0.9841919,-0.12432861,-0.2420044,-0.087890625,0.055664062,0.052734375,3.496032,6.3948464,-57.019257,-21.536997,-0.58929443,0.011779785,0.8267212,-0.03125,0.005859375,-0.01953125,14.54584,3.9088788,-128.95694,-19.613766,0.0,0.0,0.0,0.0,0.0,0.0,0.0,-13.300518,-128.44899,-29.789568,0.0,0.0,0.0,0.0,0.0,0.0,0.0,-0.2793056,0.0022850167,0.96017575,-0.90966797,-0.12750244,-0.28570557,0.053710938,-0.0048828125,0.056640625,2.98983,-5.782492,0.047306895,19.878614,0.99176025,-0.08129883,-0.16326904,-0.15527344,0.07910156,0.047851562,1.8991917,-5.711727,-56.959465,20.254524,-0.3914795,0.05529785,0.9053955,0.021484375,-0.029296875,-0.015625,17.15354,-7.7608786,-128.91922,18.600573,0.0,0.0,0.0,0.0,0.0,0.0,0.0,-24.117332,-129.06412,7.091675,0.0,0.0,0.0,0.0,0.0,0.0,0.0,-2.350246,44.9306,-0.7905886,
0.6445312403957361,33,-0.05291748,0.81781006,0.47216797,-0.044921875,-0.109375,-0.04296875,0.0,0.0,0.0,0.0,0.0,0.0,0.0,0.0,0.0,0.0,0.0,0.27636784,-0.0038126176,-0.96104425,-0.97558594,0.04888916,-0.031799316,0.18457031,0.00390625,0.0146484375,3.6510358,5.721671,-0.07893296,-19.896595,0.9642334,-0.11669922,-0.22680664,-0.08886719,0.017578125,0.015625,3.4698925,6.350473,-57.052895,-21.571924,-0.5761719,0.012451172,0.81188965,-0.049804688,-0.029296875,0.0,14.469691,3.9297957,-128.99518,-19.67878,0.0,0.0,0.0,0.0,0.0,0.0,0.0,-13.271889,-128.49529,-29.870249,0.0,0.0,0.0,0.0,0.0,0.0,0.0,-0.27636784,0.0038126176,0.96104425,-0.8991699,-0.09527588,-0.29034424,0.091796875,0.07128906,0.056640625,3.0057635,-5.721671,0.07893296,19.896595,0.9954834,-0.072387695,-0.18414307,-0.19335938,0.060546875,0.048828125,1.8985734,-5.6456127,-56.928413,20.30931,-0.39648438,0.07342529,0.90148926,0.001953125,-0.009765625,-0.015625,17.346487,-7.6768503,-128.88959,18.698605,0.0,0.0,0.0,0.0,0.0,0.0,0.0,-24.02737,-129.02715,7.179146,0.0,0.0,0.0,0.0,0.0,0.0,0.0,-2.3589845,44.92996,-0.8566184,
0.6640624901046978,34,-0.056884766,0.8279419,0.48034668,0.0146484375,-0.072265625,-0.0078125,0.0,0.0,0.0,0.0,0.0,0.0,0.0,0.0,0.0,0.0,0.0,0.27318853,-0.00489059,-0.9619843,-0.9985962,0.057434082,-0.061523438,0.109375,0.022460938,0.0146484375,3.6689577,5.6558504,-0.10125038,-19.916056,0.9871826,-0.1274414,-0.23901367,-0.087890625,0.055664062,0.034179688,3.4688768,6.319511,-57.076096,-21.592827,-0.5770874,0.020324707,0.8197632,-0.01171875,0.005859375,-0.018554688,14.568653,3.9417105,-129.02002,-19.702272,0.0,0.0,0.0,0.0,0.0,0.0,0.0,-13.257054,-128.51889,-29.898367,0.0,0.0,0.0,0.0,0.0,0.0,0.0,-0.27318853,0.00489059,0.9619843,-0.96154785,-0.10021973,-0.27954102,0.053710938,0.053710938,0.036132812,3.0189555,-5.6558504,0.10125038,19.916056,0.9963989,-0.02746582,-0.1449585,-0.17480469,0.060546875,0.0107421875,1.8318416,-5.5946326,-56.905563,20.380192,-0.38427734,0.06500244,0.9211426,-0.016601562,0.009765625,0.022460938,17.569635,-7.6216717,-128.87482,18.919056,0.0,0.0,0.0,0.0,0.0,0.0,0.0,-23.975435,-129.00673,7.406149,0.0,0.0,0.0,0.0,0.0,0.0,0.0,-2.357812,44.930786,-0.8980036,
0.6835937398136595,35,-0.03668213,0.8095093,0.4796753,-0.043945312,-0.0703125,0.01171875,0.0,0.0,0.0,0.0,0.0,0.0,0.0,0.0,0.0,0.0,0.0,0.2716597,-0.0061170207,-0.9624757,-0.9887085,0.03765869,-0.049926758,-0.022460938,0.041015625,0.0146484375,3.6790836,5.624198,-0.12664126,-19.92623,0.98114014,-0.12719727,-0.23199463,-0.0126953125,0.0546875,0.016601562,3.5055957,6.3317347,-57.103058,-21.571777,-0.5742798,0.0064697266,0.8208008,-0.03125,-0.01171875,0.0,14.5267515,3.9194036,-129.04309,-19.644142,0.0,0.0,0.0,0.0,0.0,0.0,0.0,-13.28067,-128.54105,-29.834835,0.0,0.0,0.0,0.0,0.0,0.0,0.0,-0.2716597,0.0061170207,0.9624757,-0.9480591,-0.069885254,-0.29016113,0.111328125,0.032226562,0.036132812,3.078416,-5.624198,0.12664126,19.92623,1.0276489,-0.07281494,-0.16400146,-0.1171875,0.09667969,0.028320312,1.8594112,-5.616126,-56.877644,20.47875,-0.38012695,0.06506348,0.9102783,0.0029296875,0.009765625,0.00390625,17.76534,-7.7363195,-128.841,19.108963,0.0,0.0,0.0,0.0,0.0,0.0,0.0,-24.098385,-128.96323,7.6058407,0.0,0.0,0.0,0.0,0.0,0.0,0.0,-2.367083,44.93199,-0.953677,
0.7031249895226211,36,-0.030761719,0.7953491,0.46246338,-0.064453125,-0.08886719,0.030273438,0.0,0.0,0.0,0.0,0.0,0.0,0.0,0.0,0.0,0.0,0.0,0.26926744,-0.007956166,-0.96326137,-0.9859009,0.04486084,-0.014953613,0.015625,0.041992188,-0.00390625,3.7692544,5.5746713,-0.16471727,-19.942497,0.9612427,-0.11566162,-0.21282959,-0.01171875,0.07324219,0.036132812,3.4867795,6.2522573,-57.141884,-21.568052,-0.57507324,0.01928711,0.81781006,0.0068359375,-0.0126953125,-0.018554688,14.511222,3.8334825,-129.08722,-19.622213,0.0,0.0,0.0,0.0,0.0,0.0,0.0,-13.362968,-128.57999,-29.821459,0.0,0.0,0.0,0.0,0.0,0.0,0.0,-0.26926744,0.007956166,0.96326137,-0.93310547,-0.078186035,-0.28234863,-0.0029296875,0.0546875,-0.024414062,3.1697798,-5.5746713,0.16471727,19.942497,1.006958,-0.08947754,-0.14276123,-0.078125,0.11425781,0.0087890625,1.8051522,-5.6332946,-56.83815,20.524536,-0.40075684,0.06518555,0.9369507,0.001953125,-0.009765625,-0.015625,18.030672,-7.919463,-128.7966,19.322964,0.0,0.0,0.0,0.0,0.0,0.0,0.0,-24.283302,-128.91052,7.8248177,0.0,0.0,0.0,0.0,0.0,0.0,0.0,-2.3750603,44.93529,-1.0350659,
0.7226562392315828,37,-0.055358887,0.8251343,0.5210571,-0.04296875,-0.05078125,0.030273438,0.0,0.0,0.0,0.0,0.0,0.0,0.0,0.0,0.0,0.0,0.0,0.26888415,-0.008556371,-0.963284,-1.0023804,0.018737793,-0.010437012,-0.00390625,0.060546875,0.034179688,3.8050344,5.5667343,-0.17714337,-19.942966,0.9836426,-0.1126709,-0.20507812,0.005859375,0.0546875,0.017578125,3.4451466,6.1844115,-57.152985,-21.528791,-0.5840454,0.01965332,0.8049927,-0.03125,-0.01171875,-0.01953125,14.465125,3.7613688,-129.10323,-19.548723,0.0,0.0,0.0,0.0,0.0,0.0,0.0,-13.437789,-128.5906,-29.740862,0.0,0.0,0.0,0.0,0.0,0.0,0.0,-0.26888415,0.008556371,0.963284,-0.94744873,-0.09820557,-0.29229736,-0.022460938,0.055664062,-0.0234375,3.1873946,-5.5667343,0.17714337,19.942966,0.9996948,-0.07147217,-0.168396,-0.0390625,0.05859375,0.046875,1.8157458,-5.626409,-56.825485,20.502586,-0.39855957,0.092163086,0.93200684,0.0029296875,0.009765625,0.00390625,18.116951,-8.03432,-128.78137,19.340189,0.0,0.0,0.0,0.0,0.0,0.0,0.0,-24.404362,-128.89017,7.850788,0.0,0.0,0.0,0.0,0.0,0.0,0.0,-2.3769267,44.931103,-1.0625784,
0.7421874889405445,38,-0.024536133,0.8201294,0.48138428,-0.04296875,-0.03125,0.06738281,0.0,0.0,0.0,0.0,0.0,0.0,0.0,0.0,0.0,0.0,0.0,0.2675777,-0.0091039045,-0.96363884,-1.0010376,0.036621094,-0.03503418,0.034179688,0.022460938,-0.0048828125,3.8123863,5.539688,-0.18847907,-19.950312,1.00354,-0.12530518,-0.19628906,-0.03125,0.0546875,0.03515625,3.427998,6.1331143,-57.169296,-21.484959,-0.5661621,0.012145996,0.8187866,-0.01171875,0.005859375,-0.018554688,14.477438,3.677082,-129.11563,-19.466082,0.0,0.0,0.0,0.0,0.0,0.0,0.0,-13.522839,-128.60278,-29.658298,0.0,0.0,0.0,0.0,0.0,0.0,0.0,-0.2675777,0.0091039045,0.96363884,-0.9421387,-0.079833984,-0.2892456,-0.00390625,0.015625,-0.00390625,3.2420213,-5.539688,0.18847907,19.950312,0.9996338,-0.07745361,-0.16833496,0.0,0.0390625,0.02734375,1.7951506,-5.642927,-56.818016,20.537603,-0.3965454,0.06530762,0.91430664,0.001953125,-0.009765625,0.00390625,18.229218,-8.097291,-128.78075,19.437588,0.0,0.0,0.0,0.0,0.0,0.0,0.0,-24.471596,-128.88086,7.952633,0.0,0.0,0.0,0.0,0.0,0.0,0.0,-2.3861446,44.929863,-1.0870423,
0.7617187386495062,39,-0.023498535,0.8062134,0.4812622,-0.041992188,-0.01171875,0.048828125,0.0,0.0,0.0,0.0,0.0,0.0,0.0,0.0,0.0,0.0,0.0,0.2679089,-0.010048623,-0.9635481,-1.007019,0.052246094,-0.031799316,-0.041015625,-0.015625,-0.0048828125,3.8697891,5.546544,-0.20803767,-19.948435,0.95977783,-0.13330078,-0.20391846,-0.033203125,0.036132812,-0.0029296875,3.4131162,6.12424,-57.190903,-21.457726,-0.5753174,0.0045166016,0.8168335,-0.01171875,0.005859375,-0.018554688,14.49861,3.650457,-129.13321,-19.4277,0.0,0.0,0.0,0.0,0.0,0.0,0.0,-13.548065,-128.62175,-29.623158,0.0,0.0,0.0,0.0,0.0,0.0,0.0,-0.2679089,0.010048623,0.9635481,-0.9567261,-0.1161499,-0.27374268,0.015625,0.015625,-0.00390625,3.3158202,-5.546544,0.20803767,19.948435,0.99645996,-0.028442383,-0.14294434,-0.07714844,0.041015625,0.047851562,1.7734338,-5.7017307,-56.792725,20.61196,-0.39050293,0.054138184,0.9241333,-0.016601562,0.009765625,0.00390625,18.310953,-8.186826,-128.75098,19.620007,0.0,0.0,0.0,0.0,0.0,0.0,0.0,-24.557022,-128.8497,8.128279,0.0,0.0,0.0,0.0,0.0,0.0,0.0,-2.4072397,44.927944,-1.137862,
0.7812499883584679,40,-0.049804688,0.8088379,0.47503662,-0.041015625,0.026367188,0.048828125,0.0,0.0,0.0,0.0,0.0,0.0,0.0,0.0,0.0,0.0,0.0,0.26709068,-0.010706257,-0.96380204,-0.98791504,0.03338623,-0.028076172,-0.060546875,0.041015625,0.0146484375,3.8964658,5.5296054,-0.22165273,-19.953691,0.97631836,-0.1182251,-0.21899414,0.024414062,-0.0029296875,0.018554688,3.4255984,6.1216207,-57.20319,-21.457193,-0.57647705,-0.004272461,0.81292725,0.0078125,-0.048828125,9.765625E-4,14.521455,3.6335173,-129.14175,-19.421902,0.0,0.0,0.0,0.0,0.0,0.0,0.0,-13.557044,-128.6342,-29.629314,0.0,0.0,0.0,0.0,0.0,0.0,0.0,-0.26709068,0.010706257,0.96380204,-0.9523926,-0.09436035,-0.24609375,-0.00390625,-0.0234375,-0.024414062,3.3656921,-5.5296054,0.22165273,19.953691,0.9723511,-0.040100098,-0.15026855,-0.15429688,0.0048828125,0.06738281,1.7275975,-5.722876,-56.778896,20.664986,-0.3843994,0.045043945,0.92211914,-0.016601562,0.009765625,0.022460938,18.365475,-8.178208,-128.73903,19.751806,0.0,0.0,0.0,0.0,0.0,0.0,0.0,-24.549576,-128.83382,8.263699,0.0,0.0,0.0,0.0,0.0,0.0,0.0,-2.4188957,44.927982,-1.1694052,
0.8007812380674296,41,-0.083740234,0.8099365,0.50775146,-9.765625E-4,0.043945312,0.047851562,0.0,0.0,0.0,0.0,0.0,0.0,0.0,0.0,0.0,0.0,0.0,0.2670561,-0.010509588,-0.9636732,-0.98272705,0.035461426,-0.039001465,-0.07910156,0.041015625,0.0146484375,3.9012876,5.528889,-0.21758106,-19.951023,0.960083,-0.11846924,-0.24072266,0.005859375,0.015625,0.037109375,3.3795083,6.101797,-57.20196,-21.425797,-0.5722046,0.011352539,0.81781006,-0.01171875,0.005859375,-0.018554688,14.420145,3.6445236,-129.14465,-19.388964,0.0,0.0,0.0,0.0,0.0,0.0,0.0,-13.546192,-128.64172,-29.597925,0.0,0.0,0.0,0.0,0.0,0.0,0.0,-0.2670561,0.010509588,0.9636732,-0.94525146,-0.08526611,-0.3040161,-0.022460938,-0.0029296875,-0.024414062,3.3639464,-5.528889,0.21758106,19.951023,1.0111084,-0.087646484,-0.19519043,-0.07714844,0.041015625,0.06640625,1.7656922,-5.7073,-56.784027,20.72124,-0.4069214,0.06329346,0.93603516,-0.016601562,0.009765625,0.022460938,18.46792,-8.126352,-128.75351,19.813238,0.0,0.0,0.0,0.0,0.0,0.0,0.0,-24.493011,-128.84938,8.317961,0.0,0.0,0.0,0.0,0.0,0.0,0.0,-2.4401195,44.92081,-1.1661088,
0.8203124877763913,42,-0.054016113,0.80389404,0.4621582,-0.020507812,0.064453125,0.06738281,0.0,0.0,0.0,0.0,0.0,0.0,0.0,0.0,0.0,0.0,0.0,0.26696393,-0.010812245,-0.96363163,-1.0050049,0.026245117,-0.052124023,-0.09765625,0.041015625,0.052734375,3.8849907,5.526982,-0.22384697,-19.950161,0.9908447,-0.14428711,-0.21520996,-0.049804688,0.0546875,0.03515625,3.3741162,6.132586,-57.207386,-21.403353,-0.6022339,0.016235352,0.8139038,-0.01171875,0.024414062,0.0,14.474187,3.6846175,-129.1535,-19.367676,0.0,0.0,0.0,0.0,0.0,0.0,0.0,-13.4982815,-128.65604,-29.591673,0.0,0.0,0.0,0.0,0.0,0.0,0.0,-0.26696393,0.010812245,0.96363163,-0.93218994,-0.08709717,-0.27850342,-0.022460938,-0.0029296875,-0.024414062,3.3639464,-5.526982,0.22384697,19.950161,0.9992676,-0.06347656,-0.19903564,-0.0390625,0.05859375,0.046875,1.7664679,-5.6887636,-56.781483,20.706465,-0.40698242,0.06915283,0.9547119,0.0029296875,0.028320312,0.00390625,18.37408,-8.07174,-128.74255,19.770548,0.0,0.0,0.0,0.0,0.0,0.0,0.0,-24.443996,-128.83575,8.283613,0.0,0.0,0.0,0.0,0.0,0.0,0.0,-2.4471798,44.917244,-1.1819506,
0.839843737485353,43,-0.04046631,0.80078125,0.4946289,-0.059570312,0.06542969,0.0859375,0.0,0.0,0.0,0.0,0.0,0.0,0.0,0.0,0.0,0.0,0.0,0.26708537,-0.011271908,-0.9635579,-1.0028687,0.023620605,-0.07006836,-0.13574219,0.060546875,-0.00390625,3.8502076,5.529495,-0.23336342,-19.948637,0.9892578,-0.12860107,-0.2121582,-0.0126953125,0.0546875,0.016601562,3.377538,6.1921477,-57.21484,-21.372883,-0.56640625,-0.0026855469,0.82281494,0.0068359375,0.005859375,0.018554688,14.398872,3.7436292,-129.1628,-19.345518,0.0,0.0,0.0,0.0,0.0,0.0,0.0,-13.442825,-128.66512,-29.56173,0.0,0.0,0.0,0.0,0.0,0.0,0.0,-0.26708537,0.011271908,0.9635579,-0.9522705,-0.08294678,-0.31280518,-0.041992188,0.017578125,-0.0029296875,3.391537,-5.529495,0.23336342,19.948637,0.9979248,-0.083496094,-0.21173096,0.0,0.09472656,0.064453125,1.7153196,-5.702291,-56.77151,20.675226,-0.39660645,0.062316895,0.91430664,0.001953125,0.009765625,0.022460938,18.213589,-8.093313,-128.7425,19.774471,0.0,0.0,0.0,0.0,0.0,0.0,0.0,-24.462744,-128.8299,8.283934,0.0,0.0,0.0,0.0,0.0,0.0,0.0,-2.449785,44.91499,-1.204473,
0.8593749871943147,44,-0.07598877,0.798584,0.4786377,-0.041015625,0.02734375,0.103515625,0.0,0.0,0.0,0.0,0.0,0.0,0.0,0.0,0.0,0.0,0.0,0.26715404,-0.012122691,-0.9635552,-0.9798584,0.044677734,-0.008972168,-0.041015625,0.00390625,-0.0048828125,3.8820157,5.5309176,-0.25097734,-19.94858,0.97021484,-0.11895752,-0.22088623,-0.0126953125,0.09277344,-0.0029296875,3.3485463,6.184179,-57.233723,-21.355028,-0.56433105,0.0041503906,0.8297119,-0.01171875,0.005859375,0.0,14.257273,3.7597454,-129.17052,-19.326286,0.0,0.0,0.0,0.0,0.0,0.0,0.0,-13.42732,-128.67107,-29.53949,0.0,0.0,0.0,0.0,0.0,0.0,0.0,-0.26715404,0.012122691,0.9635552,-0.93218994,-0.0871582,-0.3168335,-0.041015625,0.056640625,-0.0234375,3.3674948,-5.5309176,0.25097734,19.94858,0.98779297,-0.039367676,-0.18121338,0.038085938,0.076171875,0.0078125,1.7381004,-5.669267,-56.752895,20.689135,-0.4006958,0.054504395,0.9035034,0.0029296875,0.009765625,0.00390625,18.081532,-8.022383,-128.7224,19.774492,0.0,0.0,0.0,0.0,0.0,0.0,0.0,-24.399605,-128.80206,8.292884,0.0,0.0,0.0,0.0,0.0,0.0,0.0,-2.4503083,44.915028,-1.2444547,
0.8789062369032764,45,-0.061767578,0.8201904,0.49334717,-0.020507812,0.045898438,0.08496094,0.0,0.0,0.0,0.0,0.0,0.0,0.0,0.0,0.0,0.0,0.0,0.26791182,-0.012758914,-0.9633331,-0.9909668,0.020996094,-0.038269043,-0.00390625,-0.015625,0.033203125,3.8757558,5.546606,-0.26414907,-19.943981,0.9636841,-0.13531494,-0.22290039,-0.0126953125,0.016601562,0.036132812,3.256542,6.1757503,-57.246475,-21.293064,-0.56536865,-6.713867E-4,0.8139038,0.0068359375,-0.03125,-0.018554688,14.207418,3.7829053,-129.19296,-19.28894,0.0,0.0,0.0,0.0,0.0,0.0,0.0,-13.405777,-128.69876,-29.50138,0.0,0.0,0.0,0.0,0.0,0.0,0.0,-0.26791182,0.012758914,0.9633331,-0.95513916,-0.07434082,-0.30291748,-0.022460938,0.07519531,-0.0029296875,3.3549716,-5.546606,0.26414907,19.943981,1.0076904,-0.03765869,-0.18457031,-0.057617188,0.021484375,0.06640625,1.6663613,-5.6602225,-56.736217,20.642029,-0.40075684,0.04345703,0.91137695,0.001953125,-0.009765625,0.00390625,17.954697,-7.9594803,-128.70116,19.76638,0.0,0.0,0.0,0.0,0.0,0.0,0.0,-24.34543,-128.77678,8.298204,0.0,0.0,0.0,0.0,0.0,0.0,0.0,-2.4424183,44.91448,-1.2741313,
0.8984374866122381,46,-0.073913574,0.8045654,0.48657227,0.01953125,0.06347656,0.06640625,0.0,0.0,0.0,0.0,0.0,0.0,0.0,0.0,0.0,0.0,0.0,0.26688164,-0.013334781,-0.963671,-1.0059204,0.045654297,-0.045837402,-0.022460938,0.022460938,0.0146484375,3.8368592,5.525278,-0.27607125,-19.95098,0.98217773,-0.12426758,-0.23498535,-0.0126953125,0.036132812,0.017578125,3.2190535,6.183772,-57.262283,-21.274498,-0.5662842,0.004272461,0.8168335,0.0068359375,-0.03125,-0.018554688,14.148622,3.8274913,-129.20505,-19.295637,0.0,0.0,0.0,0.0,0.0,0.0,0.0,-13.356085,-128.71092,-29.516014,0.0,0.0,0.0,0.0,0.0,0.0,0.0,-0.26688164,0.013334781,0.963671,-0.951416,-0.09613037,-0.2962036,-0.09863281,0.11621094,-0.001953125,3.3019156,-5.525278,0.27607125,19.95098,1.0311279,-0.07989502,-0.19067383,-0.13574219,0.041992188,0.047851562,1.5902855,-5.58184,-56.726974,20.574514,-0.38952637,0.05102539,0.9310303,-0.016601562,0.009765625,0.00390625,18.039618,-7.841652,-128.6999,19.743235,0.0,0.0,0.0,0.0,0.0,0.0,0.0,-24.23113,-128.77455,8.280489,0.0,0.0,0.0,0.0,0.0,0.0,0.0,-2.4206812,44.91775,-1.2919383,
0.9179687363211998,47,-0.072631836,0.7996826,0.50341797,-0.040039062,0.064453125,0.06738281,0.0,0.0,0.0,0.0,0.0,0.0,0.0,0.0,0.0,0.0,0.0,0.26617533,-0.012709614,-0.9638894,-0.9970093,0.03161621,-0.030090332,-0.07910156,0.041015625,0.0146484375,3.7561924,5.510655,-0.2631284,-19.9555,1.0013428,-0.13006592,-0.21026611,-0.049804688,0.03515625,0.0546875,3.2216067,6.199017,-57.25457,-21.246315,-0.5662842,0.004272461,0.8148804,-0.01171875,0.005859375,0.0,14.062653,3.851582,-129.20029,-19.241735,0.0,0.0,0.0,0.0,0.0,0.0,0.0,-13.333538,-128.70909,-29.460577,0.0,0.0,0.0,0.0,0.0,0.0,0.0,-0.26617533,0.012709614,0.9638894,-0.98132324,-0.076171875,-0.28918457,-0.13769531,-0.01953125,-0.022460938,3.3320177,-5.510655,0.2631284,19.9555,1.0059814,-0.056518555,-0.15478516,0.01953125,0.020507812,0.06542969,1.5128435,-5.6031356,-56.73797,20.531399,-0.37701416,0.073913574,0.9142456,0.001953125,0.009765625,0.022460938,18.088154,-7.821516,-128.71031,19.69625,0.0,0.0,0.0,0.0,0.0,0.0,0.0,-24.20613,-128.778,8.2251,0.0,0.0,0.0,0.0,0.0,0.0,0.0,-2.4156723,44.91958,-1.2593799,
0.9374999860301615,48,-0.053588867,0.80407715,0.49597168,-0.10058594,0.009765625,0.10546875,0.0,0.0,0.0,0.0,0.0,0.0,0.0,0.0,0.0,0.0,0.0,0.26649386,-0.013034928,-0.96379566,-0.987854,0.045959473,-0.021911621,-0.07910156,0.0029296875,0.0146484375,3.8327744,5.5172496,-0.2698634,-19.95356,0.99243164,-0.15911865,-0.21032715,-0.06933594,0.036132812,0.034179688,3.1904643,6.1680593,-57.25634,-21.231636,-0.56933594,-5.493164E-4,0.8079834,0.0068359375,-0.0126953125,0.0,14.062146,3.799864,-129.1958,-19.240828,0.0,0.0,0.0,0.0,0.0,0.0,0.0,-13.379456,-128.70691,-29.468452,0.0,0.0,0.0,0.0,0.0,0.0,0.0,-0.26649386,0.013034928,0.96379566,-0.9585571,-0.10418701,-0.32086182,-0.022460938,0.016601562,0.016601562,3.3874357,-5.5172496,0.2698634,19.95356,1.0136108,-0.061706543,-0.17565918,0.038085938,0.057617188,0.02734375,1.5097357,-5.604329,-56.73109,20.53699,-0.40698242,0.053344727,0.9310913,0.001953125,-0.009765625,-0.015625,18.031334,-7.794486,-128.70691,19.699598,0.0,0.0,0.0,0.0,0.0,0.0,0.0,-24.176239,-128.77168,8.226732,0.0,0.0,0.0,0.0,0.0,0.0,0.0,-2.4583776,44.91641,-1.2872279,
0.9570312357391232,49,-0.04449463,0.81085205,0.4987793,-0.040039062,0.045898438,0.0859375,0.0,0.0,0.0,0.0,0.0,0.0,0.0,0.0,0.0,0.0,0.0,0.26772153,-0.013332839,-0.9633501,-0.9798584,0.034118652,-0.019104004,-0.060546875,0.021484375,0.033203125,3.875503,5.542665,-0.27603108,-19.944334,0.9776001,-0.14672852,-0.20812988,0.025390625,0.03515625,0.037109375,3.156163,6.1631303,-57.261658,-21.209583,-0.5905762,-0.0076904297,0.79815674,0.0068359375,0.005859375,0.0,14.129469,3.7705562,-129.21304,-19.243904,0.0,0.0,0.0,0.0,0.0,0.0,0.0,-13.405206,-128.72746,-29.477774,0.0,0.0,0.0,0.0,0.0,0.0,0.0,-0.26772153,0.013332839,0.9633501,-0.9359741,-0.07019043,-0.32751465,-0.0029296875,0.0546875,-0.00390625,3.3891115,-5.542665,0.27603108,19.944334,1.029602,-0.039978027,-0.18103027,-0.07714844,0.059570312,0.06640625,1.4702023,-5.600774,-56.72705,20.516867,-0.40075684,0.07006836,0.9468384,0.0029296875,0.009765625,0.00390625,17.959867,-7.784102,-128.69852,19.749006,0.0,0.0,0.0,0.0,0.0,0.0,0.0,-24.163818,-128.76212,8.271341,0.0,0.0,0.0,0.0,0.0,0.0,0.0,-2.4723575,44.910625,-1.3086514,
0.9765624854480849,50,-0.056640625,0.79815674,0.49102783,-0.060546875,0.02734375,0.06738281,0.0,0.0,0.0,0.0,0.0,0.0,0.0,0.0,0.0,0.0,0.0,0.26886103,-0.013292725,-0.9630542,-1.0041504,0.019226074,-0.038330078,-0.00390625,0.0029296875,0.033203125,3.8841336,5.5662565,-0.2752006,-19.93821,0.98535156,-0.12451172,-0.20513916,0.025390625,0.03515625,0.037109375,3.1344407,6.1821113,-57.26152,-21.168169,-0.5886841,-0.015625,0.79815674,0.0078125,-0.030273438,0.0,14.150103,3.7810507,-129.2122,-19.192558,0.0,0.0,0.0,0.0,0.0,0.0,0.0,-13.39401,-128.72887,-29.427279,0.0,0.0,0.0,0.0,0.0,0.0,0.0,-0.26886103,0.013292725,0.9630542,-0.97424316,-0.076171875,-0.29309082,-0.041992188,0.016601562,0.017578125,3.4368393,-5.5662565,0.2752006,19.93821,0.9962158,-0.061401367,-0.1427002,-0.09667969,0.09667969,0.06640625,1.4136084,-5.6257772,-56.728256,20.483982,-0.41296387,0.07055664,0.9232178,0.0029296875,0.009765625,0.00390625,18.083326,-7.9124756,-128.69499,19.860739,0.0,0.0,0.0,0.0,0.0,0.0,0.0,-24.298779,-128.75577,8.391206,0.0,0.0,0.0,0.0,0.0,0.0,0.0,-2.5004153,44.90971,-1.3179288,
0.9960937351570466,51,-0.055786133,0.79608154,0.47906494,-0.041015625,0.026367188,0.06738281,0.0,0.0,0.0,0.0,0.0,0.0,0.0,0.0,0.0,0.0,0.0,0.26798952,-0.013253509,-0.9633832,-1.0119629,0.041015625,-0.055847168,-0.060546875,0.00390625,-0.0048828125,3.842367,5.5482135,-0.2743886,-19.945019,0.95892334,-0.12536621,-0.21783447,-0.05078125,0.036132812,0.03515625,3.1131327,6.172841,-57.26256,-21.141354,-0.5996094,-0.007385254,0.7961426,0.0068359375,-0.0126953125,-0.037109375,14.100636,3.801497,-129.20628,-19.144196,0.0,0.0,0.0,0.0,0.0,0.0,0.0,-13.370703,-128.72679,-29.382925,0.0,0.0,0.0,0.0,0.0,0.0,0.0,-0.26798952,0.013253509,0.9633832,-0.9282837,-0.09185791,-0.28735352,-0.060546875,0.017578125,-0.0029296875,3.4275982,-5.5482135,0.2743886,19.945019,1.0238037,-0.059814453,-0.16107178,-0.01953125,0.05859375,0.02734375,1.4570997,-5.619434,-56.72987,20.525028,-0.4169922,0.081726074,0.9133911,0.0029296875,0.009765625,-0.015625,18.13254,-7.911669,-128.69781,19.86389,0.0,0.0,0.0,0.0,0.0,0.0,0.0,-24.289516,-128.75644,8.385234,0.0,0.0,0.0,0.0,0.0,0.0,0.0,-2.4949834,44.913902,-1.3119352,
1.0156249848660084,52,-0.05706787,0.83184814,0.46844482,-0.059570312,0.045898438,0.068359375,0.0,0.0,0.0,0.0,0.0,0.0,0.0,0.0,0.0,0.0,0.0,0.26646367,-0.013132598,-0.9637184,-0.9898071,0.04901123,-0.028808594,-0.041015625,0.022460938,0.0146484375,3.7781277,5.5166245,-0.27188548,-19.951958,0.9498291,-0.1260376,-0.20776367,-0.0126953125,0.016601562,0.036132812,3.1189756,6.163704,-57.25786,-21.122171,-0.57922363,0.008605957,0.8099365,0.0068359375,0.005859375,0.0,14.123801,3.7835917,-129.1979,-19.1096,0.0,0.0,0.0,0.0,0.0,0.0,0.0,-13.379166,-128.71863,-29.364115,0.0,0.0,0.0,0.0,0.0,0.0,0.0,-0.26646367,0.013132598,0.9637184,-0.97052,-0.0947876,-0.2962036,-0.022460938,0.11425781,0.017578125,3.3588212,-5.5166245,0.27188548,19.951958,1.00354,-0.07348633,-0.1763916,-0.038085938,0.021484375,0.046875,1.4601854,-5.533582,-56.733044,20.498365,-0.38635254,0.06109619,0.91625977,-0.016601562,0.029296875,0.00390625,18.042936,-7.7997417,-128.70717,19.827402,0.0,0.0,0.0,0.0,0.0,0.0,0.0,-24.184277,-128.76057,8.357374,0.0,0.0,0.0,0.0,0.0,0.0,0.0,-2.4767103,44.911465,-1.2968078,
1.03515623457497,53,-0.051940918,0.8128052,0.47113037,-0.041992188,0.0068359375,0.048828125,0.0,0.0,0.0,0.0,0.0,0.0,0.0,0.0,0.0,0.0,0.0,0.2647305,-0.0133779645,-0.9643245,-0.9818115,0.04486084,-0.018920898,-0.060546875,0.041015625,0.0146484375,3.7721107,5.480741,-0.27696532,-19.964506,0.98516846,-0.12634277,-0.23699951,-0.0126953125,0.016601562,0.036132812,3.0859742,6.0932093,-57.263985,-21.132294,-0.5845337,-0.003112793,0.82977295,0.0068359375,0.0048828125,-0.018554688,14.048309,3.7282453,-129.20654,-19.125973,0.0,0.0,0.0,0.0,0.0,0.0,0.0,-13.44109,-128.72781,-29.370247,0.0,0.0,0.0,0.0,0.0,0.0,0.0,-0.2647305,0.0133779645,0.9643245,-0.96417236,-0.074157715,-0.3048706,-0.022460938,0.07519531,-0.0029296875,3.302805,-5.480741,0.27696532,19.964506,1.0177002,-0.07269287,-0.16381836,-0.057617188,0.0029296875,0.0859375,1.477505,-5.456979,-56.72661,20.454636,-0.4046631,0.0736084,0.8985596,0.0029296875,0.009765625,0.00390625,18.120653,-7.7668447,-128.69337,19.77717,0.0,0.0,0.0,0.0,0.0,0.0,0.0,-24.15081,-128.74635,8.304853,0.0,0.0,0.0,0.0,0.0,0.0,0.0,-2.4471035,44.918877,-1.2949437,
1.0546874842839318,54,-0.03277588,0.800354,0.46551514,-0.018554688,0.10253906,0.0859375,0.0,0.0,0.0,0.0,0.0,0.0,0.0,0.0,0.0,0.0,0.0,0.26446447,-0.014546675,-0.96428597,-0.9937744,0.03869629,-0.049926758,-0.041015625,0.021484375,0.052734375,3.8376758,5.475234,-0.30116132,-19.963709,0.9852295,-0.1274414,-0.21508789,-0.01171875,0.03515625,0.055664062,3.106649,6.0825095,-57.290173,-21.155775,-0.5883179,0.005004883,0.8000488,-0.01171875,0.0068359375,0.037109375,14.048703,3.7364168,-129.2363,-19.131893,0.0,0.0,0.0,0.0,0.0,0.0,0.0,-13.42208,-128.76256,-29.393501,0.0,0.0,0.0,0.0,0.0,0.0,0.0,-0.26446447,0.014546675,0.96428597,-0.9735718,-0.09844971,-0.3050537,-0.099609375,-0.020507812,0.017578125,3.3135166,-5.475234,0.30116132,19.963709,0.96795654,-0.059020996,-0.16784668,0.07714844,0.056640625,0.045898438,1.4972404,-5.4452596,-56.701073,20.450163,-0.40478516,0.045715332,0.89068604,0.022460938,0.028320312,-0.015625,18.176514,-7.768206,-128.67136,19.753883,0.0,0.0,0.0,0.0,0.0,0.0,0.0,-24.148243,-128.723,8.276743,0.0,0.0,0.0,0.0,0.0,0.0,0.0,-2.4396398,44.913647,-1.3466363,
1.0742187339928935,55,-0.057800293,0.8060913,0.4831543,-0.040039062,0.045898438,0.06738281,0.0,0.0,0.0,0.0,0.0,0.0,0.0,0.0,0.0,0.0,0.0,0.26551673,-0.015646182,-0.963982,-1.0221558,0.040100098,-0.051940918,-0.13574219,0.041015625,0.034179688,3.8582346,5.497019,-0.32392445,-19.957415,0.9815674,-0.111572266,-0.22698975,-0.032226562,0.016601562,0.036132812,3.1133215,6.1317554,-57.311226,-21.145512,-0.56829834,0.0014038086,0.8099365,0.0068359375,-0.0126953125,-0.018554688,14.000268,3.8060791,-129.25507,-19.118174,0.0,0.0,0.0,0.0,0.0,0.0,0.0,-13.356679,-128.77579,-29.372688,0.0,0.0,0.0,0.0,0.0,0.0,0.0,-0.26551673,0.015646182,0.963982,-0.93310547,-0.0770874,-0.28723145,-0.11816406,-0.05859375,-0.0029296875,3.3697035,-5.497019,0.32392445,19.957415,1.0026855,-0.05255127,-0.17749023,0.09667969,0.038085938,0.0078125,1.4617927,-5.5119243,-56.679516,20.438057,-0.39660645,0.052368164,0.9123535,0.040039062,-0.0107421875,-0.015625,18.0051,-7.827898,-128.64595,19.732471,0.0,0.0,0.0,0.0,0.0,0.0,0.0,-24.202936,-128.6959,8.248322,0.0,0.0,0.0,0.0,0.0,0.0,0.0,-2.4290264,44.912758,-1.3980141,
1.0937499837018552,56,-0.05255127,0.79211426,0.49188232,-0.05859375,0.08496094,0.08691406,0.0,0.0,0.0,0.0,0.0,0.0,0.0,0.0,0.0,0.0,0.0,0.26695737,-0.015962094,-0.96358913,-0.9655762,0.05517578,-0.0107421875,-0.060546875,0.0029296875,0.033203125,3.9579473,5.526845,-0.33046484,-19.949284,0.9789429,-0.1340332,-0.21807861,-0.0126953125,0.0546875,0.036132812,3.1361265,6.1385555,-57.317753,-21.170778,-0.57647705,-0.006225586,0.8050537,-0.01171875,-0.01171875,0.018554688,14.050153,3.7877092,-129.26657,-19.148315,0.0,0.0,0.0,0.0,0.0,0.0,0.0,-13.377988,-128.78575,-29.3996,0.0,0.0,0.0,0.0,0.0,0.0,0.0,-0.26695737,0.015962094,0.96358913,-0.93414307,-0.07897949,-0.29022217,-0.061523438,-0.001953125,0.017578125,3.4351869,-5.526845,0.33046484,19.949284,1.0115356,-0.039733887,-0.19055176,-0.07714844,0.09667969,0.103515625,1.4354504,-5.5546093,-56.67552,20.442488,-0.38458252,0.024963379,0.9310303,0.022460938,0.046875,0.00390625,17.771608,-7.8517723,-128.6406,19.765354,0.0,0.0,0.0,0.0,0.0,0.0,0.0,-24.241154,-128.68283,8.300152,0.0,0.0,0.0,0.0,0.0,0.0,0.0,-2.4663732,44.91025,-1.4272454,
1.1132812334108169,57,-0.039611816,0.8195801,0.48675537,-0.05859375,0.08496094,0.08691406,0.0,0.0,0.0,0.0,0.0,0.0,0.0,0.0,0.0,0.0,0.0,0.2680575,-0.016235836,-0.9632475,-0.98773193,0.043273926,-0.037902832,-0.07910156,0.0029296875,0.052734375,4.039294,5.5496206,-0.3361321,-19.94221,0.97369385,-0.13867188,-0.23095703,0.043945312,0.015625,0.018554688,3.1035597,6.1149282,-57.324593,-21.178488,-0.5643921,-0.0026245117,0.8079834,0.026367188,-0.013671875,-0.018554688,13.977254,3.7664964,-129.2763,-19.184406,0.0,0.0,0.0,0.0,0.0,0.0,0.0,-13.402134,-128.79674,-29.431068,0.0,0.0,0.0,0.0,0.0,0.0,0.0,-0.2680575,0.016235836,0.9632475,-0.9211426,-0.0871582,-0.324646,-0.060546875,0.076171875,-0.0234375,3.451676,-5.5496206,0.3361321,19.94221,1.006958,-0.10949707,-0.19592285,-0.09667969,0.059570312,0.10449219,1.5199413,-5.561373,-56.671787,20.450167,-0.4069214,0.043640137,0.90252686,-0.016601562,0.009765625,0.00390625,18.003376,-7.9457893,-128.64122,19.748796,0.0,0.0,0.0,0.0,0.0,0.0,0.0,-24.320353,-128.68837,8.262857,0.0,0.0,0.0,0.0,0.0,0.0,0.0,-2.4885352,44.906948,-1.4494431,
1.1328124831197786,58,-0.062927246,0.80023193,0.4743042,-0.020507812,0.06347656,0.048828125,0.0,0.0,0.0,0.0,0.0,0.0,0.0,0.0,0.0,0.0,0.0,0.26859835,-0.0151583925,-0.96313363,-0.98883057,0.03265381,-0.0390625,-0.07910156,0.0029296875,0.052734375,3.979215,5.560819,-0.31382576,-19.93985,0.9854126,-0.122558594,-0.20410156,-0.0126953125,0.03515625,0.036132812,3.104632,6.1093664,-57.305325,-21.164637,-0.56518555,0.004333496,0.7930908,0.0068359375,0.005859375,0.0,14.012431,3.7380733,-129.2527,-19.155441,0.0,0.0,0.0,0.0,0.0,0.0,0.0,-13.424828,-128.77496,-29.413044,0.0,0.0,0.0,0.0,0.0,0.0,0.0,-0.26859835,0.0151583925,0.96313363,-0.95739746,-0.094177246,-0.2902832,-0.022460938,0.016601562,0.037109375,3.4227967,-5.560819,0.31382576,19.93985,0.98187256,-0.06921387,-0.16314697,0.0390625,0.0390625,0.045898438,1.5493973,-5.5831375,-56.69196,20.440607,-0.38128662,0.049072266,0.9083252,0.0029296875,0.009765625,0.00390625,17.985512,-7.9753246,-128.65498,19.671566,0.0,0.0,0.0,0.0,0.0,0.0,0.0,-24.35939,-128.70558,8.199745,0.0,0.0,0.0,0.0,0.0,0.0,0.0,-2.4749649,44.910194,-1.397042,
1.1523437328287403,59,-0.07147217,0.82159424,0.5194702,-0.0390625,0.083984375,0.06738281,0.0,0.0,0.0,0.0,0.0,0.0,0.0,0.0,0.0,0.0,0.0,0.26902217,-0.014850478,-0.96300334,-1.0039673,0.029174805,-0.05206299,-0.07910156,0.0029296875,0.033203125,3.8739364,5.569593,-0.30745092,-19.937155,0.9762573,-0.119140625,-0.23590088,-0.013671875,0.016601562,0.017578125,3.06765,6.141776,-57.300663,-21.1025,-0.5944824,-0.0017089844,0.80999756,0.0068359375,0.005859375,0.0,13.998475,3.7898254,-129.24391,-19.08332,0.0,0.0,0.0,0.0,0.0,0.0,0.0,-13.372311,-128.76639,-29.340847,0.0,0.0,0.0,0.0,0.0,0.0,0.0,-0.26902217,0.014850478,0.96300334,-0.9312744,-0.09094238,-0.2814331,-0.061523438,-0.001953125,0.017578125,3.3751025,-5.569593,0.30745092,19.937155,0.960022,-0.048950195,-0.16973877,0.0,0.020507812,0.046875,1.5355686,-5.595886,-56.69809,20.457132,-0.3925171,0.05822754,0.9182129,0.0029296875,0.028320312,-0.034179688,17.9004,-7.955797,-128.6594,19.700861,0.0,0.0,0.0,0.0,0.0,0.0,0.0,-24.341627,-128.71544,8.230459,0.0,0.0,0.0,0.0,0.0,0.0,0.0,-2.4459848,44.911705,-1.3758876,
1.171874982537702,60,-0.0637207,0.81030273,0.49230957,-0.057617188,0.103515625,0.068359375,0.0,0.0,0.0,0.0,0.0,0.0,0.0,0.0,0.0,0.0,0.0,0.26997983,-0.0146962395,-0.96273136,-0.9940796,0.040039062,-0.012023926,-0.1171875,0.0029296875,0.033203125,3.8272526,5.58942,-0.3042577,-19.931526,0.96728516,-0.116882324,-0.21887207,-0.049804688,0.016601562,0.0546875,3.0138285,6.159961,-57.29542,-21.05926,-0.569397,-0.0015869141,0.8257446,0.0068359375,0.005859375,0.0,13.928745,3.8489227,-129.244,-19.046371,0.0,0.0,0.0,0.0,0.0,0.0,0.0,-13.310272,-128.76802,-29.30713,0.0,0.0,0.0,0.0,0.0,0.0,0.0,-0.26997983,0.0146962395,0.96273136,-0.94055176,-0.109802246,-0.30419922,-0.041992188,-0.001953125,-0.0029296875,3.3324878,-5.58942,0.3042577,19.931526,0.99487305,-0.047424316,-0.17242432,-0.07714844,0.041015625,0.08496094,1.5585903,-5.604045,-56.69799,20.483154,-0.40283203,0.06518555,0.94189453,0.0029296875,0.028320312,0.022460938,17.747177,-7.9360576,-128.66092,19.714005,0.0,0.0,0.0,0.0,0.0,0.0,0.0,-24.329918,-128.71776,8.256135,0.0,0.0,0.0,0.0,0.0,0.0,0.0,-2.432264,44.912426,-1.3676775,
1.1914062322466636,61,-0.059692383,0.8092041,0.4932251,-0.020507812,0.064453125,0.06738281,0.0,0.0,0.0,0.0,0.0,0.0,0.0,0.0,0.0,0.0,0.0,0.27124637,-0.014148307,-0.9625374,-0.993042,0.036254883,-0.020080566,-0.041015625,0.0029296875,0.033203125,3.847002,5.6156406,-0.2929138,-19.92751,0.9725342,-0.10821533,-0.22888184,0.0048828125,-0.0029296875,0.017578125,2.9502172,6.1416426,-57.284164,-21.048416,-0.5744629,-0.0034179688,0.8267822,0.0068359375,0.0048828125,-0.018554688,13.80383,3.8844948,-129.23148,-19.050722,0.0,0.0,0.0,0.0,0.0,0.0,0.0,-13.2776375,-128.75674,-29.30686,0.0,0.0,0.0,0.0,0.0,0.0,0.0,-0.27124637,0.014148307,0.9625374,-0.95654297,-0.10247803,-0.31201172,-0.041992188,0.07519531,0.017578125,3.3127484,-5.6156406,0.2929138,19.92751,0.9914551,-0.072387695,-0.18701172,-0.11621094,0.041015625,0.0859375,1.5841208,-5.6042976,-56.712395,20.491688,-0.40167236,0.062561035,0.89953613,0.0029296875,0.009765625,0.00390625,17.727661,-7.9003873,-128.68402,19.692528,0.0,0.0,0.0,0.0,0.0,0.0,0.0,-24.29462,-128.74605,8.235952,0.0,0.0,0.0,0.0,0.0,0.0,0.0,-2.4470198,44.918842,-1.3498392,
1.2109374819556253,62,-0.059814453,0.7962036,0.479187,-0.040039062,0.045898438,0.06738281,0.0,0.0,0.0,0.0,0.0,0.0,0.0,0.0,0.0,0.0,0.0,0.27208608,-0.014220037,-0.96226704,-0.9937134,0.049316406,-0.04473877,-0.041015625,0.022460938,0.0146484375,3.8727229,5.633026,-0.2943988,-19.92191,0.982605,-0.11260986,-0.2130127,-0.0126953125,0.015625,0.055664062,2.9463663,6.1519732,-57.284313,-21.042597,-0.5855713,-0.007019043,0.8208618,-0.01171875,0.024414062,0.0,13.752309,3.901771,-129.23836,-19.040636,0.0,0.0,0.0,0.0,0.0,0.0,0.0,-13.261055,-128.76111,-29.296078,0.0,0.0,0.0,0.0,0.0,0.0,0.0,-0.27208608,0.014220037,0.96226704,-0.95648193,-0.09765625,-0.309021,-0.09863281,0.057617188,-0.0029296875,3.3459144,-5.633026,0.2943988,19.92191,1.0111694,-0.095581055,-0.18621826,-0.057617188,0.040039062,0.06640625,1.6359009,-5.64537,-56.709766,20.514872,-0.40490723,0.061279297,0.93896484,0.0029296875,0.009765625,0.00390625,17.695467,-7.962721,-128.6766,19.658371,0.0,0.0,0.0,0.0,0.0,0.0,0.0,-24.357925,-128.73946,8.204405,0.0,0.0,0.0,0.0,0.0,0.0,0.0,-2.4607422,44.916397,-1.3595462,
1.230468731664587,63,-0.07989502,0.8286133,0.4958496,-0.059570312,0.06542969,0.068359375,0.0,0.0,0.0,0.0,0.0,0.0,0.0,0.0,0.0,0.0,0.0,0.27200115,-0.013619642,-0.96226585,-0.9968872,0.030883789,-0.045043945,-0.07910156,0.041015625,0.052734375,3.8264337,5.6312666,-0.2819687,-19.921885,0.984375,-0.1194458,-0.23400879,0.0068359375,0.03515625,0.055664062,2.9724944,6.180907,-57.27527,-21.042116,-0.5806885,-0.014038086,0.8179321,0.0068359375,0.005859375,0.018554688,13.769595,3.9226654,-129.22278,-19.031809,0.0,0.0,0.0,0.0,0.0,0.0,0.0,-13.234424,-128.75015,-29.2968,0.0,0.0,0.0,0.0,0.0,0.0,0.0,-0.27200115,0.013619642,0.96226585,-0.9495239,-0.10601807,-0.2923584,-0.080078125,0.018554688,0.017578125,3.3425775,-5.6312666,0.2819687,19.921885,0.98376465,-0.04827881,-0.18206787,0.01953125,0.076171875,0.064453125,1.6217235,-5.63414,-56.71939,20.467897,-0.4006958,0.06335449,0.91729736,0.021484375,-0.009765625,-0.015625,17.745552,-7.9597306,-128.6896,19.589922,0.0,0.0,0.0,0.0,0.0,0.0,0.0,-24.336493,-128.7588,8.110226,0.0,0.0,0.0,0.0,0.0,0.0,0.0,-2.461972,44.915695,-1.3316431,
1.2499999813735487,64,-0.053771973,0.79803467,0.47705078,-0.040039062,0.044921875,0.048828125,0.0,0.0,0.0,0.0,0.0,0.0,0.0,0.0,0.0,0.0,0.0,0.2716911,-0.013406314,-0.96234316,-0.9909668,0.03918457,-0.020996094,-0.041015625,0.00390625,-0.0048828125,3.7988539,5.6248484,-0.27755222,-19.923487,0.96221924,-0.11767578,-0.21484375,-0.049804688,0.03515625,0.0546875,2.9660332,6.166017,-57.270905,-21.005379,-0.58758545,-0.0068969727,0.8189087,-0.01171875,-0.0126953125,-0.018554688,13.713814,3.8875444,-129.2232,-18.962904,0.0,0.0,0.0,0.0,0.0,0.0,0.0,-13.273954,-128.74966,-29.222353,0.0,0.0,0.0,0.0,0.0,0.0,0.0,-0.2716911,0.013406314,0.96234316,-0.9407959,-0.12646484,-0.3043213,-0.080078125,0.07714844,-0.0234375,3.3393545,-5.6248484,0.27755222,19.923487,0.99780273,-0.04949951,-0.17144775,0.0,0.0390625,0.02734375,1.6291881,-5.62645,-56.726437,20.478855,-0.40075684,0.04650879,0.9064331,0.001953125,0.009765625,0.022460938,17.692522,-7.9644337,-128.69232,19.611794,0.0,0.0,0.0,0.0,0.0,0.0,0.0,-24.343283,-128.75693,8.133113,0.0,0.0,0.0,0.0,0.0,0.0,0.0,-2.4664073,44.91516,-1.3220315,
1.2695312310825104,65,-0.090026855,0.82891846,0.4961548,-9.765625E-4,0.044921875,0.08496094,0.0,0.0,0.0,0.0,0.0,0.0,0.0,0.0,0.0,0.0,0.0,0.27095625,-0.01255222,-0.9624713,-0.98187256,0.03326416,-0.023071289,-0.00390625,0.041015625,0.034179688,3.7774537,5.6096344,-0.2598698,-19.92614,0.97784424,-0.1348877,-0.23699951,-0.01171875,0.053710938,0.0546875,2.954792,6.1191807,-57.25177,-21.016235,-0.57336426,0.0034179688,0.8297119,0.026367188,-0.013671875,-0.018554688,13.629113,3.8375087,-129.20499,-18.977177,0.0,0.0,0.0,0.0,0.0,0.0,0.0,-13.325378,-128.72638,-29.235237,0.0,0.0,0.0,0.0,0.0,0.0,0.0,-0.27095625,0.01255222,0.9624713,-0.93548584,-0.10772705,-0.31304932,-0.060546875,0.017578125,-0.0029296875,3.2905116,-5.6096344,0.2598698,19.92614,1.0129395,-0.077697754,-0.21008301,-0.038085938,0.040039062,0.06640625,1.6130117,-5.5956287,-56.74117,20.493988,-0.42523193,0.06591797,0.90753174,0.001953125,0.009765625,0.022460938,17.556631,-7.881208,-128.71094,19.640856,0.0,0.0,0.0,0.0,0.0,0.0,0.0,-24.259962,-128.77792,8.161677,0.0,0.0,0.0,0.0,0.0,0.0,0.0,-2.456894,44.913044,-1.2774087,
1.2890624807914721,66,-0.062072754,0.8140869,0.46844482,-0.020507812,0.044921875,0.048828125,0.0,0.0,0.0,0.0,0.0,0.0,0.0,0.0,0.0,0.0,0.0,0.270168,-0.0124918595,-0.96273744,-0.993103,0.032287598,-0.014160156,-0.00390625,0.022460938,0.033203125,3.772007,5.5933146,-0.2586202,-19.93165,0.99298096,-0.14147949,-0.20324707,-0.03125,0.016601562,0.0546875,2.9302435,6.048427,-57.24964,-21.010363,-0.58477783,-0.0178833,0.8258667,0.0068359375,-0.0126953125,0.0,13.586424,3.7340512,-129.19533,-18.969494,0.0,0.0,0.0,0.0,0.0,0.0,0.0,-13.438976,-128.71706,-29.20953,0.0,0.0,0.0,0.0,0.0,0.0,0.0,-0.270168,0.0124918595,0.96273744,-0.9413452,-0.09387207,-0.31488037,-0.080078125,0.057617188,0.017578125,3.2385774,-5.5933146,0.2586202,19.93165,0.9995117,-0.06549072,-0.18322754,-0.11621094,0.041015625,0.047851562,1.6172525,-5.5659733,-56.747654,20.504818,-0.42541504,0.05871582,0.9301758,0.001953125,0.0087890625,0.059570312,17.513977,-7.8099365,-128.71756,19.628609,0.0,0.0,0.0,0.0,0.0,0.0,0.0,-24.186695,-128.79863,8.146334,0.0,0.0,0.0,0.0,0.0,0.0,0.0,-2.4302468,44.91675,-1.2647984,
1.3085937305004338,67,-0.075927734,0.8065796,0.48364258,-0.08105469,-0.0107421875,0.049804688,0.0,0.0,0.0,0.0,0.0,0.0,0.0,0.0,0.0,0.0,0.0,0.27025747,-0.01102525,-0.9627302,-0.9970703,0.042114258,-0.018005371,-0.00390625,0.022460938,-0.0048828125,3.7563488,5.595167,-0.2282569,-19.9315,0.98724365,-0.128479,-0.2121582,-0.06933594,0.016601562,0.053710938,2.9111419,6.0089335,-57.222225,-21.007082,-0.58032227,0.0028076172,0.79711914,-0.01171875,0.005859375,0.0,13.649142,3.6656375,-129.16374,-18.975712,0.0,0.0,0.0,0.0,0.0,0.0,0.0,-13.502359,-128.68814,-29.2243,0.0,0.0,0.0,0.0,0.0,0.0,0.0,-0.27025747,0.01102525,0.9627302,-0.9225464,-0.11608887,-0.30230713,-0.060546875,0.056640625,-0.0029296875,3.2111986,-5.595167,0.2282569,19.9315,1.0032349,-0.08154297,-0.1940918,-0.11621094,0.059570312,0.047851562,1.6161631,-5.5401263,-56.776104,20.488213,-0.41003418,0.06524658,0.9498291,0.0029296875,0.009765625,0.00390625,17.501581,-7.752999,-128.74747,19.593414,0.0,0.0,0.0,0.0,0.0,0.0,0.0,-24.129957,-128.82376,8.112129,0.0,0.0,0.0,0.0,0.0,0.0,0.0,-2.446115,44.91764,-1.2010727,
1.3281249802093955,68,-0.096069336,0.79919434,0.48614502,-0.041992188,0.0068359375,0.048828125,0.0,0.0,0.0,0.0,0.0,0.0,0.0,0.0,0.0,0.0,0.0,0.27029416,-0.010416888,-0.9627239,-0.9918823,0.045043945,-0.023925781,-0.00390625,0.0029296875,0.052734375,3.760673,5.5959277,-0.21566185,-19.93137,0.9605713,-0.13812256,-0.22686768,-0.049804688,0.03515625,0.0546875,2.90697,5.9885955,-57.21114,-21.012318,-0.5805054,-0.008056641,0.8050537,-0.01171875,0.005859375,0.0,13.710427,3.6082716,-129.16039,-18.99928,0.0,0.0,0.0,0.0,0.0,0.0,0.0,-13.560353,-128.68332,-29.244709,0.0,0.0,0.0,0.0,0.0,0.0,0.0,-0.27029416,0.010416888,0.9627239,-0.9053955,-0.11138916,-0.30621338,-0.022460938,-0.0029296875,0.037109375,3.19396,-5.5959277,0.21566185,19.93137,0.9794922,-0.07318115,-0.18676758,-0.05859375,0.095703125,0.06542969,1.7086897,-5.5270762,-56.78936,20.504808,-0.3925171,0.07299805,0.94085693,0.001953125,-0.009765625,0.022460938,17.497936,-7.7921023,-128.76358,19.53779,0.0,0.0,0.0,0.0,0.0,0.0,0.0,-24.171127,-128.83815,8.059415,0.0,0.0,0.0,0.0,0.0,0.0,0.0,-2.4548798,44.917725,-1.1752514,
1.3476562299183572,69,-0.064819336,0.7844238,0.48016357,-0.021484375,0.025390625,0.048828125,0.0,0.0,0.0,0.0,0.0,0.0,0.0,0.0,0.0,0.0,0.0,0.27001598,-0.00923641,-0.9628796,-0.9899292,0.037231445,-0.024047852,-0.022460938,0.0029296875,0.033203125,3.723416,5.5901694,-0.19122234,-19.934593,0.9789429,-0.13397217,-0.22705078,-0.03125,0.016601562,0.0546875,2.9074411,5.9762106,-57.182247,-21.014696,-0.56658936,-0.012512207,0.8267822,0.0068359375,-0.0126953125,0.0,13.724944,3.5838978,-129.12456,-19.001797,0.0,0.0,0.0,0.0,0.0,0.0,0.0,-13.58998,-128.65175,-29.240986,0.0,0.0,0.0,0.0,0.0,0.0,0.0,-0.27001598,0.00923641,0.9628796,-0.9434204,-0.09881592,-0.3522339,0.07324219,0.072265625,0.015625,3.1409295,-5.5901694,0.19122234,19.934593,1.0196533,-0.049804688,-0.17681885,-0.05859375,0.095703125,0.103515625,1.7297482,-5.479455,-56.815323,20.509766,-0.40063477,0.08123779,0.927124,0.001953125,-0.028320312,0.00390625,17.453142,-7.7478776,-128.78738,19.557463,0.0,0.0,0.0,0.0,0.0,0.0,0.0,-24.121408,-128.86035,8.072172,0.0,0.0,0.0,0.0,0.0,0.0,0.0,-2.460957,44.921627,-1.1210251,
1.367187479627319,70,-0.06750488,0.80352783,0.50927734,-0.061523438,-0.01171875,0.03125,0.0,0.0,0.0,0.0,0.0,0.0,0.0,0.0,0.0,0.0,0.0,0.2643212,-0.015520204,-0.96107554,-0.99298096,0.045959473,-0.015930176,-0.00390625,0.0029296875,0.033203125,3.0853398,5.472268,-0.32131636,-19.897243,0.9747925,-0.13574219,-0.23394775,-0.049804688,0.0546875,0.03515625,2.8947556,5.840638,-57.311962,-20.98613,-0.58062744,-0.010192871,0.8386841,0.0068359375,0.005859375,0.0,13.64687,3.4486203,-129.25359,-18.98856,0.0,0.0,0.0,0.0,0.0,0.0,0.0,-13.733301,-128.78195,-29.215193,0.0,0.0,0.0,0.0,0.0,0.0,0.0,-0.2643212,0.015520204,0.96107554,-0.90930176,-0.101623535,-0.30218506,0.03515625,0.053710938,0.037109375,2.1359754,-5.472268,0.32131636,19.897243,0.9993286,-0.06549072,-0.19506836,-0.078125,0.078125,0.046875,1.7230603,-5.3467226,-56.683353,20.467525,-0.40063477,0.0635376,0.90148926,-0.016601562,0.009765625,0.00390625,17.33849,-7.637163,-128.65094,19.556915,0.0,0.0,0.0,0.0,0.0,0.0,0.0,-24.025515,-128.719,8.092357,0.0,0.0,0.0,0.0,0.0,0.0,0.0,-1.6089191,44.81563,-1.1662135,
1.3867187293362806,71,-0.064086914,0.8041992,0.46539307,-0.08105469,-0.01171875,0.03125,0.0,0.0,0.0,0.0,0.0,0.0,0.0,0.0,0.0,0.0,0.0,0.26404506,-0.015766466,-0.9639059,-0.9937134,0.0579834,-0.03765869,0.0146484375,-0.016601562,0.052734375,3.0421455,5.466552,-0.32641476,-19.955837,0.97210693,-0.12591553,-0.2189331,-0.048828125,0.03515625,0.07324219,2.887172,5.812087,-57.318752,-21.077833,-0.54467773,-0.021118164,0.8347168,0.0068359375,0.005859375,0.0,13.660628,3.4350297,-129.266,-19.106255,0.0,0.0,0.0,0.0,0.0,0.0,0.0,-13.748981,-128.79323,-29.327572,0.0,0.0,0.0,0.0,0.0,0.0,0.0,-0.26404506,0.015766466,0.9639059,-0.92614746,-0.083984375,-0.29223633,-0.041992188,0.016601562,0.057617188,2.0478442,-5.466552,0.32641476,19.955837,1.0197144,-0.06072998,-0.16888428,-0.11621094,0.059570312,0.10449219,1.6938506,-5.3583884,-56.67747,20.494728,-0.39770508,0.046325684,0.91729736,-0.016601562,0.029296875,0.00390625,17.449896,-7.6920495,-128.64815,19.615463,0.0,0.0,0.0,0.0,0.0,0.0,0.0,-24.074114,-128.72182,8.142605,0.0,0.0,0.0,0.0,0.0,0.0,0.0,-1.5191829,44.938957,-1.1512134,
1.4062499790452423,72,-0.052856445,0.80792236,0.47509766,-0.061523438,-0.01171875,0.03125,0.0,0.0,0.0,0.0,0.0,0.0,0.0,0.0,0.0,0.0,0.0,0.2642396,-0.015080214,-0.9643853,-0.9835205,0.05126953,-0.05267334,0.015625,0.060546875,0.034179688,3.0461326,5.47058,-0.31220722,-19.965765,0.9837036,-0.14294434,-0.23608398,0.0068359375,0.03515625,0.055664062,2.9204738,5.8267922,-57.302788,-21.137627,-0.5745239,-0.0044555664,0.83569336,0.026367188,0.0234375,0.018554688,13.629026,3.4508302,-129.24637,-19.188425,0.0,0.0,0.0,0.0,0.0,0.0,0.0,-13.735268,-128.76965,-29.405811,0.0,0.0,0.0,0.0,0.0,0.0,0.0,-0.2642396,0.015080214,0.9643853,-0.92858887,-0.11602783,-0.30029297,-0.041992188,-0.0029296875,0.017578125,2.0191636,-5.47058,0.31220722,19.965765,0.9819336,-0.064208984,-0.16217041,-0.07714844,0.022460938,0.0859375,1.7291826,-5.3557906,-56.692383,20.520756,-0.39056396,0.0491333,0.9212036,-0.016601562,0.009765625,0.00390625,17.468449,-7.6979613,-128.65536,19.61722,0.0,0.0,0.0,0.0,0.0,0.0,0.0,-24.085928,-128.73105,8.151598,0.0,0.0,0.0,0.0,0.0,0.0,0.0,-1.5218489,44.96231,-1.120065,
1.425781228754204,73,-0.07281494,0.82647705,0.49865723,-0.0625,-0.030273438,0.048828125,0.0,0.0,0.0,0.0,0.0,0.0,0.0,0.0,0.0,0.0,0.0,0.2631093,-0.0143926125,-0.9648151,-0.9859619,0.038085938,-0.017028809,0.015625,0.00390625,0.0146484375,3.046518,5.447178,-0.29797167,-19.974665,0.9760742,-0.12597656,-0.23297119,-0.049804688,0.0546875,0.03515625,2.900228,5.781929,-57.29141,-21.158567,-0.574646,-0.014282227,0.8267822,0.0068359375,-0.0126953125,0.018554688,13.675226,3.4052653,-129.24022,-19.237432,0.0,0.0,0.0,0.0,0.0,0.0,0.0,-13.77573,-128.7636,-29.462753,0.0,0.0,0.0,0.0,0.0,0.0,0.0,-0.2631093,0.0143926125,0.9648151,-0.9142456,-0.09649658,-0.30804443,0.015625,0.015625,0.037109375,2.0220692,-5.447178,0.29797167,19.974665,0.99975586,-0.04949951,-0.17645264,-0.115234375,0.041015625,0.10449219,1.7705623,-5.3316875,-56.706398,20.52872,-0.39648438,0.074401855,0.90148926,0.001953125,-0.009765625,0.00390625,17.613997,-7.6929617,-128.67212,19.572037,0.0,0.0,0.0,0.0,0.0,0.0,0.0,-24.075138,-128.75336,8.098017,0.0,0.0,0.0,0.0,0.0,0.0,0.0,-1.5385103,44.96727,-1.090357,
1.4453124784631657,74,-0.053344727,0.8062134,0.5148926,-0.061523438,0.0078125,0.049804688,0.0,0.0,0.0,0.0,0.0,0.0,0.0,0.0,0.0,0.0,0.0,0.26417482,-0.013878036,-0.9644852,-0.98883057,0.051818848,-0.023803711,0.015625,0.041015625,0.034179688,3.123178,5.469236,-0.2873184,-19.967834,0.9647827,-0.13238525,-0.23187256,-0.048828125,0.03515625,0.07324219,2.8888664,5.7890663,-57.27637,-21.171253,-0.5656128,-0.01550293,0.81988525,0.0068359375,-0.0126953125,0.0,13.702948,3.407944,-129.22151,-19.28271,0.0,0.0,0.0,0.0,0.0,0.0,0.0,-13.767323,-128.74643,-29.519125,0.0,0.0,0.0,0.0,0.0,0.0,0.0,-0.26417482,0.013878036,0.9644852,-0.951416,-0.097717285,-0.30999756,0.03515625,0.07324219,0.037109375,2.127529,-5.469236,0.2873184,19.967834,1.0134277,-0.08959961,-0.17248535,-0.07714844,0.041015625,0.08496094,1.8002671,-5.3754897,-56.71837,20.530424,-0.38531494,0.06506348,0.91522217,0.0029296875,0.009765625,0.00390625,17.635653,-7.7417564,-128.6795,19.515347,0.0,0.0,0.0,0.0,0.0,0.0,0.0,-24.125977,-128.7619,8.046125,0.0,0.0,0.0,0.0,0.0,0.0,0.0,-1.6150078,44.962605,-1.0893241,
1.4648437281721274,75,-0.06561279,0.78948975,0.49719238,-0.0625,-0.03125,0.03125,0.0,0.0,0.0,0.0,0.0,0.0,0.0,0.0,0.0,0.0,0.0,0.26274213,-0.01322739,-0.96488416,-0.99108887,0.03894043,-0.0061035156,-0.00390625,0.0029296875,0.052734375,3.1495192,5.4395757,-0.273848,-19.976093,1.0010376,-0.1408081,-0.215271,-0.051757812,-0.021484375,0.036132812,2.8832366,5.734823,-57.26381,-21.187557,-0.5666504,-0.01550293,0.8307495,0.0068359375,0.059570312,-0.01953125,13.715369,3.351304,-129.21024,-19.299725,0.0,0.0,0.0,0.0,0.0,0.0,0.0,-13.823894,-128.73593,-29.533827,0.0,0.0,0.0,0.0,0.0,0.0,0.0,-0.26274213,0.01322739,0.96488416,-0.9286499,-0.044677734,-0.2958374,0.03515625,0.053710938,0.037109375,2.1796033,-5.4395757,0.273848,19.976093,0.99346924,-0.06542969,-0.18804932,-0.0390625,0.05859375,0.06542969,1.7857505,-5.3240967,-56.72855,20.447796,-0.40478516,0.05456543,0.90545654,-0.016601562,0.009765625,0.022460938,17.636858,-7.7043767,-128.69142,19.382177,0.0,0.0,0.0,0.0,0.0,0.0,0.0,-24.090096,-128.77168,7.9135723,0.0,0.0,0.0,0.0,0.0,0.0,0.0,-1.6553018,44.96161,-1.0671148,
1.484374977881089,76,-0.07299805,0.8184204,0.48266602,-0.061523438,0.0068359375,0.03125,0.0,0.0,0.0,0.0,0.0,0.0,0.0,0.0,0.0,0.0,0.0,0.2614377,-0.0126020145,-0.9651796,-1.012146,0.030090332,-0.042114258,-0.07910156,0.07910156,0.034179688,3.122175,5.412571,-0.2609008,-19.982208,0.99731445,-0.12884521,-0.2211914,-0.068359375,0.0546875,0.053710938,2.9361832,5.766148,-57.24911,-21.201933,-0.58447266,-0.0020751953,0.81884766,0.0068359375,-0.0126953125,0.0,13.756963,3.3623896,-129.19269,-19.303808,0.0,0.0,0.0,0.0,0.0,0.0,0.0,-13.810491,-128.71228,-29.54107,0.0,0.0,0.0,0.0,0.0,0.0,0.0,-0.2614377,0.0126020145,0.9651796,-0.9208374,-0.061157227,-0.3078003,-0.13769531,-0.05859375,0.018554688,2.2030928,-5.412571,0.2609008,19.982208,1.0054321,-0.06359863,-0.18829346,-0.057617188,0.05859375,0.06640625,1.7782826,-5.296101,-56.74273,20.458157,-0.40161133,0.07739258,0.9152832,-0.016601562,0.009765625,0.00390625,17.532183,-7.6891265,-128.70697,19.423895,0.0,0.0,0.0,0.0,0.0,0.0,0.0,-24.0825,-128.78473,7.9656086,0.0,0.0,0.0,0.0,0.0,0.0,0.0,-1.6873357,44.958035,-1.0440493,
1.5039062275900508,77,-0.07318115,0.80841064,0.4666748,-0.061523438,-0.01171875,0.048828125,0.0,0.0,0.0,0.0,0.0,0.0,0.0,0.0,0.0,0.0,0.0,0.25950557,-0.012054184,-0.96571153,-0.9764404,0.0635376,-0.03552246,0.015625,0.041992188,-0.00390625,3.0897782,5.37257,-0.24955902,-19.993223,0.9628906,-0.1274414,-0.22485352,-0.06933594,0.036132812,0.053710938,2.946964,5.7505255,-57.23996,-21.211254,-0.5560913,0.011779785,0.8208008,0.0068359375,0.005859375,0.0,13.670964,3.3494835,-129.1871,-19.311916,0.0,0.0,0.0,0.0,0.0,0.0,0.0,-13.832127,-128.70253,-29.537315,0.0,0.0,0.0,0.0,0.0,0.0,0.0,-0.25950557,0.012054184,0.96571153,-0.94873047,-0.12158203,-0.29638672,-0.080078125,0.018554688,0.017578125,2.2215824,-5.37257,0.24955902,19.993223,0.99212646,-0.028442383,-0.16656494,-0.11621094,0.059570312,0.06640625,1.7477567,-5.26997,-56.756447,20.463785,-0.41809082,0.076660156,0.92126465,0.001953125,0.009765625,0.022460938,17.606333,-7.6868944,-128.72383,19.47974,0.0,0.0,0.0,0.0,0.0,0.0,0.0,-24.08342,-128.79733,8.02466,0.0,0.0,0.0,0.0,0.0,0.0,0.0,-1.700979,44.95828,-1.0182637,
1.5234374772990125,78,-0.08355713,0.81695557,0.5217285,-0.022460938,-0.0126953125,0.030273438,0.0,0.0,0.0,0.0,0.0,0.0,0.0,0.0,0.0,0.0,0.0,0.25786775,-0.011571782,-0.9660918,-0.98706055,0.028320312,-0.015197754,-0.00390625,0.0029296875,0.052734375,3.1251833,5.338663,-0.23957177,-20.001095,0.9777832,-0.14086914,-0.21307373,-0.049804688,0.03515625,0.0546875,2.9234886,5.68107,-57.228424,-21.236794,-0.576355,0.0016479492,0.8139038,0.026367188,0.0234375,0.0,13.656347,3.2629008,-129.17783,-19.376385,0.0,0.0,0.0,0.0,0.0,0.0,0.0,-13.917938,-128.69348,-29.601706,0.0,0.0,0.0,0.0,0.0,0.0,0.0,-0.25786775,0.011571782,0.9660918,-0.9447632,-0.123413086,-0.3062744,0.13085938,0.08984375,0.036132812,2.2204368,-5.338663,0.23957177,20.001095,1.0133057,-0.07366943,-0.18841553,-0.0390625,0.05859375,0.06542969,1.8536133,-5.2217784,-56.762558,20.499647,-0.43041992,0.07092285,0.9213257,0.0029296875,0.009765625,0.00390625,17.656607,-7.675055,-128.72267,19.420263,0.0,0.0,0.0,0.0,0.0,0.0,0.0,-24.076178,-128.79553,7.9727936,0.0,0.0,0.0,0.0,0.0,0.0,0.0,-1.7269228,44.95491,-0.99941444,
1.5429687270079742,79,-0.06536865,0.7905884,0.5140991,-0.021484375,0.024414062,0.01171875,0.0,0.0,0.0,0.0,0.0,0.0,0.0,0.0,0.0,0.0,0.0,0.2584697,-0.010659953,-0.9659125,-0.9776001,0.036499023,-0.045959473,-0.00390625,0.0029296875,0.052734375,3.1406803,5.3511233,-0.22069405,-19.997383,0.97821045,-0.12414551,-0.22399902,-0.06933594,0.036132812,0.053710938,2.9079797,5.6863823,-57.213036,-21.238955,-0.59643555,0.0031738281,0.82281494,0.0068359375,-0.0126953125,-0.018554688,13.663275,3.2932696,-129.16273,-19.387403,0.0,0.0,0.0,0.0,0.0,0.0,0.0,-13.874573,-128.68193,-29.634754,0.0,0.0,0.0,0.0,0.0,0.0,0.0,-0.2584697,0.010659953,0.9659125,-0.9349365,-0.06451416,-0.31958008,-0.022460938,0.036132812,0.016601562,2.2219348,-5.3511233,0.22069405,19.997383,0.99871826,-0.061462402,-0.17340088,-0.057617188,0.040039062,0.08496094,1.8805517,-5.178209,-56.786716,20.462906,-0.42419434,0.07086182,0.9154053,0.0029296875,0.009765625,-0.034179688,17.6179,-7.6286097,-128.74124,19.36171,0.0,0.0,0.0,0.0,0.0,0.0,0.0,-24.033451,-128.81027,7.919736,0.0,0.0,0.0,0.0,0.0,0.0,0.0,-1.7733895,44.952473,-0.97064555,
1.5624999767169359,80,-0.051452637,0.81604004,0.50494385,-0.0029296875,-0.013671875,0.029296875,0.0,0.0,0.0,0.0,0.0,0.0,0.0,0.0,0.0,0.0,0.0,0.25987375,-0.010263316,-0.96559465,-0.99108887,0.024536133,-0.020263672,-0.00390625,0.07910156,0.053710938,3.171385,5.380192,-0.21248251,-19.990803,0.98516846,-0.12939453,-0.21612549,-0.03125,0.016601562,0.0546875,2.9490888,5.742983,-57.199993,-21.240812,-0.5773926,-0.0012207031,0.8049927,0.026367188,0.0048828125,0.01953125,13.685378,3.3454437,-129.14217,-19.363134,0.0,0.0,0.0,0.0,0.0,0.0,0.0,-13.826115,-128.66577,-29.60425,0.0,0.0,0.0,0.0,0.0,0.0,0.0,-0.25987375,0.010263316,0.96559465,-0.93725586,-0.08892822,-0.32073975,-0.11816406,-0.0390625,0.038085938,2.3314576,-5.380192,0.21248251,19.990803,0.99212646,-0.04534912,-0.15655518,-0.07714844,0.022460938,0.0859375,1.82306,-5.2378836,-56.795322,20.408348,-0.38641357,0.042236328,0.9024658,-0.016601562,-0.0087890625,0.00390625,17.60213,-7.6916184,-128.75467,19.313112,0.0,0.0,0.0,0.0,0.0,0.0,0.0,-24.098694,-128.82008,7.8769283,0.0,0.0,0.0,0.0,0.0,0.0,0.0,-1.8272024,44.95272,-0.9695642,
1.5820312264258976,81,-0.06060791,0.7784424,0.4909668,0.015625,-0.033203125,0.0107421875,0.0,0.0,0.0,0.0,0.0,0.0,0.0,0.0,0.0,0.0,0.0,0.2608894,-0.009342104,-0.9654001,-1.0082397,0.05657959,1.8310547E-4,0.015625,0.041015625,0.052734375,3.223065,5.4012213,-0.19341049,-19.986774,0.99816895,-0.13482666,-0.21826172,-0.087890625,0.017578125,0.053710938,2.9613435,5.735502,-57.181847,-21.254448,-0.5704346,-0.0025024414,0.8178711,0.0068359375,-0.0126953125,0.018554688,13.745081,3.3323193,-129.13307,-19.361305,0.0,0.0,0.0,0.0,0.0,0.0,0.0,-13.846437,-128.65575,-29.589012,0.0,0.0,0.0,0.0,0.0,0.0,0.0,-0.2608894,0.009342104,0.9654001,-0.9342041,-0.08508301,-0.3217163,-0.00390625,0.03515625,0.078125,2.4109464,-5.4012213,0.19341049,19.986774,1.0114136,-0.08758545,-0.17645264,-0.0390625,0.05859375,0.06542969,1.8837751,-5.28403,-56.81363,20.406263,-0.40893555,0.045715332,0.8986206,0.0029296875,0.009765625,0.00390625,17.633713,-7.764248,-128.77295,19.20165,0.0,0.0,0.0,0.0,0.0,0.0,0.0,-24.164,-128.84268,7.752163,0.0,0.0,0.0,0.0,0.0,0.0,0.0,-1.8835535,44.953983,-0.9440272,
1.6015624761348592,82,-0.0725708,0.7897339,0.5073242,-0.04296875,-0.032226562,0.01171875,0.0,0.0,0.0,0.0,0.0,0.0,0.0,0.0,0.0,0.0,0.0,0.25528836,-0.015136924,-0.9636762,-0.9786377,0.058410645,-0.017700195,0.034179688,0.0029296875,0.033203125,2.7573311,5.285261,-0.31338122,-19.951086,0.98431396,-0.12243652,-0.2300415,-0.0126953125,-0.0029296875,0.036132812,2.9262996,5.557113,-57.30103,-21.220423,-0.55303955,0.015625,0.8217163,0.0068359375,-0.0126953125,-0.018554688,13.779549,3.1495762,-129.2471,-19.336248,0.0,0.0,0.0,0.0,0.0,0.0,0.0,-14.03776,-128.76099,-29.550552,0.0,0.0,0.0,0.0,0.0,0.0,0.0,-0.25528836,0.015136924,0.9636762,-0.9262085,-0.08868408,-0.30010986,0.015625,0.03515625,0.037109375,1.4863526,-5.285261,0.31338122,19.951086,1.0078125,-0.061584473,-0.16467285,-0.057617188,0.05859375,0.06640625,1.8625661,-5.1725426,-56.693207,20.39495,-0.39245605,0.08306885,0.9310303,0.022460938,0.028320312,0.00390625,17.550697,-7.6141763,-128.65036,19.217127,0.0,0.0,0.0,0.0,0.0,0.0,0.0,-24.023027,-128.70839,7.782135,0.0,0.0,0.0,0.0,0.0,0.0,0.0,-1.0627775,44.84302,-0.98591214,
1.621093725843821,83,-0.06793213,0.7963867,0.4763794,-0.0234375,-0.032226562,0.030273438,0.0,0.0,0.0,0.0,0.0,0.0,0.0,0.0,0.0,0.0,0.0,0.2546434,-0.015634123,-0.96642727,-1.0119629,0.047729492,-0.04876709,-0.00390625,0.041015625,0.052734375,2.6880982,5.271908,-0.32367483,-20.008038,1.0021973,-0.13092041,-0.24615479,-0.05078125,0.036132812,0.03515625,2.9275033,5.568402,-57.310223,-21.269398,-0.56036377,-8.544922E-4,0.8148804,-0.01171875,0.024414062,0.0,13.745843,3.1552887,-129.25632,-19.39543,0.0,0.0,0.0,0.0,0.0,0.0,0.0,-14.040775,-128.76912,-29.596321,0.0,0.0,0.0,0.0,0.0,0.0,0.0,-0.2546434,0.015634123,0.96642727,-0.92523193,-0.09020996,-0.31781006,-0.041992188,-0.0029296875,0.037109375,1.3911421,-5.271908,0.32367483,20.008038,0.9780884,-0.06317139,-0.1541748,-0.07714844,0.022460938,0.06640625,1.8174694,-5.17297,-56.679367,20.452658,-0.414917,0.08355713,0.9222412,0.0029296875,0.009765625,0.00390625,17.580276,-7.6120443,-128.64108,19.334547,0.0,0.0,0.0,0.0,0.0,0.0,0.0,-24.016304,-128.69975,7.891941,0.0,0.0,0.0,0.0,0.0,0.0,0.0,-0.96878225,44.957882,-0.9825584,
1.6406249755527826,84,-0.055480957,0.80615234,0.5040283,0.055664062,-0.015625,0.009765625,0.0,0.0,0.0,0.0,0.0,0.0,0.0,0.0,0.0,0.0,0.0,0.25477406,-0.01508105,-0.9668793,-1.0,0.026062012,-0.046142578,-0.041015625,0.041015625,0.034179688,2.6778111,5.274614,-0.31222445,-20.017397,0.9893799,-0.12365723,-0.21612549,-0.06933594,0.016601562,0.053710938,2.9425766,5.608526,-57.302044,-21.29178,-0.5821533,0.015563965,0.8168335,-0.01171875,-0.01171875,0.0,13.676469,3.219596,-129.24928,-19.425669,0.0,0.0,0.0,0.0,0.0,0.0,0.0,-13.987275,-128.76016,-29.607676,0.0,0.0,0.0,0.0,0.0,0.0,0.0,-0.25477406,0.01508105,0.9668793,-0.9211426,-0.085754395,-0.30303955,-0.041992188,0.036132812,0.05859375,1.4207886,-5.274614,0.31222445,20.017397,1.0022583,-0.08148193,-0.19012451,-0.057617188,0.040039062,0.06640625,1.8693833,-5.194686,-56.69351,20.467815,-0.38537598,0.05407715,0.91522217,0.001953125,0.009765625,0.022460938,17.46343,-7.645884,-128.6459,19.259747,0.0,0.0,0.0,0.0,0.0,0.0,0.0,-24.064934,-128.69965,7.8378916,0.0,0.0,0.0,0.0,0.0,0.0,0.0,-0.9979323,44.97843,-0.96451455,
1.6601562252617443,85,-0.059448242,0.8262329,0.5142212,0.016601562,-0.013671875,0.047851562,0.0,0.0,0.0,0.0,0.0,0.0,0.0,0.0,0.0,0.0,0.0,0.25547504,-0.014686123,-0.96682894,-0.9857178,0.045166016,-0.034851074,-0.00390625,0.041015625,0.034179688,2.7013187,5.2891254,-0.3040483,-20.016357,0.9682617,-0.114868164,-0.23583984,-0.0126953125,0.0546875,0.036132812,2.9268346,5.650812,-57.294178,-21.292553,-0.5883789,0.003967285,0.8148804,0.0068359375,0.041992188,0.018554688,13.602972,3.3283906,-129.2448,-19.433327,0.0,0.0,0.0,0.0,0.0,0.0,0.0,-13.874001,-128.7512,-29.621653,0.0,0.0,0.0,0.0,0.0,0.0,0.0,-0.25547504,0.014686123,0.96682894,-0.95043945,-0.099609375,-0.3149414,-0.060546875,0.056640625,0.038085938,1.4927899,-5.2891254,0.3040483,20.016357,0.99938965,-0.06549072,-0.19018555,-0.07714844,0.041015625,0.06640625,1.8752367,-5.2103043,-56.70158,20.472878,-0.39648438,0.06744385,0.9024658,-0.016601562,0.009765625,0.00390625,17.435175,-7.648426,-128.65976,19.250244,0.0,0.0,0.0,0.0,0.0,0.0,0.0,-24.069633,-128.70938,7.8317947,0.0,0.0,0.0,0.0,0.0,0.0,0.0,-1.0666454,44.982433,-0.96513337,
1.679687474970706,86,-0.03741455,0.8166504,0.5026245,-0.022460938,-0.0126953125,0.048828125,0.0,0.0,0.0,0.0,0.0,0.0,0.0,0.0,0.0,0.0,0.0,0.2557266,-0.0146881845,-0.96676385,-0.9815674,0.050964355,-0.037719727,-0.022460938,0.041015625,0.034179688,2.7521439,5.2943335,-0.30409098,-20.01501,0.98101807,-0.13110352,-0.22705078,-0.01171875,0.015625,0.07421875,2.8994856,5.663473,-57.29518,-21.284567,-0.58636475,0.0038452148,0.8198242,0.0068359375,0.005859375,0.018554688,13.582062,3.3804567,-129.24957,-19.43934,0.0,0.0,0.0,0.0,0.0,0.0,0.0,-13.816841,-128.75606,-29.635605,0.0,0.0,0.0,0.0,0.0,0.0,0.0,-0.2557266,0.0146881845,0.96676385,-0.9334717,-0.103393555,-0.29138184,-0.11816406,0.05859375,-0.001953125,1.6209993,-5.2943335,0.30409098,20.01501,1.0053711,-0.059570312,-0.19525146,-0.07714844,0.00390625,0.0859375,1.8483269,-5.240612,-56.69888,20.448593,-0.41705322,0.041992188,0.8838501,0.0029296875,0.009765625,-0.015625,17.427332,-7.689704,-128.65062,19.223322,0.0,0.0,0.0,0.0,0.0,0.0,0.0,-24.10374,-128.70555,7.796339,0.0,0.0,0.0,0.0,0.0,0.0,0.0,-1.1411482,44.980232,-0.98524565,
1.6992187246796677,87,-0.052490234,0.8130493,0.5029907,-0.001953125,0.0068359375,0.06640625,0.0,0.0,0.0,0.0,0.0,0.0,0.0,0.0,0.0,0.0,0.0,0.25605002,-0.014449877,-0.966707,-1.0028687,0.048461914,-0.041809082,-0.00390625,0.059570312,0.072265625,2.7951937,5.301029,-0.29915723,-20.01383,0.9840698,-0.13031006,-0.22406006,-0.0703125,0.017578125,0.015625,2.9270353,5.6899514,-57.28826,-21.299013,-0.57037354,-0.0024414062,0.8010254,0.0068359375,0.005859375,0.018554688,13.615367,3.40243,-129.23674,-19.45123,0.0,0.0,0.0,0.0,0.0,0.0,0.0,-13.782656,-128.74347,-29.671162,0.0,0.0,0.0,0.0,0.0,0.0,0.0,-0.25605002,0.014449877,0.966707,-0.9348755,-0.062561035,-0.3215332,-0.041992188,0.055664062,0.017578125,1.6846986,-5.301029,0.29915723,20.01383,1.0071411,-0.081604004,-0.19909668,-0.057617188,0.040039062,0.06640625,1.9358323,-5.236188,-56.70503,20.439102,-0.42218018,0.07080078,0.9133911,0.021484375,0.0087890625,0.0029296875,17.392885,-7.707738,-128.65459,19.089571,0.0,0.0,0.0,0.0,0.0,0.0,0.0,-24.119339,-128.70605,7.6583824,0.0,0.0,0.0,0.0,0.0,0.0,0.0,-1.2009729,44.979652,-0.9904343,
1.7187499743886294,88,-0.069885254,0.8213501,0.48657227,-0.020507812,0.06347656,0.048828125,0.0,0.0,0.0,0.0,0.0,0.0,0.0,0.0,0.0,0.0,0.0,0.25670716,-0.013777092,-0.96651137,-0.99890137,0.05114746,-0.03375244,-0.022460938,0.021484375,0.052734375,2.836418,5.3146343,-0.2852285,-20.00978,0.9888916,-0.13726807,-0.24108887,-0.049804688,0.016601562,0.0546875,2.9220152,5.6887083,-57.273335,-21.308094,-0.5844116,0.0037841797,0.8218384,-0.01171875,0.005859375,-0.018554688,13.583035,3.415879,-129.2302,-19.464949,0.0,0.0,0.0,0.0,0.0,0.0,0.0,-13.771995,-128.73691,-29.677015,0.0,0.0,0.0,0.0,0.0,0.0,0.0,-0.25670716,0.013777092,0.96651137,-0.9301758,-0.088378906,-0.34924316,0.053710938,0.0146484375,0.036132812,1.7384381,-5.3146343,0.2852285,20.00978,1.017334,-0.045776367,-0.19952393,-0.0390625,0.05859375,0.06542969,1.9673209,-5.2382402,-56.722275,20.446493,-0.43139648,0.077819824,0.9291992,0.001953125,-0.009765625,-0.034179688,17.270336,-7.664483,-128.68268,19.035357,0.0,0.0,0.0,0.0,0.0,0.0,0.0,-24.07285,-128.72797,7.600233,0.0,0.0,0.0,0.0,0.0,0.0,0.0,-1.269675,44.97668,-0.978346,
1.7382812240975911,89,-0.07305908,0.80145264,0.47161865,-0.061523438,0.0078125,0.049804688,0.0,0.0,0.0,0.0,0.0,0.0,0.0,0.0,0.0,0.0,0.0,0.25537091,-0.013181037,-0.96685743,-0.9977417,0.040893555,-0.059814453,-0.022460938,0.0029296875,0.033203125,2.807701,5.28697,-0.2728883,-20.016947,1.0023804,-0.12506104,-0.2421875,-0.01171875,0.03515625,0.055664062,2.87746,5.66632,-57.261448,-21.284721,-0.57629395,0.0056152344,0.8079834,0.026367188,0.0234375,0.018554688,13.545935,3.436257,-129.21283,-19.448076,0.0,0.0,0.0,0.0,0.0,0.0,0.0,-13.750225,-128.72124,-29.663227,0.0,0.0,0.0,0.0,0.0,0.0,0.0,-0.25537091,0.013181037,0.96685743,-0.9465332,-0.105529785,-0.3149414,-0.080078125,0.038085938,0.017578125,1.7663572,-5.28697,0.2728883,20.016947,0.98724365,-0.06536865,-0.20574951,-0.057617188,0.05859375,0.06640625,1.9231535,-5.2009125,-56.730724,20.449133,-0.40460205,0.097351074,0.92614746,-0.016601562,0.029296875,0.00390625,17.147472,-7.576566,-128.69032,19.072578,0.0,0.0,0.0,0.0,0.0,0.0,0.0,-23.98533,-128.73793,7.6368647,0.0,0.0,0.0,0.0,0.0,0.0,0.0,-1.3099102,44.975235,-0.95912087,
1.7578124738065528,90,-0.04260254,0.8096924,0.4857788,-0.040039062,0.045898438,0.06738281,0.0,0.0,0.0,0.0,0.0,0.0,0.0,0.0,0.0,0.0,0.0,0.25480497,-0.0123095205,-0.967076,-0.9925537,0.053466797,-0.061584473,-0.041015625,0.0029296875,0.0146484375,2.8340704,5.275254,-0.25484523,-20.02147,1.0011597,-0.13183594,-0.2531128,-0.06933594,0.036132812,0.034179688,2.873784,5.706174,-57.24365,-21.296694,-0.5814209,-0.003112793,0.8050537,0.0068359375,0.005859375,0.0,13.41464,3.5355926,-129.19907,-19.47856,0.0,0.0,0.0,0.0,0.0,0.0,0.0,-13.652435,-128.71071,-29.692013,0.0,0.0,0.0,0.0,0.0,0.0,0.0,-0.25480497,0.0123095205,0.967076,-0.92907715,-0.078308105,-0.3206787,-0.060546875,0.056640625,0.038085938,1.8641416,-5.275254,0.25484523,20.02147,1.0014648,-0.07550049,-0.18023682,-0.076171875,-0.0146484375,0.0859375,1.9364389,-5.18208,-56.749775,20.46458,-0.42211914,0.07873535,0.9202881,0.0029296875,0.009765625,0.00390625,17.149788,-7.548799,-128.7029,19.080217,0.0,0.0,0.0,0.0,0.0,0.0,0.0,-23.962748,-128.7474,7.6525145,0.0,0.0,0.0,0.0,0.0,0.0,0.0,-1.4114777,44.97499,-0.94436455,
1.7773437235155145,91,-0.049438477,0.8120117,0.506897,0.018554688,0.043945312,0.06640625,0.0,0.0,0.0,0.0,0.0,0.0,0.0,0.0,0.0,0.0,0.0,0.25560927,-0.012359292,-0.9668041,-0.9857178,0.05670166,-0.0256958,-0.041015625,0.041015625,0.034179688,2.9265003,5.2919044,-0.25587565,-20.015842,0.9749756,-0.13085938,-0.22796631,-0.01171875,0.053710938,0.0546875,2.8619072,5.7239475,-57.242508,-21.329313,-0.5745239,-0.012084961,0.79315186,0.0068359375,0.005859375,0.0,13.378262,3.5715318,-129.20094,-19.56696,0.0,0.0,0.0,0.0,0.0,0.0,0.0,-13.612246,-128.71814,-29.7875,0.0,0.0,0.0,0.0,0.0,0.0,0.0,-0.25560927,0.012359292,0.9668041,-0.93255615,-0.113220215,-0.33172607,-0.0029296875,0.0546875,-0.00390625,1.9193847,-5.2919044,0.25587565,20.015842,1.0111084,-0.1015625,-0.18719482,0.0,0.057617188,0.06542969,1.9638361,-5.171305,-56.750473,20.459358,-0.4293213,0.072021484,0.9065552,-0.016601562,0.009765625,0.022460938,17.183586,-7.533949,-128.7073,19.05669,0.0,0.0,0.0,0.0,0.0,0.0,0.0,-23.94281,-128.75252,7.6214705,0.0,0.0,0.0,0.0,0.0,0.0,0.0,-1.4717937,44.970078,-0.9640033,
1.7968749732244762,92,-0.06439209,0.78460693,0.51000977,-0.041992188,-0.01171875,0.08496094,0.0,0.0,0.0,0.0,0.0,0.0,0.0,0.0,0.0,0.0,0.0,0.25601664,-0.01209665,-0.9666934,-0.99890137,0.040649414,-0.043884277,-0.060546875,0.021484375,0.033203125,2.971111,5.3003383,-0.25043818,-20.01355,0.98114014,-0.12823486,-0.22302246,0.0068359375,0.03515625,0.055664062,2.852041,5.710787,-57.23914,-21.339195,-0.57611084,0.015380859,0.8148804,0.0068359375,0.0234375,-0.018554688,13.403772,3.5578585,-129.19768,-19.591188,0.0,0.0,0.0,0.0,0.0,0.0,0.0,-13.624995,-128.70738,-29.811651,0.0,0.0,0.0,0.0,0.0,0.0,0.0,-0.25601664,0.01209665,0.9666934,-0.9421387,-0.07952881,-0.34228516,-0.11816406,-0.0390625,-0.0029296875,1.9865264,-5.3003383,0.25043818,20.01355,1.00354,-0.07751465,-0.17437744,-0.038085938,0.040039062,0.06640625,1.934821,-5.1817956,-56.754475,20.406273,-0.42126465,0.06958008,0.9350586,0.0029296875,0.009765625,0.00390625,17.208202,-7.584491,-128.71352,19.014915,0.0,0.0,0.0,0.0,0.0,0.0,0.0,-24.003647,-128.75204,7.5933323,0.0,0.0,0.0,0.0,0.0,0.0,0.0,-1.5103933,44.968555,-0.9627195,
1.816406222933438,93,-0.067871094,0.7974243,0.48236084,-0.059570312,0.064453125,0.049804688,0.0,0.0,0.0,0.0,0.0,0.0,0.0,0.0,0.0,0.0,0.0,0.25575402,-0.011323906,-0.96687096,-1.0039062,0.048461914,-0.042785645,-0.060546875,0.0029296875,0.033203125,2.9897645,5.294901,-0.23444,-20.017227,0.9862671,-0.12347412,-0.23400879,-0.049804688,0.0546875,0.053710938,2.8549907,5.701078,-57.22504,-21.353308,-0.57666016,-0.018005371,0.8031006,-0.01171875,0.005859375,-0.018554688,13.47577,3.5507812,-129.18498,-19.61014,0.0,0.0,0.0,0.0,0.0,0.0,0.0,-13.62426,-128.70325,-29.844084,0.0,0.0,0.0,0.0,0.0,0.0,0.0,-0.25575402,0.011323906,0.96687096,-0.93304443,-0.07318115,-0.32751465,-0.13769531,0.0,0.018554688,2.0721657,-5.294901,0.23444,20.017227,1.0150757,-0.08465576,-0.19726562,-0.038085938,0.021484375,0.046875,1.9061861,-5.2066283,-56.769802,20.380322,-0.42132568,0.060546875,0.9429321,0.0029296875,0.009765625,0.00390625,17.125277,-7.5976114,-128.72464,18.955105,0.0,0.0,0.0,0.0,0.0,0.0,0.0,-24.021755,-128.76485,7.5405416,0.0,0.0,0.0,0.0,0.0,0.0,0.0,-1.5604119,44.97163,-0.9394597,
1.8359374726423996,94,-0.07696533,0.8145752,0.48675537,-0.021484375,0.025390625,0.048828125,0.0,0.0,0.0,0.0,0.0,0.0,0.0,0.0,0.0,0.0,0.0,0.2560027,-0.011339545,-0.96656334,-1.0029907,0.05114746,-0.028808594,-0.041015625,-0.015625,0.0146484375,3.0316384,5.3000493,-0.23476377,-20.01086,0.98236084,-0.15264893,-0.2520752,-0.049804688,0.0546875,0.053710938,2.820639,5.7065997,-57.224003,-21.340225,-0.60150146,-0.0014648438,0.8010864,0.026367188,0.0048828125,0.0,13.54277,3.5695972,-129.18767,-19.630932,0.0,0.0,0.0,0.0,0.0,0.0,0.0,-13.604828,-128.71078,-29.866344,0.0,0.0,0.0,0.0,0.0,0.0,0.0,-0.2560027,0.011339545,0.96656334,-0.91137695,-0.10839844,-0.30419922,-0.022460938,0.11425781,0.017578125,2.098258,-5.3000493,0.23476377,20.01086,1.0031738,-0.087524414,-0.19207764,-9.765625E-4,0.11328125,0.045898438,1.9127456,-5.1519213,-56.773014,20.330793,-0.41290283,0.053955078,0.88287354,0.001953125,-0.009765625,0.00390625,17.143476,-7.5380754,-128.72942,18.897701,0.0,0.0,0.0,0.0,0.0,0.0,0.0,-23.948399,-128.7773,7.464081,0.0,0.0,0.0,0.0,0.0,0.0,0.0,-1.6078871,44.95915,-0.95331544,
1.8554687223513613,95,-0.07409668,0.8323364,0.47686768,-0.059570312,0.045898438,0.049804688,0.0,0.0,0.0,0.0,0.0,0.0,0.0,0.0,0.0,0.0,0.0,0.25498673,-0.011115108,-0.96691394,-0.9816284,0.060546875,-0.026611328,-0.060546875,0.0029296875,0.052734375,3.0533218,5.279016,-0.23011719,-20.018114,0.9649048,-0.16375732,-0.23895264,-0.0126953125,0.0546875,0.036132812,2.7839663,5.6775093,-57.215336,-21.361584,-0.59143066,0.001159668,0.8010864,-0.01171875,-0.01171875,0.0,13.576403,3.5389721,-129.18108,-19.71874,0.0,0.0,0.0,0.0,0.0,0.0,0.0,-13.626784,-128.7045,-29.969866,0.0,0.0,0.0,0.0,0.0,0.0,0.0,-0.25498673,0.011115108,0.96691394,-0.92614746,-0.08331299,-0.31774902,-0.060546875,0.017578125,0.017578125,2.0983512,-5.279016,0.23011719,20.018114,1.0184937,-0.055786133,-0.18371582,-0.11621094,0.09667969,0.06640625,1.8542467,-5.0861983,-56.77483,20.286201,-0.40875244,0.07562256,0.90545654,0.0029296875,0.009765625,0.00390625,17.05505,-7.440896,-128.72922,18.909546,0.0,0.0,0.0,0.0,0.0,0.0,0.0,-23.856335,-128.77351,7.4815483,0.0,0.0,0.0,0.0,0.0,0.0,0.0,-1.627116,44.962074,-0.945949,
1.874999972060323,96,-0.067871094,0.8173218,0.4885254,-0.08105469,0.0087890625,0.068359375,0.0,0.0,0.0,0.0,0.0,0.0,0.0,0.0,0.0,0.0,0.0,0.2548017,-0.009887245,-0.9668605,-1.0030518,0.04522705,-0.023925781,-0.041015625,0.021484375,0.052734375,3.140119,5.275186,-0.20469658,-20.017008,0.9638672,-0.12945557,-0.22589111,-0.03125,0.03515625,0.0546875,2.7532816,5.630856,-57.19264,-21.37812,-0.5984497,-0.0015258789,0.7980957,0.0068359375,0.005859375,0.0,13.619081,3.4905112,-129.15607,-19.772713,0.0,0.0,0.0,0.0,0.0,0.0,0.0,-13.67091,-128.68272,-30.030153,0.0,0.0,0.0,0.0,0.0,0.0,0.0,-0.2548017,0.009887245,0.9668605,-0.92144775,-0.11065674,-0.32580566,-0.13769531,-0.0390625,0.018554688,2.2131088,-5.275186,0.20469658,20.017008,1.010437,-0.06561279,-0.18640137,-0.07714844,0.059570312,0.08496094,1.906494,-5.0892644,-56.802452,20.28553,-0.40472412,0.090270996,0.934021,-0.016601562,0.009765625,-0.015625,16.966333,-7.4809413,-128.75876,18.843662,0.0,0.0,0.0,0.0,0.0,0.0,0.0,-23.911533,-128.80333,7.437723,0.0,0.0,0.0,0.0,0.0,0.0,0.0,-1.7347205,44.953613,-0.91686153,
1.8945312217692847,97,-0.055541992,0.81707764,0.5031128,-0.059570312,0.045898438,0.049804688,0.0,0.0,0.0,0.0,0.0,0.0,0.0,0.0,0.0,0.0,0.0,0.25316173,-0.00933912,-0.96737546,-1.0029297,0.034057617,-0.052978516,-0.041015625,0.022460938,0.033203125,3.112441,5.241233,-0.19334869,-20.02767,0.9700928,-0.12384033,-0.22491455,-0.0126953125,0.0546875,0.036132812,2.7455213,5.6077924,-57.181957,-21.379519,-0.59747314,3.6621094E-4,0.802063,-0.01171875,0.005859375,0.0,13.64315,3.4749074,-129.14427,-19.77744,0.0,0.0,0.0,0.0,0.0,0.0,0.0,-13.681627,-128.67793,-30.045124,0.0,0.0,0.0,0.0,0.0,0.0,0.0,-0.25316173,0.00933912,0.96737546,-0.9276123,-0.11956787,-0.31506348,0.015625,0.03515625,0.057617188,2.1971326,-5.241233,0.19334869,20.02767,0.9916382,-0.07336426,-0.17218018,-0.0390625,0.095703125,0.06542969,1.9448091,-5.046477,-56.809643,20.330795,-0.3927002,0.03314209,0.92510986,0.0029296875,0.009765625,0.00390625,17.002504,-7.494539,-128.76028,18.929348,0.0,0.0,0.0,0.0,0.0,0.0,0.0,-23.920992,-128.80925,7.5203896,0.0,0.0,0.0,0.0,0.0,0.0,0.0,-1.750431,44.956944,-0.892105,
1.9140624714782464,98,-0.059631348,0.7774048,0.48895264,-0.021484375,0.0068359375,0.048828125,0.0,0.0,0.0,0.0,0.0,0.0,0.0,0.0,0.0,0.0,0.0,0.2530129,-0.008736266,-0.96742934,-1.0062256,0.0335083,-0.018127441,-0.060546875,-0.03515625,0.033203125,3.12725,5.2381516,-0.18086784,-20.02879,0.9689331,-0.1296997,-0.22192383,-0.032226562,0.016601562,0.036132812,2.7331593,5.615639,-57.17103,-21.37121,-0.56866455,-0.020202637,0.795166,-0.01171875,0.005859375,0.018554688,13.625532,3.4995165,-129.13556,-19.773563,0.0,0.0,0.0,0.0,0.0,0.0,0.0,-13.660729,-128.67055,-30.036556,0.0,0.0,0.0,0.0,0.0,0.0,0.0,-0.2530129,0.008736266,0.96742934,-0.95513916,-0.07525635,-0.265625,0.015625,0.07421875,0.037109375,2.2724502,-5.2381516,0.18086784,20.02879,1.0238037,-0.061767578,-0.16003418,-0.057617188,0.05859375,0.06640625,1.9516401,-5.0700436,-56.82687,20.357622,-0.4017334,0.057434082,0.9152832,-0.016601562,0.009765625,0.022460938,17.089298,-7.5617046,-128.78053,18.98756,0.0,0.0,0.0,0.0,0.0,0.0,0.0,-23.987593,-128.82907,7.576311,0.0,0.0,0.0,0.0,0.0,0.0,0.0,-1.8060338,44.95542,-0.87829924,
1.933593721187208,99,-0.089782715,0.80114746,0.5058594,-0.061523438,-0.01171875,0.03125,0.0,0.0,0.0,0.0,0.0,0.0,0.0,0.0,0.0,0.0,0.0,0.2542446,-0.0075768176,-0.9671368,-0.9951172,0.049621582,-0.001953125,0.015625,-0.015625,0.0146484375,3.182231,5.263652,-0.1568636,-20.02273,0.96710205,-0.1237793,-0.21392822,-0.049804688,0.03515625,0.0546875,2.6820476,5.5759444,-57.143642,-21.356136,-0.5665283,-0.011474609,0.80999756,0.026367188,-0.0126953125,0.01953125,13.648563,3.440098,-129.10176,-19.784975,0.0,0.0,0.0,0.0,0.0,0.0,0.0,-13.721546,-128.63536,-30.044731,0.0,0.0,0.0,0.0,0.0,0.0,0.0,-0.2542446,0.0075768176,0.9671368,-0.9375,-0.10858154,-0.31793213,-0.11816406,-0.0390625,0.038085938,2.3704205,-5.263652,0.1568636,20.02273,1.0197754,-0.068725586,-0.1609497,-0.07714844,0.041015625,0.10449219,1.9540452,-5.134301,-56.852585,20.366795,-0.38433838,0.058044434,0.9182129,0.0029296875,0.009765625,0.00390625,17.155556,-7.6637783,-128.80972,19.001553,0.0,0.0,0.0,0.0,0.0,0.0,0.0,-24.08957,-128.86064,7.5898056,0.0,0.0,0.0,0.0,0.0,0.0,0.0,-1.8728569,44.954235,-0.84452754,
1.9531249708961698,100,-0.080322266,0.809021,0.5345459,-0.060546875,0.026367188,0.049804688,0.0,0.0,0.0,0.0,0.0,0.0,0.0,0.0,0.0,0.0,0.0,0.25494534,-0.006616584,-0.96689725,-0.98779297,0.049926758,-0.025817871,-0.022460938,0.0029296875,0.052734375,3.2475119,5.278159,-0.13698381,-20.01777,0.98217773,-0.1282959,-0.21508789,-0.0107421875,0.07324219,0.07421875,2.7137535,5.550984,-57.124664,-21.372162,-0.5722046,0.008422852,0.8128662,-0.01171875,0.005859375,0.018554688,13.670603,3.4021916,-129.09,-19.762508,0.0,0.0,0.0,0.0,0.0,0.0,0.0,-13.761473,-128.62042,-30.01602,0.0,0.0,0.0,0.0,0.0,0.0,0.0,-0.25494534,0.006616584,0.96689725,-0.9553833,-0.092285156,-0.28833008,-0.11816406,-0.01953125,0.017578125,2.4827795,-5.278159,0.13698381,20.01777,1.001648,-0.08148193,-0.16638184,-0.038085938,0.040039062,0.06640625,1.976749,-5.20462,-56.868492,20.371187,-0.39660645,0.05731201,0.9133301,0.001953125,0.009765625,0.022460938,17.254812,-7.7983446,-128.81418,18.97367,0.0,0.0,0.0,0.0,0.0,0.0,0.0,-24.220516,-128.86655,7.556919,0.0,0.0,0.0,0.0,0.0,0.0,0.0,-1.9314908,44.949554,-0.816878,
1.9726562206051315,101,-0.048828125,0.8128052,0.47802734,-0.061523438,-0.0107421875,0.0859375,0.0,0.0,0.0,0.0,0.0,0.0,0.0,0.0,0.0,0.0,0.0,0.25433886,-0.006561538,-0.96711373,-0.993042,0.032348633,-0.020141602,-0.041015625,0.0029296875,0.0146484375,3.2851527,5.265602,-0.1358442,-20.022251,0.9685669,-0.14337158,-0.22198486,-0.049804688,0.0546875,0.053710938,2.6922457,5.508013,-57.12168,-21.363827,-0.56451416,-0.012512207,0.80999756,0.026367188,-0.013671875,-0.018554688,13.66459,3.3368757,-129.08476,-19.759974,0.0,0.0,0.0,0.0,0.0,0.0,0.0,-13.831892,-128.60895,-30.008638,0.0,0.0,0.0,0.0,0.0,0.0,0.0,-0.25433886,0.006561538,0.96711373,-0.9407959,-0.051208496,-0.29882812,-0.041992188,-0.0029296875,0.057617188,2.5360532,-5.265602,0.1358442,20.022251,1.0037842,-0.068481445,-0.16357422,0.0,0.057617188,0.10253906,2.0177093,-5.221872,-56.86942,20.4123,-0.41711426,0.051818848,0.9015503,-0.016601562,0.009765625,0.022460938,17.313904,-7.8667784,-128.81595,19.004297,0.0,0.0,0.0,0.0,0.0,0.0,0.0,-24.28883,-128.87358,7.5889435,0.0,0.0,0.0,0.0,0.0,0.0,0.0,-1.9585536,44.950783,-0.8200509,
1.9921874703140932,102,-0.066589355,0.8253784,0.51239014,-0.060546875,0.02734375,0.0859375,0.0,0.0,0.0,0.0,0.0,0.0,0.0,0.0,0.0,0.0,0.0,0.2541726,-0.0058084093,-0.9670949,-1.0050049,0.05883789,-0.021728516,-0.060546875,0.0029296875,0.052734375,3.378813,5.262161,-0.12025212,-20.021862,0.97753906,-0.14465332,-0.23999023,-0.048828125,0.03515625,0.07324219,2.7213166,5.4779515,-57.105415,-21.399483,-0.5784302,-3.0517578E-4,0.8208618,0.026367188,-0.013671875,9.765625E-4,13.693055,3.2741697,-129.06377,-19.79938,0.0,0.0,0.0,0.0,0.0,0.0,0.0,-13.899483,-128.58403,-30.036255,0.0,0.0,0.0,0.0,0.0,0.0,0.0,-0.2541726,0.0058084093,0.9670949,-0.9281006,-0.079956055,-0.25482178,-0.041992188,-0.099609375,0.037109375,2.6900637,-5.262161,0.12025212,20.021862,0.99157715,-0.06933594,-0.17913818,-0.057617188,0.05859375,0.08496094,2.0477486,-5.303931,-56.88143,20.472658,-0.3904419,0.04638672,0.89263916,0.0029296875,0.009765625,0.00390625,17.245794,-7.968474,-128.82538,19.019262,0.0,0.0,0.0,0.0,0.0,0.0,0.0,-24.391142,-128.87767,7.602415,0.0,0.0,0.0,0.0,0.0,0.0,0.0,-2.0308113,44.944942,-0.8036804,
2.011718720023055,103,-0.049560547,0.7810669,0.48675537,0.017578125,0.024414062,0.029296875,0.0,0.0,0.0,0.0,0.0,0.0,0.0,0.0,0.0,0.0,0.0,0.2532734,-0.0052886344,-0.9673893,-0.9898071,0.059509277,-0.015686035,-0.09765625,0.041015625,0.0146484375,3.4367824,5.2435455,-0.109491125,-20.027958,0.97753906,-0.14465332,-0.23999023,-0.048828125,0.03515625,0.07324219,2.7065308,5.4026504,-57.097755,-21.416409,-0.57403564,0.018310547,0.8138428,-0.01171875,0.005859375,0.0,13.713266,3.1988685,-129.0561,-19.816305,0.0,0.0,0.0,0.0,0.0,0.0,0.0,-13.971843,-128.57202,-30.059341,0.0,0.0,0.0,0.0,0.0,0.0,0.0,-0.2532734,0.0052886344,0.9673893,-0.951416,-0.09661865,-0.31585693,-0.11816406,-0.01953125,0.038085938,2.7817154,-5.2435455,0.109491125,20.027958,0.9736328,-0.06512451,-0.1817627,-0.11621094,0.059570312,0.0859375,2.0654488,-5.3415847,-56.89911,20.456549,-0.4017334,0.059387207,0.9192505,-0.016601562,0.009765625,-0.015625,17.205341,-8.01836,-128.84827,18.900122,0.0,0.0,0.0,0.0,0.0,0.0,0.0,-24.441029,-128.90056,7.4832745,0.0,0.0,0.0,0.0,0.0,0.0,0.0,-2.0603833,44.94634,-0.78514934,
2.0312499697320168,104,-0.049682617,0.7770386,0.47576904,0.0390625,0.0625,0.06542969,0.0,0.0,0.0,0.0,0.0,0.0,0.0,0.0,0.0,0.0,0.0,0.25570816,-0.00508501,-0.96672684,-0.9916992,0.04638672,-0.043823242,-0.07910156,-0.015625,0.0146484375,3.5371773,5.2939506,-0.10527547,-20.014242,0.96240234,-0.10784912,-0.22576904,-0.013671875,0.016601562,0.017578125,2.6957333,5.4179554,-57.093704,-21.401669,-0.57244873,-0.003479004,0.8267822,-0.01171875,-0.01171875,0.018554688,13.740336,3.1869478,-129.0524,-19.808815,0.0,0.0,0.0,0.0,0.0,0.0,0.0,-13.987245,-128.5627,-30.04484,0.0,0.0,0.0,0.0,0.0,0.0,0.0,-0.25570816,0.00508501,0.96672684,-0.9317627,-0.0546875,-0.32543945,-0.00390625,0.09375,0.057617188,2.8828294,-5.2939506,0.10527547,20.014242,1.0133057,-0.10357666,-0.17242432,-0.038085938,0.040039062,0.08496094,2.144206,-5.3944626,-56.90164,20.39718,-0.40075684,0.04937744,0.9182739,0.0029296875,0.009765625,0.00390625,17.290651,-8.124842,-128.83374,18.698004,0.0,0.0,0.0,0.0,0.0,0.0,0.0,-24.54309,-128.88478,7.2764225,0.0,0.0,0.0,0.0,0.0,0.0,0.0,-2.128566,44.941925,-0.7994211,
2.0507812194409785,105,-0.07659912,0.7908325,0.5064087,-0.020507812,0.06347656,0.048828125,0.0,0.0,0.0,0.0,0.0,0.0,0.0,0.0,0.0,0.0,0.0,0.25663725,-0.004790758,-0.96644837,-0.9879761,0.035217285,-0.020080566,-0.060546875,-0.03515625,0.033203125,3.5952647,5.313186,-0.09918354,-20.008478,0.9700928,-0.12286377,-0.22393799,-0.06933594,0.036132812,0.034179688,2.6704915,5.4029756,-57.087807,-21.381054,-0.5704346,-0.005432129,0.8148804,-0.01171875,0.005859375,0.018554688,13.7101965,3.186864,-129.04987,-19.779083,0.0,0.0,0.0,0.0,0.0,0.0,0.0,-13.993125,-128.55447,-30.00802,0.0,0.0,0.0,0.0,0.0,0.0,0.0,-0.25663725,0.004790758,0.96644837,-0.972229,-0.07470703,-0.31469727,-0.061523438,0.017578125,0.05859375,2.947761,-5.313186,0.09918354,20.008478,1.0274048,-0.067871094,-0.1828003,0.0,0.0390625,0.06542969,2.1230164,-5.42018,-56.90651,20.379665,-0.38946533,0.05908203,0.9241333,0.0029296875,0.009765625,-0.015625,17.179852,-8.113056,-128.84401,18.665924,0.0,0.0,0.0,0.0,0.0,0.0,0.0,-24.532179,-128.89824,7.246456,0.0,0.0,0.0,0.0,0.0,0.0,0.0,-2.173427,44.938297,-0.79990906,
2.07031246914994,106,-0.0859375,0.8208618,0.49499512,-0.040039062,0.045898438,0.06738281,0.0,0.0,0.0,0.0,0.0,0.0,0.0,0.0,0.0,0.0,0.0,0.25611743,-0.0042453334,-0.9666728,-0.98986816,0.054626465,-0.01574707,-0.022460938,0.0029296875,0.033203125,3.5941212,5.3024244,-0.08789157,-20.013124,0.9849243,-0.13720703,-0.21911621,-0.05078125,0.036132812,0.03515625,2.651513,5.3753333,-57.07703,-21.380238,-0.5905762,-0.0078125,0.81396484,0.0068359375,0.0048828125,-0.018554688,13.728485,3.140567,-129.04018,-19.795387,0.0,0.0,0.0,0.0,0.0,0.0,0.0,-14.040891,-128.5485,-30.02047,0.0,0.0,0.0,0.0,0.0,0.0,0.0,-0.25611743,0.0042453334,0.9666728,-0.93218994,-0.08728027,-0.3109131,-0.041992188,-0.041015625,0.016601562,2.9792042,-5.3024244,0.08789157,20.013124,1.0188599,-0.06573486,-0.15600586,0.0390625,0.0390625,0.06542969,2.0412393,-5.428272,-56.917416,20.354862,-0.40881348,0.070617676,0.9074707,0.021484375,-0.009765625,0.0029296875,17.085114,-8.099317,-128.85599,18.698166,0.0,0.0,0.0,0.0,0.0,0.0,0.0,-24.521587,-128.90596,7.28191,0.0,0.0,0.0,0.0,0.0,0.0,0.0,-2.1840994,44.941856,-0.77604246,
2.089843718858902,107,-0.08911133,0.8109131,0.4800415,-0.040039062,0.044921875,0.03125,0.0,0.0,0.0,0.0,0.0,0.0,0.0,0.0,0.0,0.0,0.0,0.255375,-0.0030607805,-0.9668381,-0.9816284,0.051879883,-0.03173828,-0.022460938,0.0029296875,0.0146484375,3.577029,5.287055,-0.06336761,-20.016546,0.98168945,-0.13989258,-0.2539673,-0.0126953125,0.036132812,0.017578125,2.6320264,5.34847,-57.04873,-21.400406,-0.5845337,-0.005065918,0.8189087,0.0068359375,0.0048828125,-0.018554688,13.710025,3.130293,-129.0135,-19.849625,0.0,0.0,0.0,0.0,0.0,0.0,0.0,-14.051941,-128.52498,-30.07309,0.0,0.0,0.0,0.0,0.0,0.0,0.0,-0.255375,0.0030607805,0.9668381,-0.93518066,-0.083984375,-0.32366943,-0.041992188,-0.021484375,0.017578125,2.9786127,-5.287055,0.06336761,20.016546,0.99487305,-0.06536865,-0.16339111,-0.07714844,0.022460938,0.0859375,2.0298939,-5.4146166,-56.94445,20.352205,-0.41107178,0.048461914,0.9291382,0.0029296875,0.009765625,0.00390625,17.082138,-8.088602,-128.88678,18.706583,0.0,0.0,0.0,0.0,0.0,0.0,0.0,-24.506159,-128.94266,7.284109,0.0,0.0,0.0,0.0,0.0,0.0,0.0,-2.1927104,44.940796,-0.7214417,
