TOTAL_TIME,0m10s
TOTAL_FRAMES,494
SELECTED_FRAMES,494
NO_OF_JOINTS,12
FREQUENCY,51.2
DESCRIPTION,Capture 47
TIME_STAMP,Nov 1, 2010

Time,Frame,Pelvis_accelX_Pelvis,Pelvis_accelY_Pelvis,Pelvis_accelZ_Pelvis,Pelvis_gyroX_Pelvis,Pelvis_gyroY_Pelvis,Pelvis_gyroZ_Pelvis,Pelvis_Joint angle_Pelvis,Pelvis_Relative pos X_Pelvis,Pelvis_Relative pos Y_Pelvis,Pelvis_Relative pos Z_Pelvis,RightPelvis_accelX_RightPelvis,RightPelvis_accelY_RightPelvis,RightPelvis_accelZ_RightPelvis,RightPelvis_gyroX_RightPelvis,RightPelvis_gyroY_RightPelvis,RightPelvis_gyroZ_RightPelvis,RightPelvis_Joint angle_RightPelvis,RightPelvis_Relative pos X_RightPelvis,RightPelvis_Relative pos Y_RightPelvis,RightPelvis_Relative pos Z_RightPelvis,RightUpLeg_accelX_RightUpLeg,RightUpLeg_accelY_RightUpLeg,RightUpLeg_accelZ_RightUpLeg,RightUpLeg_gyroX_RightUpLeg,RightUpLeg_gyroY_RightUpLeg,RightUpLeg_gyroZ_RightUpLeg,RightUpLeg_Joint angle_RightUpLeg,RightUpLeg_Relative pos X_RightUpLeg,RightUpLeg_Relative pos Y_RightUpLeg,RightUpLeg_Relative pos Z_RightUpLeg,RightLeg_accelX_RightLeg,RightLeg_accelY_RightLeg,RightLeg_accelZ_RightLeg,RightLeg_gyroX_RightLeg,RightLeg_gyroY_RightLeg,RightLeg_gyroZ_RightLeg,RightLeg_Joint angle_RightLeg,RightLeg_Relative pos X_RightLeg,RightLeg_Relative pos Y_RightLeg,RightLeg_Relative pos Z_RightLeg,RightFoot_accelX_RightFoot,RightFoot_accelY_RightFoot,RightFoot_accelZ_RightFoot,RightFoot_gyroX_RightFoot,RightFoot_gyroY_RightFoot,RightFoot_gyroZ_RightFoot,RightFoot_Joint angle_RightFoot,RightFoot_Relative pos X_RightFoot,RightFoot_Relative pos Y_RightFoot,RightFoot_Relative pos Z_RightFoot,RightFootEnd_accelX_RightFootEnd,RightFootEnd_accelY_RightFootEnd,RightFootEnd_accelZ_RightFootEnd,RightFootEnd_gyroX_RightFootEnd,RightFootEnd_gyroY_RightFootEnd,RightFootEnd_gyroZ_RightFootEnd,RightFootEnd_Joint angle_RightFootEnd,RightFootEnd_Relative pos X_RightFootEnd,RightFootEnd_Relative pos Y_RightFootEnd,RightFootEnd_Relative pos Z_RightFootEnd,LeftPelvis_accelX_LeftPelvis,LeftPelvis_accelY_LeftPelvis,LeftPelvis_accelZ_LeftPelvis,LeftPelvis_gyroX_LeftPelvis,LeftPelvis_gyroY_LeftPelvis,LeftPelvis_gyroZ_LeftPelvis,LeftPelvis_Joint angle_LeftPelvis,LeftPelvis_Relative pos X_LeftPelvis,LeftPelvis_Relative pos Y_LeftPelvis,LeftPelvis_Relative pos Z_LeftPelvis,LeftUpLeg_accelX_LeftUpLeg,LeftUpLeg_accelY_LeftUpLeg,LeftUpLeg_accelZ_LeftUpLeg,LeftUpLeg_gyroX_LeftUpLeg,LeftUpLeg_gyroY_LeftUpLeg,LeftUpLeg_gyroZ_LeftUpLeg,LeftUpLeg_Joint angle_LeftUpLeg,LeftUpLeg_Relative pos X_LeftUpLeg,LeftUpLeg_Relative pos Y_LeftUpLeg,LeftUpLeg_Relative pos Z_LeftUpLeg,LeftLeg_accelX_LeftLeg,LeftLeg_accelY_LeftLeg,LeftLeg_accelZ_LeftLeg,LeftLeg_gyroX_LeftLeg,LeftLeg_gyroY_LeftLeg,LeftLeg_gyroZ_LeftLeg,LeftLeg_Joint angle_LeftLeg,LeftLeg_Relative pos X_LeftLeg,LeftLeg_Relative pos Y_LeftLeg,LeftLeg_Relative pos Z_LeftLeg,LeftFoot_accelX_LeftFoot,LeftFoot_accelY_LeftFoot,LeftFoot_accelZ_LeftFoot,LeftFoot_gyroX_LeftFoot,LeftFoot_gyroY_LeftFoot,LeftFoot_gyroZ_LeftFoot,LeftFoot_Joint angle_LeftFoot,LeftFoot_Relative pos X_LeftFoot,LeftFoot_Relative pos Y_LeftFoot,LeftFoot_Relative pos Z_LeftFoot,LeftFootEnd_accelX_LeftFootEnd,LeftFootEnd_accelY_LeftFootEnd,LeftFootEnd_accelZ_LeftFootEnd,LeftFootEnd_gyroX_LeftFootEnd,LeftFootEnd_gyroY_LeftFootEnd,LeftFootEnd_gyroZ_LeftFootEnd,LeftFootEnd_Joint angle_LeftFootEnd,LeftFootEnd_Relative pos X_LeftFootEnd,LeftFootEnd_Relative pos Y_LeftFootEnd,LeftFootEnd_Relative pos Z_LeftFootEnd,Spine_accelX_Spine,Spine_accelY_Spine,Spine_accelZ_Spine,Spine_gyroX_Spine,Spine_gyroY_Spine,Spine_gyroZ_Spine,Spine_Joint angle_Spine,Spine_Relative pos X_Spine,Spine_Relative pos Y_Spine,Spine_Relative pos Z_Spine,
0.0,0,-0.49420166,0.6968994,0.7216797,-0.078125,-0.50878906,1.6533203,0.0,0.0,0.0,0.0,0.0,0.0,0.0,0.0,0.0,0.0,0.0,-0.40196565,-0.5426168,-0.73610723,-1.5447998,0.10070801,0.38653564,-2.0654297,-3.0136719,-0.051757812,103.65179,-8.321936,-11.2338505,-15.239702,1.4251099,-0.6174927,-0.5469971,-0.0078125,-3.4414062,-1.8369141,49.88764,10.85004,-64.87592,-13.1377125,-1.5326538,-0.12695312,1.4404907,-2.2421875,4.727539,0.6953125,70.49829,63.68922,-94.50708,25.791582,0.0,0.0,0.0,0.0,0.0,0.0,0.0,71.517334,-98.10769,7.758463,0.0,0.0,0.0,0.0,0.0,0.0,0.0,0.40196565,0.5426168,0.73610723,-0.49243164,0.609375,-1.4194336,-3.03125,2.46875,-0.5761719,77.537994,8.321936,11.2338505,15.239702,0.65185547,0.30065918,-1.600708,12.837891,-6.1640625,0.47265625,51.424313,-3.4050045,-44.55481,15.250452,-0.5906372,0.22253418,0.9592285,0.3515625,3.2226562,-0.013671875,114.67564,1.1866722,-92.12216,69.066246,0.0,0.0,0.0,0.0,0.0,0.0,0.0,13.539621,-82.976204,56.268585,0.0,0.0,0.0,0.0,0.0,0.0,0.0,38.872547,1.7367954,-22.507374,
0.0195312497089617,1,-0.49420166,0.6968994,0.7216797,-0.078125,-0.50878906,1.6533203,0.0,0.0,0.0,0.0,0.0,0.0,0.0,0.0,0.0,0.0,0.0,-0.40196565,-0.5426168,-0.73610723,-1.5447998,0.10070801,0.38653564,-2.0654297,-3.0136719,-0.051757812,103.65179,-8.321936,-11.2338505,-15.239702,1.4251099,-0.6174927,-0.5469971,-0.0078125,-3.4414062,-1.8369141,49.88764,10.85004,-64.87592,-13.1377125,-1.5326538,-0.12695312,1.4404907,-2.2421875,4.727539,0.6953125,70.49829,63.68922,-94.50708,25.791582,0.0,0.0,0.0,0.0,0.0,0.0,0.0,71.517334,-98.10769,7.758463,0.0,0.0,0.0,0.0,0.0,0.0,0.0,0.40196565,0.5426168,0.73610723,-0.49243164,0.609375,-1.4194336,-3.03125,2.46875,-0.5761719,77.537994,8.321936,11.2338505,15.239702,0.65185547,0.30065918,-1.600708,12.837891,-6.1640625,0.47265625,51.424313,-3.4050045,-44.55481,15.250452,-0.5906372,0.22253418,0.9592285,0.3515625,3.2226562,-0.013671875,114.67564,1.1866722,-92.12216,69.066246,0.0,0.0,0.0,0.0,0.0,0.0,0.0,13.539621,-82.976204,56.268585,0.0,0.0,0.0,0.0,0.0,0.0,0.0,38.872547,1.7367954,-22.507374,
0.0390624994179234,2,-0.49420166,0.6968994,0.7216797,-0.078125,-0.50878906,1.6533203,0.0,0.0,0.0,0.0,0.0,0.0,0.0,0.0,0.0,0.0,0.0,-0.40196565,-0.5426168,-0.73610723,-1.5447998,0.10070801,0.38653564,-2.0654297,-3.0136719,-0.051757812,103.65179,-8.321936,-11.2338505,-15.239702,1.4251099,-0.6174927,-0.5469971,-0.0078125,-3.4414062,-1.8369141,49.88764,10.85004,-64.87592,-13.1377125,-1.5326538,-0.12695312,1.4404907,-2.2421875,4.727539,0.6953125,70.49829,63.68922,-94.50708,25.791582,0.0,0.0,0.0,0.0,0.0,0.0,0.0,71.517334,-98.10769,7.758463,0.0,0.0,0.0,0.0,0.0,0.0,0.0,0.40196565,0.5426168,0.73610723,-0.49243164,0.609375,-1.4194336,-3.03125,2.46875,-0.5761719,77.537994,8.321936,11.2338505,15.239702,0.65185547,0.30065918,-1.600708,12.837891,-6.1640625,0.47265625,51.424313,-3.4050045,-44.55481,15.250452,-0.5906372,0.22253418,0.9592285,0.3515625,3.2226562,-0.013671875,114.67564,1.1866722,-92.12216,69.066246,0.0,0.0,0.0,0.0,0.0,0.0,0.0,13.539621,-82.976204,56.268585,0.0,0.0,0.0,0.0,0.0,0.0,0.0,38.872547,1.7367954,-22.507374,
0.0585937491268851,3,-0.07141113,0.7822876,0.5897827,-0.057617188,0.123046875,0.10546875,0.0,0.0,0.0,0.0,0.0,0.0,0.0,0.0,0.0,0.0,0.0,0.37496603,0.05521961,-0.9253905,-0.9783325,-0.03869629,0.08721924,-0.00390625,1.1757812,0.65625,16.317678,7.762959,1.1432173,-19.158451,0.95825195,-0.10144043,-0.32141113,-0.015625,-0.040039062,-0.020507812,11.927074,0.6615634,-55.316044,-15.800051,-0.58673096,-0.019592285,0.79022217,-0.0126953125,0.059570312,-0.01953125,9.593639,5.3258796,-127.16724,-14.585303,0.0,0.0,0.0,0.0,0.0,0.0,0.0,-9.479324,-127.235176,-28.030342,0.0,0.0,0.0,0.0,0.0,0.0,0.0,-0.37496603,-0.05521961,0.9253905,-0.8736572,-0.070129395,-0.46020508,-0.060546875,0.115234375,-0.0029296875,5.2866488,-7.762959,-1.1432173,19.158451,0.76953125,-0.109802246,-0.61383057,0.19433594,-0.16796875,-0.06640625,19.454012,-0.19208384,-57.42725,14.228234,-0.7932129,0.070495605,0.6409302,-0.048828125,0.63183594,1.0957031,8.93857,28.119616,-120.994606,-4.285289,0.0,0.0,0.0,0.0,0.0,0.0,0.0,12.528353,-125.41443,-16.004295,0.0,0.0,0.0,0.0,0.0,0.0,0.0,-6.9188375,44.46459,-0.15021944,
0.0781249988358468,4,-0.042236328,0.75860596,0.57592773,-0.07714844,0.12207031,0.05078125,0.0,0.0,0.0,0.0,0.0,0.0,0.0,0.0,0.0,0.0,0.0,0.37809405,0.055645198,-0.92405266,-0.99920654,-0.09118652,0.10321045,-0.09765625,0.9111328,0.4814453,15.095737,7.8277187,1.1520282,-19.130756,0.977417,-0.10821533,-0.28076172,0.13671875,-0.041992188,-0.015625,10.626379,1.8607702,-55.467686,-16.23962,-0.59033203,-0.051086426,0.8101196,-0.01171875,-0.01171875,0.0,9.623204,6.419134,-127.32614,-15.044182,0.0,0.0,0.0,0.0,0.0,0.0,0.0,-8.392757,-127.40431,-28.482666,0.0,0.0,0.0,0.0,0.0,0.0,0.0,-0.37809405,-0.055645198,0.92405266,-0.855896,-0.09411621,-0.4534912,-0.21386719,-0.036132812,-0.021484375,5.328368,-7.8277187,-1.1520282,19.130756,0.77697754,-0.1149292,-0.6436157,0.07910156,-0.12890625,-0.0087890625,19.616623,-0.25780773,-57.43666,14.159682,-0.77459717,0.070373535,0.61035156,-0.05078125,0.5,0.9638672,9.761344,28.26059,-120.89953,-4.4110746,0.0,0.0,0.0,0.0,0.0,0.0,0.0,12.840479,-125.13546,-16.422497,0.0,0.0,0.0,0.0,0.0,0.0,0.0,-6.915684,44.463444,-0.15215802,
0.09765624854480849,5,-0.07116699,0.75354004,0.59954834,-0.17578125,0.10449219,-0.001953125,0.0,0.0,0.0,0.0,0.0,0.0,0.0,0.0,0.0,0.0,0.0,0.380254,0.05786061,-0.9231562,-1.0036011,-0.12817383,0.107543945,-0.11621094,0.36328125,0.1328125,14.673154,7.872437,1.1978941,-19.112194,1.0046997,-0.04284668,-0.24084473,0.17480469,0.0146484375,-0.015625,9.867589,2.4890175,-55.482883,-16.358036,-0.5871582,-0.04321289,0.79229736,-0.01171875,-0.030273438,0.0,9.48995,6.864746,-127.34894,-15.090338,0.0,0.0,0.0,0.0,0.0,0.0,0.0,-7.9563866,-127.43397,-28.518623,0.0,0.0,0.0,0.0,0.0,0.0,0.0,-0.380254,-0.05786061,0.9231562,-0.8790283,-0.09460449,-0.45446777,-0.27148438,-0.034179688,-9.765625E-4,5.368596,-7.872437,-1.1978941,19.112194,0.7746582,-0.120910645,-0.6613159,9.765625E-4,-0.12792969,-0.0078125,19.772669,-0.32424974,-57.482014,14.108041,-0.7734375,0.088378906,0.6063843,-0.08984375,0.38867188,0.66308594,10.476135,28.3707,-120.85193,-4.5061426,0.0,0.0,0.0,0.0,0.0,0.0,0.0,13.079981,-124.955124,-16.726011,0.0,0.0,0.0,0.0,0.0,0.0,0.0,-7.0543365,44.44707,-0.11991978,
0.11718749825377019,6,-0.05456543,0.7583008,0.63494873,-0.13671875,0.103515625,-0.0029296875,0.0,0.0,0.0,0.0,0.0,0.0,0.0,0.0,0.0,0.0,0.0,0.38472667,0.060641013,-0.92134273,-1.012207,-0.1338501,0.1642456,-0.11621094,0.1171875,0.034179688,14.978943,7.9650335,1.2554569,-19.07465,0.98773193,-0.037353516,-0.21276855,0.005859375,0.015625,0.037109375,9.725526,2.584591,-55.418655,-16.078775,-0.58203125,-0.03564453,0.815979,-0.01171875,-0.0126953125,-0.018554688,9.686613,6.7594614,-127.29131,-14.625181,0.0,0.0,0.0,0.0,0.0,0.0,0.0,-8.068396,-127.38704,-28.046951,0.0,0.0,0.0,0.0,0.0,0.0,0.0,-0.38472667,-0.060641013,0.92134273,-0.87805176,-0.093933105,-0.40338135,-0.23339844,-0.11425781,0.060546875,5.4771137,-7.9650335,-1.2554569,19.07465,0.7595825,-0.18164062,-0.70599365,9.765625E-4,-0.09082031,-0.0087890625,20.10917,-0.55425024,-57.55796,14.066217,-0.76135254,0.044311523,0.5965576,-0.24414062,0.16601562,0.23144531,10.67151,28.396618,-120.800316,-4.59667,0.0,0.0,0.0,0.0,0.0,0.0,0.0,13.209627,-124.88982,-16.950533,0.0,0.0,0.0,0.0,0.0,0.0,0.0,-7.262224,44.422863,-0.10867143,
0.1367187479627319,7,-0.07373047,0.70806885,0.62109375,-0.13671875,0.08496094,0.033203125,0.0,0.0,0.0,0.0,0.0,0.0,0.0,0.0,0.0,0.0,0.0,0.39052895,0.06345997,-0.9186577,-1.0028076,-0.11242676,0.15466309,-0.041015625,0.059570312,0.052734375,15.423425,8.08516,1.3138181,-19.019064,1.0117188,-0.086364746,-0.20922852,-0.032226562,0.016601562,0.016601562,9.740273,2.5460906,-55.328682,-15.816898,-0.56866455,-0.020202637,0.795166,-0.01171875,0.005859375,0.0,9.959472,6.512697,-127.21247,-14.2222595,0.0,0.0,0.0,0.0,0.0,0.0,0.0,-8.329477,-127.317375,-27.62717,0.0,0.0,0.0,0.0,0.0,0.0,0.0,-0.39052895,-0.06345997,0.9186577,-0.8670654,-0.105407715,-0.50268555,-0.11816406,0.0,0.05859375,5.5673604,-8.08516,-1.3138181,19.019064,0.7476196,-0.16052246,-0.71777344,0.32910156,-0.11425781,-0.087890625,20.48674,-0.7186637,-57.622032,14.016825,-0.78082275,0.059509277,0.61138916,-0.24609375,0.0146484375,0.09863281,10.253154,28.688148,-120.66266,-4.6019,0.0,0.0,0.0,0.0,0.0,0.0,0.0,13.578028,-124.80559,-17.033487,0.0,0.0,0.0,0.0,0.0,0.0,0.0,-7.455225,44.388798,-0.1029439,
0.1562499976716936,8,-0.05493164,0.72528076,0.59887695,-0.078125,0.103515625,0.068359375,0.0,0.0,0.0,0.0,0.0,0.0,0.0,0.0,0.0,0.0,0.0,0.39456484,0.06491205,-0.91668516,-0.9874878,-0.09234619,0.1619873,-0.1171875,0.020507812,0.09082031,15.728816,8.168716,1.3438807,-18.978226,0.98376465,-0.068481445,-0.23779297,0.00390625,-0.001953125,-0.020507812,9.762633,2.4774666,-55.282455,-15.676893,-0.57299805,-0.038757324,0.7902832,-0.03125,0.005859375,-0.01953125,10.183484,6.2719374,-127.17285,-13.992968,0.0,0.0,0.0,0.0,0.0,0.0,0.0,-8.582063,-127.28845,-27.383934,0.0,0.0,0.0,0.0,0.0,0.0,0.0,-0.39456484,-0.06491205,0.91668516,-0.8641968,-0.114746094,-0.5253906,-0.15625,0.15722656,0.10058594,5.6430235,-8.168716,-1.3438807,18.978226,0.7398071,-0.06665039,-0.7557373,0.88964844,-0.123046875,-0.24511719,20.509424,-0.5559597,-57.60539,13.867015,-0.79315186,0.051757812,0.6114502,-0.17089844,-0.025390625,0.13671875,9.178622,29.365763,-120.46924,-4.5092688,0.0,0.0,0.0,0.0,0.0,0.0,0.0,14.323588,-124.64329,-17.013348,0.0,0.0,0.0,0.0,0.0,0.0,0.0,-7.5633316,44.364418,-0.113931656,
0.1757812473806553,9,-0.039611816,0.74090576,0.6165161,-0.07714844,0.123046875,0.08691406,0.0,0.0,0.0,0.0,0.0,0.0,0.0,0.0,0.0,0.0,0.0,0.39888006,0.06485062,-0.9146749,-0.9852905,-0.11218262,0.122802734,-0.1171875,0.001953125,0.052734375,15.951635,8.258054,1.3426089,-18.936605,0.9835205,-0.045043945,-0.20477295,0.080078125,-0.022460938,9.765625E-4,9.755482,2.4230876,-55.257805,-15.523866,-0.5834961,-0.06311035,0.8022461,0.0068359375,0.005859375,0.0,10.424357,6.0242376,-127.155846,-13.702903,0.0,0.0,0.0,0.0,0.0,0.0,0.0,-8.830668,-127.27993,-27.093967,0.0,0.0,0.0,0.0,0.0,0.0,0.0,-0.39888006,-0.06485062,0.9146749,-0.83795166,-0.1796875,-0.49053955,-0.23339844,0.041992188,0.01953125,5.653156,-8.258054,-1.3426089,18.936605,0.7454834,0.009216309,-0.682312,0.2705078,-0.0390625,-0.087890625,20.421146,-0.4262643,-57.57495,13.845339,-0.78082275,0.039794922,0.5857544,-0.171875,-0.08300781,0.13574219,8.371258,29.925402,-120.39526,-3.9803066,0.0,0.0,0.0,0.0,0.0,0.0,0.0,14.949425,-124.581955,-16.55833,0.0,0.0,0.0,0.0,0.0,0.0,0.0,-7.6209946,44.348267,-0.1791346,
0.19531249708961698,10,-0.043518066,0.71917725,0.61938477,-0.1171875,0.10546875,0.087890625,0.0,0.0,0.0,0.0,0.0,0.0,0.0,0.0,0.0,0.0,0.0,0.40393457,0.06601627,-0.9124106,-1.012085,-0.12683105,0.15142822,-0.09765625,-0.015625,0.0146484375,16.231508,8.362699,1.3667418,-18.889729,1.00354,-0.053710938,-0.19903564,0.0048828125,-0.041015625,0.018554688,9.762231,2.391676,-55.207462,-15.278164,-0.5913086,-0.05291748,0.7913208,0.026367188,-0.013671875,-0.018554688,10.692808,5.805707,-127.10849,-13.3079,0.0,0.0,0.0,0.0,0.0,0.0,0.0,-9.050316,-127.23718,-26.695229,0.0,0.0,0.0,0.0,0.0,0.0,0.0,-0.40393457,-0.06601627,0.9124106,-0.8408203,-0.16772461,-0.49536133,-0.11816406,0.1171875,-0.001953125,5.518214,-8.362699,-1.3667418,18.889729,0.72613525,-0.061462402,-0.73968506,-0.2890625,-0.0859375,0.033203125,20.469208,-0.29638863,-57.582882,13.931368,-0.7111206,0.043395996,0.58947754,-0.15234375,-0.044921875,0.15527344,8.387873,30.515856,-120.29385,-3.4881878,0.0,0.0,0.0,0.0,0.0,0.0,0.0,15.612487,-124.50102,-16.144035,0.0,0.0,0.0,0.0,0.0,0.0,0.0,-7.7090645,44.33461,-0.2051183,
0.21484374679857868,11,-0.062072754,0.77423096,0.6054077,-0.13378906,0.18164062,0.08886719,0.0,0.0,0.0,0.0,0.0,0.0,0.0,0.0,0.0,0.0,0.0,0.40660468,0.06733978,-0.9111285,-1.0125732,-0.12011719,0.09875488,0.0146484375,-0.07324219,0.032226562,16.481543,8.417978,1.3941422,-18.863186,0.98309326,-0.083862305,-0.29766846,-0.08984375,0.018554688,-0.00390625,9.8111725,2.3566108,-55.16268,-15.080998,-0.59436035,-0.05291748,0.8081665,0.0068359375,-0.0126953125,0.018554688,10.938715,5.6989884,-127.06943,-12.982595,0.0,0.0,0.0,0.0,0.0,0.0,0.0,-9.139725,-127.207466,-26.389767,0.0,0.0,0.0,0.0,0.0,0.0,0.0,-0.40660468,-0.06733978,0.9111285,-0.8544922,-0.14074707,-0.54919434,0.016601562,0.23046875,0.016601562,5.417504,-8.417978,-1.3941422,18.863186,0.79785156,-0.15527344,-0.7543335,0.15332031,0.07421875,-0.049804688,20.43285,0.015125275,-57.55793,13.941607,-0.7335205,0.07562256,0.60528564,-0.15234375,-0.026367188,0.19238281,8.521248,31.26651,-120.024155,-3.197816,0.0,0.0,0.0,0.0,0.0,0.0,0.0,16.409626,-124.21352,-15.91585,0.0,0.0,0.0,0.0,0.0,0.0,0.0,-7.808735,44.317207,-0.20936382,
0.23437499650754037,12,-0.071777344,0.78759766,0.64160156,-0.115234375,0.16308594,0.10644531,0.0,0.0,0.0,0.0,0.0,0.0,0.0,0.0,0.0,0.0,0.0,0.41041756,0.069161534,-0.90946525,-0.9971924,-0.09613037,0.10614014,0.0146484375,-0.03515625,0.051757812,16.70222,8.496916,1.4318582,-18.828749,0.97491455,-0.08544922,-0.30755615,0.005859375,0.016601562,0.017578125,9.8716135,2.3977156,-55.108738,-14.931787,-0.6014404,-0.053710938,0.8062134,0.0068359375,-0.0126953125,0.0,10.930902,5.747165,-127.00951,-12.781364,0.0,0.0,0.0,0.0,0.0,0.0,0.0,-9.084986,-127.160645,-26.197401,0.0,0.0,0.0,0.0,0.0,0.0,0.0,-0.41041756,-0.069161534,0.90946525,-0.91070557,-0.13726807,-0.48815918,-0.041015625,0.19238281,-0.0234375,5.3897977,-8.496916,-1.4318582,18.828749,0.8085327,-0.08746338,-0.6760254,0.19042969,0.18457031,-0.08886719,20.10186,0.21890926,-57.553356,13.905724,-0.7807007,0.091308594,0.63201904,-0.11328125,0.0107421875,0.17382812,8.276331,31.542664,-120.145355,-3.0122185,0.0,0.0,0.0,0.0,0.0,0.0,0.0,16.711798,-124.31773,-15.76766,0.0,0.0,0.0,0.0,0.0,0.0,0.0,-7.9356265,44.30232,-0.21210682,
0.2539062462165021,13,-0.06561279,0.7576294,0.63720703,-0.038085938,0.103515625,0.0859375,0.0,0.0,0.0,0.0,0.0,0.0,0.0,0.0,0.0,0.0,0.0,0.4143041,0.06962106,-0.90756416,-1.0050049,-0.091552734,0.06933594,-0.022460938,-0.03515625,0.033203125,16.817526,8.577378,1.4413718,-18.789392,0.9967041,-0.02947998,-0.3125,0.024414062,0.0546875,-9.765625E-4,9.907346,2.4390516,-55.09077,-14.848522,-0.60736084,-0.04663086,0.8101196,-0.01171875,-0.030273438,0.0,10.879725,5.793026,-126.99063,-12.607317,0.0,0.0,0.0,0.0,0.0,0.0,0.0,-9.031786,-127.15223,-26.031368,0.0,0.0,0.0,0.0,0.0,0.0,0.0,-0.4143041,-0.06962106,0.90756416,-0.90911865,-0.16748047,-0.4539795,-0.022460938,0.036132812,-0.024414062,5.2986813,-8.577378,-1.4413718,18.789392,0.7642822,-0.11480713,-0.692749,-0.25195312,0.061523438,0.068359375,20.009874,0.23211765,-57.559578,14.008387,-0.75598145,0.09698486,0.61621094,-0.07519531,-0.02734375,0.09765625,8.360859,31.565434,-120.20145,-2.7213192,0.0,0.0,0.0,0.0,0.0,0.0,0.0,16.751505,-124.347015,-15.503113,0.0,0.0,0.0,0.0,0.0,0.0,0.0,-7.997079,44.28681,-0.2533461,
0.2734374959254638,14,-0.06726074,0.7623291,0.59155273,-0.078125,0.10449219,0.10546875,0.0,0.0,0.0,0.0,0.0,0.0,0.0,0.0,0.0,0.0,0.0,0.41547146,0.06877451,-0.906976,-0.9866333,-0.06964111,0.0836792,-0.19140625,0.1171875,-0.00390625,16.743061,8.601546,1.4238453,-18.777216,0.96765137,-0.055786133,-0.30340576,0.0068359375,0.111328125,0.016601562,9.7381935,2.507598,-55.11328,-14.7788515,-0.59747314,-0.057800293,0.81018066,0.026367188,-0.013671875,9.765625E-4,10.801665,5.7129974,-127.01535,-12.4139185,0.0,0.0,0.0,0.0,0.0,0.0,0.0,-9.103752,-127.18524,-25.8452,0.0,0.0,0.0,0.0,0.0,0.0,0.0,-0.41547146,-0.06877451,0.906976,-0.8758545,-0.08380127,-0.50061035,0.03515625,0.09277344,0.016601562,5.294871,-8.601546,-1.4238453,18.777216,0.7553711,-0.15258789,-0.6725464,-0.21289062,0.09863281,0.0859375,20.056927,0.22441864,-57.54702,14.038447,-0.772522,0.07739258,0.609375,-0.056640625,-0.06542969,0.060546875,8.433355,31.621868,-120.16356,-2.6649427,0.0,0.0,0.0,0.0,0.0,0.0,0.0,16.783579,-124.29999,-15.423284,0.0,0.0,0.0,0.0,0.0,0.0,0.0,-7.9712553,44.286293,-0.29335034,
0.2929687456344255,15,-0.030456543,0.7416992,0.6222534,-0.11621094,0.125,0.125,0.0,0.0,0.0,0.0,0.0,0.0,0.0,0.0,0.0,0.0,0.0,0.41894996,0.0682951,-0.90542674,-1.0025024,-0.09454346,0.13006592,-0.19238281,0.1171875,0.03515625,16.801252,8.673564,1.4139203,-18.74514,0.97595215,-0.053344727,-0.26159668,0.064453125,0.072265625,0.056640625,9.586116,2.6165628,-55.1215,-14.658779,-0.57403564,-0.038757324,0.8031616,0.026367188,-0.03125,9.765625E-4,10.842154,5.6698,-127.031136,-12.195819,0.0,0.0,0.0,0.0,0.0,0.0,0.0,-9.134523,-127.209175,-25.641762,0.0,0.0,0.0,0.0,0.0,0.0,0.0,-0.41894996,-0.0682951,0.90542674,-0.8534546,-0.0635376,-0.5053711,-0.0029296875,0.15234375,0.016601562,5.5198474,-8.673564,-1.4139203,18.74514,0.76898193,-0.08288574,-0.661438,0.15429688,0.09277344,0.025390625,19.804646,0.33209324,-57.492657,13.876206,-0.7766113,0.06958008,0.59558105,-0.055664062,-0.045898438,0.00390625,8.287426,31.684193,-120.12808,-2.8523493,0.0,0.0,0.0,0.0,0.0,0.0,0.0,16.830147,-124.25945,-15.5916605,0.0,0.0,0.0,0.0,0.0,0.0,0.0,-8.051772,44.271675,-0.38628316,
0.3124999953433872,16,-0.0546875,0.7015381,0.6086426,-0.056640625,0.16113281,0.10546875,0.0,0.0,0.0,0.0,0.0,0.0,0.0,0.0,0.0,0.0,0.0,0.42397052,0.06824524,-0.90303344,-1.0240479,-0.112854004,0.14068604,-0.09765625,-0.016601562,0.033203125,16.983644,8.777505,1.4128882,-18.695593,0.98638916,-0.08331299,-0.22888184,-0.01171875,0.07324219,0.036132812,9.539926,2.6360583,-55.101715,-14.484403,-0.5796509,-0.014038086,0.8179321,0.026367188,-0.013671875,9.765625E-4,11.007413,5.5013237,-127.00901,-11.94479,0.0,0.0,0.0,0.0,0.0,0.0,0.0,-9.32634,-127.18127,-25.364462,0.0,0.0,0.0,0.0,0.0,0.0,0.0,-0.42397052,-0.06824524,0.90303344,-0.88513184,-0.101379395,-0.45355225,-0.19433594,-0.017578125,-0.022460938,5.7092843,-8.777505,-1.4128882,18.695593,0.75701904,-0.081726074,-0.6641846,0.017578125,0.15039062,0.026367188,19.6773,0.21963406,-57.490673,13.764448,-0.760376,0.06890869,0.6329346,-0.036132812,-0.0087890625,-0.0146484375,8.105034,31.447613,-120.18568,-2.9414024,0.0,0.0,0.0,0.0,0.0,0.0,0.0,16.57427,-124.311035,-15.659752,0.0,0.0,0.0,0.0,0.0,0.0,0.0,-8.126543,44.254833,-0.47089446,
0.3320312450523489,17,-0.08453369,0.73986816,0.57788086,-0.037109375,0.14160156,0.0859375,0.0,0.0,0.0,0.0,0.0,0.0,0.0,0.0,0.0,0.0,0.0,0.42743492,0.06827557,-0.90141624,-0.9998169,-0.12017822,0.14953613,-0.09765625,-0.03515625,0.052734375,17.138365,8.849228,1.4135159,-18.662111,0.9613037,-0.078430176,-0.2097168,0.1015625,0.09082031,0.01953125,9.453238,2.5713758,-55.07802,-14.302157,-0.5737915,-0.023986816,0.802124,0.026367188,-0.0126953125,0.01953125,11.270419,5.1325583,-126.990585,-11.64619,0.0,0.0,0.0,0.0,0.0,0.0,0.0,-9.698444,-127.15931,-25.062277,0.0,0.0,0.0,0.0,0.0,0.0,0.0,-0.42743492,-0.06827557,0.90141624,-0.8594971,-0.13519287,-0.44989014,-0.21386719,-0.07519531,-0.021484375,5.743921,-8.849228,-1.4135159,18.662111,0.73986816,-0.10845947,-0.6646118,-0.27148438,0.13671875,0.12402344,19.64229,0.08589363,-57.50036,13.746209,-0.78100586,0.044311523,0.63897705,-0.018554688,-0.08496094,-0.034179688,8.077738,31.27182,-120.259964,-2.8080397,0.0,0.0,0.0,0.0,0.0,0.0,0.0,16.391993,-124.390755,-15.5170555,0.0,0.0,0.0,0.0,0.0,0.0,0.0,-8.123369,44.255905,-0.49989605,
0.3515624947613106,18,-0.066223145,0.74542236,0.58740234,-0.038085938,0.12207031,0.0859375,0.0,0.0,0.0,0.0,0.0,0.0,0.0,0.0,0.0,0.0,0.0,0.42997217,0.068200484,-0.90023744,-0.97875977,-0.11138916,0.1885376,-0.060546875,-0.015625,0.0146484375,17.331154,8.901756,1.4119612,-18.637707,0.9883423,-0.053100586,-0.20489502,0.08203125,0.091796875,0.01953125,9.452032,2.4286213,-55.045433,-14.140785,-0.5726929,-0.018188477,0.8109741,0.026367188,-0.03125,9.765625E-4,11.359121,4.7283726,-126.964874,-11.350757,0.0,0.0,0.0,0.0,0.0,0.0,0.0,-10.111015,-127.1347,-24.75735,0.0,0.0,0.0,0.0,0.0,0.0,0.0,-0.42997217,-0.068200484,0.90023744,-0.8291626,-0.12371826,-0.46453857,-0.022460938,0.016601562,0.016601562,5.6921287,-8.901756,-1.4119612,18.637707,0.7280884,-0.17419434,-0.6876831,-0.23242188,0.13574219,0.14257812,19.639893,0.04522705,-57.50513,13.787065,-0.7624512,0.056030273,0.6270752,-0.037109375,-0.06542969,0.00390625,8.192685,31.18124,-120.27665,-2.8190775,0.0,0.0,0.0,0.0,0.0,0.0,0.0,16.310944,-124.42686,-15.535044,0.0,0.0,0.0,0.0,0.0,0.0,0.0,-8.102825,44.26043,-0.5169822,
0.37109374447027227,19,-0.0869751,0.71032715,0.61151123,-0.056640625,0.14257812,0.10546875,0.0,0.0,0.0,0.0,0.0,0.0,0.0,0.0,0.0,0.0,0.0,0.43315405,0.06841327,-0.8986882,-0.9835205,-0.11651611,0.14959717,-0.00390625,-0.053710938,-0.0048828125,17.555182,8.967633,1.4163668,-18.60563,0.9945679,-0.04748535,-0.20391846,-0.047851562,0.13085938,0.072265625,9.398646,2.3157268,-55.006462,-13.944891,-0.5665283,-0.009521484,0.81884766,0.044921875,-0.032226562,9.765625E-4,11.528511,4.314972,-126.92992,-10.95532,0.0,0.0,0.0,0.0,0.0,0.0,0.0,-10.54016,-127.09315,-24.345211,0.0,0.0,0.0,0.0,0.0,0.0,0.0,-0.43315405,-0.06841327,0.8986882,-0.82873535,-0.08911133,-0.47906494,0.13085938,0.1484375,0.036132812,5.674817,-8.967633,-1.4163668,18.60563,0.756958,-0.12164307,-0.6491089,0.24902344,0.18359375,-0.033203125,19.39807,0.16716099,-57.478733,13.767649,-0.7562256,0.06402588,0.61621094,-0.057617188,-0.123046875,0.041015625,7.8797793,31.232262,-120.29636,-2.792778,0.0,0.0,0.0,0.0,0.0,0.0,0.0,16.357471,-124.44455,-15.504857,0.0,0.0,0.0,0.0,0.0,0.0,0.0,-8.116769,44.257298,-0.5430416,
0.39062499417923396,20,-0.09851074,0.7402954,0.58618164,-0.01953125,0.083984375,0.0859375,0.0,0.0,0.0,0.0,0.0,0.0,0.0,0.0,0.0,0.0,0.0,0.43455955,0.068828374,-0.89803815,-0.9822998,-0.111328125,0.12982178,-0.15429688,0.021484375,0.034179688,17.658037,8.99673,1.4249609,-18.592175,0.9702759,-0.079711914,-0.23571777,-0.12402344,0.11230469,0.0703125,9.324661,2.2455263,-54.97922,-13.852119,-0.5819702,-0.034606934,0.802124,0.0078125,-0.06640625,0.01953125,11.784838,4.029578,-126.90187,-10.732647,0.0,0.0,0.0,0.0,0.0,0.0,0.0,-10.826488,-127.06849,-24.12106,0.0,0.0,0.0,0.0,0.0,0.0,0.0,-0.43455955,-0.068828374,0.89803815,-0.8578491,-0.08721924,-0.4524536,-0.041015625,0.17285156,0.017578125,5.655998,-8.99673,-1.4249609,18.592175,0.7680054,-0.09283447,-0.6563721,0.095703125,0.14941406,0.025390625,19.136412,0.3029709,-57.455032,13.720184,-0.7704468,0.088134766,0.6290283,-0.038085938,-0.103515625,0.00390625,7.4980273,31.331215,-120.33261,-2.6790733,0.0,0.0,0.0,0.0,0.0,0.0,0.0,16.449347,-124.47274,-15.383852,0.0,0.0,0.0,0.0,0.0,0.0,0.0,-8.102927,44.262493,-0.528584,
0.41015624388819566,21,-0.05908203,0.71936035,0.585022,-0.09863281,0.06542969,0.05078125,0.0,0.0,0.0,0.0,0.0,0.0,0.0,0.0,0.0,0.0,0.0,0.43466026,0.06833702,-0.8979319,-0.98565674,-0.11853027,0.15557861,-0.060546875,0.0029296875,0.033203125,17.795414,8.998815,1.4147882,-18.589973,0.98187256,-0.10083008,-0.2199707,-0.046875,0.12988281,0.11035156,9.236036,2.1460953,-54.971264,-13.743416,-0.57489014,-0.028930664,0.81396484,0.0078125,-0.06640625,0.01953125,11.916709,3.6575549,-126.89542,-10.591891,0.0,0.0,0.0,0.0,0.0,0.0,0.0,-11.204428,-127.06234,-23.972977,0.0,0.0,0.0,0.0,0.0,0.0,0.0,-0.43466026,-0.06833702,0.8979319,-0.9110718,-0.086364746,-0.44848633,-0.0029296875,0.11328125,0.016601562,5.760889,-8.998815,-1.4147882,18.589973,0.8033447,-0.11022949,-0.61450195,-0.23242188,0.1171875,0.12402344,18.819672,0.38779163,-57.42537,13.645151,-0.78497314,0.09106445,0.6704712,-0.056640625,-0.083984375,0.00390625,7.6744237,31.167542,-120.42973,-2.7527676,0.0,0.0,0.0,0.0,0.0,0.0,0.0,16.252758,-124.5467,-15.427548,0.0,0.0,0.0,0.0,0.0,0.0,0.0,-8.1204,44.254963,-0.5628079,
0.42968749359715736,22,-0.051757812,0.7710571,0.6220093,-0.09863281,0.06542969,0.032226562,0.0,0.0,0.0,0.0,0.0,0.0,0.0,0.0,0.0,0.0,0.0,0.43375245,0.06877394,-0.8982768,-0.9945679,-0.09887695,0.1519165,0.034179688,0.0029296875,0.07128906,17.988443,8.9800205,1.4238338,-18.597115,0.9752197,-0.08477783,-0.23077393,0.0078125,0.072265625,0.07421875,9.197764,2.0289059,-54.941093,-13.667179,-0.56451416,-0.012512207,0.80999756,0.044921875,-0.049804688,-0.017578125,12.037697,3.3383346,-126.86951,-10.499956,0.0,0.0,0.0,0.0,0.0,0.0,0.0,-11.538603,-127.03228,-23.86506,0.0,0.0,0.0,0.0,0.0,0.0,0.0,-0.43375245,-0.06877394,0.8982768,-0.9362793,-0.09429932,-0.42297363,0.07324219,0.072265625,0.056640625,5.7629976,-8.9800205,-1.4238338,18.597115,0.8115845,-0.15533447,-0.63812256,-0.27148438,0.13671875,0.14257812,18.708885,0.3289814,-57.448334,13.676804,-0.7642822,0.07531738,0.60046387,-0.07519531,-0.083984375,-0.052734375,8.207578,30.739363,-120.566124,-2.9695244,0.0,0.0,0.0,0.0,0.0,0.0,0.0,15.803049,-124.65515,-15.62766,0.0,0.0,0.0,0.0,0.0,0.0,0.0,-8.180344,44.241432,-0.56284046,
0.44921874330611905,23,-0.10601807,0.7427368,0.630188,-0.07910156,0.044921875,0.013671875,0.0,0.0,0.0,0.0,0.0,0.0,0.0,0.0,0.0,0.0,0.0,0.43256685,0.07041484,-0.89879197,-0.9945679,-0.09118652,0.15802002,0.052734375,-0.015625,0.033203125,18.241388,8.955476,1.4578056,-18.60778,0.9956665,-0.079833984,-0.21398926,-0.06738281,0.11230469,0.072265625,9.091396,1.8975248,-54.888195,-13.595246,-0.5750122,-0.03491211,0.82489014,0.0078125,-0.048828125,9.765625E-4,12.199928,2.935371,-126.81488,-10.307623,0.0,0.0,0.0,0.0,0.0,0.0,0.0,-11.946613,-126.97502,-23.666945,0.0,0.0,0.0,0.0,0.0,0.0,0.0,-0.43256685,-0.07041484,0.89879197,-0.91815186,-0.09246826,-0.43377686,-0.061523438,-0.099609375,0.057617188,5.716283,-8.955476,-1.4578056,18.60778,0.80126953,-0.14715576,-0.6043701,-0.078125,0.15234375,0.12207031,18.72005,0.15312004,-57.519096,13.743747,-0.7522583,0.058654785,0.6467285,-0.055664062,-0.064453125,-0.08984375,8.418345,30.188803,-120.74919,-3.129815,0.0,0.0,0.0,0.0,0.0,0.0,0.0,15.232374,-124.85093,-15.760106,0.0,0.0,0.0,0.0,0.0,0.0,0.0,-8.271106,44.22803,-0.51568806,
0.46874999301508075,24,-0.09057617,0.76690674,0.5862427,-0.001953125,0.0068359375,0.06640625,0.0,0.0,0.0,0.0,0.0,0.0,0.0,0.0,0.0,0.0,0.0,0.43173802,0.07120803,-0.8992125,-0.97314453,-0.054870605,0.17852783,-0.022460938,0.00390625,-0.0048828125,18.437395,8.938315,1.474227,-18.616486,0.9802246,-0.052734375,-0.20977783,-0.047851562,0.111328125,0.072265625,9.049392,1.735054,-54.844894,-13.562233,-0.5708618,-0.030029297,0.809021,0.044921875,-0.013671875,-0.017578125,12.420448,2.540837,-126.77064,-10.186204,0.0,0.0,0.0,0.0,0.0,0.0,0.0,-12.347014,-126.92846,-23.539835,0.0,0.0,0.0,0.0,0.0,0.0,0.0,-0.43173802,-0.07120803,0.8992125,-0.88757324,-0.057006836,-0.46600342,-0.13769531,-0.1171875,0.05859375,5.7414293,-8.938315,-1.474227,18.616486,0.78149414,-0.13690186,-0.59710693,-0.05859375,0.11425781,0.12207031,18.835396,-0.12007332,-57.58344,13.772929,-0.7494507,0.020507812,0.66052246,-0.07519531,-0.064453125,-0.07128906,8.435777,29.609037,-120.90657,-3.3038988,0.0,0.0,0.0,0.0,0.0,0.0,0.0,14.629761,-125.043655,-15.896479,0.0,0.0,0.0,0.0,0.0,0.0,0.0,-8.296497,44.22715,-0.48107147,
0.48828124272404244,25,-0.09057617,0.7310791,0.5749512,0.13671875,0.041992188,0.08203125,0.0,0.0,0.0,0.0,0.0,0.0,0.0,0.0,0.0,0.0,0.0,0.43267673,0.069699705,-0.8988264,-0.99487305,-0.08691406,0.19390869,-0.07910156,0.0029296875,0.033203125,18.492226,8.957748,1.4430001,-18.608494,0.97528076,-0.085876465,-0.20489502,-0.08691406,0.09277344,0.07128906,9.072985,1.6009932,-54.85479,-13.49139,-0.57598877,-0.034851074,0.82092285,0.026367188,-0.013671875,9.765625E-4,12.706596,2.2175303,-126.78565,-10.117443,0.0,0.0,0.0,0.0,0.0,0.0,0.0,-12.686951,-126.93511,-23.451319,0.0,0.0,0.0,0.0,0.0,0.0,0.0,-0.43267673,-0.069699705,0.8988264,-0.86486816,-0.08892822,-0.49768066,-0.00390625,-0.0234375,0.057617188,5.7669415,-8.957748,-1.4430001,18.608494,0.79693604,-0.09326172,-0.65008545,-0.038085938,0.021484375,0.123046875,18.936155,-0.24536705,-57.57472,13.797274,-0.75860596,0.018859863,0.6418457,-0.017578125,-0.06640625,-0.015625,8.433425,29.40836,-120.90307,-3.3915615,0.0,0.0,0.0,0.0,0.0,0.0,0.0,14.430666,-125.0673,-15.974328,0.0,0.0,0.0,0.0,0.0,0.0,0.0,-8.21854,44.239014,-0.5257133,
0.5078124924330042,26,-0.06945801,0.7543335,0.5775757,0.017578125,0.025390625,0.083984375,0.0,0.0,0.0,0.0,0.0,0.0,0.0,0.0,0.0,0.0,0.0,0.4327499,0.068149075,-0.89891034,-0.9845581,-0.10784912,0.15771484,-0.060546875,-0.036132812,0.07128906,18.570215,8.959265,1.4108973,-18.610231,1.001709,-0.11627197,-0.22515869,0.0078125,0.111328125,0.0546875,9.060046,1.4332371,-54.855507,-13.42136,-0.57806396,-0.03967285,0.8130493,0.0068359375,-0.03125,-0.018554688,12.878921,1.799151,-126.785774,-10.010548,0.0,0.0,0.0,0.0,0.0,0.0,0.0,-13.111099,-126.93477,-23.339415,0.0,0.0,0.0,0.0,0.0,0.0,0.0,-0.4327499,-0.068149075,0.89891034,-0.85198975,-0.1038208,-0.45947266,-0.061523438,-0.001953125,0.038085938,5.7801814,-8.959265,-1.4108973,18.610231,0.770874,-0.09686279,-0.6623535,0.018554688,0.15039062,0.06347656,18.963497,-0.23843193,-57.543346,13.803984,-0.7770386,0.02331543,0.62908936,-0.018554688,-0.06640625,0.041015625,8.277232,29.474264,-120.85453,-3.3536148,0.0,0.0,0.0,0.0,0.0,0.0,0.0,14.5133,-125.04817,-15.947517,0.0,0.0,0.0,0.0,0.0,0.0,0.0,-8.14316,44.252472,-0.5653361,
0.5273437421419659,27,-0.08270264,0.7735596,0.5751343,-0.10058594,-0.0107421875,0.049804688,0.0,0.0,0.0,0.0,0.0,0.0,0.0,0.0,0.0,0.0,0.0,0.4309163,0.06823748,-0.89970815,-0.9674072,-0.099609375,0.17285156,0.0146484375,0.021484375,0.072265625,18.775326,8.921303,1.4127271,-18.626747,0.97924805,-0.08795166,-0.21289062,0.06347656,0.072265625,0.038085938,9.035484,1.2610817,-54.83166,-13.36348,-0.5811157,-0.038635254,0.822937,0.044921875,-0.013671875,-0.017578125,13.045588,1.4075873,-126.75745,-9.908694,0.0,0.0,0.0,0.0,0.0,0.0,0.0,-13.507681,-126.90611,-23.232529,0.0,0.0,0.0,0.0,0.0,0.0,0.0,-0.4309163,-0.06823748,0.89970815,-0.8673706,-0.1274414,-0.48223877,-0.15722656,-0.07714844,0.0390625,5.753944,-8.921303,-1.4127271,18.626747,0.7648926,-0.07885742,-0.6692505,0.115234375,0.111328125,0.043945312,18.92288,-0.20696831,-57.54854,13.866383,-0.7808838,0.07519531,0.64678955,0.0,-0.0859375,0.059570312,8.110289,29.515347,-120.90254,-3.1212997,0.0,0.0,0.0,0.0,0.0,0.0,0.0,14.569958,-125.09385,-15.734911,0.0,0.0,0.0,0.0,0.0,0.0,0.0,-8.18634,44.241375,-0.5654136,
0.5468749918509276,28,-0.070129395,0.7655029,0.6045532,0.038085938,0.04296875,0.047851562,0.0,0.0,0.0,0.0,0.0,0.0,0.0,0.0,0.0,0.0,0.0,0.42908278,0.06847378,-0.9006349,-0.980896,-0.12591553,0.18530273,0.0146484375,-0.07324219,0.032226562,18.932009,8.883345,1.4176197,-18.645933,0.97216797,-0.05340576,-0.19873047,0.0068359375,0.053710938,0.055664062,9.098202,1.075984,-54.792175,-13.307958,-0.5732422,-0.050598145,0.8051758,0.0078125,-0.048828125,9.765625E-4,13.185135,1.1171768,-126.71474,-9.74922,0.0,0.0,0.0,0.0,0.0,0.0,0.0,-13.8006735,-126.85998,-23.069458,0.0,0.0,0.0,0.0,0.0,0.0,0.0,-0.42908278,-0.06847378,0.9006349,-0.861145,-0.109680176,-0.45361328,-0.022460938,0.036132812,-0.00390625,5.6468773,-8.883345,-1.4176197,18.645933,0.7706909,-0.11090088,-0.6671753,-0.078125,0.13378906,0.10253906,18.961775,-0.1449976,-57.556168,13.936815,-0.760376,0.06286621,0.6378784,0.0,-0.0859375,0.059570312,7.981582,29.642998,-120.88354,-3.009222,0.0,0.0,0.0,0.0,0.0,0.0,0.0,14.683752,-125.03829,-15.617883,0.0,0.0,0.0,0.0,0.0,0.0,0.0,-8.170962,44.24751,-0.5287665,
0.5664062415598893,29,-0.07128906,0.753479,0.5905762,0.09765625,0.061523438,0.064453125,0.0,0.0,0.0,0.0,0.0,0.0,0.0,0.0,0.0,0.0,0.0,0.42602763,0.06699675,-0.90229267,-0.9786377,-0.116882324,0.16656494,0.052734375,-0.091796875,0.032226562,18.97872,8.820092,1.3870404,-18.680256,0.96881104,-0.06304932,-0.20672607,-0.10546875,0.055664062,0.07128906,9.195371,0.8258314,-54.78815,-13.259145,-0.57910156,-0.03778076,0.829834,0.0068359375,-0.0126953125,0.0,13.36373,0.7701124,-126.70523,-9.543241,0.0,0.0,0.0,0.0,0.0,0.0,0.0,-14.15536,-126.851654,-22.853947,0.0,0.0,0.0,0.0,0.0,0.0,0.0,-0.42602763,-0.06699675,0.90229267,-0.85583496,-0.08843994,-0.4446411,0.111328125,0.11035156,0.036132812,5.5701404,-8.820092,-1.3870404,18.680256,0.77667236,-0.15386963,-0.6453247,-0.15527344,0.11621094,0.10449219,18.875826,-0.057829857,-57.520634,13.97001,-0.73150635,0.095336914,0.6328125,9.765625E-4,-0.0859375,0.022460938,8.067888,29.623417,-120.8899,-3.0221548,0.0,0.0,0.0,0.0,0.0,0.0,0.0,14.6471195,-125.0131,-15.621148,0.0,0.0,0.0,0.0,0.0,0.0,0.0,-8.039434,44.275867,-0.50835145,
0.585937491268851,30,-0.06628418,0.7682495,0.59155273,-0.022460938,-0.013671875,0.01171875,0.0,0.0,0.0,0.0,0.0,0.0,0.0,0.0,0.0,0.0,0.0,0.42502198,0.06668386,-0.9027905,-0.9934082,-0.08618164,0.14715576,0.09082031,-0.03515625,0.033203125,19.066084,8.799274,1.3805628,-18.690561,0.97961426,-0.072265625,-0.2208252,-0.16210938,0.07519531,0.06933594,9.281819,0.68672466,-54.773872,-13.198742,-0.5800781,-0.03955078,0.7982178,0.0078125,-0.048828125,-0.017578125,13.590406,0.5817136,-126.688965,-9.430193,0.0,0.0,0.0,0.0,0.0,0.0,0.0,-14.349628,-126.83303,-22.73522,0.0,0.0,0.0,0.0,0.0,0.0,0.0,-0.42502198,-0.06668386,0.9027905,-0.89141846,-0.047668457,-0.44525146,-0.00390625,0.015625,0.057617188,5.5833187,-8.799274,-1.3805628,18.690561,0.78863525,-0.16101074,-0.6415405,-0.078125,0.115234375,0.06542969,18.819216,-0.10050678,-57.51919,13.952139,-0.7562256,0.08666992,0.6477051,-0.017578125,-0.06640625,0.00390625,8.256972,29.360813,-120.94978,-3.2072048,0.0,0.0,0.0,0.0,0.0,0.0,0.0,14.3596325,-125.05057,-15.782856,0.0,0.0,0.0,0.0,0.0,0.0,0.0,-7.9980993,44.283527,-0.49443543,
0.6054687409778127,31,-0.07849121,0.75164795,0.5787964,-0.0234375,-0.03125,0.047851562,0.0,0.0,0.0,0.0,0.0,0.0,0.0,0.0,0.0,0.0,0.0,0.42384785,0.066712186,-0.90335995,-0.9881592,-0.066711426,0.14251709,0.0146484375,-0.016601562,0.07128906,19.153698,8.774965,1.3811492,-18.702353,0.97961426,-0.105529785,-0.2468872,-0.06738281,0.07324219,0.091796875,9.347566,0.5777674,-54.7591,-13.189861,-0.5848999,-0.027648926,0.80804443,0.0078125,-0.030273438,0.0,13.709203,0.4194197,-126.67233,-9.49683,0.0,0.0,0.0,0.0,0.0,0.0,0.0,-14.523538,-126.813416,-22.788692,0.0,0.0,0.0,0.0,0.0,0.0,0.0,-0.42384785,-0.066712186,0.90335995,-0.8988037,-0.072265625,-0.39141846,-0.04296875,-0.08105469,0.078125,5.6255965,-8.774965,-1.3811492,18.702353,0.7930298,-0.13909912,-0.62597656,-0.0390625,0.11425781,0.06542969,18.781553,-0.22336674,-57.542896,13.941725,-0.74505615,0.06640625,0.6555786,-0.055664062,-0.06542969,-0.034179688,8.300282,28.982159,-121.064804,-3.3063107,0.0,0.0,0.0,0.0,0.0,0.0,0.0,13.958071,-125.1469,-15.861799,0.0,0.0,0.0,0.0,0.0,0.0,0.0,-7.9935255,44.28533,-0.4800601,
0.6249999906867744,32,-0.04724121,0.7468262,0.57696533,0.036132812,-0.033203125,0.046875,0.0,0.0,0.0,0.0,0.0,0.0,0.0,0.0,0.0,0.0,0.0,0.4231031,0.06639985,-0.9037078,-0.97210693,-0.06726074,0.16241455,-0.00390625,0.0029296875,0.052734375,19.205433,8.759546,1.3746827,-18.709553,0.98480225,-0.1038208,-0.23297119,-0.009765625,0.11035156,0.09277344,9.327274,0.4965353,-54.76014,-13.214441,-0.59069824,-0.015563965,0.80114746,0.026367188,0.0048828125,0.0,13.750628,0.22988188,-126.67609,-9.536048,0.0,0.0,0.0,0.0,0.0,0.0,0.0,-14.712251,-126.8096,-22.827972,0.0,0.0,0.0,0.0,0.0,0.0,0.0,-0.4231031,-0.06639985,0.9037078,-0.9170532,-0.08117676,-0.41503906,0.034179688,-0.043945312,0.09765625,5.753228,-8.759546,-1.3746827,18.709553,0.80407715,-0.13824463,-0.6173096,-0.05859375,0.095703125,0.103515625,18.707937,-0.33171463,-57.54262,13.860125,-0.7522583,0.0546875,0.6437988,-0.055664062,-0.045898438,-0.0146484375,8.381104,28.650934,-121.1454,-3.4639797,0.0,0.0,0.0,0.0,0.0,0.0,0.0,13.611186,-125.23361,-15.998323,0.0,0.0,0.0,0.0,0.0,0.0,0.0,-7.9885063,44.285168,-0.4862553,
0.6445312403957361,33,-0.058288574,0.77697754,0.59039307,0.0390625,0.061523438,0.029296875,0.0,0.0,0.0,0.0,0.0,0.0,0.0,0.0,0.0,0.0,0.0,0.42174664,0.065855056,-0.90427154,-0.9875488,-0.08758545,0.16900635,-0.09765625,0.021484375,0.072265625,19.24157,8.731463,1.3634038,-18.721224,0.97436523,-0.0769043,-0.23675537,-0.0107421875,0.091796875,0.07421875,9.294747,0.3943119,-54.760113,-13.223715,-0.5767822,-0.020141602,0.8377075,0.044921875,-0.032226562,9.765625E-4,13.745813,-0.0014320612,-126.67767,-9.513033,0.0,0.0,0.0,0.0,0.0,0.0,0.0,-14.951847,-126.804504,-22.795527,0.0,0.0,0.0,0.0,0.0,0.0,0.0,-0.42174664,-0.065855056,0.90427154,-0.89123535,-0.10809326,-0.4555664,-0.0048828125,-0.1015625,0.09863281,5.7985315,-8.731463,-1.3634038,18.721224,0.79107666,-0.1340332,-0.625,-0.15527344,0.11621094,0.123046875,18.72853,-0.44295788,-57.55181,13.856856,-0.7543335,0.078430176,0.6743164,-0.036132812,-0.02734375,-0.0146484375,8.544265,28.369831,-121.210365,-3.5476255,0.0,0.0,0.0,0.0,0.0,0.0,0.0,13.314993,-125.30692,-16.061565,0.0,0.0,0.0,0.0,0.0,0.0,0.0,-7.9576445,44.28618,-0.4861828,
0.6640624901046978,34,-0.07159424,0.7662964,0.5708008,0.016601562,-0.013671875,0.06542969,0.0,0.0,0.0,0.0,0.0,0.0,0.0,0.0,0.0,0.0,0.0,0.41941902,0.06552869,-0.90541303,-0.9916382,-0.070373535,0.1932373,-0.022460938,0.09863281,0.015625,19.272034,8.683274,1.356647,-18.744856,0.98895264,-0.10308838,-0.20306396,-0.01171875,0.07324219,0.0546875,9.182068,0.27607632,-54.753014,-13.210941,-0.5866089,-0.01184082,0.80804443,0.026367188,-0.03125,9.765625E-4,13.959839,-0.34797257,-126.6663,-9.420871,0.0,0.0,0.0,0.0,0.0,0.0,0.0,-15.299114,-126.78804,-22.704296,0.0,0.0,0.0,0.0,0.0,0.0,0.0,-0.41941902,-0.06552869,0.90541303,-0.8586426,-0.076171875,-0.46514893,-0.00390625,-0.00390625,0.057617188,5.744876,-8.683274,-1.356647,18.744856,0.7848511,-0.109069824,-0.65167236,0.09667969,0.056640625,0.064453125,18.83385,-0.46620655,-57.562275,13.906911,-0.7442627,0.034484863,0.6526489,-0.018554688,-0.06640625,0.059570312,8.517237,28.365444,-121.20059,-3.5220575,0.0,0.0,0.0,0.0,0.0,0.0,0.0,13.325432,-125.31695,-16.045935,0.0,0.0,0.0,0.0,0.0,0.0,0.0,-7.9122105,44.296093,-0.4593116,
0.6835937398136595,35,-0.08892822,0.73876953,0.54815674,0.09667969,0.022460938,0.045898438,0.0,0.0,0.0,0.0,0.0,0.0,0.0,0.0,0.0,0.0,0.0,0.41745785,0.06534445,-0.90641606,-0.99298096,-0.09197998,0.20477295,-0.060546875,-0.09277344,0.051757812,19.403921,8.642672,1.3528327,-18.765623,0.98828125,-0.09436035,-0.18310547,0.0078125,0.07324219,0.055664062,9.255251,0.05878353,-54.718826,-13.193244,-0.5767822,-0.023925781,0.80999756,0.0068359375,-0.0126953125,0.018554688,14.171391,-0.6989276,-126.62459,-9.357513,0.0,0.0,0.0,0.0,0.0,0.0,0.0,-15.645875,-126.739716,-22.646233,0.0,0.0,0.0,0.0,0.0,0.0,0.0,-0.41745785,-0.06534445,0.90641606,-0.8466797,-0.08258057,-0.4524536,-0.041992188,-0.001953125,-0.0029296875,5.6673527,-8.642672,-1.3528327,18.765623,0.8027344,-0.107299805,-0.657959,0.17382812,0.07421875,0.0625,18.904621,-0.4560833,-57.56337,13.955016,-0.7524414,0.027648926,0.6487427,9.765625E-4,-0.06738281,0.059570312,8.238427,28.441935,-121.18828,-3.4281015,0.0,0.0,0.0,0.0,0.0,0.0,0.0,13.412561,-125.32052,-15.96103,0.0,0.0,0.0,0.0,0.0,0.0,0.0,-7.8608494,44.30904,-0.4260999,
0.7031249895226211,36,-0.08843994,0.73999023,0.5859375,0.017578125,0.025390625,0.083984375,0.0,0.0,0.0,0.0,0.0,0.0,0.0,0.0,0.0,0.0,0.0,0.41763887,0.06528036,-0.9062652,-0.9876709,-0.09741211,0.17681885,-0.022460938,-0.091796875,0.032226562,19.569357,8.64642,1.3515059,-18.762499,0.9845581,-0.08239746,-0.18304443,-0.03125,0.07421875,0.03515625,9.321542,-0.110219955,-54.687748,-13.119183,-0.5689087,-0.03491211,0.7863159,0.0068359375,-0.0126953125,0.018554688,14.326153,-1.0053966,-126.587524,-9.201751,0.0,0.0,0.0,0.0,0.0,0.0,0.0,-15.953189,-126.70063,-22.489822,0.0,0.0,0.0,0.0,0.0,0.0,0.0,-0.41763887,-0.06528036,0.9062652,-0.84472656,-0.08343506,-0.45733643,-0.080078125,-0.040039062,-0.0029296875,5.6553392,-8.64642,-1.3515059,18.762499,0.77459717,-0.10595703,-0.67523193,-0.15429688,0.060546875,0.12402344,18.966429,-0.48561668,-57.566845,13.958478,-0.72766113,0.06304932,0.65649414,0.01953125,-0.06738281,0.059570312,8.162241,28.536177,-121.17656,-3.2923498,0.0,0.0,0.0,0.0,0.0,0.0,0.0,13.523367,-125.31195,-15.843899,0.0,0.0,0.0,0.0,0.0,0.0,0.0,-7.8402004,44.309753,-0.4213065,
0.7226562392315828,37,-0.058288574,0.7331543,0.5731201,-0.001953125,0.0068359375,0.08496094,0.0,0.0,0.0,0.0,0.0,0.0,0.0,0.0,0.0,0.0,0.0,0.41766673,0.06437981,-0.90634,-0.99005127,-0.12200928,0.19335938,0.0146484375,0.0029296875,0.052734375,19.657393,8.646995,1.3328617,-18.764048,0.99523926,-0.09454346,-0.20806885,-0.049804688,0.07421875,0.053710938,9.3920355,-0.2198658,-54.68934,-13.078269,-0.5666504,-0.0154418945,0.8218384,0.0068359375,-0.03125,-0.018554688,14.464715,-1.1755548,-126.58844,-9.1476755,0.0,0.0,0.0,0.0,0.0,0.0,0.0,-16.118525,-126.698135,-22.439445,0.0,0.0,0.0,0.0,0.0,0.0,0.0,-0.41766673,-0.06437981,0.90634,-0.88812256,-0.10095215,-0.47021484,-0.00390625,0.0546875,0.016601562,5.6558595,-8.646995,-1.3328617,18.764048,0.77423096,-0.16082764,-0.6688843,-0.19433594,0.13476562,0.06640625,18.94012,-0.47533607,-57.546844,13.997017,-0.7368164,0.092041016,0.6742554,-0.018554688,-0.06640625,0.041015625,8.24836,28.501379,-121.17282,-3.2523804,0.0,0.0,0.0,0.0,0.0,0.0,0.0,13.479553,-125.30013,-15.795784,0.0,0.0,0.0,0.0,0.0,0.0,0.0,-7.825532,44.312943,-0.4585538,
0.7421874889405445,38,-0.07745361,0.7526245,0.5807495,-0.021484375,0.0068359375,0.06640625,0.0,0.0,0.0,0.0,0.0,0.0,0.0,0.0,0.0,0.0,0.0,0.41660103,0.06410608,-0.90686095,-0.99957275,-0.06604004,0.17034912,0.09082031,-0.12988281,0.0126953125,19.81579,8.624933,1.3271943,-18.774834,0.9857178,-0.10882568,-0.2210083,-0.087890625,0.036132812,0.052734375,9.5564165,-0.4218359,-54.656292,-13.040601,-0.5734253,-0.002380371,0.8099365,0.026367188,-0.013671875,-0.018554688,14.533912,-1.4163797,-126.556564,-9.120343,0.0,0.0,0.0,0.0,0.0,0.0,0.0,-16.363352,-126.65251,-22.407902,0.0,0.0,0.0,0.0,0.0,0.0,0.0,-0.41660103,-0.06410608,0.90686095,-0.8759155,-0.08782959,-0.4553833,0.072265625,0.013671875,0.07714844,5.598392,-8.624933,-1.3271943,18.774834,0.78027344,-0.20178223,-0.6470337,-0.1171875,0.13378906,0.08496094,18.944435,-0.48983574,-57.551514,14.055412,-0.7614136,0.0925293,0.6743164,-0.018554688,-0.08496094,0.00390625,8.361822,28.32158,-121.20696,-3.3658237,0.0,0.0,0.0,0.0,0.0,0.0,0.0,13.281942,-125.31439,-15.896134,0.0,0.0,0.0,0.0,0.0,0.0,0.0,-7.7965965,44.318607,-0.44877732,
0.7617187386495062,39,-0.08856201,0.7559204,0.58410645,0.037109375,0.0048828125,0.046875,0.0,0.0,0.0,0.0,0.0,0.0,0.0,0.0,0.0,0.0,0.0,0.41589898,0.064273775,-0.9073599,-0.99053955,-0.07977295,0.17016602,0.0146484375,-0.03515625,0.033203125,19.908546,8.610397,1.3306663,-18.785164,0.9951782,-0.09442139,-0.23101807,-0.08691406,0.07421875,0.052734375,9.641084,-0.55571747,-54.63917,-13.0743885,-0.5755005,-0.0072631836,0.81292725,0.026367188,-0.03125,0.01953125,14.572117,-1.5733595,-126.53458,-9.124283,0.0,0.0,0.0,0.0,0.0,0.0,0.0,-16.524288,-126.621414,-22.409119,0.0,0.0,0.0,0.0,0.0,0.0,0.0,-0.41589898,-0.064273775,0.9073599,-0.8656616,-0.07165527,-0.48376465,-0.041992188,-0.0029296875,0.078125,5.641599,-8.610397,-1.3306663,18.785164,0.7526245,-0.16247559,-0.65167236,0.13476562,0.09277344,0.043945312,18.906298,-0.534955,-57.557247,14.0005455,-0.75738525,0.062683105,0.65460205,-0.037109375,-0.08496094,-0.015625,8.2834215,28.151718,-121.24252,-3.5031586,0.0,0.0,0.0,0.0,0.0,0.0,0.0,13.110043,-125.33474,-16.034597,0.0,0.0,0.0,0.0,0.0,0.0,0.0,-7.776824,44.33014,-0.4244269,
0.7812499883584679,40,-0.09051514,0.76989746,0.5922241,-0.0029296875,-0.0126953125,0.047851562,0.0,0.0,0.0,0.0,0.0,0.0,0.0,0.0,0.0,0.0,0.0,0.41560125,0.06438984,-0.90758246,-0.9694214,-0.088134766,0.18792725,0.0146484375,-0.053710938,0.013671875,20.013237,8.604235,1.3330693,-18.78977,0.9589844,-0.0871582,-0.2177124,-0.08691406,0.07421875,0.052734375,9.760639,-0.6802292,-54.616833,-13.06511,-0.5745239,-0.010192871,0.8079834,0.0068359375,-0.03125,-0.018554688,14.682468,-1.7094586,-126.516464,-9.151646,0.0,0.0,0.0,0.0,0.0,0.0,0.0,-16.654613,-126.596535,-22.44165,0.0,0.0,0.0,0.0,0.0,0.0,0.0,-0.41560125,-0.06438984,0.90758246,-0.8821411,-0.10461426,-0.48498535,-0.00390625,0.0546875,0.09863281,5.6909575,-8.604235,-1.3330693,18.78977,0.7654419,-0.10876465,-0.6217041,0.19238281,0.091796875,0.024414062,18.84337,-0.5418577,-57.55862,13.929731,-0.74938965,0.03845215,0.6624756,-0.018554688,-0.10449219,-0.015625,7.9568014,28.104942,-121.2641,-3.560152,0.0,0.0,0.0,0.0,0.0,0.0,0.0,13.056597,-125.343605,-16.089424,0.0,0.0,0.0,0.0,0.0,0.0,0.0,-7.760501,44.33706,-0.40813637,
0.8007812380674296,41,-0.07989502,0.767395,0.55511475,0.017578125,0.0048828125,0.029296875,0.0,0.0,0.0,0.0,0.0,0.0,0.0,0.0,0.0,0.0,0.0,0.4132432,0.06443146,-0.908537,-0.9824219,-0.08465576,0.1651001,0.015625,0.041015625,0.052734375,20.042982,8.555415,1.3339309,-18.809532,0.98431396,-0.084228516,-0.22888184,0.044921875,0.052734375,0.056640625,9.803955,-0.8069315,-54.60618,-13.107977,-0.57092285,-0.030090332,0.8258667,0.0068359375,0.0234375,-0.018554688,14.685028,-1.8707625,-126.50374,-9.196039,0.0,0.0,0.0,0.0,0.0,0.0,0.0,-16.817602,-126.57976,-22.484768,0.0,0.0,0.0,0.0,0.0,0.0,0.0,-0.4132432,-0.06443146,0.908537,-0.8717041,-0.073791504,-0.47198486,0.034179688,0.034179688,0.057617188,5.6233664,-8.555415,-1.3339309,18.809532,0.7836304,-0.074035645,-0.61932373,0.018554688,0.11328125,0.045898438,18.75865,-0.47682858,-57.556694,13.941423,-0.78100586,0.07098389,0.6665039,-0.01953125,-0.123046875,0.00390625,7.793619,28.170147,-121.30657,-3.4041061,0.0,0.0,0.0,0.0,0.0,0.0,0.0,13.11561,-125.37708,-15.927498,0.0,0.0,0.0,0.0,0.0,0.0,0.0,-7.715092,44.340443,-0.36464095,
0.8203124877763913,42,-0.07244873,0.73254395,0.5745239,-0.061523438,0.0078125,0.0859375,0.0,0.0,0.0,0.0,0.0,0.0,0.0,0.0,0.0,0.0,0.0,0.4121476,0.064210586,-0.90900683,-0.98443604,-0.07507324,0.1762085,0.034179688,0.0029296875,0.033203125,20.10479,8.532733,1.3293582,-18.819258,0.9827881,-0.105773926,-0.21795654,-0.048828125,0.09277344,0.07324219,9.814639,-0.91342163,-54.593655,-13.096507,-0.5604248,-0.006713867,0.80895996,0.026367188,-0.0126953125,0.01953125,14.728222,-2.0716586,-126.48927,-9.157788,0.0,0.0,0.0,0.0,0.0,0.0,0.0,-17.021816,-126.561714,-22.442959,0.0,0.0,0.0,0.0,0.0,0.0,0.0,-0.4121476,-0.064210586,0.90900683,-0.8602905,-0.12042236,-0.41436768,-0.061523438,-0.021484375,0.038085938,5.5547085,-8.532733,-1.3293582,18.819258,0.80133057,-0.10723877,-0.6164551,-0.15527344,0.13476562,0.08496094,18.691896,-0.4799366,-57.558067,14.008595,-0.7194824,0.057922363,0.6564331,-0.01953125,-0.12402344,0.059570312,7.7986546,28.080462,-121.37657,-3.2212439,0.0,0.0,0.0,0.0,0.0,0.0,0.0,13.008053,-125.42606,-15.728187,0.0,0.0,0.0,0.0,0.0,0.0,0.0,-7.690524,44.342995,-0.35460842,
0.839843737485353,43,-0.079833984,0.76342773,0.55804443,-0.001953125,0.025390625,0.06640625,0.0,0.0,0.0,0.0,0.0,0.0,0.0,0.0,0.0,0.0,0.0,0.40981653,0.06414006,-0.91013193,-0.9815674,-0.080200195,0.18908691,-0.041015625,-0.03515625,0.013671875,20.13397,8.484474,1.3278981,-18.842552,0.97717285,-0.09185791,-0.19696045,-0.01171875,0.07324219,0.0546875,9.823351,-1.036499,-54.583702,-13.117224,-0.55792236,-0.035461426,0.82489014,-0.01171875,-0.030273438,0.0,14.823269,-2.276171,-126.47321,-9.165271,0.0,0.0,0.0,0.0,0.0,0.0,0.0,-17.233007,-126.541115,-22.44165,0.0,0.0,0.0,0.0,0.0,0.0,0.0,-0.40981653,-0.06414006,0.91013193,-0.9215088,-0.115600586,-0.44476318,0.015625,0.03515625,-0.00390625,5.44766,-8.484474,-1.3278981,18.842552,0.8052368,-0.11828613,-0.61846924,-0.09667969,0.041015625,0.10449219,18.739035,-0.48429203,-57.570847,14.092944,-0.74432373,0.046142578,0.6880493,-0.018554688,-0.0859375,0.041015625,7.996154,28.00035,-121.40445,-3.1958628,0.0,0.0,0.0,0.0,0.0,0.0,0.0,12.919041,-125.44026,-15.697343,0.0,0.0,0.0,0.0,0.0,0.0,0.0,-7.6441765,44.354073,-0.31625843,
0.8593749871943147,44,-0.055419922,0.7529297,0.5682373,-0.021484375,0.026367188,0.08496094,0.0,0.0,0.0,0.0,0.0,0.0,0.0,0.0,0.0,0.0,0.0,0.40872073,0.06337893,-0.910494,-0.9949951,-0.092041016,0.20874023,0.052734375,-0.03515625,0.033203125,20.217865,8.461785,1.3121401,-18.85005,0.9892578,-0.09838867,-0.16516113,-0.01171875,0.07324219,0.0546875,9.881489,-1.1823406,-54.57303,-13.078304,-0.56134033,0.0010986328,0.8257446,0.0078125,-0.030273438,0.0,14.975268,-2.5188851,-126.46213,-9.113834,0.0,0.0,0.0,0.0,0.0,0.0,0.0,-17.483013,-126.51269,-22.382437,0.0,0.0,0.0,0.0,0.0,0.0,0.0,-0.40872073,-0.06337893,0.910494,-0.88964844,-0.06506348,-0.45422363,-0.00390625,0.03515625,0.037109375,5.446976,-8.461785,-1.3121401,18.85005,0.8049927,-0.14923096,-0.6182251,-0.078125,0.13378906,0.06542969,18.750004,-0.5360708,-57.570534,14.123093,-0.7318115,0.06011963,0.66241455,9.765625E-4,-0.06738281,0.059570312,8.0258045,27.831177,-121.44345,-3.2179165,0.0,0.0,0.0,0.0,0.0,0.0,0.0,12.744499,-125.4682,-15.718765,0.0,0.0,0.0,0.0,0.0,0.0,0.0,-7.605232,44.353054,-0.32659948,
0.8789062369032764,45,-0.059448242,0.74212646,0.56726074,0.017578125,0.025390625,0.06640625,0.0,0.0,0.0,0.0,0.0,0.0,0.0,0.0,0.0,0.0,0.0,0.40790448,0.063138485,-0.91081035,-0.9715576,-0.08734131,0.19891357,-0.041015625,-0.03515625,0.013671875,20.306812,8.444886,1.3071622,-18.856596,1.0045166,-0.090026855,-0.20117188,-0.049804688,0.0546875,0.03515625,9.936342,-1.2987022,-54.555912,-13.0651245,-0.5595703,-0.019470215,0.79315186,0.026367188,-0.0126953125,0.01953125,15.065101,-2.693199,-126.44318,-9.078068,0.0,0.0,0.0,0.0,0.0,0.0,0.0,-17.65894,-126.48693,-22.344559,0.0,0.0,0.0,0.0,0.0,0.0,0.0,-0.40790448,-0.063138485,0.91081035,-0.8736572,-0.07043457,-0.44641113,-0.080078125,-9.765625E-4,0.038085938,5.483336,-8.444886,-1.3071622,18.856596,0.8213501,-0.13745117,-0.5969238,-0.15527344,0.060546875,0.06738281,18.687325,-0.59669685,-57.56938,14.111447,-0.7441406,0.042541504,0.6437378,0.0,-0.10449219,0.022460938,8.276876,27.591501,-121.51802,-3.2723951,0.0,0.0,0.0,0.0,0.0,0.0,0.0,12.501957,-125.52825,-15.772989,0.0,0.0,0.0,0.0,0.0,0.0,0.0,-7.5923395,44.35251,-0.3256427,
0.8984374866122381,46,-0.07220459,0.7446289,0.59552,0.038085938,0.043945312,0.083984375,0.0,0.0,0.0,0.0,0.0,0.0,0.0,0.0,0.0,0.0,0.0,0.40960923,0.061420836,-0.9101425,-0.97979736,-0.1027832,0.199646,-0.060546875,0.021484375,0.052734375,20.375349,8.480182,1.2716018,-18.842772,0.965271,-0.11584473,-0.21289062,-0.03125,0.0546875,0.03515625,10.012646,-1.3691435,-54.570415,-13.004008,-0.5640259,-0.042053223,0.8031616,0.0068359375,0.005859375,0.0,15.14235,-2.8196535,-126.45462,-9.024868,0.0,0.0,0.0,0.0,0.0,0.0,0.0,-17.778852,-126.49407,-22.297268,0.0,0.0,0.0,0.0,0.0,0.0,0.0,-0.40960923,-0.061420836,0.9101425,-0.9002075,-0.09887695,-0.42401123,-0.041992188,0.055664062,0.017578125,5.6175427,-8.480182,-1.2716018,18.842772,0.8245239,-0.16149902,-0.6373291,-0.057617188,0.040039062,0.103515625,18.773396,-0.7145729,-57.547623,14.09585,-0.7501831,0.062561035,0.6516113,-0.017578125,-0.046875,0.00390625,8.360014,27.421577,-121.48167,-3.4010067,0.0,0.0,0.0,0.0,0.0,0.0,0.0,12.319448,-125.48105,-15.888871,0.0,0.0,0.0,0.0,0.0,0.0,0.0,-7.578801,44.353226,-0.41766465,
0.9179687363211998,47,-0.07861328,0.74658203,0.5708008,0.018554688,0.044921875,0.083984375,0.0,0.0,0.0,0.0,0.0,0.0,0.0,0.0,0.0,0.0,0.0,0.40869272,0.061072428,-0.9105864,-0.9837036,-0.086120605,0.19696045,-0.022460938,0.021484375,0.052734375,20.429464,8.461206,1.2643884,-18.851963,0.9923706,-0.09051514,-0.19610596,0.0068359375,0.053710938,0.036132812,10.069683,-1.4864368,-54.55905,-12.992691,-0.5569458,-0.03930664,0.8100586,0.025390625,0.0048828125,-0.037109375,15.200615,-2.9915133,-126.44517,-8.995936,0.0,0.0,0.0,0.0,0.0,0.0,0.0,-17.9539,-126.47797,-22.266354,0.0,0.0,0.0,0.0,0.0,0.0,0.0,-0.40869272,-0.061072428,0.9105864,-0.89001465,-0.08972168,-0.4475708,-0.022460938,-0.022460938,0.016601562,5.5307007,-8.461206,-1.2643884,18.851963,0.80126953,-0.15014648,-0.60040283,0.07714844,0.056640625,0.026367188,18.850157,-0.74671555,-57.555595,14.183198,-0.7337036,0.10095215,0.6781616,-0.017578125,-0.046875,0.00390625,8.336987,27.348454,-121.49368,-3.3604689,0.0,0.0,0.0,0.0,0.0,0.0,0.0,12.229973,-125.48413,-15.832249,0.0,0.0,0.0,0.0,0.0,0.0,0.0,-7.5371966,44.36076,-0.40762568,
0.9374999860301615,48,-0.10021973,0.77685547,0.5477295,-0.059570312,0.045898438,0.068359375,0.0,0.0,0.0,0.0,0.0,0.0,0.0,0.0,0.0,0.0,0.0,0.40703723,0.061141994,-0.9113503,-1.0050049,-0.07910156,0.20098877,-0.041015625,0.0029296875,0.033203125,20.447771,8.426932,1.2658287,-18.867775,1.006897,-0.1116333,-0.22320557,-0.05078125,0.055664062,0.015625,10.099639,-1.5844116,-54.546883,-12.9987755,-0.5644531,-0.010498047,0.7980957,0.0068359375,0.0048828125,-0.018554688,15.226069,-3.132853,-126.43316,-8.991897,0.0,0.0,0.0,0.0,0.0,0.0,0.0,-18.110064,-126.45658,-22.244755,0.0,0.0,0.0,0.0,0.0,0.0,0.0,-0.40703723,-0.061141994,0.9113503,-0.8708496,-0.08459473,-0.4701538,-0.022460938,0.016601562,0.037109375,5.4440255,-8.426932,-1.2658287,18.867775,0.79156494,-0.11706543,-0.60040283,0.038085938,0.057617188,0.045898438,18.892391,-0.7355795,-57.559727,14.226339,-0.7300415,0.026000977,0.6742554,-0.037109375,-0.046875,0.00390625,8.300352,27.352013,-121.49391,-3.3471985,0.0,0.0,0.0,0.0,0.0,0.0,0.0,12.21752,-125.481346,-15.800374,0.0,0.0,0.0,0.0,0.0,0.0,0.0,-7.488577,44.37048,-0.36783886,
0.9570312357391232,49,-0.087524414,0.75390625,0.58306885,0.016601562,-0.013671875,0.047851562,0.0,0.0,0.0,0.0,0.0,0.0,0.0,0.0,0.0,0.0,0.0,0.40533167,0.061118137,-0.91214156,-0.9793091,-0.074035645,0.16827393,-0.00390625,0.0029296875,0.033203125,20.447577,8.391622,1.2653348,-18.884157,0.9651489,-0.1217041,-0.21289062,-0.049804688,0.03515625,0.0546875,10.114313,-1.6724396,-54.536083,-13.033349,-0.56970215,-0.020263672,0.8208618,-0.01171875,-0.047851562,0.0,15.27249,-3.277496,-126.41995,-9.0732975,0.0,0.0,0.0,0.0,0.0,0.0,0.0,-18.2521,-126.429955,-22.329351,0.0,0.0,0.0,0.0,0.0,0.0,0.0,-0.40533167,-0.061118137,0.91214156,-0.86169434,-0.075683594,-0.44158936,0.053710938,-0.0048828125,0.056640625,5.3913245,-8.391622,-1.2653348,18.884157,0.79626465,-0.12713623,-0.6142578,-0.07714844,0.022460938,0.0859375,18.94959,-0.7557049,-57.56959,14.251327,-0.7359619,0.05114746,0.66638184,0.001953125,-0.028320312,0.022460938,8.290885,27.330832,-121.50179,-3.3296137,0.0,0.0,0.0,0.0,0.0,0.0,0.0,12.198005,-125.49436,-15.782641,0.0,0.0,0.0,0.0,0.0,0.0,0.0,-7.4403,44.380123,-0.33257866,
0.9765624854480849,50,-0.08660889,0.7657471,0.5791626,0.07714844,0.0234375,0.046875,0.0,0.0,0.0,0.0,0.0,0.0,0.0,0.0,0.0,0.0,0.0,0.40539244,0.061329447,-0.9121103,-0.98883057,-0.074645996,0.21105957,-0.00390625,0.0029296875,0.052734375,20.544584,8.39288,1.2697097,-18.88351,0.9923096,-0.0914917,-0.20404053,-0.0126953125,0.015625,0.055664062,10.173841,-1.7740526,-54.512394,-13.00816,-0.5909424,-0.02935791,0.802124,0.0068359375,-0.0126953125,0.0,15.305009,-3.4449,-126.3981,-9.0545225,0.0,0.0,0.0,0.0,0.0,0.0,0.0,-18.416178,-126.4021,-22.313576,0.0,0.0,0.0,0.0,0.0,0.0,0.0,-0.40539244,-0.061329447,0.9121103,-0.87438965,-0.04711914,-0.4393921,-0.099609375,-0.059570312,0.017578125,5.42737,-8.39288,-1.2697097,18.88351,0.8088989,-0.117370605,-0.63830566,-0.09667969,0.059570312,0.123046875,19.056326,-0.8508911,-57.584454,14.2205305,-0.71954346,0.059814453,0.66729736,-0.017578125,-0.047851562,0.059570312,8.243597,27.276169,-121.495285,-3.380025,0.0,0.0,0.0,0.0,0.0,0.0,0.0,12.140675,-125.49267,-15.828805,0.0,0.0,0.0,0.0,0.0,0.0,0.0,-7.427097,44.38286,-0.31675196,
0.9960937351570466,51,-0.07458496,0.746521,0.56970215,0.016601562,-0.013671875,0.047851562,0.0,0.0,0.0,0.0,0.0,0.0,0.0,0.0,0.0,0.0,0.0,0.40417323,0.06138783,-0.9126931,-1.0032959,-0.10083008,0.21954346,0.0146484375,-0.07324219,0.013671875,20.667141,8.367638,1.2709184,-18.895576,1.0015869,-0.12426758,-0.18432617,-0.03125,0.016601562,0.0546875,10.237255,-1.9248219,-54.481323,-12.975359,-0.5909424,-0.02746582,0.81695557,-0.01171875,0.024414062,0.018554688,15.422936,-3.6884575,-126.35836,-9.00804,0.0,0.0,0.0,0.0,0.0,0.0,0.0,-18.665298,-126.3537,-22.262077,0.0,0.0,0.0,0.0,0.0,0.0,0.0,-0.40417323,-0.06138783,0.9126931,-0.8848877,-0.08459473,-0.46124268,-0.022460938,-0.0029296875,-0.00390625,5.3281474,-8.367638,-1.2709184,18.895576,0.76898193,-0.1307373,-0.63739014,-0.0390625,0.040039062,0.046875,19.133348,-0.799139,-57.585007,14.293348,-0.7175293,0.057800293,0.6682739,0.001953125,-0.028320312,0.022460938,8.128665,27.408968,-121.45677,-3.3255558,0.0,0.0,0.0,0.0,0.0,0.0,0.0,12.279285,-125.46186,-15.779568,0.0,0.0,0.0,0.0,0.0,0.0,0.0,-7.4099627,44.387775,-0.29587054,
1.0156249848660084,52,-0.10723877,0.7591553,0.54681396,0.017578125,0.024414062,0.047851562,0.0,0.0,0.0,0.0,0.0,0.0,0.0,0.0,0.0,0.0,0.0,0.4035417,0.06187242,-0.9129598,-0.97784424,-0.10290527,0.206604,0.0146484375,-0.07324219,0.032226562,20.80833,8.354564,1.2809507,-18.9011,0.98291016,-0.10491943,-0.18206787,0.0068359375,0.03515625,0.055664062,10.327579,-2.0732813,-54.43865,-12.913235,-0.56451416,-0.012512207,0.80700684,-0.01171875,0.005859375,0.0,15.541367,-3.914204,-126.316605,-8.926609,0.0,0.0,0.0,0.0,0.0,0.0,0.0,-18.899925,-126.29505,-22.170578,0.0,0.0,0.0,0.0,0.0,0.0,0.0,-0.4035417,-0.06187242,0.9129598,-0.87194824,-0.09161377,-0.42303467,0.07324219,0.072265625,0.036132812,5.2342772,-8.354564,-1.2809507,18.9011,0.80078125,-0.12524414,-0.64398193,-0.11621094,0.059570312,0.047851562,19.141829,-0.7412281,-57.591038,14.324482,-0.7340698,0.06567383,0.7116699,0.0390625,-0.048828125,0.078125,8.065382,27.546907,-121.44411,-3.2368088,0.0,0.0,0.0,0.0,0.0,0.0,0.0,12.421467,-125.449455,-15.695544,0.0,0.0,0.0,0.0,0.0,0.0,0.0,-7.3899403,44.39218,-0.25794935,
1.03515623457497,53,-0.10095215,0.7561035,0.5625,0.016601562,-0.013671875,0.06542969,0.0,0.0,0.0,0.0,0.0,0.0,0.0,0.0,0.0,0.0,0.0,0.40132034,0.061737373,-0.9138339,-0.9798584,-0.103881836,0.206604,0.052734375,-0.12988281,0.032226562,20.933348,8.308576,1.2781551,-18.919195,0.9881592,-0.0982666,-0.18511963,-0.049804688,0.03515625,0.0546875,10.431622,-2.2699995,-54.410233,-12.856182,-0.58483887,-0.023742676,0.8179321,0.0068359375,0.0234375,0.018554688,15.594849,-4.1873865,-126.2889,-8.835884,0.0,0.0,0.0,0.0,0.0,0.0,0.0,-19.180454,-126.26002,-22.072758,0.0,0.0,0.0,0.0,0.0,0.0,0.0,-0.40132034,-0.061737373,0.9138339,-0.9083252,-0.10888672,-0.44866943,-0.041992188,-0.021484375,0.017578125,5.1588664,-8.308576,-1.2781551,18.919195,0.78082275,-0.15386963,-0.63256836,0.0,0.076171875,0.06542969,19.199703,-0.70468616,-57.58855,14.365016,-0.74212646,0.060180664,0.6762085,0.05859375,-0.049804688,0.059570312,7.9676495,27.685116,-121.41745,-3.1033869,0.0,0.0,0.0,0.0,0.0,0.0,0.0,12.565655,-125.41953,-15.568359,0.0,0.0,0.0,0.0,0.0,0.0,0.0,-7.3443594,44.395184,-0.22607923,
1.0546874842839318,54,-0.09674072,0.7680054,0.5784302,0.015625,-0.032226562,0.047851562,0.0,0.0,0.0,0.0,0.0,0.0,0.0,0.0,0.0,0.0,0.0,0.4008062,0.062250532,-0.91409665,-0.97998047,-0.109802246,0.21148682,0.052734375,-0.091796875,0.013671875,21.116747,8.297932,1.2887791,-18.924635,0.99542236,-0.08660889,-0.22497559,-0.06933594,0.036132812,0.053710938,10.586507,-2.4579191,-54.357014,-12.823414,-0.58081055,-0.021850586,0.81396484,-0.01171875,-0.030273438,0.0,15.598646,-4.407524,-126.22859,-8.772194,0.0,0.0,0.0,0.0,0.0,0.0,0.0,-19.409695,-126.19822,-21.998842,0.0,0.0,0.0,0.0,0.0,0.0,0.0,-0.4008062,-0.062250532,0.91409665,-0.9000244,-0.085632324,-0.4465332,-0.00390625,-0.00390625,0.016601562,5.060628,-8.297932,-1.2887791,18.924635,0.7911377,-0.111083984,-0.6320801,0.17382812,0.037109375,-0.01171875,19.273464,-0.708786,-57.610363,14.429077,-0.71746826,0.0657959,0.6682739,0.07714844,-0.06933594,0.078125,7.8749948,27.764223,-121.420975,-2.960207,0.0,0.0,0.0,0.0,0.0,0.0,0.0,12.665417,-125.40859,-15.455591,0.0,0.0,0.0,0.0,0.0,0.0,0.0,-7.331793,44.40042,-0.19109368,
1.0742187339928935,55,-0.09881592,0.77001953,0.5745239,0.016601562,-0.013671875,0.047851562,0.0,0.0,0.0,0.0,0.0,0.0,0.0,0.0,0.0,0.0,0.0,0.40087935,0.06257911,-0.91406333,-0.98358154,-0.08496094,0.1829834,0.034179688,-0.03515625,0.033203125,21.194973,8.299445,1.2955816,-18.923943,0.9780884,-0.09082031,-0.22088623,-0.01171875,0.03515625,0.055664062,10.68115,-2.5563498,-54.32875,-12.816361,-0.5909424,-0.026550293,0.8218994,0.0068359375,0.0048828125,-0.018554688,15.57919,-4.516022,-126.20014,-8.772088,0.0,0.0,0.0,0.0,0.0,0.0,0.0,-19.522295,-126.16635,-21.992756,0.0,0.0,0.0,0.0,0.0,0.0,0.0,-0.40087935,-0.06257911,0.91406333,-0.88842773,-0.121276855,-0.43695068,0.03515625,-0.0048828125,-0.024414062,4.9150596,-8.299445,-1.2955816,18.923943,0.8145752,-0.051574707,-0.6279907,0.19238281,0.0546875,-0.0126953125,19.30549,-0.69648504,-57.62073,14.530834,-0.7381592,0.036193848,0.6703491,0.17285156,-0.033203125,0.13378906,7.5633802,27.883327,-121.44229,-2.6625557,0.0,0.0,0.0,0.0,0.0,0.0,0.0,12.772074,-125.38251,-15.158932,0.0,0.0,0.0,0.0,0.0,0.0,0.0,-7.305729,44.40571,-0.16393435,
1.0937499837018552,56,-0.082458496,0.74975586,0.58184814,-0.0234375,-0.05078125,0.06640625,0.0,0.0,0.0,0.0,0.0,0.0,0.0,0.0,0.0,0.0,0.0,0.40085638,0.062415782,-0.9139739,-0.97161865,-0.09515381,0.20178223,0.052734375,-0.015625,0.013671875,21.20456,8.29897,1.2922003,-18.922096,0.9871216,-0.09613037,-0.21398926,-0.08886719,0.036132812,0.034179688,10.738102,-2.6068592,-54.321796,-12.795127,-0.57733154,-0.048706055,0.84173584,-0.0126953125,0.078125,0.017578125,15.566634,-4.560109,-126.19464,-8.739133,0.0,0.0,0.0,0.0,0.0,0.0,0.0,-19.562325,-126.169235,-21.964836,0.0,0.0,0.0,0.0,0.0,0.0,0.0,-0.40085638,-0.062415782,0.9139739,-0.8869629,-0.16204834,-0.4107666,-0.022460938,-0.08105469,-0.06542969,4.7456136,-8.29897,-1.2922003,18.922096,0.7920532,-0.006286621,-0.6258545,-0.13671875,0.115234375,-0.028320312,19.289658,-0.6856899,-57.629906,14.673672,-0.7616577,0.0703125,0.704834,0.17382812,0.0234375,0.171875,7.4185457,27.985134,-121.49861,-2.1793404,0.0,0.0,0.0,0.0,0.0,0.0,0.0,12.8376875,-125.35037,-14.657677,0.0,0.0,0.0,0.0,0.0,0.0,0.0,-7.265531,44.40773,-0.15393353,
1.1132812334108169,57,-0.05645752,0.76885986,0.57141113,-0.024414062,-0.06933594,0.08496094,0.0,0.0,0.0,0.0,0.0,0.0,0.0,0.0,0.0,0.0,0.0,0.40027186,0.06177918,-0.91424966,-0.9794922,-0.062927246,0.20129395,0.052734375,-0.053710938,0.013671875,21.214104,8.286867,1.2790205,-18.927803,0.979126,-0.13018799,-0.20306396,-0.087890625,0.017578125,0.053710938,10.795139,-2.683465,-54.32118,-12.80134,-0.5739746,-0.032043457,0.8317871,0.0068359375,0.041992188,0.0,15.56572,-4.656335,-126.1944,-8.781034,0.0,0.0,0.0,0.0,0.0,0.0,0.0,-19.665203,-126.16211,-21.9972,0.0,0.0,0.0,0.0,0.0,0.0,0.0,-0.40027186,-0.06177918,0.91424966,-0.90667725,-0.13275146,-0.43408203,0.111328125,-0.14355469,-0.107421875,4.4763656,-8.286867,-1.2790205,18.927803,0.83862305,-0.08270264,-0.536438,-0.8515625,0.18261719,0.16796875,19.240847,-0.71864176,-57.640102,14.971931,-0.7317505,0.095825195,0.69091797,0.19335938,0.061523438,0.15332031,8.215588,27.800575,-121.64729,-1.620369,0.0,0.0,0.0,0.0,0.0,0.0,0.0,12.611958,-125.400696,-14.0819645,0.0,0.0,0.0,0.0,0.0,0.0,0.0,-7.2237387,44.413532,-0.16147375,
1.1328124831197786,58,-0.05847168,0.7729492,0.5734863,-0.0048828125,-0.087890625,0.10253906,0.0,0.0,0.0,0.0,0.0,0.0,0.0,0.0,0.0,0.0,0.0,0.39987496,0.05931602,-0.91469264,-0.9867554,-0.072753906,0.21307373,0.0146484375,-0.091796875,0.013671875,21.310705,8.278651,1.2280256,-18.936974,0.9907837,-0.0748291,-0.19299316,-0.0126953125,-0.0029296875,0.055664062,10.890377,-2.8343306,-54.342022,-12.7973995,-0.5740967,-0.037963867,0.83477783,0.0068359375,0.005859375,0.018554688,15.720235,-4.8646016,-126.2094,-8.752917,0.0,0.0,0.0,0.0,0.0,0.0,0.0,-19.874289,-126.17971,-21.969952,0.0,0.0,0.0,0.0,0.0,0.0,0.0,-0.39987496,-0.05931602,0.91469264,-0.9135132,-0.11804199,-0.43103027,0.111328125,-0.06542969,-0.107421875,4.336167,-8.278651,-1.2280256,18.936974,0.88500977,-0.21911621,-0.5601196,-0.61816406,0.123046875,0.22265625,19.13738,-0.7308531,-57.615345,15.280687,-0.7091675,0.11804199,0.72631836,0.09863281,0.1015625,0.13476562,9.69844,27.218254,-121.78032,-1.6562824,0.0,0.0,0.0,0.0,0.0,0.0,0.0,12.00074,-125.45793,-14.10287,0.0,0.0,0.0,0.0,0.0,0.0,0.0,-7.218665,44.41823,-0.2753396,
1.1523437328287403,59,-0.07232666,0.77941895,0.59576416,0.034179688,-0.08886719,0.1015625,0.0,0.0,0.0,0.0,0.0,0.0,0.0,0.0,0.0,0.0,0.0,0.39750066,0.056871243,-0.915797,-0.98480225,-0.088256836,0.20684814,0.034179688,-0.053710938,-0.0048828125,21.413805,8.229496,1.177411,-18.959835,0.9918213,-0.0748291,-0.19799805,0.005859375,0.016601562,0.017578125,11.031212,-3.0421534,-54.359947,-12.803821,-0.5852661,-0.04827881,0.8071289,0.0068359375,0.0234375,0.0,15.784718,-5.0967674,-126.230835,-8.750639,0.0,0.0,0.0,0.0,0.0,0.0,0.0,-20.10742,-126.20217,-21.96548,0.0,0.0,0.0,0.0,0.0,0.0,0.0,-0.39750066,-0.056871243,0.915797,-0.94207764,-0.078125,-0.40124512,-0.060546875,-0.099609375,-0.10546875,4.351767,-8.229496,-1.177411,18.959835,0.86016846,-0.18383789,-0.57470703,0.27148438,-0.001953125,0.10058594,19.203928,-0.82442427,-57.5911,15.449298,-0.71765137,0.062438965,0.7076416,0.15722656,0.17675781,0.15332031,10.415048,26.566536,-121.83887,-2.0656862,0.0,0.0,0.0,0.0,0.0,0.0,0.0,11.318262,-125.454926,-14.494288,0.0,0.0,0.0,0.0,0.0,0.0,0.0,-7.1964912,44.41763,-0.36528182,
1.171874982537702,60,-0.0625,0.7630615,0.56951904,0.053710938,-0.08984375,0.10058594,0.0,0.0,0.0,0.0,0.0,0.0,0.0,0.0,0.0,0.0,0.0,0.39634654,0.054015655,-0.9165257,-0.9686279,-0.085632324,0.21289062,-0.041015625,0.0029296875,0.033203125,21.391401,8.205603,1.1182916,-18.974924,0.9663086,-0.07965088,-0.20977783,-0.032226562,0.036132812,0.016601562,11.121744,-3.1350298,-54.407864,-12.816571,-0.5689087,-0.030151367,0.8199463,0.0068359375,0.0048828125,-0.018554688,15.734271,-5.156194,-126.27994,-8.749325,0.0,0.0,0.0,0.0,0.0,0.0,0.0,-20.165085,-126.24774,-21.968048,0.0,0.0,0.0,0.0,0.0,0.0,0.0,-0.39634654,-0.054015655,0.9165257,-0.93634033,-0.09686279,-0.35913086,-0.00390625,-0.3154297,-0.10644531,4.368612,-8.205603,-1.1182916,18.974924,0.83380127,-0.06378174,-0.5996704,0.19433594,-9.765625E-4,0.12011719,19.607586,-1.1463785,-57.592754,15.726511,-0.7234497,0.09082031,0.6732178,0.15917969,0.23339844,0.13476562,10.236564,26.055355,-121.86998,-1.9930325,0.0,0.0,0.0,0.0,0.0,0.0,0.0,10.805231,-125.46332,-14.424234,0.0,0.0,0.0,0.0,0.0,0.0,0.0,-7.154291,44.42573,-0.47559345,
1.1914062322466636,61,-0.039367676,0.7484741,0.5618286,0.072265625,-0.12792969,0.11816406,0.0,0.0,0.0,0.0,0.0,0.0,0.0,0.0,0.0,0.0,0.0,0.3933095,0.05093647,-0.9179893,-0.96539307,-0.09106445,0.18591309,-0.09765625,0.060546875,0.0146484375,21.31217,8.142727,1.0545429,-19.005224,0.98651123,-0.082458496,-0.19799805,-0.049804688,0.03515625,0.0546875,11.166889,-3.220954,-54.45793,-12.798445,-0.56225586,-0.048217773,0.8407593,0.026367188,0.0048828125,0.0,15.627933,-5.225244,-126.32356,-8.708009,0.0,0.0,0.0,0.0,0.0,0.0,0.0,-20.235802,-126.287285,-21.925495,0.0,0.0,0.0,0.0,0.0,0.0,0.0,-0.3933095,-0.05093647,0.9179893,-0.92059326,-0.044433594,-0.31256104,0.052734375,-0.3173828,-0.045898438,4.4613757,-8.142727,-1.0545429,19.005224,0.78552246,-0.11401367,-0.6062622,-0.59765625,0.01171875,0.22363281,20.225266,-1.6061802,-57.602383,16.03136,-0.74383545,0.12207031,0.6890259,0.13964844,0.234375,0.13476562,10.509233,25.627558,-121.87138,-1.6825333,0.0,0.0,0.0,0.0,0.0,0.0,0.0,10.385254,-125.44517,-14.130961,0.0,0.0,0.0,0.0,0.0,0.0,0.0,-7.086711,44.434616,-0.5707346,
1.2109374819556253,62,-0.059020996,0.758728,0.52960205,0.072265625,-0.12695312,0.13671875,0.0,0.0,0.0,0.0,0.0,0.0,0.0,0.0,0.0,0.0,0.0,0.39118618,0.04653677,-0.91916746,-0.96655273,-0.0836792,0.20996094,-0.19140625,0.15527344,-0.0029296875,21.122927,8.098767,0.9634554,-19.029615,0.9890747,-0.09918213,-0.20507812,-0.068359375,0.0546875,0.072265625,11.086617,-3.1981392,-54.564884,-12.8116665,-0.5588379,-0.030395508,0.8129883,0.0068359375,0.005859375,0.0,15.688301,-5.220608,-126.43057,-8.709012,0.0,0.0,0.0,0.0,0.0,0.0,0.0,-20.234467,-126.38837,-21.922203,0.0,0.0,0.0,0.0,0.0,0.0,0.0,-0.39118618,-0.04653677,0.91916746,-0.8638916,-0.016418457,-0.4215088,0.091796875,-0.123046875,-0.0048828125,4.697612,-8.098767,-0.9634554,19.029615,0.7683716,-0.20166016,-0.6448364,-0.7519531,-0.00390625,0.26367188,20.763369,-1.9120636,-57.564133,16.184664,-0.75665283,0.026550293,0.66741943,0.1015625,0.19726562,0.059570312,11.370196,25.357424,-121.73913,-1.8071861,0.0,0.0,0.0,0.0,0.0,0.0,0.0,10.131313,-125.30632,-14.275846,0.0,0.0,0.0,0.0,0.0,0.0,0.0,-7.0325027,44.442276,-0.7428659,
1.230468731664587,63,-0.023498535,0.7648926,0.5446167,0.091796875,-0.12695312,0.19140625,0.0,0.0,0.0,0.0,0.0,0.0,0.0,0.0,0.0,0.0,0.0,0.3899641,0.04141774,-0.9198714,-0.9909668,-0.0892334,0.21282959,-0.09765625,0.1171875,-0.00390625,20.960363,8.073465,0.8574755,-19.044191,0.9729004,-0.09954834,-0.19494629,-0.08691406,0.036132812,0.072265625,11.025873,-3.1714935,-54.6773,-12.781248,-0.586792,-0.020690918,0.815979,0.026367188,0.0048828125,0.01953125,15.808039,-5.2368917,-126.54521,-8.719953,0.0,0.0,0.0,0.0,0.0,0.0,0.0,-20.251507,-126.4959,-21.930912,0.0,0.0,0.0,0.0,0.0,0.0,0.0,-0.3899641,-0.04141774,0.9198714,-0.8407593,-0.01361084,-0.4755249,0.034179688,-0.043945312,-0.00390625,4.9655814,-8.073465,-0.8574755,19.044191,0.7636719,-0.24249268,-0.66815186,-0.07714844,0.041015625,0.123046875,20.970053,-1.908319,-57.450306,16.132841,-0.76416016,0.1159668,0.63098145,0.0625,0.14160156,0.0029296875,11.691436,25.380884,-121.49333,-2.2730293,0.0,0.0,0.0,0.0,0.0,0.0,0.0,10.181377,-125.06857,-14.773649,0.0,0.0,0.0,0.0,0.0,0.0,0.0,-6.9908743,44.44211,-0.9626335,
1.2499999813735487,64,-0.026672363,0.7628784,0.5317383,0.053710938,-0.08886719,0.119140625,0.0,0.0,0.0,0.0,0.0,0.0,0.0,0.0,0.0,0.0,0.0,0.3844038,0.029073454,-0.9176803,-0.9841919,-0.11767578,0.22027588,-0.07910156,0.1171875,0.034179688,19.711006,7.9583497,0.60191053,-18.998829,0.982605,-0.11364746,-0.19708252,-0.05078125,0.016601562,0.03515625,10.931406,-3.2147088,-54.938263,-12.70237,-0.5817261,-0.019836426,0.80804443,0.0068359375,0.005859375,0.0,15.9090185,-5.3356924,-126.80429,-8.669886,0.0,0.0,0.0,0.0,0.0,0.0,0.0,-20.346016,-126.745636,-21.885292,0.0,0.0,0.0,0.0,0.0,0.0,0.0,-0.3844038,-0.029073454,0.9176803,-0.8320923,-0.041625977,-0.4570923,-0.2529297,-0.09375,0.01953125,4.845856,-7.9583497,-0.60191053,18.998829,0.7432251,-0.19830322,-0.66308594,0.040039062,-0.053710938,0.06640625,20.976759,-1.7358146,-57.179432,15.851789,-0.7333374,0.119384766,0.6268921,0.022460938,0.06640625,-0.015625,11.446784,25.701323,-121.11192,-2.7220287,0.0,0.0,0.0,0.0,0.0,0.0,0.0,10.522564,-124.69874,-15.241893,0.0,0.0,0.0,0.0,0.0,0.0,0.0,-6.0531774,44.36607,-1.1300118,
1.2695312310825104,65,-0.03656006,0.7632446,0.5489502,0.055664062,-0.0146484375,0.064453125,0.0,0.0,0.0,0.0,0.0,0.0,0.0,0.0,0.0,0.0,0.0,0.38587952,0.024435233,-0.9207564,-0.99591064,-0.09173584,0.1918335,0.015625,0.060546875,0.034179688,19.35766,7.988903,0.50588506,-19.062513,0.98565674,-0.07348633,-0.22686768,-0.05078125,0.016601562,0.03515625,10.936177,-3.1804962,-55.03229,-12.725992,-0.57281494,-0.026977539,0.80511475,-0.01171875,-0.01171875,0.018554688,15.874297,-5.3050256,-126.90227,-8.687362,0.0,0.0,0.0,0.0,0.0,0.0,0.0,-20.324232,-126.83399,-21.892502,0.0,0.0,0.0,0.0,0.0,0.0,0.0,-0.38587952,-0.024435233,0.9207564,-0.86083984,-0.085998535,-0.4613037,-0.1953125,0.021484375,0.0390625,5.092661,-7.988903,-0.50588506,19.062513,0.75982666,-0.19360352,-0.6842041,-0.056640625,-0.052734375,0.0859375,21.015038,-1.737402,-57.067966,15.716317,-0.74261475,0.11260986,0.625,0.00390625,0.047851562,-0.052734375,11.156339,25.897963,-120.89427,-2.9232588,0.0,0.0,0.0,0.0,0.0,0.0,0.0,10.729771,-124.484886,-15.454965,0.0,0.0,0.0,0.0,0.0,0.0,0.0,-5.815339,44.543507,-1.2550435,
1.2890624807914721,66,-0.06652832,0.77716064,0.57769775,0.13671875,0.059570312,0.044921875,0.0,0.0,0.0,0.0,0.0,0.0,0.0,0.0,0.0,0.0,0.0,0.3860446,0.02301921,-0.92197376,-0.9875488,-0.0847168,0.17303467,0.015625,0.1171875,0.053710938,19.14767,7.992319,0.47656888,-19.087715,0.9884033,-0.08135986,-0.24285889,-0.125,0.036132812,0.07128906,10.888063,-3.1252356,-55.07554,-12.768955,-0.5862427,-0.0501709,0.7972412,0.0068359375,0.0234375,0.0,15.890732,-5.2258244,-126.94128,-8.692183,0.0,0.0,0.0,0.0,0.0,0.0,0.0,-20.239231,-126.87089,-21.904,0.0,0.0,0.0,0.0,0.0,0.0,0.0,-0.3860446,-0.02301921,0.92197376,-0.8617554,-0.079589844,-0.48382568,0.072265625,0.111328125,0.11816406,5.232218,-7.992319,-0.47656888,19.087715,0.72442627,-0.18408203,-0.6598511,0.17480469,0.0,0.026367188,21.084332,-1.6665487,-57.021862,15.576715,-0.7652588,0.09613037,0.6201782,-0.016601562,-0.028320312,-0.034179688,10.813175,26.239185,-120.71974,-3.1178684,0.0,0.0,0.0,0.0,0.0,0.0,0.0,11.104412,-124.32154,-15.685814,0.0,0.0,0.0,0.0,0.0,0.0,0.0,-5.703039,44.60979,-1.2741635,
1.3085937305004338,67,-0.07696533,0.7463989,0.5429077,0.095703125,0.001953125,-0.0087890625,0.0,0.0,0.0,0.0,0.0,0.0,0.0,0.0,0.0,0.0,0.0,0.3861743,0.022388566,-0.92211515,-0.9812012,-0.076660156,0.14929199,0.052734375,0.060546875,0.052734375,18.929577,7.9950056,0.46351278,-19.090643,0.993103,-0.092285156,-0.26287842,-0.14453125,0.037109375,0.051757812,10.897877,-3.0484438,-55.104095,-12.773623,-0.58703613,-0.035461426,0.80810547,-0.01171875,-0.0126953125,-0.018554688,15.855669,-5.049486,-126.97067,-8.729166,0.0,0.0,0.0,0.0,0.0,0.0,0.0,-20.06105,-126.89401,-21.94399,0.0,0.0,0.0,0.0,0.0,0.0,0.0,-0.3861743,-0.022388566,0.92211515,-0.8359375,-0.10430908,-0.45062256,-0.041992188,0.17285156,0.099609375,5.318098,-7.9950056,-0.46351278,19.090643,0.74090576,-0.09246826,-0.6706543,0.4638672,0.032226562,-0.052734375,20.968994,-1.4287758,-56.97241,15.41477,-0.7640991,0.13293457,0.63690186,-0.017578125,-0.06640625,-0.034179688,10.006004,26.789013,-120.5623,-3.1744156,0.0,0.0,0.0,0.0,0.0,0.0,0.0,11.671362,-124.16827,-15.76408,0.0,0.0,0.0,0.0,0.0,0.0,0.0,-5.58282,44.633095,-1.2543669,
1.3281249802093955,68,-0.075805664,0.7474365,0.5527954,0.037109375,0.0234375,0.0107421875,0.0,0.0,0.0,0.0,0.0,0.0,0.0,0.0,0.0,0.0,0.0,0.3821128,0.014817338,-0.91948724,-0.98724365,-0.05822754,0.1595459,-0.022460938,0.07910156,0.053710938,17.703577,7.910919,0.30676475,-19.036236,0.9881592,-0.1274414,-0.24102783,-0.0859375,0.0546875,0.09082031,10.835125,-3.0096207,-55.29174,-12.770893,-0.58966064,-0.0146484375,0.79815674,0.0068359375,-0.0126953125,0.018554688,15.852157,-4.934933,-127.1661,-8.795504,0.0,0.0,0.0,0.0,0.0,0.0,0.0,-19.947037,-127.08349,-22.011026,0.0,0.0,0.0,0.0,0.0,0.0,0.0,-0.3821128,-0.014817338,0.91948724,-0.8676758,-0.14831543,-0.4696045,-0.060546875,0.115234375,0.07910156,5.4399924,-7.910919,-0.30676475,19.036236,0.75201416,-0.062683105,-0.6730957,0.115234375,0.07421875,-0.030273438,20.84819,-1.1195621,-56.780647,15.2536335,-0.7408447,0.07055664,0.631897,-0.037109375,-0.06542969,-0.052734375,9.247752,27.51163,-120.28787,-2.9601803,0.0,0.0,0.0,0.0,0.0,0.0,0.0,12.410246,-123.90289,-15.566858,0.0,0.0,0.0,0.0,0.0,0.0,0.0,-4.6740866,44.551308,-1.224483,
1.3476562299183572,69,-0.072143555,0.7536011,0.60253906,-0.061523438,-0.0126953125,-0.005859375,0.0,0.0,0.0,0.0,0.0,0.0,0.0,0.0,0.0,0.0,0.0,0.38044333,0.0058351792,-0.9192989,-0.97839355,-0.07525635,0.18017578,0.015625,0.07910156,0.072265625,16.308693,7.876358,0.12080634,-19.032335,0.97052,-0.14343262,-0.22998047,0.0068359375,0.053710938,0.036132812,10.715552,-2.9386282,-55.50421,-12.82532,-0.55895996,-0.039245605,0.8031006,0.0078125,-0.030273438,0.0,15.827572,-4.9015474,-127.38589,-8.972987,0.0,0.0,0.0,0.0,0.0,0.0,0.0,-19.922882,-127.30021,-22.17522,0.0,0.0,0.0,0.0,0.0,0.0,0.0,-0.38044333,-0.0058351792,0.9192989,-0.88946533,-0.12475586,-0.49597168,0.07324219,0.15039062,0.07714844,5.8858304,-7.876358,-0.12080634,19.032335,0.7930908,-0.08123779,-0.65008545,-0.36816406,0.119140625,0.03125,20.538706,-0.8313179,-56.5629,15.267812,-0.73553467,0.10241699,0.63482666,0.0,-0.10449219,0.022460938,9.353409,27.912506,-120.134125,-2.563836,0.0,0.0,0.0,0.0,0.0,0.0,0.0,12.814116,-123.741615,-15.177037,0.0,0.0,0.0,0.0,0.0,0.0,0.0,-3.6351354,44.607227,-1.2212262,
1.367187479627319,70,-0.06732178,0.73742676,0.57836914,-0.041992188,0.0048828125,-0.041992188,0.0,0.0,0.0,0.0,0.0,0.0,0.0,0.0,0.0,0.0,0.0,0.38471094,0.0053464286,-0.92164344,-0.99468994,-0.08947754,0.17199707,0.034179688,0.0029296875,0.052734375,16.123226,7.964709,0.11068763,-19.080877,0.9937744,-0.07287598,-0.22296143,-0.01171875,0.053710938,0.0546875,10.660217,-2.8261561,-55.519337,-12.856173,-0.56463623,-0.018432617,0.8149414,0.0068359375,-0.0126953125,0.018554688,15.850696,-4.829612,-127.40158,-8.977896,0.0,0.0,0.0,0.0,0.0,0.0,0.0,-19.845896,-127.31365,-22.18681,0.0,0.0,0.0,0.0,0.0,0.0,0.0,-0.38471094,-0.0053464286,0.92164344,-0.8876953,-0.13983154,-0.44006348,0.03515625,0.07324219,0.016601562,5.9661436,-7.964709,-0.11068763,19.080877,0.7925415,-0.14910889,-0.6516113,-0.21289062,0.1171875,0.10449219,20.364027,-0.7499871,-56.54066,15.373124,-0.75439453,0.08215332,0.7038574,0.01953125,-0.0859375,0.022460938,9.562647,27.947706,-120.14469,-2.4073439,0.0,0.0,0.0,0.0,0.0,0.0,0.0,12.82317,-123.73442,-14.992807,0.0,0.0,0.0,0.0,0.0,0.0,0.0,-3.5056496,44.789665,-1.2034991,
1.3867187293362806,71,-0.07757568,0.7734375,0.5789795,-0.04296875,-0.032226562,-0.005859375,0.0,0.0,0.0,0.0,0.0,0.0,0.0,0.0,0.0,0.0,0.0,0.3859009,0.0064797364,-0.9221659,-0.9857788,-0.10913086,0.1776123,0.052734375,-0.03515625,0.051757812,16.221207,7.989344,0.13415053,-19.09169,0.9924927,-0.081604004,-0.23095703,0.064453125,0.052734375,0.057617188,10.679861,-2.818913,-55.48873,-12.844112,-0.58807373,-0.03540039,0.80810547,-0.0126953125,0.041992188,-0.01953125,15.846968,-4.8182592,-127.37114,-8.933374,0.0,0.0,0.0,0.0,0.0,0.0,0.0,-19.825531,-127.28281,-22.151897,0.0,0.0,0.0,0.0,0.0,0.0,0.0,-0.3859009,-0.0064797364,0.9221659,-0.90289307,-0.15039062,-0.43719482,-0.00390625,0.015625,-0.00390625,5.844054,-7.989344,-0.13415053,19.09169,0.8187866,-0.13146973,-0.6383667,0.076171875,0.13085938,0.025390625,20.244629,-0.7628293,-56.564907,15.455387,-0.7366333,0.10223389,0.654541,0.0390625,-0.068359375,0.041015625,9.609712,27.75679,-120.257645,-2.3017464,0.0,0.0,0.0,0.0,0.0,0.0,0.0,12.619566,-123.83431,-14.87428,0.0,0.0,0.0,0.0,0.0,0.0,0.0,-3.560058,44.828922,-1.174789,
1.4062499790452423,72,-0.036193848,0.7593994,0.5737915,-0.061523438,-0.01171875,0.06738281,0.0,0.0,0.0,0.0,0.0,0.0,0.0,0.0,0.0,0.0,0.0,0.38663563,0.0073922984,-0.922167,-0.9937134,-0.093444824,0.17486572,0.015625,0.0029296875,0.033203125,16.383625,8.004555,0.15304343,-19.091715,0.9780884,-0.05657959,-0.20477295,-0.068359375,0.07421875,0.053710938,10.709912,-2.8245373,-55.46133,-12.801983,-0.56073,-0.024414062,0.809021,-0.01171875,-0.0126953125,-0.018554688,15.740931,-4.8029485,-127.33197,-8.813247,0.0,0.0,0.0,0.0,0.0,0.0,0.0,-19.808582,-127.24317,-22.03408,0.0,0.0,0.0,0.0,0.0,0.0,0.0,-0.38663563,-0.0073922984,0.922167,-0.9111328,-0.09246826,-0.4387207,0.07324219,0.052734375,0.015625,5.7080827,-8.004555,-0.15304343,19.091715,0.7835083,-0.09899902,-0.61621094,-0.13574219,0.09765625,0.06640625,20.163822,-0.8295002,-56.59501,15.514145,-0.7407837,0.0993042,0.65844727,0.057617188,-0.087890625,0.041015625,9.577745,27.589724,-120.38141,-2.0750294,0.0,0.0,0.0,0.0,0.0,0.0,0.0,12.441424,-123.951164,-14.637905,0.0,0.0,0.0,0.0,0.0,0.0,0.0,-3.6681166,44.833267,-1.1785324,
1.425781228754204,73,-0.055358887,0.7649536,0.5783081,-0.041992188,-0.01171875,0.08496094,0.0,0.0,0.0,0.0,0.0,0.0,0.0,0.0,0.0,0.0,0.0,0.38802904,0.008076835,-0.9215581,-0.96136475,-0.094055176,0.18389893,0.015625,0.022460938,-0.0048828125,16.581999,8.033402,0.16721551,-19.07911,1.0067749,-0.08129883,-0.20715332,-0.14355469,0.07519531,0.0703125,10.75713,-2.8393078,-55.429077,-12.752203,-0.5689087,-0.030151367,0.8179321,0.026367188,0.0048828125,0.01953125,15.822463,-4.8022804,-127.30049,-8.68161,0.0,0.0,0.0,0.0,0.0,0.0,0.0,-19.812084,-127.21333,-21.898083,0.0,0.0,0.0,0.0,0.0,0.0,0.0,-0.38802904,-0.008076835,0.9215581,-0.8851929,-0.10345459,-0.4083252,0.034179688,0.0146484375,0.057617188,5.616322,-8.033402,-0.16721551,19.07911,0.80474854,-0.14923096,-0.6340332,-0.27148438,0.08105469,0.068359375,20.098621,-0.93503094,-56.617878,15.522221,-0.72735596,0.10620117,0.64068604,9.765625E-4,-0.047851562,0.022460938,9.923529,27.31107,-120.48547,-2.039669,0.0,0.0,0.0,0.0,0.0,0.0,0.0,12.159338,-124.043755,-14.600609,0.0,0.0,0.0,0.0,0.0,0.0,0.0,-3.7934794,44.82141,-1.2044439,
1.4453124784631657,74,-0.036132812,0.7315674,0.5725708,0.0,0.08300781,0.08496094,0.0,0.0,0.0,0.0,0.0,0.0,0.0,0.0,0.0,0.0,0.0,0.39021596,0.007996019,-0.92065936,-0.9846802,-0.078430176,0.20306396,-0.041015625,0.0029296875,0.0146484375,16.731524,8.07868,0.16554242,-19.060503,0.98150635,-0.11248779,-0.23095703,-0.10546875,0.09375,0.07128906,10.722438,-2.8214607,-55.423435,-12.718172,-0.56970215,-0.016418457,0.82977295,0.044921875,0.00390625,9.765625E-4,15.94322,-4.8774853,-127.29501,-8.662592,0.0,0.0,0.0,0.0,0.0,0.0,0.0,-19.886408,-127.20261,-21.879883,0.0,0.0,0.0,0.0,0.0,0.0,0.0,-0.39021596,-0.007996019,0.92065936,-0.8793335,-0.11846924,-0.3986206,-0.0234375,-0.022460938,0.057617188,5.548107,-8.07868,-0.16554242,19.060503,0.8088989,-0.16723633,-0.61328125,-0.15527344,0.13476562,0.047851562,20.07588,-1.0632372,-56.63128,15.557636,-0.7531128,0.107421875,0.6713257,0.001953125,-0.028320312,0.022460938,10.279501,26.932056,-120.57123,-2.1366425,0.0,0.0,0.0,0.0,0.0,0.0,0.0,11.771198,-124.11545,-14.691334,0.0,0.0,0.0,0.0,0.0,0.0,0.0,-3.909517,44.810707,-1.2678399,
1.4648437281721274,75,-0.018432617,0.75579834,0.54541016,-0.061523438,-0.01171875,0.06738281,0.0,0.0,0.0,0.0,0.0,0.0,0.0,0.0,0.0,0.0,0.0,0.3907648,0.0075796023,-0.9204333,-0.9661865,-0.060058594,0.19140625,-0.041015625,-0.015625,0.033203125,16.875807,8.090045,0.1569213,-19.05582,0.99053955,-0.11682129,-0.22106934,-0.03125,0.07421875,0.03515625,10.735168,-2.869151,-55.428288,-12.748871,-0.5805664,-0.011962891,0.8050537,0.026367188,-0.03125,9.765625E-4,15.991165,-4.974321,-127.29938,-8.710409,0.0,0.0,0.0,0.0,0.0,0.0,0.0,-19.98482,-127.20479,-21.92709,0.0,0.0,0.0,0.0,0.0,0.0,0.0,-0.3907648,-0.0075796023,0.9204333,-0.8919678,-0.084228516,-0.42980957,-0.041992188,0.016601562,0.038085938,5.498255,-8.090045,-0.1569213,19.05582,0.80145264,-0.13317871,-0.59851074,0.19238281,0.091796875,0.024414062,20.049139,-1.13201,-56.633965,15.616726,-0.7439575,0.086364746,0.65753174,0.001953125,-0.009765625,0.00390625,10.309237,26.652716,-120.64359,-2.1750298,0.0,0.0,0.0,0.0,0.0,0.0,0.0,11.487505,-124.188126,-14.724628,0.0,0.0,0.0,0.0,0.0,0.0,0.0,-4.008269,44.80023,-1.3327665,
1.484374977881089,76,-0.030700684,0.75201416,0.5288086,-0.020507812,0.064453125,0.06738281,0.0,0.0,0.0,0.0,0.0,0.0,0.0,0.0,0.0,0.0,0.0,0.38599303,-0.0011772253,-0.9183344,-0.9859619,-0.08746338,0.2208252,-0.09765625,-0.016601562,0.033203125,15.901879,7.991253,-0.024372194,-19.012371,0.9828491,-0.10784912,-0.17510986,0.06347656,0.072265625,0.038085938,10.728769,-3.0317774,-55.601974,-12.747172,-0.57977295,-0.022888184,0.80804443,0.0068359375,0.041992188,0.018554688,16.087154,-5.2144766,-127.469925,-8.7217045,0.0,0.0,0.0,0.0,0.0,0.0,0.0,-20.224842,-127.36531,-21.937712,0.0,0.0,0.0,0.0,0.0,0.0,0.0,-0.38599303,0.0011772253,0.9183344,-0.881958,-0.088012695,-0.4013672,-0.080078125,0.018554688,0.017578125,5.9881825,-7.991253,0.024372194,19.012371,0.78533936,-0.094055176,-0.62908936,0.15429688,0.055664062,0.025390625,20.036774,-1.0945063,-56.45877,15.569702,-0.7397461,0.11505127,0.6791382,0.020507812,-0.047851562,0.022460938,10.071011,26.605675,-120.50581,-2.2215195,0.0,0.0,0.0,0.0,0.0,0.0,0.0,11.431966,-124.0474,-14.762859,0.0,0.0,0.0,0.0,0.0,0.0,0.0,-3.178049,44.692593,-1.3930852,
1.5039062275900508,77,-0.042419434,0.7655029,0.56604004,-0.018554688,0.1015625,0.048828125,0.0,0.0,0.0,0.0,0.0,0.0,0.0,0.0,0.0,0.0,0.0,0.3822707,-0.010656423,-0.91908354,-0.97052,-0.07287598,0.20715332,-0.060546875,-0.03515625,0.033203125,14.7433405,7.9141893,-0.220621,-19.027878,0.9911499,-0.09631348,-0.21105957,-0.048828125,0.09277344,0.053710938,10.76291,-3.1997442,-55.77722,-12.745943,-0.5808716,-0.027709961,0.802124,0.0078125,-0.030273438,0.0,16.048746,-5.4511447,-127.6419,-8.685199,0.0,0.0,0.0,0.0,0.0,0.0,0.0,-20.458164,-127.53593,-21.905704,0.0,0.0,0.0,0.0,0.0,0.0,0.0,-0.3822707,0.010656423,0.91908354,-0.8973999,-0.1149292,-0.40942383,-0.080078125,-0.040039062,0.038085938,6.6630907,-7.9141893,0.220621,19.027878,0.80358887,-0.101257324,-0.6047363,-0.115234375,0.022460938,0.12402344,20.087666,-1.0927305,-56.272076,15.623093,-0.76220703,0.13446045,0.67822266,9.765625E-4,-0.047851562,0.059570312,10.10513,26.600498,-120.33469,-2.1033707,0.0,0.0,0.0,0.0,0.0,0.0,0.0,11.421537,-123.86918,-14.638427,0.0,0.0,0.0,0.0,0.0,0.0,0.0,-2.1571894,44.72174,-1.4157627,
1.5234374772990125,78,-0.0569458,0.7647095,0.53552246,-0.038085938,0.12207031,0.068359375,0.0,0.0,0.0,0.0,0.0,0.0,0.0,0.0,0.0,0.0,0.0,0.38387984,-0.010972352,-0.9222643,-0.97424316,-0.06555176,0.17938232,-0.09765625,0.0029296875,0.033203125,14.672953,7.9475036,-0.22716172,-19.09373,0.9805298,-0.11553955,-0.2010498,-0.0126953125,0.0546875,0.036132812,10.796215,-3.246817,-55.76995,-12.842731,-0.57458496,-0.012268066,0.81988525,0.0068359375,-0.0126953125,0.0,16.060217,-5.5587387,-127.6363,-8.821925,0.0,0.0,0.0,0.0,0.0,0.0,0.0,-20.571503,-127.52515,-22.035963,0.0,0.0,0.0,0.0,0.0,0.0,0.0,-0.38387984,0.010972352,0.9222643,-0.8826294,-0.06262207,-0.39923096,-0.11816406,-0.01953125,-0.022460938,6.7012153,-7.9475036,0.22716172,19.09373,0.7921753,-0.15698242,-0.60510254,-0.34765625,0.044921875,0.14453125,20.117037,-1.2145228,-56.272835,15.6497135,-0.732605,0.103027344,0.6722412,9.765625E-4,-0.047851562,0.07910156,10.477581,26.396988,-120.349014,-2.1510181,0.0,0.0,0.0,0.0,0.0,0.0,0.0,11.214367,-123.87431,-14.684813,0.0,0.0,0.0,0.0,0.0,0.0,0.0,-2.0370486,44.888783,-1.3819438,
1.5429687270079742,79,-0.051574707,0.7786255,0.56140137,-0.057617188,0.103515625,0.08691406,0.0,0.0,0.0,0.0,0.0,0.0,0.0,0.0,0.0,0.0,0.0,0.3843426,-0.010195561,-0.9228859,-0.9920044,-0.08355713,0.22283936,-0.13574219,0.021484375,0.052734375,14.840225,7.9570837,-0.21107975,-19.1066,0.9786377,-0.11151123,-0.19702148,-0.030273438,0.07324219,0.0546875,10.821491,-3.3025618,-55.744305,-12.891032,-0.57769775,-0.019958496,0.8070679,0.0078125,-0.030273438,0.0,16.074554,-5.6607847,-127.60596,-8.902079,0.0,0.0,0.0,0.0,0.0,0.0,0.0,-20.67601,-127.49323,-22.113188,0.0,0.0,0.0,0.0,0.0,0.0,0.0,-0.3843426,0.010195561,0.9228859,-0.8999634,-0.080322266,-0.3826294,-0.17578125,-0.017578125,0.018554688,6.631671,-7.9570837,0.21107975,19.1066,0.7813721,-0.17077637,-0.58898926,-0.07714844,0.059570312,0.123046875,20.180567,-1.3388653,-56.298714,15.56989,-0.71307373,0.09484863,0.647522,0.01953125,-0.06738281,0.041015625,10.8459835,26.087706,-120.37114,-2.5496416,0.0,0.0,0.0,0.0,0.0,0.0,0.0,10.885117,-123.881546,-15.063806,0.0,0.0,0.0,0.0,0.0,0.0,0.0,-2.1338003,44.917713,-1.3848643,
1.5624999767169359,80,-0.048034668,0.7484131,0.5162964,-0.057617188,0.103515625,0.068359375,0.0,0.0,0.0,0.0,0.0,0.0,0.0,0.0,0.0,0.0,0.0,0.38544723,-0.009103547,-0.9224301,-0.982666,-0.07562256,0.20605469,-0.1171875,-0.016601562,0.033203125,15.0525875,7.979952,-0.18847165,-19.097162,0.98565674,-0.07751465,-0.2029419,-0.03125,0.03515625,0.036132812,10.830729,-3.3508186,-55.7087,-12.862705,-0.5736084,-0.016113281,0.802063,0.0078125,-0.030273438,0.0,16.174133,-5.787943,-127.5708,-8.848917,0.0,0.0,0.0,0.0,0.0,0.0,0.0,-20.797363,-127.45365,-22.065958,0.0,0.0,0.0,0.0,0.0,0.0,0.0,-0.38544723,0.009103547,0.9224301,-0.91973877,-0.05987549,-0.40405273,-0.2529297,-0.0546875,0.040039062,6.511202,-7.979952,0.18847165,19.097162,0.7894287,-0.13696289,-0.6012573,0.15527344,-0.018554688,0.064453125,20.235825,-1.4944658,-56.331413,15.507151,-0.73150635,0.11004639,0.6623535,0.001953125,-0.028320312,0.00390625,10.880088,25.79195,-120.417015,-2.7654247,0.0,0.0,0.0,0.0,0.0,0.0,0.0,10.578177,-123.912415,-15.269822,0.0,0.0,0.0,0.0,0.0,0.0,0.0,-2.2460852,44.91206,-1.3817918,
1.5820312264258976,81,-0.034423828,0.77716064,0.5609131,-0.020507812,0.06542969,0.103515625,0.0,0.0,0.0,0.0,0.0,0.0,0.0,0.0,0.0,0.0,0.0,0.38592336,-0.0074265255,-0.9223503,-0.98065186,-0.076538086,0.20306396,-0.13574219,-0.036132812,0.052734375,15.270946,7.989811,-0.15375212,-19.09551,0.9729004,-0.10058594,-0.18695068,0.026367188,0.072265625,0.055664062,10.827038,-3.393694,-55.661205,-12.876901,-0.5755005,-0.008178711,0.8040161,0.0068359375,0.0048828125,-0.018554688,16.234259,-5.8976626,-127.51778,-8.861515,0.0,0.0,0.0,0.0,0.0,0.0,0.0,-20.91289,-127.398094,-22.07038,0.0,0.0,0.0,0.0,0.0,0.0,0.0,-0.38592336,0.0074265255,0.9223503,-0.88586426,-0.0803833,-0.4317627,-0.15722656,-0.07714844,-0.001953125,6.3835583,-7.989811,0.15375212,19.09551,0.80078125,-0.13519287,-0.6419678,9.765625E-4,-0.016601562,0.08496094,20.269524,-1.5815601,-56.372498,15.463581,-0.72332764,0.11773682,0.6800537,-0.017578125,-0.047851562,0.059570312,10.753963,25.644983,-120.461296,-2.8827267,0.0,0.0,0.0,0.0,0.0,0.0,0.0,10.4107895,-123.94838,-15.363967,0.0,0.0,0.0,0.0,0.0,0.0,0.0,-2.3789155,44.910313,-1.3569756,
1.6015624761348592,82,-0.052856445,0.78253174,0.5425415,-0.0390625,0.08300781,0.049804688,0.0,0.0,0.0,0.0,0.0,0.0,0.0,0.0,0.0,0.0,0.0,0.38670632,-0.005892521,-0.9220605,-0.98065186,-0.080444336,0.20098877,-0.1171875,-0.016601562,0.052734375,15.495018,8.006018,-0.121993475,-19.08951,0.998291,-0.09564209,-0.20812988,-0.01171875,0.03515625,0.055664062,10.880938,-3.453699,-55.618614,-12.901567,-0.56658936,-0.015380859,0.80303955,0.0078125,-0.030273438,0.0,16.11939,-5.986076,-127.47718,-8.929913,0.0,0.0,0.0,0.0,0.0,0.0,0.0,-21.010387,-127.35599,-22.12856,0.0,0.0,0.0,0.0,0.0,0.0,0.0,-0.38670632,0.005892521,0.9220605,-0.86187744,-0.08728027,-0.4072876,-0.13769531,-0.09765625,0.018554688,6.2339153,-8.006018,0.121993475,19.08951,0.79241943,-0.14508057,-0.661499,-0.076171875,0.00390625,0.123046875,20.424562,-1.7029591,-56.417152,15.444607,-0.7398071,0.114990234,0.68408203,-0.017578125,-0.009765625,0.041015625,10.605376,25.596125,-120.46634,-2.9465275,0.0,0.0,0.0,0.0,0.0,0.0,0.0,10.341559,-123.94498,-15.405261,0.0,0.0,0.0,0.0,0.0,0.0,0.0,-2.5033383,44.90528,-1.3368561,
1.621093725843821,83,-0.06390381,0.77386475,0.5437622,0.0390625,0.08105469,0.047851562,0.0,0.0,0.0,0.0,0.0,0.0,0.0,0.0,0.0,0.0,0.0,0.38725305,-0.0031761406,-0.92191416,-0.97283936,-0.09069824,0.22772217,-0.09765625,0.0029296875,0.0146484375,15.7422285,8.01734,-0.06575592,-19.086483,1.0161743,-0.11218262,-0.17248535,-0.0126953125,0.0546875,0.036132812,10.902391,-3.5212498,-55.539406,-12.855846,-0.572876,-0.027038574,0.81500244,0.0078125,-0.030273438,0.01953125,16.196507,-6.1456575,-127.39008,-8.885254,0.0,0.0,0.0,0.0,0.0,0.0,0.0,-21.169083,-127.26596,-22.085468,0.0,0.0,0.0,0.0,0.0,0.0,0.0,-0.38725305,0.0031761406,0.92191416,-0.8985596,-0.12805176,-0.43408203,-0.11816406,0.0,0.017578125,6.059581,-8.01734,0.06575592,19.086483,0.8078613,-0.1583252,-0.6854248,0.15527344,0.018554688,0.06347656,20.518898,-1.7150078,-56.474514,15.45546,-0.7368164,0.08416748,0.6663208,0.001953125,0.0087890625,0.041015625,10.363406,25.670021,-120.46788,-2.97921,0.0,0.0,0.0,0.0,0.0,0.0,0.0,10.413189,-123.94836,-15.43479,0.0,0.0,0.0,0.0,0.0,0.0,0.0,-2.6039171,44.90501,-1.2484887,
1.6406249755527826,84,-0.08581543,0.7815552,0.5703125,0.0,0.08300781,0.08496094,0.0,0.0,0.0,0.0,0.0,0.0,0.0,0.0,0.0,0.0,0.0,0.38621378,-0.0013155127,-0.92238444,-0.9973755,-0.109802246,0.22735596,-0.13574219,-0.036132812,0.052734375,15.982882,7.9958234,-0.027235188,-19.096216,0.9586792,-0.101989746,-0.18084717,0.026367188,0.053710938,0.056640625,10.968316,-3.6407542,-55.474575,-12.806488,-0.58477783,-0.018798828,0.81695557,-0.01171875,0.005859375,0.0,16.27936,-6.328081,-127.32329,-8.830762,0.0,0.0,0.0,0.0,0.0,0.0,0.0,-21.35219,-127.189415,-22.030447,0.0,0.0,0.0,0.0,0.0,0.0,0.0,-0.38621378,0.0013155127,0.92238444,-0.90618896,-0.0982666,-0.48492432,-0.11816406,0.0390625,-0.001953125,5.955983,-7.9958234,0.027235188,19.096216,0.8086548,-0.09844971,-0.66607666,0.19335938,0.036132812,0.025390625,20.525356,-1.6286492,-56.505238,15.485718,-0.7235718,0.08276367,0.6810913,0.021484375,-0.009765625,0.022460938,9.949455,25.873566,-120.4693,-2.8801956,0.0,0.0,0.0,0.0,0.0,0.0,0.0,10.608761,-123.95043,-15.324419,0.0,0.0,0.0,0.0,0.0,0.0,0.0,-2.6889865,44.90283,-1.1899529,
1.6601562252617443,85,-0.0758667,0.7802124,0.55804443,-0.020507812,0.045898438,0.103515625,0.0,0.0,0.0,0.0,0.0,0.0,0.0,0.0,0.0,0.0,0.0,0.38569665,1.9948184E-4,-0.92258495,-0.9901123,-0.11444092,0.20739746,-0.060546875,-0.07324219,0.051757812,16.234514,7.985117,0.0041298717,-19.100368,0.9857788,-0.074645996,-0.17901611,0.0625,0.034179688,0.01953125,11.014493,-3.7318668,-55.422142,-12.7467575,-0.5807495,-0.019958496,0.82092285,0.0068359375,0.005859375,0.0,16.284695,-6.4733615,-127.26675,-8.72467,0.0,0.0,0.0,0.0,0.0,0.0,0.0,-21.49651,-127.13185,-21.926537,0.0,0.0,0.0,0.0,0.0,0.0,0.0,-0.38569665,-1.9948184E-4,0.92258495,-0.8937378,-0.14099121,-0.42730713,-0.15625,9.765625E-4,0.018554688,5.8511267,-7.985117,-0.0041298717,19.100368,0.82873535,-0.06774902,-0.66864014,-0.07714844,0.059570312,0.046875,20.539553,-1.5653949,-56.534817,15.520881,-0.74090576,0.08428955,0.66241455,0.041015625,0.02734375,0.059570312,9.678959,26.138481,-120.47333,-2.6277514,0.0,0.0,0.0,0.0,0.0,0.0,0.0,10.87322,-123.95123,-15.074827,0.0,0.0,0.0,0.0,0.0,0.0,0.0,-2.806622,44.89562,-1.1636314,
1.679687474970706,86,-0.08319092,0.7922363,0.54241943,0.016601562,-0.0126953125,0.10253906,0.0,0.0,0.0,0.0,0.0,0.0,0.0,0.0,0.0,0.0,0.0,0.38519377,6.623417E-4,-0.9228253,-0.98083496,-0.10858154,0.19854736,-0.00390625,-0.03515625,0.033203125,16.443232,7.9747043,0.01371254,-19.105345,0.9942627,-0.09753418,-0.18713379,-0.03125,0.03515625,0.0546875,11.049188,-3.8181996,-55.38968,-12.70409,-0.57147217,-0.007385254,0.8079834,0.0068359375,0.0234375,0.018554688,16.31921,-6.612532,-127.22785,-8.619523,0.0,0.0,0.0,0.0,0.0,0.0,0.0,-21.630617,-127.081436,-21.825073,0.0,0.0,0.0,0.0,0.0,0.0,0.0,-0.38519377,-6.623417E-4,0.9228253,-0.89520264,-0.17358398,-0.41375732,-0.080078125,-0.07910156,-0.0029296875,5.69822,-7.9747043,-0.01371254,19.105345,0.8048096,-0.10235596,-0.65411377,-0.23242188,0.080078125,0.12402344,20.659922,-1.5875392,-56.55802,15.63126,-0.72546387,0.093933105,0.6623535,0.078125,0.0068359375,0.09765625,9.702716,26.249338,-120.47838,-2.387642,0.0,0.0,0.0,0.0,0.0,0.0,0.0,10.976746,-123.93872,-14.82929,0.0,0.0,0.0,0.0,0.0,0.0,0.0,-2.9106221,44.889767,-1.1826954,
1.6992187246796677,87,-0.063964844,0.7758789,0.54278564,0.055664062,-0.033203125,0.08300781,0.0,0.0,0.0,0.0,0.0,0.0,0.0,0.0,0.0,0.0,0.0,0.38296655,9.2377514E-4,-0.9236998,-0.9637451,-0.11956787,0.20037842,-0.022460938,-0.03515625,0.013671875,16.604744,7.928594,0.019124977,-19.12345,1.0118408,-0.07946777,-0.21417236,-0.06738281,0.0546875,0.091796875,11.135386,-3.9314694,-55.35718,-12.642692,-0.5777588,-0.018127441,0.8327637,0.026367188,0.0048828125,-0.018554688,16.225058,-6.731125,-127.19763,-8.548143,0.0,0.0,0.0,0.0,0.0,0.0,0.0,-21.753983,-127.045,-21.749405,0.0,0.0,0.0,0.0,0.0,0.0,0.0,-0.38296655,-9.2377514E-4,0.9236998,-0.8970947,-0.09527588,-0.41418457,0.053710938,-0.0048828125,-0.0048828125,5.555238,-7.928594,-0.019124977,19.12345,0.7922363,-0.14111328,-0.67333984,-0.19335938,0.07910156,0.10546875,20.756914,-1.5358286,-56.565678,15.778291,-0.72943115,0.122924805,0.6721802,0.057617188,-0.087890625,0.059570312,9.807484,26.330692,-120.46848,-2.2598238,0.0,0.0,0.0,0.0,0.0,0.0,0.0,11.032671,-123.89143,-14.681015,0.0,0.0,0.0,0.0,0.0,0.0,0.0,-2.9687982,44.883713,-1.1859784,
1.7187499743886294,88,-0.07080078,0.7592163,0.5548096,-0.04296875,-0.030273438,0.08496094,0.0,0.0,0.0,0.0,0.0,0.0,0.0,0.0,0.0,0.0,0.0,0.38184518,0.0015617125,-0.9241616,-0.9764404,-0.082092285,0.18206787,0.052734375,0.00390625,0.0146484375,16.738342,7.905379,0.032332283,-19.133009,0.98217773,-0.08905029,-0.22589111,-0.08691406,0.0546875,0.072265625,11.1864805,-3.968082,-55.339333,-12.610786,-0.5679321,-0.033996582,0.80114746,0.0068359375,-0.0126953125,0.018554688,16.228224,-6.7279043,-127.183304,-8.496023,0.0,0.0,0.0,0.0,0.0,0.0,0.0,-21.750835,-127.02877,-21.696682,0.0,0.0,0.0,0.0,0.0,0.0,0.0,-0.38184518,-0.0015617125,0.9241616,-0.8800049,-0.09185791,-0.40631104,0.16894531,0.0107421875,0.0146484375,5.427478,-7.905379,-0.032332283,19.133009,0.7877197,-0.14703369,-0.64160156,-0.07714844,0.09667969,0.103515625,20.76574,-1.5136662,-56.586357,15.872078,-0.73968506,0.11419678,0.6633911,0.041015625,0.06542969,0.059570312,9.89688,26.258951,-120.511444,-2.2258224,0.0,0.0,0.0,0.0,0.0,0.0,0.0,10.973682,-123.91102,-14.668395,0.0,0.0,0.0,0.0,0.0,0.0,0.0,-3.0583515,44.877594,-1.1878128,
1.7382812240975911,89,-0.039367676,0.7495117,0.5628052,-0.041992188,-0.01171875,0.048828125,0.0,0.0,0.0,0.0,0.0,0.0,0.0,0.0,0.0,0.0,0.0,0.38239402,0.0025948882,-0.9239987,-0.9822998,-0.055786133,0.18249512,-0.041015625,0.041015625,0.034179688,16.878796,7.9167423,0.053722233,-19.129639,0.97473145,-0.10345459,-0.21588135,-0.125,0.036132812,0.07128906,11.2341385,-3.9673805,-55.31917,-12.635839,-0.5765991,-0.011169434,0.8109741,0.0068359375,-0.03125,-0.018554688,16.285511,-6.670383,-127.16266,-8.535168,0.0,0.0,0.0,0.0,0.0,0.0,0.0,-21.689005,-127.00342,-21.741756,0.0,0.0,0.0,0.0,0.0,0.0,0.0,-0.38239402,-0.0025948882,0.9239987,-0.90301514,-0.0859375,-0.43078613,0.053710938,0.0146484375,0.015625,5.342141,-7.9167423,-0.053722233,19.129639,0.782959,-0.17785645,-0.61364746,-0.19335938,0.13476562,0.123046875,20.690071,-1.5295424,-56.609898,15.885636,-0.71606445,0.1296997,0.66625977,0.0029296875,0.009765625,0.00390625,10.088786,26.04703,-120.59201,-2.3269892,0.0,0.0,0.0,0.0,0.0,0.0,0.0,10.748575,-123.9743,-14.759441,0.0,0.0,0.0,0.0,0.0,0.0,0.0,-3.1726909,44.872448,-1.1869922,
1.7578124738065528,90,-0.042419434,0.7445679,0.5559082,0.016601562,-0.013671875,0.029296875,0.0,0.0,0.0,0.0,0.0,0.0,0.0,0.0,0.0,0.0,0.0,0.38302204,0.0033320896,-0.92378724,-0.9723511,-0.06384277,0.19335938,0.015625,0.060546875,0.034179688,17.00192,7.9297433,0.06898458,-19.125261,0.9974365,-0.12695312,-0.2062378,-0.087890625,0.055664062,0.052734375,11.241865,-3.9618707,-55.30747,-12.693398,-0.5606079,-0.015625,0.81988525,0.0068359375,-0.0126953125,0.0,16.409647,-6.652332,-127.15199,-8.634469,0.0,0.0,0.0,0.0,0.0,0.0,0.0,-21.667538,-126.9933,-21.84616,0.0,0.0,0.0,0.0,0.0,0.0,0.0,-0.38302204,-0.0033320896,0.92378724,-0.86883545,-0.08453369,-0.43475342,0.034179688,0.034179688,0.057617188,5.301861,-7.9297433,-0.06898458,19.125261,0.7887573,-0.20288086,-0.6116333,-0.23242188,0.09863281,0.12402344,20.654655,-1.5794411,-56.6266,15.856017,-0.7406006,0.12634277,0.64959717,-0.016601562,0.009765625,-0.015625,10.415634,25.754028,-120.63754,-2.6051035,0.0,0.0,0.0,0.0,0.0,0.0,0.0,10.450312,-124.00395,-15.033341,0.0,0.0,0.0,0.0,0.0,0.0,0.0,-3.2878373,44.865902,-1.2013774,
1.7773437235155145,91,-0.04663086,0.7664795,0.55023193,0.09472656,-0.034179688,0.045898438,0.0,0.0,0.0,0.0,0.0,0.0,0.0,0.0,0.0,0.0,0.0,0.37834504,-0.0044266637,-0.9218701,-0.9855957,-0.06390381,0.20526123,-0.041015625,0.09863281,0.034179688,15.8809,7.8329153,-0.091645695,-19.085567,0.96606445,-0.122680664,-0.22088623,-0.030273438,0.0546875,0.0546875,11.165442,-3.9812756,-55.498245,-12.696785,-0.5899048,-0.026489258,0.8100586,0.0068359375,0.0234375,0.018554688,16.454689,-6.670453,-127.347435,-8.696255,0.0,0.0,0.0,0.0,0.0,0.0,0.0,-21.68074,-127.18957,-21.91306,0.0,0.0,0.0,0.0,0.0,0.0,0.0,-0.37834504,0.0044266637,0.9218701,-0.87438965,-0.04937744,-0.42663574,0.091796875,0.07128906,0.09765625,5.891323,-7.8329153,0.091645695,19.085567,0.80078125,-0.17907715,-0.61798096,0.07714844,0.09375,0.08300781,20.660357,-1.5410542,-56.46879,15.729949,-0.7150879,0.09887695,0.6465454,-0.055664062,-0.045898438,-0.034179688,10.579758,25.649948,-120.47509,-2.9431658,0.0,0.0,0.0,0.0,0.0,0.0,0.0,10.34441,-123.82733,-15.3754425,0.0,0.0,0.0,0.0,0.0,0.0,0.0,-2.437443,44.75964,-1.21528,
1.7968749732244762,92,-0.05883789,0.7548828,0.54248047,0.037109375,0.0048828125,0.029296875,0.0,0.0,0.0,0.0,0.0,0.0,0.0,0.0,0.0,0.0,0.0,0.37868693,-0.0055804,-0.9246883,-0.9741211,-0.043273926,0.18475342,0.015625,0.07910156,0.053710938,15.681921,7.839994,-0.11553157,-19.143915,0.98327637,-0.08917236,-0.19799805,0.0068359375,0.03515625,0.037109375,11.046461,-3.919085,-55.53758,-12.819821,-0.5704956,-0.003540039,0.8307495,0.0068359375,0.005859375,0.0,16.398376,-6.6755066,-127.38768,-8.842401,0.0,0.0,0.0,0.0,0.0,0.0,0.0,-21.691523,-127.219986,-22.051243,0.0,0.0,0.0,0.0,0.0,0.0,0.0,-0.37868693,0.0055804,0.9246883,-0.8564453,-0.057739258,-0.41882324,-0.080078125,-9.765625E-4,0.05859375,6.0324745,-7.839994,0.11553157,19.143915,0.77716064,-0.13781738,-0.6217041,0.07714844,0.056640625,0.064453125,20.65817,-1.6486964,-56.445354,15.653789,-0.7345581,0.12011719,0.6643677,-0.055664062,-0.045898438,-0.052734375,10.575106,25.473743,-120.46153,-3.1036692,0.0,0.0,0.0,0.0,0.0,0.0,0.0,10.168459,-123.81079,-15.536913,0.0,0.0,0.0,0.0,0.0,0.0,0.0,-2.3452702,44.88777,-1.2313502,
1.816406222933438,93,-0.05480957,0.74279785,0.53533936,0.018554688,0.04296875,0.01171875,0.0,0.0,0.0,0.0,0.0,0.0,0.0,0.0,0.0,0.0,0.0,0.3792448,-0.004668287,-0.92513335,-0.9766846,-0.083496094,0.20697021,-0.060546875,0.09765625,0.053710938,15.773729,7.8515434,-0.09664806,-19.153128,0.9995117,-0.089904785,-0.18615723,-0.030273438,0.0546875,0.0546875,10.961619,-3.8849478,-55.527588,-12.8681965,-0.5675049,-0.011413574,0.8060303,0.0068359375,0.0048828125,-0.018554688,16.382074,-6.7039833,-127.37729,-8.87919,0.0,0.0,0.0,0.0,0.0,0.0,0.0,-21.72894,-127.20502,-22.079384,0.0,0.0,0.0,0.0,0.0,0.0,0.0,-0.3792448,0.004668287,0.92513335,-0.8959961,-0.0881958,-0.42297363,-0.17578125,-0.037109375,0.059570312,5.97002,-7.8515434,0.09664806,19.153128,0.8161011,-0.14245605,-0.6777954,0.0,0.0390625,0.06542969,20.72924,-1.7017274,-56.46982,15.626896,-0.7192383,0.10583496,0.6633301,-0.055664062,-0.06542969,-0.0146484375,10.395496,25.545374,-120.45487,-3.066578,0.0,0.0,0.0,0.0,0.0,0.0,0.0,10.241928,-123.80997,-15.497659,0.0,0.0,0.0,0.0,0.0,0.0,0.0,-2.4507344,44.910034,-1.2312617,
1.8359374726423996,94,-0.0848999,0.76556396,0.5581665,-0.001953125,0.025390625,0.047851562,0.0,0.0,0.0,0.0,0.0,0.0,0.0,0.0,0.0,0.0,0.0,0.37935013,-0.0030012196,-0.9251915,-0.98028564,-0.053894043,0.18554688,0.0146484375,0.0029296875,0.052734375,15.924584,7.853724,-0.06213457,-19.154333,0.97424316,-0.12310791,-0.20501709,-0.10546875,0.11230469,0.051757812,10.841936,-3.8751311,-55.495476,-12.888482,-0.57073975,-0.0211792,0.8129883,0.0068359375,-0.0126953125,0.018554688,16.38372,-6.826632,-127.33458,-8.87558,0.0,0.0,0.0,0.0,0.0,0.0,0.0,-21.859915,-127.16093,-22.06556,0.0,0.0,0.0,0.0,0.0,0.0,0.0,-0.37935013,0.0030012196,0.9251915,-0.8803711,-0.121520996,-0.47332764,-0.061523438,0.037109375,0.05859375,5.900399,-7.853724,0.06213457,19.154333,0.79681396,-0.12719727,-0.6439209,0.018554688,0.11328125,0.045898438,20.67788,-1.6638165,-56.495876,15.601634,-0.7522583,0.09020996,0.6900635,-0.055664062,-0.045898438,-0.0146484375,10.193351,25.674564,-120.476204,-2.9524698,0.0,0.0,0.0,0.0,0.0,0.0,0.0,10.370658,-123.82817,-15.385747,0.0,0.0,0.0,0.0,0.0,0.0,0.0,-2.5768042,44.907707,-1.2022257,
1.8554687223513613,95,-0.07574463,0.76135254,0.56188965,0.0,0.06347656,0.048828125,0.0,0.0,0.0,0.0,0.0,0.0,0.0,0.0,0.0,0.0,0.0,0.37948117,-0.001312796,-0.9251893,-0.9805908,-0.07550049,0.19714355,-0.13574219,0.078125,0.072265625,16.014652,7.8564367,-0.027178977,-19.154287,1.0002441,-0.1359253,-0.19934082,0.025390625,0.03515625,0.037109375,10.740173,-3.827674,-55.47657,-12.959442,-0.56347656,-0.008666992,0.8218384,0.0068359375,-0.0126953125,0.018554688,16.38964,-6.835307,-127.318146,-8.975416,0.0,0.0,0.0,0.0,0.0,0.0,0.0,-21.87193,-127.14121,-22.159393,0.0,0.0,0.0,0.0,0.0,0.0,0.0,-0.37948117,0.001312796,0.9251893,-0.9135742,-0.12384033,-0.43304443,0.03515625,0.13183594,0.078125,5.8339834,-7.8564367,0.027178977,19.154287,0.78131104,-0.108947754,-0.62493896,0.115234375,0.09277344,0.044921875,20.546364,-1.5862408,-56.519833,15.59647,-0.7449341,0.09631348,0.66241455,-0.037109375,-0.046875,0.00390625,10.004726,25.729393,-120.53618,-2.8717594,0.0,0.0,0.0,0.0,0.0,0.0,0.0,10.428614,-123.88667,-15.308115,0.0,0.0,0.0,0.0,0.0,0.0,0.0,-2.6948,44.90364,-1.1690311,
1.874999972060323,96,-0.058654785,0.7838135,0.56463623,0.05859375,0.061523438,0.046875,0.0,0.0,0.0,0.0,0.0,0.0,0.0,0.0,0.0,0.0,0.0,0.37952843,2.0846725E-4,-0.9251736,-0.9879761,-0.08648682,0.2208252,-0.060546875,0.021484375,0.072265625,16.15917,7.857416,0.004315883,-19.153961,1.0145264,-0.09637451,-0.18634033,-0.01171875,0.07324219,0.036132812,10.676175,-3.8201294,-55.4417,-12.94448,-0.57440186,-4.8828125E-4,0.82476807,0.0068359375,-0.0126953125,-0.018554688,16.474644,-6.9024496,-127.27409,-8.935493,0.0,0.0,0.0,0.0,0.0,0.0,0.0,-21.927391,-127.092545,-22.13269,0.0,0.0,0.0,0.0,0.0,0.0,0.0,-0.37952843,-2.0846725E-4,0.9251736,-0.88861084,-0.1326294,-0.4124756,-0.022460938,0.036132812,0.037109375,5.7442274,-7.857416,-0.004315883,19.153961,0.7930908,-0.08319092,-0.64904785,0.01953125,0.057617188,0.045898438,20.50414,-1.5269895,-56.545765,15.61763,-0.7234497,0.09387207,0.67022705,9.765625E-4,-0.0859375,-0.015625,9.907524,25.85204,-120.56259,-2.7463722,0.0,0.0,0.0,0.0,0.0,0.0,0.0,10.551366,-123.91276,-15.184818,0.0,0.0,0.0,0.0,0.0,0.0,0.0,-2.8057637,44.897682,-1.1408751,
1.8945312217692847,97,-0.06695557,0.75006104,0.53570557,0.017578125,0.025390625,0.06640625,0.0,0.0,0.0,0.0,0.0,0.0,0.0,0.0,0.0,0.0,0.0,0.37972215,0.0017694309,-0.9250866,-0.9768677,-0.09918213,0.21264648,-0.07910156,0.041015625,0.0146484375,16.334808,7.8614244,0.036632694,-19.15216,0.9938965,-0.11224365,-0.16925049,0.0068359375,0.053710938,0.036132812,10.597951,-3.8408117,-55.40442,-12.922397,-0.55822754,0.003967285,0.8198242,0.026367188,-0.0126953125,0.01953125,16.544008,-7.03971,-127.22687,-8.832588,0.0,0.0,0.0,0.0,0.0,0.0,0.0,-22.059444,-127.03305,-22.035782,0.0,0.0,0.0,0.0,0.0,0.0,0.0,-0.37972215,-0.0017694309,0.9250866,-0.8881836,-0.103393555,-0.449646,-0.060546875,0.037109375,0.017578125,5.642815,-7.8614244,-0.036632694,19.15216,0.79156494,-0.10107422,-0.6104126,-0.11621094,0.078125,0.06640625,20.458687,-1.5164051,-56.579525,15.623913,-0.7418823,0.09814453,0.6762085,0.001953125,-0.028320312,0.022460938,9.868785,25.912628,-120.62152,-2.5948944,0.0,0.0,0.0,0.0,0.0,0.0,0.0,10.609395,-123.97723,-15.027015,0.0,0.0,0.0,0.0,0.0,0.0,0.0,-2.9161,44.891155,-1.1111128,
1.9140624714782464,98,-0.05645752,0.76989746,0.5723877,-0.041015625,0.026367188,0.048828125,0.0,0.0,0.0,0.0,0.0,0.0,0.0,0.0,0.0,0.0,0.0,0.38114107,0.0035529993,-0.9244921,-0.99194336,-0.09484863,0.20074463,0.015625,0.041015625,0.052734375,16.543482,7.890802,0.07355812,-19.139854,0.9854126,-0.086364746,-0.19104004,-0.10644531,0.09375,0.051757812,10.577116,-3.8478217,-55.353733,-12.869065,-0.57055664,-0.007507324,0.82580566,0.0068359375,-0.0126953125,0.0,16.50185,-7.1209335,-127.16618,-8.723797,0.0,0.0,0.0,0.0,0.0,0.0,0.0,-22.158457,-126.96278,-21.90955,0.0,0.0,0.0,0.0,0.0,0.0,0.0,-0.38114107,-0.0035529993,0.9244921,-0.85839844,-0.12731934,-0.4124756,-0.022460938,0.07519531,0.037109375,5.472067,-7.890802,-0.07355812,19.139854,0.79364014,-0.1270752,-0.5925293,-0.2705078,0.08105469,0.10546875,20.39288,-1.5356197,-56.61824,15.687673,-0.70806885,0.093566895,0.6711426,0.020507812,-0.047851562,0.0029296875,10.107602,25.821672,-120.71852,-2.4400606,0.0,0.0,0.0,0.0,0.0,0.0,0.0,10.522085,-124.07438,-14.877587,0.0,0.0,0.0,0.0,0.0,0.0,0.0,-3.037533,44.883625,-1.0797899,
1.933593721187208,99,-0.07299805,0.7731323,0.5430298,-0.021484375,0.0068359375,0.048828125,0.0,0.0,0.0,0.0,0.0,0.0,0.0,0.0,0.0,0.0,0.0,0.38256586,0.0050472245,-0.9239519,-0.97540283,-0.0859375,0.17602539,-0.00390625,0.0029296875,0.033203125,16.714611,7.920299,0.10449319,-19.128668,0.991333,-0.09246826,-0.19909668,-0.049804688,0.0546875,0.053710938,10.606861,-3.8308873,-55.31935,-12.828512,-0.5810547,-0.03375244,0.82788086,0.0068359375,-0.0126953125,-0.018554688,16.473186,-7.092928,-127.14203,-8.68235,0.0,0.0,0.0,0.0,0.0,0.0,0.0,-22.12724,-126.9357,-21.869534,0.0,0.0,0.0,0.0,0.0,0.0,0.0,-0.38256586,-0.0050472245,0.9239519,-0.8912964,-0.11022949,-0.4064331,-0.0234375,-0.08105469,0.016601562,5.268456,-7.920299,-0.10449319,19.128668,0.7855835,-0.14691162,-0.5863037,-0.21191406,0.061523438,0.12402344,20.43548,-1.6038952,-56.66229,15.783351,-0.73583984,0.08605957,0.67523193,0.020507812,-0.029296875,0.0029296875,10.388568,25.628092,-120.78934,-2.4247618,0.0,0.0,0.0,0.0,0.0,0.0,0.0,10.330328,-124.14143,-14.865165,0.0,0.0,0.0,0.0,0.0,0.0,0.0,-3.1553476,44.87825,-1.0613296,
1.9531249708961698,100,-0.050598145,0.75567627,0.5512085,0.036132812,-0.013671875,0.046875,0.0,0.0,0.0,0.0,0.0,0.0,0.0,0.0,0.0,0.0,0.0,0.38251433,0.0053322427,-0.9240314,-0.9734497,-0.074645996,0.19812012,-0.041015625,0.07910156,0.034179688,16.776718,7.919232,0.110393986,-19.130316,0.9813843,-0.1194458,-0.2130127,-0.06933594,0.07421875,0.034179688,10.556276,-3.7987628,-55.330578,-12.873121,-0.57891846,-0.026977539,0.8377075,0.0068359375,-0.0126953125,0.0,16.392752,-7.0693965,-127.14578,-8.742517,0.0,0.0,0.0,0.0,0.0,0.0,0.0,-22.119173,-126.93219,-21.91286,0.0,0.0,0.0,0.0,0.0,0.0,0.0,-0.38251433,-0.0053322427,0.9240314,-0.91296387,-0.078308105,-0.41503906,-0.022460938,0.016601562,0.016601562,5.195841,-7.919232,-0.110393986,19.130316,0.7953491,-0.15106201,-0.59832764,9.765625E-4,0.020507812,0.08496094,20.582249,-1.7017636,-56.67596,15.792927,-0.71203613,0.122558594,0.67510986,9.765625E-4,-0.047851562,0.022460938,10.455981,25.45337,-120.770706,-2.6426544,0.0,0.0,0.0,0.0,0.0,0.0,0.0,10.1465645,-124.1094,-15.074588,0.0,0.0,0.0,0.0,0.0,0.0,0.0,-3.2538204,44.873074,-1.0880139,
1.9726562206051315,101,-0.06439209,0.8015137,0.51416016,-0.041015625,0.025390625,0.03125,0.0,0.0,0.0,0.0,0.0,0.0,0.0,0.0,0.0,0.0,0.0,0.3814611,0.005786326,-0.92430377,-0.9794922,-0.04663086,0.21655273,-0.00390625,0.041015625,0.034179688,16.875044,7.897428,0.119794875,-19.135954,0.9885254,-0.12286377,-0.1642456,-0.068359375,0.0546875,0.072265625,10.558551,-3.8413644,-55.310555,-12.893939,-0.57977295,-0.018066406,0.82977295,0.026367188,-0.013671875,9.765625E-4,16.429691,-7.141101,-127.127884,-8.790291,0.0,0.0,0.0,0.0,0.0,0.0,0.0,-22.180008,-126.90299,-21.971752,0.0,0.0,0.0,0.0,0.0,0.0,0.0,-0.3814611,-0.005786326,0.92430377,-0.8928833,-0.080200195,-0.43371582,0.053710938,-0.024414062,0.07714844,5.164636,-7.897428,-0.119794875,19.135954,0.7813721,-0.08898926,-0.6300049,0.11621094,0.056640625,0.044921875,20.631794,-1.7199392,-56.69443,15.779554,-0.73669434,0.11401367,0.6781616,0.001953125,-0.047851562,-0.015625,10.203997,25.457355,-120.77765,-2.6766644,0.0,0.0,0.0,0.0,0.0,0.0,0.0,10.131273,-124.10352,-15.089725,0.0,0.0,0.0,0.0,0.0,0.0,0.0,-3.3199782,44.86151,-1.0893166,
1.9921874703140932,102,-0.039978027,0.8109131,0.5354614,-0.061523438,-0.01171875,0.03125,0.0,0.0,0.0,0.0,0.0,0.0,0.0,0.0,0.0,0.0,0.0,0.37907782,0.005459383,-0.92530394,-0.9766846,-0.08068848,0.21496582,-0.07910156,0.059570312,0.034179688,16.946625,7.8480864,0.11302616,-19.15666,0.97717285,-0.12817383,-0.19207764,-0.05078125,0.036132812,0.03515625,10.541447,-3.9153318,-55.32002,-12.944747,-0.57092285,-0.031066895,0.8189087,0.0078125,-0.01171875,0.038085938,16.446222,-7.2729506,-127.134476,-8.895534,0.0,0.0,0.0,0.0,0.0,0.0,0.0,-22.310211,-126.90679,-22.078575,0.0,0.0,0.0,0.0,0.0,0.0,0.0,-0.37907782,-0.005459383,0.92530394,-0.8779297,-0.086364746,-0.43182373,-0.0234375,-0.0029296875,0.057617188,5.1907473,-7.8480864,-0.11302616,19.15666,0.8119507,-0.119384766,-0.6343994,-0.07714844,0.059570312,0.06640625,20.640564,-1.6845207,-56.684757,15.77467,-0.7173462,0.08178711,0.66625977,-0.017578125,-0.06640625,0.00390625,10.105656,25.547382,-120.7619,-2.6265411,0.0,0.0,0.0,0.0,0.0,0.0,0.0,10.225197,-124.08495,-15.046002,0.0,0.0,0.0,0.0,0.0,0.0,0.0,-3.3759785,44.857376,-1.1184056,
2.011718720023055,103,-0.05480957,0.7666626,0.54248047,0.09667969,0.041992188,0.045898438,0.0,0.0,0.0,0.0,0.0,0.0,0.0,0.0,0.0,0.0,0.0,0.37799668,0.005744841,-0.9259065,-0.9848633,-0.0758667,0.22497559,-0.022460938,-0.015625,0.033203125,17.064503,7.8257046,0.11893606,-19.169136,1.0001221,-0.105651855,-0.1772461,-0.01171875,0.07324219,0.036132812,10.5414095,-3.9830637,-55.29757,-12.938248,-0.5807495,-0.020874023,0.8060913,0.0068359375,0.005859375,0.0,16.476316,-7.4025507,-127.1118,-8.868237,0.0,0.0,0.0,0.0,0.0,0.0,0.0,-22.443829,-126.882675,-22.048489,0.0,0.0,0.0,0.0,0.0,0.0,0.0,-0.37799668,-0.005744841,0.9259065,-0.8921509,-0.10168457,-0.43585205,-0.041992188,-0.0029296875,0.057617188,5.154649,-7.8257046,-0.11893606,19.169136,0.7909546,-0.1550293,-0.62091064,-0.23242188,0.080078125,0.08691406,20.668768,-1.6748009,-56.694187,15.798459,-0.7235718,0.081726074,0.6820679,0.0390625,-0.08691406,0.0029296875,10.192405,25.577496,-120.76039,-2.5885153,0.0,0.0,0.0,0.0,0.0,0.0,0.0,10.249127,-124.080376,-14.998891,0.0,0.0,0.0,0.0,0.0,0.0,0.0,-3.4320452,44.85979,-1.1227801,
2.0312499697320168,104,-0.042907715,0.75927734,0.5252075,0.05859375,0.0625,0.06542969,0.0,0.0,0.0,0.0,0.0,0.0,0.0,0.0,0.0,0.0,0.0,0.37684503,0.0051489174,-0.92648065,-0.98999023,-0.092163086,0.21276855,-0.041992188,-0.0546875,0.051757812,17.14116,7.8018603,0.1065985,-19.18102,0.9805908,-0.11260986,-0.20202637,-0.030273438,0.09277344,0.0546875,10.566114,-4.0905805,-55.29098,-12.913607,-0.56243896,-0.004699707,0.81585693,0.026367188,0.0048828125,0.0,16.5398,-7.5874977,-127.100204,-8.803199,0.0,0.0,0.0,0.0,0.0,0.0,0.0,-22.6278,-126.863106,-21.983372,0.0,0.0,0.0,0.0,0.0,0.0,0.0,-0.37684503,-0.0051489174,0.92648065,-0.8788452,-0.07897949,-0.4140625,-0.041992188,0.07519531,0.05859375,5.1704755,-7.8018603,-0.1065985,19.18102,0.8005371,-0.1541748,-0.64575195,-0.01953125,0.040039062,0.046875,20.74179,-1.7059703,-56.68747,15.80288,-0.73358154,0.09918213,0.65252686,0.001953125,-0.028320312,0.00390625,10.313834,25.536255,-120.73433,-2.6563597,0.0,0.0,0.0,0.0,0.0,0.0,0.0,10.213055,-124.053795,-15.073371,0.0,0.0,0.0,0.0,0.0,0.0,0.0,-3.4253802,44.864,-1.1439381,
2.0507812194409785,105,-0.06378174,0.7729492,0.5516968,-0.059570312,0.06542969,0.0859375,0.0,0.0,0.0,0.0,0.0,0.0,0.0,0.0,0.0,0.0,0.0,0.37592477,0.0058592893,-0.9267456,-0.9763794,-0.07910156,0.17614746,-0.060546875,0.0029296875,0.033203125,17.249308,7.7828074,0.121305436,-19.186506,0.9968872,-0.11029053,-0.2052002,0.0068359375,0.07324219,0.036132812,10.586749,-4.1333876,-55.27468,-12.944588,-0.5683594,3.0517578E-4,0.8267822,0.0068359375,-0.0126953125,0.0,16.49361,-7.627818,-127.08662,-8.848949,0.0,0.0,0.0,0.0,0.0,0.0,0.0,-22.666248,-126.83861,-22.03061,0.0,0.0,0.0,0.0,0.0,0.0,0.0,-0.37592477,-0.0058592893,0.9267456,-0.8994751,-0.12200928,-0.3996582,-0.09863281,0.018554688,-0.0029296875,5.066432,-7.7828074,-0.121305436,19.186506,0.8052368,-0.1272583,-0.6144409,0.07714844,0.09375,0.044921875,20.781944,-1.7533603,-56.71347,15.850786,-0.7367554,0.10595703,0.68603516,-0.017578125,-0.06640625,0.00390625,10.327997,25.413998,-120.78569,-2.6400204,0.0,0.0,0.0,0.0,0.0,0.0,0.0,10.089552,-124.09442,-15.059473,0.0,0.0,0.0,0.0,0.0,0.0,0.0,-3.4980643,44.85423,-1.1353655,
2.07031246914994,106,-0.06097412,0.76776123,0.5366821,-0.040039062,0.064453125,0.06738281,0.0,0.0,0.0,0.0,0.0,0.0,0.0,0.0,0.0,0.0,0.0,0.37593037,0.006057013,-0.92671734,-0.9633789,-0.07489014,0.203125,-0.041015625,0.021484375,0.052734375,17.350208,7.7829237,0.12539889,-19.185923,1.0020142,-0.10858154,-0.18725586,0.0068359375,0.03515625,0.037109375,10.586675,-4.1673594,-55.265427,-12.987285,-0.55578613,-0.028564453,0.8208618,0.026367188,-0.08496094,0.020507812,16.48744,-7.696121,-127.07299,-8.915402,0.0,0.0,0.0,0.0,0.0,0.0,0.0,-22.737877,-126.82176,-22.093693,0.0,0.0,0.0,0.0,0.0,0.0,0.0,-0.37593037,-0.006057013,0.92671734,-0.8909912,-0.08758545,-0.41314697,-0.00390625,-0.04296875,0.016601562,4.995477,-7.7829237,-0.12539889,19.185923,0.7770996,-0.12884521,-0.63067627,-0.057617188,0.05859375,0.06640625,20.863039,-1.793508,-56.722836,15.906443,-0.69885254,0.0982666,0.6790161,9.765625E-4,-0.0859375,0.00390625,10.185802,25.423758,-120.78642,-2.541954,0.0,0.0,0.0,0.0,0.0,0.0,0.0,10.084654,-124.08847,-14.944968,0.0,0.0,0.0,0.0,0.0,0.0,0.0,-3.5682683,44.84718,-1.154376,
2.089843718858902,107,-0.06781006,0.7800293,0.5578613,0.0390625,0.08105469,0.047851562,0.0,0.0,0.0,0.0,0.0,0.0,0.0,0.0,0.0,0.0,0.0,0.37748227,0.007274773,-0.92613435,-0.9888916,-0.079589844,0.21697998,-0.09765625,0.021484375,0.052734375,17.489542,7.8150544,0.15061033,-19.173853,0.99017334,-0.09832764,-0.18713379,0.0068359375,0.053710938,0.055664062,10.617542,-4.1894183,-55.22606,-12.96819,-0.56884766,-0.02532959,0.83374023,-0.01171875,-0.030273438,-0.018554688,16.432926,-7.748177,-127.03207,-8.88642,0.0,0.0,0.0,0.0,0.0,0.0,0.0,-22.80219,-126.777596,-22.051556,0.0,0.0,0.0,0.0,0.0,0.0,0.0,-0.37748227,-0.007274773,0.92613435,-0.89398193,-0.087402344,-0.41705322,-0.00390625,0.07421875,0.037109375,4.924935,-7.8150544,-0.15061033,19.173853,0.8088989,-0.15124512,-0.62127686,0.01953125,0.057617188,0.045898438,20.908646,-1.8499198,-56.7522,15.901733,-0.72442627,0.11468506,0.68896484,9.765625E-4,-0.06640625,0.00390625,10.059854,25.358255,-120.80411,-2.60083,0.0,0.0,0.0,0.0,0.0,0.0,0.0,9.993434,-124.09325,-14.974231,0.0,0.0,0.0,0.0,0.0,0.0,0.0,-3.6282122,44.845463,-1.1265593,
