TOTAL_TIME,0m13s
TOTAL_FRAMES,684
SELECTED_FRAMES,684
NO_OF_JOINTS,12
FREQUENCY,51.2
DESCRIPTION,Capture 43
TIME_STAMP,Nov 1, 2010

Time,Frame,Pelvis_accelX_Pelvis,Pelvis_accelY_Pelvis,Pelvis_accelZ_Pelvis,Pelvis_gyroX_Pelvis,Pelvis_gyroY_Pelvis,Pelvis_gyroZ_Pelvis,Pelvis_Joint angle_Pelvis,Pelvis_Relative pos X_Pelvis,Pelvis_Relative pos Y_Pelvis,Pelvis_Relative pos Z_Pelvis,RightPelvis_accelX_RightPelvis,RightPelvis_accelY_RightPelvis,RightPelvis_accelZ_RightPelvis,RightPelvis_gyroX_RightPelvis,RightPelvis_gyroY_RightPelvis,RightPelvis_gyroZ_RightPelvis,RightPelvis_Joint angle_RightPelvis,RightPelvis_Relative pos X_RightPelvis,RightPelvis_Relative pos Y_RightPelvis,RightPelvis_Relative pos Z_RightPelvis,RightUpLeg_accelX_RightUpLeg,RightUpLeg_accelY_RightUpLeg,RightUpLeg_accelZ_RightUpLeg,RightUpLeg_gyroX_RightUpLeg,RightUpLeg_gyroY_RightUpLeg,RightUpLeg_gyroZ_RightUpLeg,RightUpLeg_Joint angle_RightUpLeg,RightUpLeg_Relative pos X_RightUpLeg,RightUpLeg_Relative pos Y_RightUpLeg,RightUpLeg_Relative pos Z_RightUpLeg,RightLeg_accelX_RightLeg,RightLeg_accelY_RightLeg,RightLeg_accelZ_RightLeg,RightLeg_gyroX_RightLeg,RightLeg_gyroY_RightLeg,RightLeg_gyroZ_RightLeg,RightLeg_Joint angle_RightLeg,RightLeg_Relative pos X_RightLeg,RightLeg_Relative pos Y_RightLeg,RightLeg_Relative pos Z_RightLeg,RightFoot_accelX_RightFoot,RightFoot_accelY_RightFoot,RightFoot_accelZ_RightFoot,RightFoot_gyroX_RightFoot,RightFoot_gyroY_RightFoot,RightFoot_gyroZ_RightFoot,RightFoot_Joint angle_RightFoot,RightFoot_Relative pos X_RightFoot,RightFoot_Relative pos Y_RightFoot,RightFoot_Relative pos Z_RightFoot,RightFootEnd_accelX_RightFootEnd,RightFootEnd_accelY_RightFootEnd,RightFootEnd_accelZ_RightFootEnd,RightFootEnd_gyroX_RightFootEnd,RightFootEnd_gyroY_RightFootEnd,RightFootEnd_gyroZ_RightFootEnd,RightFootEnd_Joint angle_RightFootEnd,RightFootEnd_Relative pos X_RightFootEnd,RightFootEnd_Relative pos Y_RightFootEnd,RightFootEnd_Relative pos Z_RightFootEnd,LeftPelvis_accelX_LeftPelvis,LeftPelvis_accelY_LeftPelvis,LeftPelvis_accelZ_LeftPelvis,LeftPelvis_gyroX_LeftPelvis,LeftPelvis_gyroY_LeftPelvis,LeftPelvis_gyroZ_LeftPelvis,LeftPelvis_Joint angle_LeftPelvis,LeftPelvis_Relative pos X_LeftPelvis,LeftPelvis_Relative pos Y_LeftPelvis,LeftPelvis_Relative pos Z_LeftPelvis,LeftUpLeg_accelX_LeftUpLeg,LeftUpLeg_accelY_LeftUpLeg,LeftUpLeg_accelZ_LeftUpLeg,LeftUpLeg_gyroX_LeftUpLeg,LeftUpLeg_gyroY_LeftUpLeg,LeftUpLeg_gyroZ_LeftUpLeg,LeftUpLeg_Joint angle_LeftUpLeg,LeftUpLeg_Relative pos X_LeftUpLeg,LeftUpLeg_Relative pos Y_LeftUpLeg,LeftUpLeg_Relative pos Z_LeftUpLeg,LeftLeg_accelX_LeftLeg,LeftLeg_accelY_LeftLeg,LeftLeg_accelZ_LeftLeg,LeftLeg_gyroX_LeftLeg,LeftLeg_gyroY_LeftLeg,LeftLeg_gyroZ_LeftLeg,LeftLeg_Joint angle_LeftLeg,LeftLeg_Relative pos X_LeftLeg,LeftLeg_Relative pos Y_LeftLeg,LeftLeg_Relative pos Z_LeftLeg,LeftFoot_accelX_LeftFoot,LeftFoot_accelY_LeftFoot,LeftFoot_accelZ_LeftFoot,LeftFoot_gyroX_LeftFoot,LeftFoot_gyroY_LeftFoot,LeftFoot_gyroZ_LeftFoot,LeftFoot_Joint angle_LeftFoot,LeftFoot_Relative pos X_LeftFoot,LeftFoot_Relative pos Y_LeftFoot,LeftFoot_Relative pos Z_LeftFoot,LeftFootEnd_accelX_LeftFootEnd,LeftFootEnd_accelY_LeftFootEnd,LeftFootEnd_accelZ_LeftFootEnd,LeftFootEnd_gyroX_LeftFootEnd,LeftFootEnd_gyroY_LeftFootEnd,LeftFootEnd_gyroZ_LeftFootEnd,LeftFootEnd_Joint angle_LeftFootEnd,LeftFootEnd_Relative pos X_LeftFootEnd,LeftFootEnd_Relative pos Y_LeftFootEnd,LeftFootEnd_Relative pos Z_LeftFootEnd,Spine_accelX_Spine,Spine_accelY_Spine,Spine_accelZ_Spine,Spine_gyroX_Spine,Spine_gyroY_Spine,Spine_gyroZ_Spine,Spine_Joint angle_Spine,Spine_Relative pos X_Spine,Spine_Relative pos Y_Spine,Spine_Relative pos Z_Spine,
0.0,0,-0.41711426,0.84295654,0.5686035,0.75390625,0.32714844,-0.13085938,0.0,0.0,0.0,0.0,0.0,0.0,0.0,0.0,0.0,0.0,0.0,-0.6455045,0.077235855,0.7600742,-1.0342407,-0.2277832,0.15466309,1.0527344,1.4853516,0.60058594,29.820463,-13.363943,1.5990216,15.735893,1.0247192,0.21734619,-0.053649902,-0.47265625,-0.93359375,0.31835938,19.969574,-42.123688,-47.40413,19.60292,-0.60980225,-0.016906738,0.7922363,0.041015625,0.7832031,0.123046875,35.354668,-70.5177,-107.00393,48.340538,0.0,0.0,0.0,0.0,0.0,0.0,0.0,-51.71086,-113.07246,51.40381,0.0,0.0,0.0,0.0,0.0,0.0,0.0,0.6455045,-0.077235855,-0.7600742,-2.0,0.38946533,0.9954834,-2.647461,2.7109375,-0.64160156,20.637056,13.363943,-1.5990216,-15.735893,-0.4319458,-0.4104004,-0.0034179688,-4.3291016,3.1455078,-0.1640625,18.830877,32.316643,-54.414642,-5.6745005,-2.0,-0.41778564,-1.7634277,0.009765625,-2.5253906,0.057617188,67.78815,41.36178,-118.5859,25.426453,0.0,0.0,0.0,0.0,0.0,0.0,0.0,60.574036,-124.048134,24.771242,0.0,0.0,0.0,0.0,0.0,0.0,0.0,0.4095698,44.809185,-4.205506,
0.0195312497089617,1,-0.41711426,0.84295654,0.5686035,0.75390625,0.32714844,-0.13085938,0.0,0.0,0.0,0.0,0.0,0.0,0.0,0.0,0.0,0.0,0.0,-0.6455045,0.077235855,0.7600742,-1.0342407,-0.2277832,0.15466309,1.0527344,1.4853516,0.60058594,29.820463,-13.363943,1.5990216,15.735893,1.0247192,0.21734619,-0.053649902,-0.47265625,-0.93359375,0.31835938,19.969574,-42.123688,-47.40413,19.60292,-0.60980225,-0.016906738,0.7922363,0.041015625,0.7832031,0.123046875,35.354668,-70.5177,-107.00393,48.340538,0.0,0.0,0.0,0.0,0.0,0.0,0.0,-51.71086,-113.07246,51.40381,0.0,0.0,0.0,0.0,0.0,0.0,0.0,0.6455045,-0.077235855,-0.7600742,-2.0,0.38946533,0.9954834,-2.647461,2.7109375,-0.64160156,20.637056,13.363943,-1.5990216,-15.735893,-0.4319458,-0.4104004,-0.0034179688,-4.3291016,3.1455078,-0.1640625,18.830877,32.316643,-54.414642,-5.6745005,-2.0,-0.41778564,-1.7634277,0.009765625,-2.5253906,0.057617188,67.78815,41.36178,-118.5859,25.426453,0.0,0.0,0.0,0.0,0.0,0.0,0.0,60.574036,-124.048134,24.771242,0.0,0.0,0.0,0.0,0.0,0.0,0.0,0.4095698,44.809185,-4.205506,
0.0390624994179234,2,-0.41711426,0.84295654,0.5686035,0.75390625,0.32714844,-0.13085938,0.0,0.0,0.0,0.0,0.0,0.0,0.0,0.0,0.0,0.0,0.0,-0.6455045,0.077235855,0.7600742,-1.0342407,-0.2277832,0.15466309,1.0527344,1.4853516,0.60058594,29.820463,-13.363943,1.5990216,15.735893,1.0247192,0.21734619,-0.053649902,-0.47265625,-0.93359375,0.31835938,19.969574,-42.123688,-47.40413,19.60292,-0.60980225,-0.016906738,0.7922363,0.041015625,0.7832031,0.123046875,35.354668,-70.5177,-107.00393,48.340538,0.0,0.0,0.0,0.0,0.0,0.0,0.0,-51.71086,-113.07246,51.40381,0.0,0.0,0.0,0.0,0.0,0.0,0.0,0.6455045,-0.077235855,-0.7600742,-2.0,0.38946533,0.9954834,-2.647461,2.7109375,-0.64160156,20.637056,13.363943,-1.5990216,-15.735893,-0.4319458,-0.4104004,-0.0034179688,-4.3291016,3.1455078,-0.1640625,18.830877,32.316643,-54.414642,-5.6745005,-2.0,-0.41778564,-1.7634277,0.009765625,-2.5253906,0.057617188,67.78815,41.36178,-118.5859,25.426453,0.0,0.0,0.0,0.0,0.0,0.0,0.0,60.574036,-124.048134,24.771242,0.0,0.0,0.0,0.0,0.0,0.0,0.0,0.4095698,44.809185,-4.205506,
0.0585937491268851,3,-0.05999756,0.79315186,0.46618652,0.018554688,0.044921875,0.10253906,0.0,0.0,0.0,0.0,0.0,0.0,0.0,0.0,0.0,0.0,0.0,-0.53927547,-0.011003261,0.84217453,-0.98583984,0.019104004,-0.04626465,0.015625,1.1757812,0.63671875,2.0130477,-11.164674,-0.22780164,17.435623,0.98205566,-0.09289551,-0.24182129,0.024414062,0.03515625,0.018554688,2.1413746,-11.687621,-57.22163,16.574024,-0.585083,-0.039489746,0.8130493,0.005859375,0.11328125,-0.0390625,17.987072,-9.281577,-129.15108,14.179409,0.0,0.0,0.0,0.0,0.0,0.0,0.0,-6.3773475,-129.37596,33.96607,0.0,0.0,0.0,0.0,0.0,0.0,0.0,0.53927547,0.011003261,-0.84217453,-0.9316406,-0.121154785,-0.3269043,-0.15625,-0.07714844,-0.022460938,1.9483281,11.164674,0.22780164,-17.435623,0.9914551,-0.080322266,-0.1829834,-0.057617188,0.021484375,0.08496094,4.062113,10.980368,-56.727684,-19.800262,-0.41381836,0.081726074,0.9015503,-0.049804688,0.61328125,1.1152344,4.4469967,10.327902,-128.68256,-16.967045,0.0,0.0,0.0,0.0,0.0,0.0,0.0,15.682564,-128.53044,2.3027344,0.0,0.0,0.0,0.0,0.0,0.0,0.0,1.6602354,44.94351,1.6503105,
0.0781249988358468,4,-0.046020508,0.8186035,0.46307373,0.01953125,0.064453125,0.10253906,0.0,0.0,0.0,0.0,0.0,0.0,0.0,0.0,0.0,0.0,0.0,-0.54204017,-0.012339033,0.8404544,-0.9907837,0.01171875,-0.06726074,-0.060546875,0.81640625,0.46191406,1.39072,-11.22191,-0.25545624,17.400013,0.95806885,-0.11639404,-0.2397461,0.005859375,0.03515625,0.017578125,3.2368844,-12.998762,-57.22651,16.569597,-0.5756836,-0.013244629,0.8278198,0.026367188,-0.0126953125,0.01953125,17.924282,-10.581465,-129.15741,14.221768,0.0,0.0,0.0,0.0,0.0,0.0,0.0,-7.656008,-129.36455,34.004944,0.0,0.0,0.0,0.0,0.0,0.0,0.0,0.54204017,0.012339033,-0.8404544,-0.90856934,-0.12310791,-0.38684082,0.07324219,0.091796875,0.056640625,1.7941691,11.22191,0.25545624,-17.400013,1.0128784,-0.07269287,-0.21606445,0.020507812,-0.016601562,0.06542969,4.0875845,10.913505,-56.699398,-19.771427,-0.43011475,0.099121094,0.8966675,-0.01171875,0.5371094,0.9453125,5.456466,10.204748,-128.64983,-16.897575,0.0,0.0,0.0,0.0,0.0,0.0,0.0,15.229667,-128.45259,2.4601974,0.0,0.0,0.0,0.0,0.0,0.0,0.0,1.6444683,44.9443,1.7204231,
0.09765624854480849,5,-0.04083252,0.819458,0.46990967,-0.040039062,0.06542969,0.10449219,0.0,0.0,0.0,0.0,0.0,0.0,0.0,0.0,0.0,0.0,0.0,-0.54393786,-0.013742466,0.8392143,-0.99176025,0.005065918,-0.07733154,-0.022460938,0.21191406,0.11230469,1.4526609,-11.2612,-0.2845117,17.374338,0.9977417,-0.111206055,-0.22912598,-0.0126953125,0.03515625,0.036132812,3.8486302,-13.692521,-57.233627,16.50458,-0.5726929,-0.022033691,0.79418945,0.026367188,0.0048828125,0.01953125,17.947916,-11.238732,-129.16402,14.208557,0.0,0.0,0.0,0.0,0.0,0.0,0.0,-8.300756,-129.35854,33.991234,0.0,0.0,0.0,0.0,0.0,0.0,0.0,0.54393786,0.013742466,-0.8392143,-0.93566895,-0.12249756,-0.3494873,-0.00390625,0.015625,-0.00390625,1.67351,11.2612,0.2845117,-17.374338,0.9909668,-0.08935547,-0.21154785,-0.018554688,0.021484375,0.06542969,4.0797195,10.862873,-56.672886,-19.78119,-0.4640503,0.09857178,0.9145508,-0.032226562,0.38671875,0.64453125,6.213029,10.107245,-128.62206,-16.953655,0.0,0.0,0.0,0.0,0.0,0.0,0.0,14.911189,-128.39027,2.4593887,0.0,0.0,0.0,0.0,0.0,0.0,0.0,1.6240335,44.94272,1.7885741,
0.11718749825377019,6,-0.054016113,0.79589844,0.45910645,0.01953125,0.06347656,0.08496094,0.0,0.0,0.0,0.0,0.0,0.0,0.0,0.0,0.0,0.0,0.0,-0.54663885,-0.014500369,0.83743227,-0.9977417,6.1035156E-4,-0.09637451,-0.13574219,0.021484375,0.0146484375,1.4290289,-11.317118,-0.30020258,17.337444,0.9893799,-0.08538818,-0.22393799,0.005859375,0.016601562,0.017578125,3.9023416,-13.807415,-57.240273,16.37071,-0.56555176,-0.011474609,0.8109741,-0.01171875,0.005859375,0.0,17.95557,-11.308054,-129.17426,14.10742,0.0,0.0,0.0,0.0,0.0,0.0,0.0,-8.356097,-129.35258,33.886078,0.0,0.0,0.0,0.0,0.0,0.0,0.0,0.54663885,0.014500369,-0.83743227,-0.9151001,-0.08648682,-0.35906982,-0.23339844,-0.13378906,-0.021484375,1.6207579,11.317118,0.30020258,-17.337444,0.9866333,-0.08734131,-0.23516846,-0.057617188,0.05859375,0.06640625,4.02482,10.895263,-56.655815,-19.667923,-0.44152832,0.09210205,0.9213257,-0.051757812,0.23828125,0.2109375,6.506803,10.06649,-128.6069,-16.82088,0.0,0.0,0.0,0.0,0.0,0.0,0.0,14.80268,-128.37225,2.6101608,0.0,0.0,0.0,0.0,0.0,0.0,0.0,1.605648,44.94139,1.8262688,
0.1367187479627319,7,-0.073913574,0.79559326,0.48254395,0.041015625,0.12011719,0.06640625,0.0,0.0,0.0,0.0,0.0,0.0,0.0,0.0,0.0,0.0,0.0,-0.5478023,-0.013694545,0.83662796,-0.99993896,0.0146484375,-0.06225586,-0.041015625,0.041992188,-0.00390625,1.3323673,-11.341205,-0.28351957,17.320793,0.9696655,-0.101257324,-0.23077393,-0.049804688,0.0546875,0.053710938,3.893902,-13.83332,-57.226254,16.303406,-0.5765991,-0.010192871,0.8208618,0.0078125,-0.030273438,0.0,18.040466,-11.31679,-129.15733,14.083862,0.0,0.0,0.0,0.0,0.0,0.0,0.0,-8.363975,-129.32176,33.863884,0.0,0.0,0.0,0.0,0.0,0.0,0.0,0.5478023,0.013694545,-0.83662796,-0.88549805,-0.12567139,-0.33874512,-0.080078125,0.018554688,-0.0234375,1.5539377,11.341205,0.28351957,-17.320793,1.0029907,-0.097473145,-0.19989014,0.0,0.057617188,0.046875,4.008243,10.860935,-56.673626,-19.611021,-0.42199707,0.085998535,0.8946533,0.00390625,0.06640625,0.00390625,6.458618,9.949339,-128.6229,-16.735199,0.0,0.0,0.0,0.0,0.0,0.0,0.0,14.753735,-128.39423,2.678772,0.0,0.0,0.0,0.0,0.0,0.0,0.0,1.599175,44.94121,1.7827295,
0.1562499976716936,8,-0.09069824,0.84155273,0.44848633,0.041015625,0.119140625,0.047851562,0.0,0.0,0.0,0.0,0.0,0.0,0.0,0.0,0.0,0.0,0.0,-0.5513953,-0.012806932,0.8342506,-0.9932251,-0.013916016,-0.044799805,-0.041015625,-0.015625,-0.0048828125,1.2098222,-11.415592,-0.2651432,17.271578,0.9501953,-0.10925293,-0.23266602,-0.06933594,0.016601562,0.053710938,3.788427,-13.81583,-57.21027,16.223022,-0.5726929,-0.018127441,0.80407715,-0.01171875,-0.01171875,0.018554688,18.124065,-11.297553,-129.14252,14.054476,0.0,0.0,0.0,0.0,0.0,0.0,0.0,-8.337701,-129.29901,33.83324,0.0,0.0,0.0,0.0,0.0,0.0,0.0,0.5513953,0.012806932,-0.8342506,-0.91882324,-0.13977051,-0.3378296,0.07324219,0.16992188,-0.00390625,1.2975441,11.415592,0.2651432,-17.271578,0.99102783,-0.059448242,-0.21868896,-0.07714844,0.059570312,0.046875,3.9989493,10.739894,-56.69051,-19.596743,-0.43737793,0.084228516,0.8967285,0.0029296875,0.009765625,0.00390625,6.3130155,9.816131,-128.64111,-16.741468,0.0,0.0,0.0,0.0,0.0,0.0,0.0,14.695669,-128.41591,2.6534367,0.0,0.0,0.0,0.0,0.0,0.0,0.0,1.54482,44.94486,1.7110112,
0.1757812473806553,9,-0.09716797,0.8220825,0.48535156,0.01953125,0.06347656,0.08496094,0.0,0.0,0.0,0.0,0.0,0.0,0.0,0.0,0.0,0.0,0.0,-0.5525104,-0.012153271,0.83358717,-0.97839355,0.03112793,-0.0769043,0.015625,0.0029296875,0.033203125,1.1178513,-11.438678,-0.25161037,17.25784,0.9614258,-0.107788086,-0.23077393,-0.06933594,-0.001953125,0.053710938,3.7553062,-13.834117,-57.19568,16.153666,-0.585022,-0.03741455,0.7932739,-0.03125,0.024414062,0.017578125,18.224142,-11.322355,-129.13663,14.031575,0.0,0.0,0.0,0.0,0.0,0.0,0.0,-8.356354,-129.29129,33.809628,0.0,0.0,0.0,0.0,0.0,0.0,0.0,0.5525104,0.012153271,-0.83358717,-0.93414307,-0.08282471,-0.37280273,-0.080078125,0.018554688,0.017578125,1.158934,11.438678,0.25161037,-17.25784,1.0077515,-0.06359863,-0.16760254,-0.057617188,0.05859375,0.08496094,3.9810846,10.623703,-56.700512,-19.569868,-0.42608643,0.08404541,0.8927002,0.0029296875,0.009765625,-0.015625,6.250624,9.743169,-128.64626,-16.698132,0.0,0.0,0.0,0.0,0.0,0.0,0.0,14.671738,-128.42444,2.6850777,0.0,0.0,0.0,0.0,0.0,0.0,0.0,1.5416036,44.94868,1.6771197,
0.19531249708961698,10,-0.07989502,0.78985596,0.48760986,0.037109375,0.024414062,0.06542969,0.0,0.0,0.0,0.0,0.0,0.0,0.0,0.0,0.0,0.0,0.0,-0.5540237,-0.011710749,0.8325599,-0.996521,0.015319824,-0.10510254,-0.07910156,0.0029296875,-0.0048828125,1.0900217,-11.470009,-0.24244879,17.23657,0.9968262,-0.10925293,-0.2241211,-0.03125,0.016601562,0.0546875,3.7833066,-13.902073,-57.183594,16.113083,-0.5889282,-0.026550293,0.8120117,-0.01171875,-0.0126953125,-0.018554688,18.291508,-11.385532,-129.12,14.029469,0.0,0.0,0.0,0.0,0.0,0.0,0.0,-8.414893,-129.26859,33.806026,0.0,0.0,0.0,0.0,0.0,0.0,0.0,0.5540237,0.011710749,-0.8325599,-0.93963623,-0.11651611,-0.3513794,-0.13769531,-0.078125,0.018554688,1.0091064,11.470009,0.24244879,-17.23657,0.993103,-0.09637451,-0.1977539,0.0,0.057617188,0.06542969,3.9239595,10.530943,-56.708973,-19.494625,-0.41278076,0.085754395,0.90057373,0.0029296875,0.009765625,-0.015625,6.16278,9.677236,-128.65973,-16.614136,0.0,0.0,0.0,0.0,0.0,0.0,0.0,14.6506195,-128.43486,2.75708,0.0,0.0,0.0,0.0,0.0,0.0,0.0,1.521636,44.94948,1.644824,
0.21484374679857868,11,-0.05706787,0.8308716,0.47039795,-0.040039062,0.044921875,0.048828125,0.0,0.0,0.0,0.0,0.0,0.0,0.0,0.0,0.0,0.0,0.0,-0.5552104,-0.011716669,0.83178526,-0.99053955,0.03326416,-0.07489014,-0.00390625,0.00390625,-0.0048828125,1.0982485,-11.494576,-0.24257137,17.220533,0.99053955,-0.11682129,-0.2230835,-0.01171875,0.03515625,0.055664062,3.8275595,-13.977355,-57.179256,16.074532,-0.5726929,-0.020080566,0.8050537,0.0068359375,0.005859375,0.0,18.41714,-11.451105,-129.1194,14.037155,0.0,0.0,0.0,0.0,0.0,0.0,0.0,-8.477564,-129.25507,33.814148,0.0,0.0,0.0,0.0,0.0,0.0,0.0,0.5552104,0.011716669,-0.83178526,-0.90618896,-0.09515381,-0.33062744,-0.041992188,-0.041992188,0.037109375,1.0087184,11.494576,0.24257137,-17.220533,0.9953003,-0.097351074,-0.18395996,-0.057617188,0.05859375,0.06640625,3.921863,10.586399,-56.713528,-19.458715,-0.42199707,0.091918945,0.8986206,-0.016601562,0.009765625,0.00390625,6.022425,9.764248,-128.65742,-16.556297,0.0,0.0,0.0,0.0,0.0,0.0,0.0,14.790821,-128.43237,2.8002262,0.0,0.0,0.0,0.0,0.0,0.0,0.0,1.4978015,44.95133,1.6329634,
0.23437499650754037,12,-0.078308105,0.83636475,0.46502686,-0.041015625,0.026367188,0.048828125,0.0,0.0,0.0,0.0,0.0,0.0,0.0,0.0,0.0,0.0,0.0,-0.5562432,-0.011616305,0.8310645,-0.9898071,0.014465332,-0.058288574,-0.00390625,0.0029296875,0.0146484375,1.0640405,-11.51596,-0.24049354,17.205612,0.9661255,-0.11968994,-0.23883057,-0.068359375,0.09277344,0.052734375,3.7727857,-13.960075,-57.182106,16.047667,-0.5788574,-0.027770996,0.802124,0.0068359375,-0.0126953125,-0.018554688,18.544462,-11.440748,-129.11938,14.070149,0.0,0.0,0.0,0.0,0.0,0.0,0.0,-8.445759,-129.24747,33.84366,0.0,0.0,0.0,0.0,0.0,0.0,0.0,0.5562432,0.011616305,-0.8310645,-0.91522217,-0.09442139,-0.31292725,0.015625,0.11328125,0.037109375,0.92640686,11.51596,0.24049354,-17.205612,0.9906616,-0.06536865,-0.17614746,-0.038085938,0.021484375,0.06640625,3.9290466,10.5569105,-56.71472,-19.446129,-0.4210205,0.083862305,0.9055176,0.0029296875,0.028320312,0.00390625,5.8986382,9.733997,-128.66708,-16.534946,0.0,0.0,0.0,0.0,0.0,0.0,0.0,14.804147,-128.44772,2.811407,0.0,0.0,0.0,0.0,0.0,0.0,0.0,1.4671655,44.95196,1.610316,
0.2539062462165021,13,-0.05218506,0.81170654,0.45220947,-0.021484375,0.025390625,0.048828125,0.0,0.0,0.0,0.0,0.0,0.0,0.0,0.0,0.0,0.0,0.0,-0.55758476,-0.012106626,0.83018637,-0.97546387,0.014587402,-0.0791626,-0.00390625,-0.016601562,0.07128906,1.0900217,-11.543731,-0.25064468,17.187431,0.982666,-0.10662842,-0.23693848,0.0048828125,0.036132812,-9.765625E-4,3.703326,-13.968895,-57.192513,16.034569,-0.567749,-0.024169922,0.8050537,0.0068359375,-0.0126953125,-0.018554688,18.696404,-11.508866,-129.13223,14.0899,0.0,0.0,0.0,0.0,0.0,0.0,0.0,-8.505386,-129.25359,33.862797,0.0,0.0,0.0,0.0,0.0,0.0,0.0,0.55758476,0.012106626,-0.83018637,-0.9385376,-0.1083374,-0.36608887,-0.00390625,0.0546875,0.057617188,0.751474,11.543731,0.25064468,-17.187431,1.0150146,-0.0836792,-0.20318604,-0.09667969,0.078125,0.046875,3.9209645,10.4618845,-56.703995,-19.397345,-0.4055786,0.091552734,0.90740967,0.0029296875,0.028320312,0.00390625,5.92976,9.600601,-128.65433,-16.45614,0.0,0.0,0.0,0.0,0.0,0.0,0.0,14.707024,-128.43349,2.8810883,0.0,0.0,0.0,0.0,0.0,0.0,0.0,1.4301085,44.954002,1.6160805,
0.2734374959254638,14,-0.05999756,0.82598877,0.47540283,-0.021484375,0.026367188,0.08496094,0.0,0.0,0.0,0.0,0.0,0.0,0.0,0.0,0.0,0.0,0.0,-0.5589669,-0.0128211845,0.8291923,-0.9946289,0.0064086914,-0.0982666,-0.09765625,0.021484375,0.052734375,1.1395228,-11.572347,-0.26543826,17.166851,0.99005127,-0.09515381,-0.25091553,0.0068359375,0.03515625,0.055664062,3.7886858,-14.072304,-57.201744,15.960411,-0.57977295,-0.019958496,0.81695557,-0.01171875,0.005859375,0.0,18.760742,-11.583748,-129.15234,14.024012,0.0,0.0,0.0,0.0,0.0,0.0,0.0,-8.587826,-129.27058,33.798676,0.0,0.0,0.0,0.0,0.0,0.0,0.0,0.5589669,0.0128211845,-0.8291923,-0.9243164,-0.097351074,-0.34735107,-0.099609375,-0.059570312,-0.0029296875,0.66822535,11.572347,0.26543826,-17.166851,0.99102783,-0.10131836,-0.20159912,-0.0390625,0.05859375,0.06542969,3.9170165,10.459887,-56.69046,-19.340181,-0.42218018,0.083618164,0.9370117,0.001953125,-0.009765625,-0.015625,5.9212255,9.63343,-128.63165,-16.3578,0.0,0.0,0.0,0.0,0.0,0.0,0.0,14.784598,-128.41472,2.9664917,0.0,0.0,0.0,0.0,0.0,0.0,0.0,1.397022,44.95231,1.6368108,
0.2929687456344255,15,-0.061157227,0.8577881,0.4727173,-0.080078125,0.02734375,0.049804688,0.0,0.0,0.0,0.0,0.0,0.0,0.0,0.0,0.0,0.0,0.0,-0.5606635,-0.013231772,0.8280379,-0.98657227,0.035888672,-0.06286621,-0.060546875,0.041015625,0.0146484375,1.1676811,-11.607471,-0.27393872,17.14295,0.97558594,-0.109375,-0.21594238,-0.06933594,0.036132812,0.053710938,3.8112557,-14.111259,-57.207954,15.932444,-0.57373047,-0.020141602,0.81396484,0.0068359375,-0.0126953125,0.018554688,18.908321,-11.598149,-129.14978,13.992508,0.0,0.0,0.0,0.0,0.0,0.0,0.0,-8.608722,-129.25638,33.766174,0.0,0.0,0.0,0.0,0.0,0.0,0.0,0.5606635,0.013231772,-0.8280379,-0.9092407,-0.09790039,-0.33654785,-0.00390625,0.015625,0.016601562,0.6345818,11.607471,0.27393872,-17.14295,0.9916992,-0.068359375,-0.17321777,-0.020507812,0.11425781,0.045898438,3.9023914,10.483166,-56.679966,-19.306559,-0.4251709,0.081848145,0.9143677,-0.016601562,0.009765625,0.00390625,5.778825,9.695188,-128.62735,-16.330322,0.0,0.0,0.0,0.0,0.0,0.0,0.0,14.908026,-128.41934,2.9782028,0.0,0.0,0.0,0.0,0.0,0.0,0.0,1.3827322,44.952034,1.6545649,
0.3124999953433872,16,-0.06817627,0.8171997,0.46661377,-0.040039062,0.064453125,0.06738281,0.0,0.0,0.0,0.0,0.0,0.0,0.0,0.0,0.0,0.0,0.0,-0.5611383,-0.013638694,0.8277101,-0.98876953,0.01550293,-0.064208984,-0.022460938,0.0029296875,0.033203125,1.1693559,-11.617302,-0.28236327,17.136164,0.96698,-0.08935547,-0.23773193,-0.0126953125,0.0546875,0.036132812,3.7684753,-14.097744,-57.219723,15.917088,-0.5807495,-0.018920898,0.80999756,-0.01171875,0.005859375,0.0,18.996311,-11.604339,-129.16615,13.99878,0.0,0.0,0.0,0.0,0.0,0.0,0.0,-8.609901,-129.26385,33.772083,0.0,0.0,0.0,0.0,0.0,0.0,0.0,0.5611383,0.013638694,-0.8277101,-0.9415283,-0.10784912,-0.34448242,0.07324219,0.111328125,0.056640625,0.4334104,11.617302,0.28236327,-17.136164,1.0002441,-0.061462402,-0.13787842,-0.09667969,0.09667969,0.06640625,3.916417,10.29919,-56.66705,-19.286423,-0.4210205,0.07891846,0.8966675,-0.016601562,0.009765625,0.041015625,5.6563444,9.5887575,-128.60753,-16.291462,0.0,0.0,0.0,0.0,0.0,0.0,0.0,14.857186,-128.4044,3.0016804,0.0,0.0,0.0,0.0,0.0,0.0,0.0,1.3803649,44.951313,1.676496,
0.3320312450523489,17,-0.064086914,0.8101196,0.46746826,-0.001953125,0.026367188,0.08496094,0.0,0.0,0.0,0.0,0.0,0.0,0.0,0.0,0.0,0.0,0.0,-0.56225896,-0.013877723,0.8270552,-0.9846802,-7.9345703E-4,-0.08343506,-0.00390625,-0.015625,0.033203125,1.1467125,-11.640504,-0.28731188,17.122608,0.98553467,-0.11566162,-0.2220459,-0.032226562,0.0546875,0.016601562,3.7248359,-14.093306,-57.2245,15.874772,-0.5765991,-0.012084961,0.8050537,0.0068359375,-0.0126953125,-0.018554688,19.028002,-11.611876,-129.16893,13.975476,0.0,0.0,0.0,0.0,0.0,0.0,0.0,-8.60937,-129.25868,33.74721,0.0,0.0,0.0,0.0,0.0,0.0,0.0,0.56225896,0.013877723,-0.8270552,-0.9268799,-0.065979004,-0.3078003,-0.17578125,-0.095703125,-0.001953125,0.47888115,11.640504,0.28731188,-17.122608,0.9864502,-0.09124756,-0.1798706,-0.15429688,0.0234375,0.06738281,3.907707,10.376845,-56.667152,-19.204044,-0.40979004,0.081604004,0.9074707,0.0029296875,0.009765625,-0.015625,5.7210813,9.723118,-128.60803,-16.131207,0.0,0.0,0.0,0.0,0.0,0.0,0.0,15.021431,-128.40042,3.1545334,0.0,0.0,0.0,0.0,0.0,0.0,0.0,1.3714374,44.955303,1.6866834,
0.3515624947613106,18,-0.07092285,0.8323364,0.49072266,-0.020507812,0.045898438,0.08496094,0.0,0.0,0.0,0.0,0.0,0.0,0.0,0.0,0.0,0.0,0.0,-0.563067,-0.014725839,0.826486,-1.0047607,0.022949219,-0.08605957,-0.07910156,0.021484375,0.052734375,1.2194884,-11.657235,-0.30487052,17.110823,0.9918213,-0.111083984,-0.19812012,0.0068359375,0.03515625,0.037109375,3.7715917,-14.144819,-57.238476,15.86588,-0.5828247,-0.020874023,0.8248291,-0.01171875,-0.01171875,0.0,19.101805,-11.639165,-129.19202,14.030762,0.0,0.0,0.0,0.0,0.0,0.0,0.0,-8.645035,-129.27249,33.80405,0.0,0.0,0.0,0.0,0.0,0.0,0.0,0.563067,0.014725839,-0.826486,-0.913208,-0.09466553,-0.30407715,-0.1953125,-0.056640625,-0.001953125,0.66322863,11.657235,0.30487052,-17.110823,1.0064697,-0.07952881,-0.1763916,9.765625E-4,0.001953125,0.06542969,3.8190064,10.539315,-56.654835,-19.062576,-0.4251709,0.079956055,0.904541,0.001953125,-0.009765625,0.00390625,5.6485777,9.874836,-128.5952,-15.9249,0.0,0.0,0.0,0.0,0.0,0.0,0.0,15.213511,-128.38857,3.3487473,0.0,0.0,0.0,0.0,0.0,0.0,0.0,1.3670883,44.95353,1.7323232,
0.37109374447027227,19,-0.06781006,0.78253174,0.47924805,-0.040039062,0.06542969,0.0859375,0.0,0.0,0.0,0.0,0.0,0.0,0.0,0.0,0.0,0.0,0.0,-0.56346,-0.015160666,0.82613236,-0.9805298,0.040527344,-0.05480957,-0.060546875,0.0029296875,0.0146484375,1.2483516,-11.66537,-0.31387278,17.103502,0.9831543,-0.09100342,-0.23388672,-0.03125,0.03515625,0.0546875,3.771332,-14.147626,-57.25092,15.866896,-0.5789795,-0.03466797,0.80114746,-0.01171875,0.005859375,0.0,19.144558,-11.634984,-129.20042,14.045925,0.0,0.0,0.0,0.0,0.0,0.0,0.0,-8.6392,-129.27692,33.819046,0.0,0.0,0.0,0.0,0.0,0.0,0.0,0.56346,0.015160666,-0.82613236,-0.9185791,-0.12188721,-0.34753418,0.07324219,0.111328125,0.036132812,0.584168,11.66537,0.31387278,-17.103502,1.0270996,-0.07684326,-0.19555664,-0.0390625,0.095703125,0.06542969,3.8655362,10.445211,-56.64743,-19.061302,-0.4578247,0.10357666,0.90563965,0.0029296875,0.009765625,0.00390625,5.5575657,9.764687,-128.58691,-15.878386,0.0,0.0,0.0,0.0,0.0,0.0,0.0,15.151602,-128.38394,3.3810196,0.0,0.0,0.0,0.0,0.0,0.0,0.0,1.3693757,44.949528,1.7588625,
0.39062499417923396,20,-0.06451416,0.81292725,0.4366455,-0.020507812,0.045898438,0.08496094,0.0,0.0,0.0,0.0,0.0,0.0,0.0,0.0,0.0,0.0,0.0,-0.5650471,-0.015672121,0.82503724,-0.9857788,0.009643555,-0.064331055,-0.041015625,0.022460938,0.033203125,1.3011587,-11.698226,-0.3244615,17.080828,0.97442627,-0.113220215,-0.22692871,-0.01171875,0.03515625,0.055664062,3.7305088,-14.13609,-57.265694,15.897901,-0.58483887,-0.026611328,0.80114746,0.0068359375,0.005859375,0.0,19.223343,-11.624968,-129.20233,14.10462,0.0,0.0,0.0,0.0,0.0,0.0,0.0,-8.617892,-129.27518,33.876602,0.0,0.0,0.0,0.0,0.0,0.0,0.0,0.5650471,0.015672121,-0.82503724,-0.94403076,-0.14355469,-0.32214355,0.07324219,0.091796875,0.015625,0.44101864,11.698226,0.3244615,-17.080828,1.0153198,-0.07171631,-0.19042969,-0.038085938,0.021484375,0.046875,3.914616,10.403054,-56.63028,-19.094898,-0.41674805,0.09991455,0.8867798,-0.016601562,0.029296875,0.022460938,5.413089,9.725631,-128.57013,-15.929205,0.0,0.0,0.0,0.0,0.0,0.0,0.0,15.160384,-128.36348,3.3182335,0.0,0.0,0.0,0.0,0.0,0.0,0.0,1.3237277,44.9508,1.7604573,
0.41015624388819566,21,-0.07244873,0.8171997,0.44781494,-0.059570312,0.046875,0.0859375,0.0,0.0,0.0,0.0,0.0,0.0,0.0,0.0,0.0,0.0,0.0,-0.5671992,-0.015898462,0.8235691,-0.994751,0.016723633,-0.074157715,-0.00390625,0.041015625,0.034179688,1.3229342,-11.742781,-0.32914746,17.050432,0.96606445,-0.122680664,-0.23083496,-0.013671875,0.016601562,0.017578125,3.7214699,-14.180855,-57.267082,15.867568,-0.59887695,-0.026123047,0.7883301,0.0068359375,-0.0126953125,0.018554688,19.23668,-11.672263,-129.21753,14.143504,0.0,0.0,0.0,0.0,0.0,0.0,0.0,-8.653074,-129.29292,33.914562,0.0,0.0,0.0,0.0,0.0,0.0,0.0,0.5671992,0.015898462,-0.8235691,-0.9312134,-0.09069824,-0.37286377,-0.1953125,-0.076171875,0.018554688,0.41543007,11.742781,0.32914746,-17.050432,1.0311279,-0.08190918,-0.19268799,0.0,0.0390625,0.083984375,3.89531,10.446065,-56.62592,-19.031786,-0.42095947,0.097839355,0.9074707,-0.016601562,0.029296875,0.022460938,5.3255725,9.747633,-128.55919,-15.847553,0.0,0.0,0.0,0.0,0.0,0.0,0.0,15.225012,-128.3573,3.3864918,0.0,0.0,0.0,0.0,0.0,0.0,0.0,1.2884445,44.952557,1.7551425,
0.42968749359715736,22,-0.057861328,0.82598877,0.4833374,-0.041992188,0.0078125,0.0859375,0.0,0.0,0.0,0.0,0.0,0.0,0.0,0.0,0.0,0.0,0.0,-0.5683428,-0.01681738,0.8227254,-0.99920654,-0.01550293,-0.061767578,-0.060546875,0.0029296875,0.052734375,1.333982,-11.766458,-0.3481719,17.032967,0.98358154,-0.07733154,-0.21789551,0.0068359375,0.03515625,0.037109375,3.7549934,-14.158997,-57.289692,15.828667,-0.5689087,-0.033935547,0.7942505,0.0068359375,-0.0126953125,0.0,19.161545,-11.547279,-129.23203,14.1096115,0.0,0.0,0.0,0.0,0.0,0.0,0.0,-8.510298,-129.31068,33.87635,0.0,0.0,0.0,0.0,0.0,0.0,0.0,0.5683428,0.01681738,-0.8227254,-0.90063477,-0.12799072,-0.31219482,-0.11816406,0.0,-0.001953125,0.4660423,11.766458,0.3481719,-17.032967,1.0032959,-0.109436035,-0.17614746,-0.11621094,0.09667969,0.06640625,3.837982,10.446057,-56.612118,-18.955591,-0.41485596,0.08770752,0.9074707,0.0029296875,0.009765625,0.00390625,5.208082,9.847648,-128.54678,-15.779159,0.0,0.0,0.0,0.0,0.0,0.0,0.0,15.363993,-128.34618,3.4445333,0.0,0.0,0.0,0.0,0.0,0.0,0.0,1.2750527,44.949825,1.7996347,
0.44921874330611905,23,-0.066101074,0.84399414,0.47473145,0.017578125,0.025390625,0.06640625,0.0,0.0,0.0,0.0,0.0,0.0,0.0,0.0,0.0,0.0,0.0,-0.5701224,-0.017061647,0.8214904,-0.99194336,0.012451172,-0.052368164,-0.022460938,-0.015625,-0.0048828125,1.3094043,-11.803302,-0.35322902,17.007397,0.98101807,-0.09490967,-0.22088623,-0.05078125,0.036132812,0.015625,3.7519155,-14.162815,-57.295013,15.771695,-0.5859375,-0.027648926,0.81500244,-0.01171875,-0.01171875,0.0,19.125252,-11.508444,-129.24673,14.056179,0.0,0.0,0.0,0.0,0.0,0.0,0.0,-8.463919,-129.32172,33.822723,0.0,0.0,0.0,0.0,0.0,0.0,0.0,0.5701224,0.017061647,-0.8214904,-0.9345093,-0.10797119,-0.34448242,0.091796875,0.07128906,0.036132812,0.3921704,11.803302,0.35322902,-17.007397,1.0054932,-0.09350586,-0.168396,-0.07714844,0.022460938,0.0859375,3.9078074,10.431434,-56.607685,-18.94702,-0.41278076,0.081848145,0.88775635,0.0029296875,0.028320312,0.00390625,5.1693,9.869352,-128.54659,-15.715088,0.0,0.0,0.0,0.0,0.0,0.0,0.0,15.416,-128.34763,3.5005493,0.0,0.0,0.0,0.0,0.0,0.0,0.0,1.2410762,44.951046,1.7949139,
0.46874999301508075,24,-0.09613037,0.8300171,0.49035645,-9.765625E-4,0.044921875,0.06640625,0.0,0.0,0.0,0.0,0.0,0.0,0.0,0.0,0.0,0.0,0.0,-0.56996256,-0.016498066,0.8216792,-0.97369385,0.008300781,-0.052368164,-0.00390625,0.0029296875,0.033203125,1.2481948,-11.799992,-0.34156117,17.011309,0.95825195,-0.113586426,-0.21679688,-0.06933594,0.036132812,0.053710938,3.7049649,-14.102417,-57.283035,15.78211,-0.5916748,-0.0126953125,0.8208618,0.0068359375,0.005859375,0.018554688,19.077183,-11.432784,-129.22894,14.107746,0.0,0.0,0.0,0.0,0.0,0.0,0.0,-8.369466,-129.3004,33.87124,0.0,0.0,0.0,0.0,0.0,0.0,0.0,0.56996256,0.016498066,-0.8216792,-0.91973877,-0.13104248,-0.3741455,-0.00390625,0.03515625,0.057617188,0.31713545,11.799992,0.34156117,-17.011309,1.0230713,-0.10473633,-0.18444824,9.765625E-4,0.020507812,0.08496094,4.016004,10.375346,-56.61204,-18.980228,-0.42919922,0.08703613,0.904541,-0.017578125,-0.028320312,0.00390625,5.107145,9.782806,-128.54048,-15.654638,0.0,0.0,0.0,0.0,0.0,0.0,0.0,15.364454,-128.34131,3.5491562,0.0,0.0,0.0,0.0,0.0,0.0,0.0,1.2502189,44.95425,1.7698345,
0.48828124272404244,25,-0.07220459,0.8162842,0.46270752,-0.061523438,0.0078125,0.06738281,0.0,0.0,0.0,0.0,0.0,0.0,0.0,0.0,0.0,0.0,0.0,-0.57021505,-0.015920216,0.8215045,-0.99468994,0.03692627,-0.058898926,0.034179688,0.0029296875,0.07128906,1.2257305,-11.805219,-0.32959783,17.007692,1.0061035,-0.13696289,-0.24719238,-0.05078125,-0.0029296875,0.0546875,3.6388955,-14.086385,-57.273403,15.805336,-0.5930176,-0.033325195,0.8140259,0.0068359375,0.005859375,0.0,19.2728,-11.473907,-129.22893,14.152074,0.0,0.0,0.0,0.0,0.0,0.0,0.0,-8.4124155,-129.29424,33.91565,0.0,0.0,0.0,0.0,0.0,0.0,0.0,0.57021505,0.015920216,-0.8215045,-0.9102783,-0.101257324,-0.3591919,-0.119140625,-0.09765625,0.017578125,0.29074016,11.805219,0.32959783,-17.007692,1.0030518,-0.08850098,-0.2019043,-0.038085938,0.040039062,0.06640625,4.001495,10.355768,-56.623405,-18.943539,-0.43725586,0.10424805,0.89276123,0.0029296875,0.009765625,0.00390625,4.994379,9.732414,-128.55692,-15.595057,0.0,0.0,0.0,0.0,0.0,0.0,0.0,15.3501215,-128.35956,3.6004162,0.0,0.0,0.0,0.0,0.0,0.0,0.0,1.2428955,44.95545,1.7339139,
0.5078124924330042,26,-0.0579834,0.822937,0.4713745,-0.041992188,-0.01171875,0.06738281,0.0,0.0,0.0,0.0,0.0,0.0,0.0,0.0,0.0,0.0,0.0,-0.57097197,-0.016037993,0.8209856,-0.99560547,0.007446289,-0.09820557,-0.022460938,0.0029296875,0.052734375,1.2500746,-11.82089,-0.3320362,16.99695,0.9671631,-0.118774414,-0.2298584,0.024414062,-0.0029296875,0.018554688,3.6498559,-14.129074,-57.275852,15.792126,-0.56170654,-0.0234375,0.81396484,0.0068359375,0.0048828125,-0.018554688,19.331142,-11.530184,-129.22658,14.196687,0.0,0.0,0.0,0.0,0.0,0.0,0.0,-8.467686,-129.28506,33.961536,0.0,0.0,0.0,0.0,0.0,0.0,0.0,0.57097197,0.016037993,-0.8209856,-0.88934326,-0.11212158,-0.33081055,-0.15722656,-0.09667969,-0.001953125,0.3763854,11.82089,0.3320362,-16.99695,1.0048218,-0.10852051,-0.20379639,-0.057617188,0.040039062,0.06640625,3.9299436,10.48168,-56.629246,-18.873459,-0.4331665,0.12097168,0.9144287,-0.016601562,0.009765625,0.022460938,4.9383225,9.813102,-128.55891,-15.51967,0.0,0.0,0.0,0.0,0.0,0.0,0.0,15.460604,-128.35808,3.6672068,0.0,0.0,0.0,0.0,0.0,0.0,0.0,1.2204797,44.956673,1.7270392,
0.5273437421419659,27,-0.072021484,0.83032227,0.4847412,-0.10058594,-0.0107421875,0.049804688,0.0,0.0,0.0,0.0,0.0,0.0,0.0,0.0,0.0,0.0,0.0,-0.57150584,-0.015840186,0.82057804,-0.9807129,0.006713867,-0.066345215,-0.022460938,0.041015625,0.034179688,1.2469399,-11.831944,-0.32794094,16.988508,0.9611206,-0.11651611,-0.2477417,-0.05078125,0.016601562,0.03515625,3.6764219,-14.166891,-57.272125,15.770322,-0.5946045,-0.0076904297,0.81591797,-0.01171875,0.005859375,0.0,19.400085,-11.565812,-129.21971,14.179044,0.0,0.0,0.0,0.0,0.0,0.0,0.0,-8.502706,-129.27802,33.942333,0.0,0.0,0.0,0.0,0.0,0.0,0.0,0.57150584,0.015840186,-0.82057804,-0.89398193,-0.08380127,-0.32366943,0.03515625,0.07324219,0.037109375,0.3941611,11.831944,0.32794094,-16.988508,1.0128784,-0.079711914,-0.21203613,-0.07714844,0.022460938,0.0859375,3.978329,10.528,-56.635162,-18.861681,-0.4128418,0.08166504,0.90844727,0.001953125,-0.009765625,-0.015625,4.9211144,9.752479,-128.55414,-15.432213,0.0,0.0,0.0,0.0,0.0,0.0,0.0,15.4295635,-128.35559,3.7444954,0.0,0.0,0.0,0.0,0.0,0.0,0.0,1.2233472,44.955395,1.7198266,
0.5468749918509276,28,-0.046875,0.831604,0.47808838,-0.018554688,0.1015625,0.03125,0.0,0.0,0.0,0.0,0.0,0.0,0.0,0.0,0.0,0.0,0.0,-0.5725615,-0.015731486,0.81987566,-0.97961426,0.02508545,-0.060058594,0.015625,0.0029296875,0.033203125,1.2474107,-11.853798,-0.32569048,16.973969,0.9729614,-0.0914917,-0.24572754,-0.0703125,-0.001953125,0.03515625,3.6309772,-14.171846,-57.268528,15.774249,-0.5886841,-0.014770508,0.8149414,-0.01171875,0.024414062,0.018554688,19.423553,-11.610909,-129.21536,14.160176,0.0,0.0,0.0,0.0,0.0,0.0,0.0,-8.524778,-129.27443,33.920536,0.0,0.0,0.0,0.0,0.0,0.0,0.0,0.5725615,0.015731486,-0.81987566,-0.9119873,-0.08068848,-0.35705566,0.13085938,0.1484375,0.036132812,0.24628834,11.853798,0.32569048,-16.973969,0.9951782,-0.06945801,-0.20587158,-0.11621094,0.059570312,0.06640625,4.0735226,10.412449,-56.62669,-18.940865,-0.4046631,0.07556152,0.90448,-0.016601562,0.009765625,-0.015625,4.9117503,9.573439,-128.54698,-15.519269,0.0,0.0,0.0,0.0,0.0,0.0,0.0,15.279728,-128.34938,3.6497545,0.0,0.0,0.0,0.0,0.0,0.0,0.0,1.2316028,44.956234,1.7226961,
0.5664062415598893,29,-0.06500244,0.8062134,0.47039795,0.07714844,0.0234375,0.064453125,0.0,0.0,0.0,0.0,0.0,0.0,0.0,0.0,0.0,0.0,0.0,-0.57284003,-0.015811453,0.8197167,-0.9874878,0.016906738,-0.09210205,-0.00390625,0.0029296875,0.052734375,1.267177,-11.859564,-0.32734606,16.970678,0.98931885,-0.122558594,-0.2420044,-0.0126953125,0.015625,0.055664062,3.6538234,-14.207384,-57.271423,15.764387,-0.5949707,-0.02923584,0.80114746,0.025390625,0.022460938,-0.018554688,19.4303,-11.651211,-129.21132,14.176641,0.0,0.0,0.0,0.0,0.0,0.0,0.0,-8.566904,-129.26424,33.937088,0.0,0.0,0.0,0.0,0.0,0.0,0.0,0.57284003,0.015811453,-0.8197167,-0.9119873,-0.07714844,-0.3413086,-0.00390625,0.03515625,0.037109375,0.24708156,11.859564,0.32734606,-16.970678,0.99975586,-0.057495117,-0.17242432,-0.057617188,0.040039062,0.046875,4.0318694,10.4247465,-56.625805,-18.926376,-0.4373169,0.1081543,0.9065552,-0.016601562,0.009765625,0.00390625,4.8279953,9.598442,-128.55713,-15.5437565,0.0,0.0,0.0,0.0,0.0,0.0,0.0,15.335083,-128.36462,3.6150398,0.0,0.0,0.0,0.0,0.0,0.0,0.0,1.2185069,44.958115,1.7187188,
0.585937491268851,30,-0.05621338,0.81481934,0.45336914,-0.001953125,0.0068359375,0.06640625,0.0,0.0,0.0,0.0,0.0,0.0,0.0,0.0,0.0,0.0,0.0,-0.5740217,-0.016366081,0.8188264,-0.9996948,0.0045776367,-0.0993042,-0.07910156,0.041015625,0.052734375,1.3254465,-11.884028,-0.33882865,16.952246,0.9980469,-0.09942627,-0.24499512,-0.06933594,0.036132812,0.053710938,3.7027972,-14.291011,-57.27411,15.700241,-0.59368896,-0.014465332,0.79125977,-0.01171875,0.005859375,0.0,19.448956,-11.742358,-129.22102,14.11516,0.0,0.0,0.0,0.0,0.0,0.0,0.0,-8.648502,-129.27504,33.872795,0.0,0.0,0.0,0.0,0.0,0.0,0.0,0.5740217,0.016366081,-0.8188264,-0.91345215,-0.11419678,-0.34649658,-0.09863281,0.057617188,0.017578125,0.23323052,11.884028,0.33882865,-16.952246,0.9972534,-0.06347656,-0.20196533,-0.07714844,0.022460938,0.0859375,3.9990962,10.412437,-56.613842,-18.868917,-0.4169922,0.06689453,0.8966675,0.0029296875,0.009765625,0.00390625,4.799916,9.522728,-128.53824,-15.47777,0.0,0.0,0.0,0.0,0.0,0.0,0.0,15.287604,-128.34837,3.6727238,0.0,0.0,0.0,0.0,0.0,0.0,0.0,1.1355357,44.959263,1.6946561,
0.6054687409778127,31,-0.07623291,0.80548096,0.46173096,-0.061523438,-0.01171875,0.06738281,0.0,0.0,0.0,0.0,0.0,0.0,0.0,0.0,0.0,0.0,0.0,-0.574581,-0.016378256,0.8184897,-0.9909668,0.029541016,-0.028137207,0.015625,0.022460938,0.033203125,1.3189343,-11.895611,-0.33908066,16.945274,0.9803467,-0.11932373,-0.22497559,-0.12597656,0.037109375,0.051757812,3.658108,-14.304999,-57.28105,15.671253,-0.5731201,-0.03894043,0.8288574,0.044921875,0.00390625,9.765625E-4,19.640696,-11.816215,-129.23152,14.04099,0.0,0.0,0.0,0.0,0.0,0.0,0.0,-8.714769,-129.2849,33.798534,0.0,0.0,0.0,0.0,0.0,0.0,0.0,0.574581,0.016378256,-0.8184897,-0.899353,-0.111450195,-0.34942627,-0.0029296875,0.07421875,0.016601562,0.2502292,11.895611,0.33908066,-16.945274,0.99468994,-0.09643555,-0.22247314,-0.07714844,0.041015625,0.047851562,3.9925294,10.412868,-56.616077,-18.841196,-0.42614746,0.078125,0.8897705,-0.016601562,0.009765625,0.00390625,4.810882,9.4595,-128.54132,-15.428805,0.0,0.0,0.0,0.0,0.0,0.0,0.0,15.255386,-128.35706,3.7124681,0.0,0.0,0.0,0.0,0.0,0.0,0.0,1.1215603,44.961967,1.6870414,
0.6249999906867744,32,-0.06121826,0.80200195,0.45037842,0.018554688,0.043945312,0.06640625,0.0,0.0,0.0,0.0,0.0,0.0,0.0,0.0,0.0,0.0,0.0,-0.5748521,-0.01640038,0.8182149,-0.98236084,0.041870117,-0.07373047,0.015625,0.00390625,0.0146484375,1.3508915,-11.901222,-0.3395387,16.939583,0.9803467,-0.11932373,-0.22497559,-0.12597656,0.037109375,0.051757812,3.6499097,-14.298531,-57.2771,15.715328,-0.5698242,-0.028076172,0.8070679,0.0068359375,0.005859375,0.0,19.691729,-11.809746,-129.22757,14.085065,0.0,0.0,0.0,0.0,0.0,0.0,0.0,-8.725745,-129.2796,33.846092,0.0,0.0,0.0,0.0,0.0,0.0,0.0,0.5748521,0.01640038,-0.8182149,-0.9384155,-0.10223389,-0.3355713,-0.11816406,0.05859375,-0.001953125,0.26906916,11.901222,0.3395387,-16.939583,1.0050049,-0.09552002,-0.19995117,9.765625E-4,-0.016601562,0.06640625,3.9489324,10.386072,-56.615105,-18.822647,-0.4373169,0.09124756,0.8956909,-0.016601562,0.009765625,-0.015625,4.7688794,9.4162855,-128.53409,-15.451041,0.0,0.0,0.0,0.0,0.0,0.0,0.0,15.216789,-128.35034,3.688653,0.0,0.0,0.0,0.0,0.0,0.0,0.0,1.1055957,44.95961,1.6779318,
0.6445312403957361,33,-0.059448242,0.80584717,0.4354248,-9.765625E-4,0.043945312,0.030273438,0.0,0.0,0.0,0.0,0.0,0.0,0.0,0.0,0.0,0.0,0.0,-0.57608485,-0.016560918,0.81733316,-0.9927368,0.019592285,-0.07116699,-0.022460938,0.07910156,0.053710938,1.403327,-11.926742,-0.3428623,16.92133,0.9793091,-0.11627197,-0.2468872,-0.05078125,0.036132812,0.03515625,3.6190398,-14.376515,-57.282715,15.68168,-0.58532715,0.003967285,0.79315186,0.0078125,-0.030273438,0.0,19.89438,-11.987311,-129.24127,14.082385,0.0,0.0,0.0,0.0,0.0,0.0,0.0,-8.885947,-129.28862,33.839695,0.0,0.0,0.0,0.0,0.0,0.0,0.0,0.57608485,0.016560918,-0.81733316,-0.9328003,-0.13122559,-0.35546875,-0.11816406,0.05859375,0.018554688,0.31278667,11.926742,0.3428623,-16.92133,1.0145874,-0.095703125,-0.22283936,-0.07714844,0.059570312,0.06640625,3.8876612,10.394289,-56.610863,-18.774117,-0.40979004,0.06976318,0.8946533,0.021484375,0.0087890625,0.0029296875,4.716713,9.401344,-128.5425,-15.43976,0.0,0.0,0.0,0.0,0.0,0.0,0.0,15.221729,-128.3524,3.6942825,0.0,0.0,0.0,0.0,0.0,0.0,0.0,1.0739468,44.96034,1.6679476,
0.6640624901046978,34,-0.052124023,0.8147583,0.4562378,-0.020507812,0.064453125,0.0859375,0.0,0.0,0.0,0.0,0.0,0.0,0.0,0.0,0.0,0.0,0.0,-0.5769885,-0.017382387,0.8167177,-0.99383545,0.014587402,-0.06323242,-0.041015625,0.041015625,0.034179688,1.4498292,-11.945452,-0.3598693,16.908587,0.9714966,-0.1081543,-0.24078369,-0.049804688,0.016601562,0.0546875,3.6102104,-14.389705,-57.297924,15.677324,-0.5827637,-0.019897461,0.82092285,0.026367188,0.0048828125,0.0,19.929127,-12.004899,-129.25322,14.08984,0.0,0.0,0.0,0.0,0.0,0.0,0.0,-8.905355,-129.29442,33.847237,0.0,0.0,0.0,0.0,0.0,0.0,0.0,0.5769885,0.017382387,-0.8167177,-0.9185791,-0.12011719,-0.33966064,0.03515625,0.09277344,-0.00390625,0.3426407,11.945452,0.3598693,-16.908587,0.9941406,-0.0814209,-0.20178223,-0.09667969,0.059570312,0.06640625,3.906304,10.398729,-56.59268,-18.79633,-0.4128418,0.07574463,0.9035034,0.0029296875,0.009765625,0.00390625,4.7567053,9.413011,-128.52316,-15.484844,0.0,0.0,0.0,0.0,0.0,0.0,0.0,15.260828,-128.33286,3.6408482,0.0,0.0,0.0,0.0,0.0,0.0,0.0,1.0570161,44.96085,1.7036648,
0.6835937398136595,35,-0.06585693,0.8033447,0.48236084,-0.020507812,0.044921875,0.048828125,0.0,0.0,0.0,0.0,0.0,0.0,0.0,0.0,0.0,0.0,0.0,-0.57630605,-0.01694638,0.8172124,-0.99365234,0.022583008,-0.076049805,0.015625,0.0029296875,0.033203125,1.3942333,-11.931321,-0.35084257,16.91883,0.9796753,-0.10656738,-0.22790527,-0.087890625,0.017578125,0.053710938,3.5857763,-14.360443,-57.289864,15.6663,-0.61187744,-0.018859863,0.802124,-0.01171875,0.005859375,-0.018554688,19.939953,-11.986774,-129.24472,14.056449,0.0,0.0,0.0,0.0,0.0,0.0,0.0,-8.869392,-129.28546,33.811207,0.0,0.0,0.0,0.0,0.0,0.0,0.0,0.57630605,0.01694638,-0.8172124,-0.9313965,-0.10424805,-0.38079834,0.03515625,0.13183594,-0.00390625,0.43160075,11.931321,0.35084257,-16.91883,0.98950195,-0.0713501,-0.18304443,-0.057617188,0.05859375,0.06640625,3.9179664,10.216101,-56.599293,-18.812056,-0.4128418,0.079711914,0.9015503,-0.016601562,0.028320312,0.041015625,4.6758776,9.245039,-128.52284,-15.516426,0.0,0.0,0.0,0.0,0.0,0.0,0.0,15.108889,-128.33562,3.6043835,0.0,0.0,0.0,0.0,0.0,0.0,0.0,1.07979,44.96082,1.6938221,
0.7031249895226211,36,-0.082336426,0.8404541,0.4671631,-0.040039062,0.044921875,0.048828125,0.0,0.0,0.0,0.0,0.0,0.0,0.0,0.0,0.0,0.0,0.0,-0.5761572,-0.016245976,0.8173072,-0.9845581,0.014709473,-0.078186035,-0.022460938,0.0029296875,0.033203125,1.3482815,-11.92824,-0.33634204,16.920792,0.9732666,-0.11608887,-0.2388916,-0.049804688,0.016601562,0.07324219,3.552367,-14.361179,-57.27295,15.635467,-0.5788574,-0.028686523,0.7922363,0.0068359375,0.0048828125,-0.018554688,19.993498,-12.0299,-129.23422,14.043005,0.0,0.0,0.0,0.0,0.0,0.0,0.0,-8.908767,-129.27502,33.796806,0.0,0.0,0.0,0.0,0.0,0.0,0.0,0.5761572,0.016245976,-0.8173072,-0.92333984,-0.10064697,-0.3326416,-0.11816406,0.05859375,-0.022460938,0.5828267,11.92824,0.33634204,-16.920792,1.0070801,-0.093566895,-0.19506836,-0.07714844,0.078125,0.06640625,3.912665,10.037945,-56.61306,-18.775217,-0.44970703,0.09436035,0.9095459,0.00390625,0.06640625,0.00390625,4.634218,9.103719,-128.54453,-15.476491,0.0,0.0,0.0,0.0,0.0,0.0,0.0,14.993468,-128.3632,3.636323,0.0,0.0,0.0,0.0,0.0,0.0,0.0,1.0743446,44.96164,1.651077,
0.7226562392315828,37,-0.09460449,0.8307495,0.45648193,-0.021484375,0.025390625,0.048828125,0.0,0.0,0.0,0.0,0.0,0.0,0.0,0.0,0.0,0.0,0.0,-0.576956,-0.015992241,0.8167072,-0.9984741,0.027954102,-0.10284424,-0.022460938,0.022460938,0.033203125,1.3787078,-11.9447775,-0.331089,16.908371,0.9973755,-0.12390137,-0.23413086,-0.05078125,0.036132812,0.03515625,3.5798743,-14.4071455,-57.268364,15.634462,-0.5767212,-0.020019531,0.81695557,-0.01171875,0.024414062,0.0,20.033474,-12.076784,-129.21704,14.079924,0.0,0.0,0.0,0.0,0.0,0.0,0.0,-8.956336,-129.252,33.835045,0.0,0.0,0.0,0.0,0.0,0.0,0.0,0.576956,0.015992241,-0.8167072,-0.9147949,-0.13616943,-0.3260498,-0.17578125,-0.017578125,-0.001953125,0.61069757,11.9447775,0.331089,-16.908371,0.9945679,-0.07141113,-0.17913818,-0.09667969,0.041015625,0.047851562,3.8871071,10.055196,-56.61662,-18.712465,-0.4416504,0.082092285,0.92333984,0.0029296875,0.028320312,0.00390625,4.5979786,9.157033,-128.54294,-15.388215,0.0,0.0,0.0,0.0,0.0,0.0,0.0,15.0703745,-128.3637,3.7177782,0.0,0.0,0.0,0.0,0.0,0.0,0.0,1.0570745,44.9614,1.6271671,
0.7421874889405445,38,-0.069885254,0.7954712,0.48242188,-0.020507812,0.044921875,0.06738281,0.0,0.0,0.0,0.0,0.0,0.0,0.0,0.0,0.0,0.0,0.0,-0.576774,-0.015576118,0.81697786,-0.98358154,0.03765869,-0.053894043,-0.022460938,0.0029296875,0.07128906,1.379559,-11.94101,-0.32247394,16.913977,0.9873047,-0.121520996,-0.23803711,-0.049804688,0.03515625,0.0546875,3.5827718,-14.43165,-57.25721,15.63382,-0.572937,-0.03387451,0.7971802,0.0068359375,0.005859375,0.018554688,20.051779,-12.130297,-129.21814,14.114336,0.0,0.0,0.0,0.0,0.0,0.0,0.0,-8.999563,-129.2563,33.867023,0.0,0.0,0.0,0.0,0.0,0.0,0.0,0.576774,0.015576118,-0.81697786,-0.92370605,-0.1293335,-0.36035156,0.034179688,0.07324219,0.057617188,0.57742995,11.94101,0.32247394,-16.913977,0.9996948,-0.07543945,-0.168396,0.0,0.0390625,0.06542969,3.8742394,10.069502,-56.626083,-18.720387,-0.42913818,0.094055176,0.9025879,0.0029296875,0.009765625,-0.015625,4.470805,9.182035,-128.55707,-15.413219,0.0,0.0,0.0,0.0,0.0,0.0,0.0,15.116936,-128.381,3.6858654,0.0,0.0,0.0,0.0,0.0,0.0,0.0,1.061631,44.96696,1.6068144,
0.7617187386495062,39,-0.074523926,0.81225586,0.4428711,-0.021484375,0.025390625,0.030273438,0.0,0.0,0.0,0.0,0.0,0.0,0.0,0.0,0.0,0.0,0.0,-0.57647115,-0.015217587,0.817074,-1.0036621,0.040222168,-0.073791504,0.015625,0.0029296875,0.033203125,1.3823931,-11.934741,-0.31505126,16.915966,0.9505005,-0.13372803,-0.24273682,-0.03125,0.016601562,0.0546875,3.5330234,-14.417857,-57.25189,15.67707,-0.60284424,-0.023010254,0.78338623,0.0068359375,0.041992188,0.0,20.027172,-12.170108,-129.22067,14.189872,0.0,0.0,0.0,0.0,0.0,0.0,0.0,-9.006069,-129.26285,33.937157,0.0,0.0,0.0,0.0,0.0,0.0,0.0,0.57647115,0.015217587,-0.817074,-0.92333984,-0.10247803,-0.37982178,0.0546875,0.16992188,0.016601562,0.7049889,11.934741,0.31505126,-16.915966,1.0100708,-0.10357666,-0.19207764,-0.0390625,0.05859375,0.06542969,3.9397478,9.906533,-56.62856,-18.77281,-0.40460205,0.07763672,0.89660645,0.0029296875,0.009765625,0.00390625,4.4478774,9.013647,-128.55922,-15.485215,0.0,0.0,0.0,0.0,0.0,0.0,0.0,14.956508,-128.38219,3.6104116,0.0,0.0,0.0,0.0,0.0,0.0,0.0,1.0604646,44.96317,1.585607,
0.7812499883584679,40,-0.06506348,0.8201294,0.47253418,-0.041015625,0.025390625,0.03125,0.0,0.0,0.0,0.0,0.0,0.0,0.0,0.0,0.0,0.0,0.0,-0.5762526,-0.014810115,0.81739515,-0.99157715,0.026550293,-0.079956055,-0.022460938,0.041015625,0.072265625,1.4216148,-11.930215,-0.3066153,16.922613,0.9701538,-0.083618164,-0.23370361,-0.0126953125,0.0546875,0.036132812,3.578616,-14.456867,-57.240334,15.709867,-0.60198975,-0.030029297,0.80114746,-0.01171875,0.024414062,0.018554688,19.976023,-12.208598,-129.20749,14.212723,0.0,0.0,0.0,0.0,0.0,0.0,0.0,-9.024911,-129.2554,33.95725,0.0,0.0,0.0,0.0,0.0,0.0,0.0,0.5762526,0.014810115,-0.81739515,-0.9164429,-0.10949707,-0.33563232,-0.15625,9.765625E-4,0.018554688,0.71655154,11.930215,0.3066153,-16.922613,0.9915161,-0.07531738,-0.18005371,-0.057617188,0.040039062,0.06640625,3.9365654,9.898574,-56.638187,-18.748146,-0.42614746,0.08203125,0.89959717,0.001953125,-0.009765625,0.00390625,4.386598,9.0168495,-128.56407,-15.428541,0.0,0.0,0.0,0.0,0.0,0.0,0.0,14.974974,-128.39316,3.6623554,0.0,0.0,0.0,0.0,0.0,0.0,0.0,1.0532233,44.970192,1.5573084,
0.8007812380674296,41,-0.06903076,0.7824707,0.46533203,-0.001953125,0.005859375,0.047851562,0.0,0.0,0.0,0.0,0.0,0.0,0.0,0.0,0.0,0.0,0.0,-0.57476693,-0.013972491,0.8184084,-0.9867554,0.018371582,-0.060180664,-0.022460938,0.060546875,0.034179688,1.3792753,-11.899457,-0.2892739,16.943592,0.9835205,-0.11657715,-0.20605469,-0.049804688,0.03515625,0.0546875,3.6055975,-14.443912,-57.22554,15.730244,-0.57891846,-0.026977539,0.83673096,0.0068359375,0.0234375,0.0,19.930157,-12.182689,-129.17767,14.2661705,0.0,0.0,0.0,0.0,0.0,0.0,0.0,-8.990102,-129.22388,34.009308,0.0,0.0,0.0,0.0,0.0,0.0,0.0,0.57476693,0.013972491,-0.8184084,-0.92370605,-0.12835693,-0.36132812,-0.11816406,-0.01953125,-0.0029296875,0.70109236,11.899457,0.2892739,-16.943592,1.0101929,-0.08758545,-0.19024658,-0.018554688,0.040039062,0.103515625,3.9078574,9.840757,-56.656822,-18.715399,-0.41296387,0.07159424,0.91729736,0.0029296875,0.047851562,0.00390625,4.3584228,8.925947,-128.57889,-15.364386,0.0,0.0,0.0,0.0,0.0,0.0,0.0,14.890716,-128.40736,3.724987,0.0,0.0,0.0,0.0,0.0,0.0,0.0,1.0915247,44.96835,1.5343099,
0.8203124877763913,42,-0.08465576,0.8164673,0.43920898,-0.021484375,0.0068359375,0.048828125,0.0,0.0,0.0,0.0,0.0,0.0,0.0,0.0,0.0,0.0,0.0,-0.5743624,-0.013191876,0.8185974,-0.99572754,0.03894043,-0.06085205,-0.041015625,0.0029296875,0.033203125,1.349732,-11.891082,-0.27311274,16.947502,0.99053955,-0.11383057,-0.24401855,-0.049804688,0.03515625,0.0546875,3.594339,-14.419607,-57.20779,15.759218,-0.5979004,-0.023376465,0.82489014,-0.0126953125,0.041992188,-0.01953125,19.950808,-12.153,-129.1602,14.322029,0.0,0.0,0.0,0.0,0.0,0.0,0.0,-8.966677,-129.2011,34.065956,0.0,0.0,0.0,0.0,0.0,0.0,0.0,0.5743624,0.013191876,-0.8185974,-0.9243164,-0.09881592,-0.36798096,0.07324219,0.091796875,0.015625,0.7241574,11.891082,0.27311274,-16.947502,1.006897,-0.12347412,-0.19189453,-0.057617188,0.05859375,0.08496094,3.9481883,9.7963085,-56.66976,-18.727417,-0.40454102,0.08959961,0.9005127,0.0029296875,0.009765625,0.00390625,4.383382,8.862461,-128.59427,-15.341043,0.0,0.0,0.0,0.0,0.0,0.0,0.0,14.8237,-128.41566,3.7502308,0.0,0.0,0.0,0.0,0.0,0.0,0.0,1.0915422,44.965836,1.4905063,
0.839843737485353,43,-0.084350586,0.8305054,0.46514893,-0.059570312,0.045898438,0.049804688,0.0,0.0,0.0,0.0,0.0,0.0,0.0,0.0,0.0,0.0,0.0,-0.5751912,-0.0126198325,0.81809694,-0.98760986,0.03778076,-0.056884766,-0.00390625,0.021484375,0.052734375,1.3415884,-11.908241,-0.2612697,16.937143,0.98986816,-0.13830566,-0.24609375,-0.05078125,-0.0029296875,0.0546875,3.5758245,-14.422497,-57.196526,15.791742,-0.5925293,-0.0018310547,0.8189087,0.0068359375,0.0234375,0.0,19.929829,-12.1627655,-129.16016,14.370017,0.0,0.0,0.0,0.0,0.0,0.0,0.0,-8.959686,-129.19658,34.111744,0.0,0.0,0.0,0.0,0.0,0.0,0.0,0.5751912,0.0126198325,-0.81809694,-0.92144775,-0.109375,-0.3366089,-0.022460938,0.055664062,0.016601562,0.7615615,11.908241,0.2612697,-16.937143,0.98968506,-0.08331299,-0.1661377,-0.07714844,0.059570312,0.06640625,3.9766548,9.773042,-56.675606,-18.721645,-0.449646,0.099365234,0.91052246,0.0029296875,0.028320312,0.00390625,4.2908983,8.83898,-128.59482,-15.317325,0.0,0.0,0.0,0.0,0.0,0.0,0.0,14.820814,-128.42105,3.766446,0.0,0.0,0.0,0.0,0.0,0.0,0.0,1.0898,44.969563,1.4599147,
0.8593749871943147,44,-0.094177246,0.8010864,0.4781494,0.018554688,0.043945312,0.047851562,0.0,0.0,0.0,0.0,0.0,0.0,0.0,0.0,0.0,0.0,0.0,-0.575176,-0.011872681,0.8181757,-0.9916382,0.026367188,-0.07104492,-0.022460938,0.041015625,0.034179688,1.3267745,-11.907926,-0.24580131,16.938774,0.9866333,-0.11175537,-0.22802734,-0.05078125,-0.0029296875,0.0546875,3.5837555,-14.438834,-57.184864,15.814763,-0.5805054,-0.0041503906,0.8139038,0.0068359375,0.0048828125,-0.018554688,19.87021,-12.1901,-129.14444,14.4123955,0.0,0.0,0.0,0.0,0.0,0.0,0.0,-8.971325,-129.18019,34.15053,0.0,0.0,0.0,0.0,0.0,0.0,0.0,0.575176,0.011872681,-0.8181757,-0.90625,-0.097839355,-0.3414917,-0.080078125,-0.040039062,-0.0029296875,0.73114914,11.907926,0.24580131,-16.938774,0.98968506,-0.07330322,-0.17211914,-0.07714844,0.022460938,0.10449219,3.9265041,9.7802,-56.698906,-18.658293,-0.4055786,0.0847168,0.88775635,-0.016601562,0.009765625,-0.015625,4.274389,8.833993,-128.62552,-15.23027,0.0,0.0,0.0,0.0,0.0,0.0,0.0,14.825966,-128.45236,3.8498898,0.0,0.0,0.0,0.0,0.0,0.0,0.0,1.1107597,44.972,1.4334581,
0.8789062369032764,45,-0.07702637,0.83843994,0.4899292,0.017578125,0.024414062,0.047851562,0.0,0.0,0.0,0.0,0.0,0.0,0.0,0.0,0.0,0.0,0.0,-0.57495815,-0.01133753,0.8182756,-0.99676514,0.014831543,-0.07623291,-0.060546875,0.040039062,0.072265625,1.3285432,-11.903415,-0.23472203,16.940842,0.9732666,-0.11505127,-0.25183105,-0.06933594,0.036132812,0.053710938,3.574072,-14.453251,-57.171337,15.834127,-0.5866089,-0.010864258,0.80999756,-0.01171875,0.005859375,0.0,19.892254,-12.241922,-129.13899,14.427515,0.0,0.0,0.0,0.0,0.0,0.0,0.0,-9.0160265,-129.16988,34.16446,0.0,0.0,0.0,0.0,0.0,0.0,0.0,0.57495815,0.01133753,-0.8182756,-0.9075928,-0.124572754,-0.3682251,-0.041992188,0.016601562,0.017578125,0.72980976,11.903415,0.23472203,-16.940842,1.0311279,-0.07989502,-0.19268799,-0.07714844,0.041015625,0.06640625,3.9798548,9.765642,-56.704388,-18.65636,-0.42907715,0.098083496,0.8956909,0.0029296875,0.028320312,0.00390625,4.2837715,8.755676,-128.61769,-15.143814,0.0,0.0,0.0,0.0,0.0,0.0,0.0,14.768164,-128.44583,3.930853,0.0,0.0,0.0,0.0,0.0,0.0,0.0,1.1170716,44.970406,1.4079885,
0.8984374866122381,46,-0.06518555,0.8380127,0.46673584,-0.060546875,0.02734375,0.0859375,0.0,0.0,0.0,0.0,0.0,0.0,0.0,0.0,0.0,0.0,0.0,-0.5757007,-0.011091327,0.81778884,-0.9824219,0.028381348,-0.08392334,-0.00390625,0.041015625,0.052734375,1.3594112,-11.918789,-0.22962487,16.930765,0.98205566,-0.12817383,-0.2489624,-0.03125,0.03515625,0.036132812,3.5861583,-14.510358,-57.166656,15.79709,-0.57977295,-0.021850586,0.80010986,-0.01171875,0.005859375,0.0,19.908648,-12.333179,-129.1239,14.404283,0.0,0.0,0.0,0.0,0.0,0.0,0.0,-9.096306,-129.15712,34.139034,0.0,0.0,0.0,0.0,0.0,0.0,0.0,0.5757007,0.011091327,-0.81778884,-0.9373779,-0.09588623,-0.31585693,-0.061523438,-0.041015625,0.017578125,0.7236168,11.918789,0.22962487,-16.930765,0.9867554,-0.10827637,-0.21533203,0.0,0.0390625,0.046875,4.007119,9.811157,-56.713375,-18.664272,-0.42199707,0.10369873,0.92523193,-0.015625,0.047851562,0.00390625,4.2865596,8.792221,-128.62607,-15.128969,0.0,0.0,0.0,0.0,0.0,0.0,0.0,14.799663,-128.45325,3.947998,0.0,0.0,0.0,0.0,0.0,0.0,0.0,1.0956485,44.972946,1.3812554,
0.9179687363211998,47,-0.09136963,0.8257446,0.46832275,-0.021484375,0.025390625,0.030273438,0.0,0.0,0.0,0.0,0.0,0.0,0.0,0.0,0.0,0.0,0.0,-0.576169,-0.010844499,0.81737596,-0.99572754,0.032104492,-0.061950684,-0.041015625,0.060546875,0.034179688,1.3653005,-11.928484,-0.22451474,16.922216,0.9814453,-0.11242676,-0.25390625,-0.013671875,-0.041015625,0.037109375,3.5484514,-14.505926,-57.160816,15.838031,-0.5869751,-0.030517578,0.8100586,0.0068359375,0.0234375,0.0,19.982658,-12.361023,-129.13188,14.463363,0.0,0.0,0.0,0.0,0.0,0.0,0.0,-9.126759,-129.16536,34.200314,0.0,0.0,0.0,0.0,0.0,0.0,0.0,0.576169,0.010844499,-0.81737596,-0.9139404,-0.07543945,-0.33148193,-0.041992188,-0.0029296875,0.037109375,0.7154584,11.928484,0.22451474,-16.922216,0.975647,-0.068115234,-0.1817627,-0.038085938,0.0029296875,0.047851562,3.9560668,9.835163,-56.719635,-18.620852,-0.41687012,0.081970215,0.8858032,-0.016601562,0.029296875,0.00390625,4.2789683,8.787707,-128.63583,-15.097099,0.0,0.0,0.0,0.0,0.0,0.0,0.0,14.801552,-128.46231,3.9766045,0.0,0.0,0.0,0.0,0.0,0.0,0.0,1.0915377,44.970333,1.3660675,
0.9374999860301615,48,-0.07800293,0.79467773,0.47961426,-0.059570312,0.045898438,0.068359375,0.0,0.0,0.0,0.0,0.0,0.0,0.0,0.0,0.0,0.0,0.0,-0.5753056,-0.010219725,0.81807333,-0.967041,0.0524292,-0.07952881,-0.060546875,0.0029296875,0.033203125,1.3479912,-11.910609,-0.21157998,16.936653,0.9692993,-0.11395264,-0.23883057,0.005859375,0.016601562,0.017578125,3.5093915,-14.482011,-57.148575,15.900553,-0.58917236,-0.0413208,0.8110962,0.026367188,0.0048828125,-0.018554688,20.10474,-12.380899,-129.12572,14.550837,0.0,0.0,0.0,0.0,0.0,0.0,0.0,-9.164124,-129.16158,34.28963,0.0,0.0,0.0,0.0,0.0,0.0,0.0,0.5753056,0.010219725,-0.81807333,-0.89611816,-0.09454346,-0.36309814,-0.060546875,0.095703125,0.017578125,0.7558876,11.910609,0.21157998,-16.936653,0.98358154,-0.06726074,-0.1819458,-0.018554688,0.021484375,0.06542969,3.8988273,9.752687,-56.72693,-18.612154,-0.4454956,0.115234375,0.91345215,0.001953125,0.0087890625,0.041015625,4.2056575,8.693171,-128.64137,-15.148697,0.0,0.0,0.0,0.0,0.0,0.0,0.0,14.728004,-128.4683,3.9197845,0.0,0.0,0.0,0.0,0.0,0.0,0.0,1.1107281,44.973557,1.3429426,
0.9570312357391232,49,-0.08239746,0.8135376,0.45599365,-0.041015625,0.02734375,0.0859375,0.0,0.0,0.0,0.0,0.0,0.0,0.0,0.0,0.0,0.0,0.0,-0.5752718,-0.010079135,0.8181041,-0.99450684,0.03540039,-0.08581543,-0.060546875,0.07910156,0.053710938,1.4199619,-11.909908,-0.20866933,16.93729,0.9906006,-0.112854004,-0.24298096,0.044921875,0.053710938,0.038085938,3.584247,-14.560833,-57.14304,15.915503,-0.58184814,-0.0256958,0.79815674,0.0068359375,0.005859375,0.0,20.122,-12.467108,-129.11313,14.565178,0.0,0.0,0.0,0.0,0.0,0.0,0.0,-9.248256,-129.153,34.303177,0.0,0.0,0.0,0.0,0.0,0.0,0.0,0.5752718,0.010079135,-0.8181041,-0.94470215,-0.12023926,-0.35632324,-0.080078125,-0.020507812,-0.0029296875,0.75872993,11.909908,0.20866933,-16.93729,0.9949341,-0.09741211,-0.2076416,-0.07714844,0.041015625,0.10449219,3.9212637,9.747826,-56.734253,-18.61883,-0.42303467,0.08001709,0.8956909,0.001953125,-0.009765625,-0.015625,4.2436247,8.672382,-128.6539,-15.131683,0.0,0.0,0.0,0.0,0.0,0.0,0.0,14.709321,-128.48326,3.934845,0.0,0.0,0.0,0.0,0.0,0.0,0.0,1.1111369,44.973965,1.3354099,
0.9765624854480849,50,-0.062072754,0.802124,0.4623413,-0.021484375,0.026367188,0.06738281,0.0,0.0,0.0,0.0,0.0,0.0,0.0,0.0,0.0,0.0,0.0,-0.5755219,-0.010100594,0.8178922,-0.98968506,0.03100586,-0.059020996,-0.060546875,0.021484375,0.033203125,1.4340866,-11.915087,-0.20911363,16.932903,0.9960327,-0.13360596,-0.25610352,-0.0126953125,0.036132812,0.017578125,3.5850663,-14.587679,-57.140423,15.884415,-0.600708,-0.017150879,0.7833252,-0.01171875,0.005859375,-0.018554688,20.080414,-12.517024,-129.10954,14.551166,0.0,0.0,0.0,0.0,0.0,0.0,0.0,-9.271408,-129.15033,34.285194,0.0,0.0,0.0,0.0,0.0,0.0,0.0,0.5755219,0.010100594,-0.8178922,-0.9187012,-0.1295166,-0.35546875,-0.080078125,-0.040039062,0.017578125,0.7241574,11.915087,0.20911363,-16.932903,0.96520996,-0.099975586,-0.19714355,-0.038085938,0.040039062,0.06640625,3.89948,9.7985935,-56.734463,-18.594988,-0.42089844,0.08703613,0.8867798,-0.015625,0.029296875,-0.015625,4.218351,8.70607,-128.6474,-15.094595,0.0,0.0,0.0,0.0,0.0,0.0,0.0,14.743289,-128.47453,3.9714546,0.0,0.0,0.0,0.0,0.0,0.0,0.0,1.1027774,44.972977,1.3313812,
0.9960937351570466,51,-0.0569458,0.8239136,0.47833252,-0.041015625,0.02734375,0.0859375,0.0,0.0,0.0,0.0,0.0,0.0,0.0,0.0,0.0,0.0,0.0,-0.57616097,-0.011210781,0.817406,-0.9836426,0.018371582,-0.06616211,-0.060546875,0.0029296875,0.033203125,1.4833213,-11.928321,-0.23209791,16.922838,0.97888184,-0.09765625,-0.237854,-0.0126953125,-0.041015625,0.055664062,3.5779593,-14.603525,-57.164658,15.887782,-0.60479736,-0.019042969,0.7902832,0.0068359375,0.005859375,0.0,20.025557,-12.546169,-129.1333,14.559525,0.0,0.0,0.0,0.0,0.0,0.0,0.0,-9.285063,-129.17183,34.292366,0.0,0.0,0.0,0.0,0.0,0.0,0.0,0.57616097,0.011210781,-0.817406,-0.91918945,-0.09063721,-0.38464355,-0.060546875,0.095703125,0.017578125,0.8127698,11.928321,0.23209791,-16.922838,1.0187988,-0.10571289,-0.20410156,0.0,0.001953125,0.046875,3.8492918,9.74097,-56.71414,-18.543447,-0.43945312,0.082336426,0.89178467,-0.016601562,0.009765625,0.00390625,4.116706,8.607794,-128.63605,-15.065382,0.0,0.0,0.0,0.0,0.0,0.0,0.0,14.671238,-128.46602,3.993885,0.0,0.0,0.0,0.0,0.0,0.0,0.0,1.0982456,44.970486,1.3908883,
1.0156249848660084,52,-0.076538086,0.81030273,0.4428711,-0.041992188,0.0078125,0.06738281,0.0,0.0,0.0,0.0,0.0,0.0,0.0,0.0,0.0,0.0,0.0,-0.5762454,-0.01103443,0.8174107,-0.9874878,0.026489258,-0.08099365,-0.041015625,0.060546875,0.034179688,1.4773725,-11.930065,-0.22844693,16.922935,1.0024414,-0.12512207,-0.23516846,-0.032226562,0.016601562,0.036132812,3.5638678,-14.614393,-57.16143,15.882074,-0.60876465,-0.015991211,0.7971802,0.0068359375,0.005859375,0.0,19.998894,-12.584237,-129.12836,14.578279,0.0,0.0,0.0,0.0,0.0,0.0,0.0,-9.307705,-129.16838,34.30822,0.0,0.0,0.0,0.0,0.0,0.0,0.0,0.5762454,0.01103443,-0.8174107,-0.9141846,-0.092041016,-0.37286377,-0.060546875,0.056640625,-0.0029296875,0.86002815,11.930065,0.22844693,-16.922935,1.0146484,-0.10467529,-0.21392822,-0.038085938,0.040039062,0.103515625,3.8809059,9.684536,-56.715317,-18.545282,-0.45587158,0.095458984,0.9125366,-0.016601562,0.009765625,-0.015625,4.109564,8.504661,-128.62634,-15.035912,0.0,0.0,0.0,0.0,0.0,0.0,0.0,14.571726,-128.4526,4.021002,0.0,0.0,0.0,0.0,0.0,0.0,0.0,1.1057774,44.97271,1.3866313,
1.03515623457497,53,-0.06414795,0.7921753,0.4553833,-0.041015625,0.026367188,0.048828125,0.0,0.0,0.0,0.0,0.0,0.0,0.0,0.0,0.0,0.0,0.0,-0.57659054,-0.010743108,0.81710845,-0.99560547,0.023742676,-0.08404541,-0.07910156,0.059570312,0.034179688,1.5028502,-11.937213,-0.22241564,16.91668,0.97406006,-0.12390137,-0.24090576,-0.0126953125,0.03515625,0.036132812,3.576865,-14.659454,-57.14866,15.85303,-0.5969238,-0.030151367,0.7932739,0.0068359375,0.041992188,0.0,20.001808,-12.656733,-129.12457,14.591707,0.0,0.0,0.0,0.0,0.0,0.0,0.0,-9.376482,-129.16168,34.32058,0.0,0.0,0.0,0.0,0.0,0.0,0.0,0.57659054,0.010743108,-0.81710845,-0.9248657,-0.13830566,-0.3515625,-0.080078125,-0.07910156,-0.0029296875,0.83462524,11.937213,0.22241564,-16.91668,1.0151978,-0.077697754,-0.19238281,0.01953125,0.020507812,0.06542969,3.8046741,9.735949,-56.71914,-18.512733,-0.41271973,0.099731445,0.897583,-0.016601562,0.009765625,0.00390625,4.056468,8.55631,-128.63365,-15.055776,0.0,0.0,0.0,0.0,0.0,0.0,0.0,14.635255,-128.46165,3.9980555,0.0,0.0,0.0,0.0,0.0,0.0,0.0,1.0902957,44.971577,1.3606379,
1.0546874842839318,54,-0.08514404,0.7848511,0.46777344,-0.021484375,0.0068359375,0.06640625,0.0,0.0,0.0,0.0,0.0,0.0,0.0,0.0,0.0,0.0,0.0,-0.57674253,-0.010847779,0.8170512,-0.9854126,0.045776367,-0.07366943,-0.1171875,0.040039062,0.052734375,1.517751,-11.940359,-0.22458263,16.915493,0.9622803,-0.113708496,-0.2277832,0.005859375,0.03515625,0.017578125,3.6015224,-14.687517,-57.15317,15.8385935,-0.60479736,-0.018066406,0.78930664,-0.01171875,-0.0126953125,-0.018554688,19.942747,-12.68451,-129.12363,14.581783,0.0,0.0,0.0,0.0,0.0,0.0,0.0,-9.391341,-129.15698,34.307587,0.0,0.0,0.0,0.0,0.0,0.0,0.0,0.57674253,0.010847779,-0.8170512,-0.92144775,-0.10974121,-0.36315918,-0.060546875,-0.021484375,-0.0234375,0.82708883,11.940359,0.22458263,-16.915493,0.97540283,-0.07910156,-0.1906128,-0.07714844,0.022460938,0.0859375,3.7882721,9.744255,-56.715122,-18.490395,-0.44561768,0.08526611,0.91052246,-0.016601562,0.009765625,-0.015625,3.9860988,8.553103,-128.62616,-15.024084,0.0,0.0,0.0,0.0,0.0,0.0,0.0,14.651581,-128.46428,4.02285,0.0,0.0,0.0,0.0,0.0,0.0,0.0,1.0969985,44.97297,1.3714472,
1.0742187339928935,55,-0.08520508,0.8286743,0.47808838,-0.021484375,0.026367188,0.06738281,0.0,0.0,0.0,0.0,0.0,0.0,0.0,0.0,0.0,0.0,0.0,-0.5763745,-0.010862054,0.8172897,-0.9867554,0.020263672,-0.058166504,-0.09765625,0.059570312,0.034179688,1.5350586,-11.932736,-0.22487819,16.920431,0.9533081,-0.10638428,-0.24560547,-0.0126953125,0.03515625,0.036132812,3.604511,-14.699197,-57.150593,15.844982,-0.5991821,-0.040893555,0.7943115,-0.01171875,-0.0126953125,-0.037109375,19.972862,-12.717644,-129.12056,14.597996,0.0,0.0,0.0,0.0,0.0,0.0,0.0,-9.425011,-129.1582,34.325203,0.0,0.0,0.0,0.0,0.0,0.0,0.0,0.5763745,0.010862054,-0.8172897,-0.92852783,-0.113098145,-0.34057617,0.053710938,0.053710938,0.015625,0.8110828,11.932736,0.22487819,-16.920431,0.9873047,-0.08428955,-0.18981934,-0.057617188,0.021484375,0.08496094,3.7699819,9.751616,-56.71922,-18.494862,-0.42907715,0.098083496,0.8966675,0.022460938,0.028320312,0.00390625,4.024528,8.537119,-128.63998,-15.042318,0.0,0.0,0.0,0.0,0.0,0.0,0.0,14.623438,-128.4786,4.0081882,0.0,0.0,0.0,0.0,0.0,0.0,0.0,1.0982424,44.97215,1.3722048,
1.0937499837018552,56,-0.06896973,0.7963867,0.4724121,-0.041992188,-0.01171875,0.06738281,0.0,0.0,0.0,0.0,0.0,0.0,0.0,0.0,0.0,0.0,0.0,-0.57514733,-0.010332271,0.81814104,-0.9781494,0.045898438,-0.08660889,-0.060546875,0.041015625,0.034179688,1.5461099,-11.907333,-0.21391004,16.938057,0.97698975,-0.12896729,-0.23095703,-0.0126953125,0.03515625,0.036132812,3.6518939,-14.726908,-57.136784,15.860937,-0.6090698,-0.03375244,0.8031616,0.0068359375,0.0234375,-0.018554688,19.958391,-12.7513275,-129.11621,14.646605,0.0,0.0,0.0,0.0,0.0,0.0,0.0,-9.458719,-129.15088,34.37371,0.0,0.0,0.0,0.0,0.0,0.0,0.0,0.57514733,0.010332271,-0.81814104,-0.9300537,-0.077819824,-0.34033203,-0.022460938,0.016601562,-0.00390625,0.7602757,11.907333,0.21391004,-16.938057,1.0149536,-0.09765625,-0.20013428,-0.07714844,0.022460938,0.0859375,3.7969978,9.746955,-56.731575,-18.492792,-0.42492676,0.100097656,0.8838501,-0.03515625,0.0107421875,-0.0146484375,3.9373612,8.482187,-128.64111,-14.966677,0.0,0.0,0.0,0.0,0.0,0.0,0.0,14.597101,-128.48277,4.0745754,0.0,0.0,0.0,0.0,0.0,0.0,0.0,1.1229417,44.971264,1.3573604,
1.1132812334108169,57,-0.07598877,0.81451416,0.4837036,-0.061523438,-0.0107421875,0.0859375,0.0,0.0,0.0,0.0,0.0,0.0,0.0,0.0,0.0,0.0,0.0,-0.57455474,-0.010029137,0.8184892,-0.98638916,0.041992188,-0.07873535,-0.09765625,0.059570312,0.072265625,1.5559512,-11.895063,-0.20763424,16.945267,0.9902954,-0.12261963,-0.24304199,0.005859375,0.03515625,0.017578125,3.6826477,-14.752924,-57.128487,15.880496,-0.59368896,-0.01171875,0.8287964,0.0068359375,-0.0126953125,0.018554688,19.965654,-12.786982,-129.10045,14.692671,0.0,0.0,0.0,0.0,0.0,0.0,0.0,-9.513908,-129.13644,34.42255,0.0,0.0,0.0,0.0,0.0,0.0,0.0,0.57455474,0.010029137,-0.8184892,-0.93792725,-0.06744385,-0.35888672,-0.119140625,-0.078125,0.017578125,0.73114914,11.895063,0.20763424,-16.945267,0.99108887,-0.117248535,-0.1876831,-0.038085938,0.040039062,0.08496094,3.79839,9.738747,-56.74046,-18.46821,-0.42193604,0.076171875,0.8710327,-0.016601562,-0.0087890625,0.00390625,3.8969183,8.46583,-128.65356,-14.896576,0.0,0.0,0.0,0.0,0.0,0.0,0.0,14.592619,-128.49695,4.1415787,0.0,0.0,0.0,0.0,0.0,0.0,0.0,1.1494172,44.967934,1.3578587,
1.1328124831197786,58,-0.049987793,0.8406372,0.4743042,-0.10058594,-0.0107421875,0.049804688,0.0,0.0,0.0,0.0,0.0,0.0,0.0,0.0,0.0,0.0,0.0,-0.5750547,-0.009738738,0.81819123,-0.9935913,0.034301758,-0.0758667,-0.09765625,0.07910156,0.034179688,1.5410388,-11.9054165,-0.20162207,16.939095,0.9633789,-0.107788086,-0.24273682,0.005859375,0.03515625,0.017578125,3.7517068,-14.833111,-57.1188,15.854191,-0.5938721,-0.02532959,0.80114746,0.0068359375,0.078125,0.017578125,19.922583,-12.867901,-129.10017,14.667224,0.0,0.0,0.0,0.0,0.0,0.0,0.0,-9.590645,-129.13747,34.397106,0.0,0.0,0.0,0.0,0.0,0.0,0.0,0.5750547,0.009738738,-0.81819123,-0.91448975,-0.11584473,-0.31896973,-0.061523438,-0.080078125,0.017578125,0.5719823,11.9054165,0.20162207,-16.939095,1.0067139,-0.093566895,-0.21972656,0.020507812,0.001953125,0.08496094,3.7643683,9.852238,-56.74484,-18.432302,-0.42510986,0.091796875,0.91833496,-0.016601562,0.009765625,0.00390625,3.9144664,8.553093,-128.65892,-14.840982,0.0,0.0,0.0,0.0,0.0,0.0,0.0,14.66928,-128.50252,4.200535,0.0,0.0,0.0,0.0,0.0,0.0,0.0,1.230171,44.966343,1.3998331,
1.1523437328287403,59,-0.07336426,0.8082886,0.4527588,-0.061523438,-0.01171875,0.06738281,0.0,0.0,0.0,0.0,0.0,0.0,0.0,0.0,0.0,0.0,0.0,-0.57483053,-0.008893662,0.8183291,-1.0068359,0.023803711,-0.078063965,-0.060546875,0.021484375,0.072265625,1.5005044,-11.900774,-0.18412636,16.941948,0.97088623,-0.12768555,-0.25286865,0.005859375,0.016601562,0.017578125,3.7435038,-14.854918,-57.102642,15.867969,-0.5938721,-0.027282715,0.7922363,0.0068359375,0.005859375,0.037109375,19.91764,-12.933866,-129.08876,14.688936,0.0,0.0,0.0,0.0,0.0,0.0,0.0,-9.639551,-129.13034,34.41415,0.0,0.0,0.0,0.0,0.0,0.0,0.0,0.57483053,0.008893662,-0.8183291,-0.93865967,-0.118652344,-0.34552002,-0.022460938,-0.041992188,-0.00390625,0.49058762,11.900774,0.18412636,-16.941948,0.98217773,-0.072265625,-0.20751953,-0.038085938,-0.015625,0.10449219,3.7905974,9.863188,-56.765545,-18.436617,-0.42181396,0.103027344,0.88482666,-0.016601562,0.009765625,0.041015625,3.9358191,8.498496,-128.67395,-14.802015,0.0,0.0,0.0,0.0,0.0,0.0,0.0,14.616995,-128.51419,4.239092,0.0,0.0,0.0,0.0,0.0,0.0,0.0,1.2877555,44.963852,1.3932469,
1.171874982537702,60,-0.06201172,0.8409424,0.47857666,-0.021484375,0.0068359375,0.08496094,0.0,0.0,0.0,0.0,0.0,0.0,0.0,0.0,0.0,0.0,0.0,-0.5755291,-0.009318986,0.8178491,-0.98516846,0.041381836,-0.10064697,-0.13574219,0.021484375,0.034179688,1.5266217,-11.915237,-0.1929319,16.93201,0.97943115,-0.11230469,-0.25787354,0.04296875,0.015625,0.0,3.7374833,-14.874126,-57.10975,15.86705,-0.59802246,-0.03503418,0.79626465,0.0068359375,0.005859375,0.018554688,19.93748,-12.968528,-129.08594,14.665206,0.0,0.0,0.0,0.0,0.0,0.0,0.0,-9.666092,-129.13525,34.391235,0.0,0.0,0.0,0.0,0.0,0.0,0.0,0.5755291,0.009318986,-0.8178491,-0.91186523,-0.06982422,-0.362854,-0.022460938,-0.0029296875,0.016601562,0.5143426,11.915237,0.1929319,-16.93201,0.97406006,-0.09710693,-0.20428467,-0.0390625,0.040039062,0.046875,3.7662401,9.877716,-56.760246,-18.420496,-0.42596436,0.090270996,0.87005615,-0.016601562,0.009765625,-0.015625,3.9712837,8.427139,-128.66287,-14.799561,0.0,0.0,0.0,0.0,0.0,0.0,0.0,14.551472,-128.50687,4.2392216,0.0,0.0,0.0,0.0,0.0,0.0,0.0,1.2844446,44.96382,1.4162179,
1.1914062322466636,61,-0.07940674,0.833374,0.46105957,-0.10058594,0.0087890625,0.068359375,0.0,0.0,0.0,0.0,0.0,0.0,0.0,0.0,0.0,0.0,0.0,-0.5767401,-0.009396045,0.8170031,-0.98358154,0.007080078,-0.08630371,-0.09765625,0.059570312,0.052734375,1.5032407,-11.940308,-0.19452727,16.914495,0.9798584,-0.09667969,-0.25079346,0.005859375,0.015625,0.037109375,3.7192595,-14.891224,-57.10975,15.833206,-0.59802246,-0.03314209,0.80511475,0.0068359375,-0.0126953125,-0.018554688,19.936829,-12.99841,-129.08388,14.626418,0.0,0.0,0.0,0.0,0.0,0.0,0.0,-9.69741,-129.13202,34.351807,0.0,0.0,0.0,0.0,0.0,0.0,0.0,0.5767401,0.009396045,-0.8170031,-0.90216064,-0.095458984,-0.31982422,-0.061523438,-0.021484375,0.038085938,0.52227056,11.940308,0.19452727,-16.914495,1.0068359,-0.081604004,-0.21588135,0.01953125,0.0390625,0.046875,3.7021098,9.896302,-56.756214,-18.394663,-0.42510986,0.07800293,0.8956909,-0.017578125,-0.06640625,-0.015625,3.9519565,8.38619,-128.66339,-14.83909,0.0,0.0,0.0,0.0,0.0,0.0,0.0,14.517065,-128.51752,4.1985817,0.0,0.0,0.0,0.0,0.0,0.0,0.0,1.3038399,44.962894,1.43751,
1.2109374819556253,62,-0.052978516,0.81085205,0.4671631,-0.040039062,0.045898438,0.06738281,0.0,0.0,0.0,0.0,0.0,0.0,0.0,0.0,0.0,0.0,0.0,-0.5769867,-0.00948428,0.81678337,-1.0026245,0.041259766,-0.07775879,-0.041015625,0.022460938,0.0146484375,1.4764451,-11.945412,-0.19635399,16.909948,0.9911499,-0.12451172,-0.2769165,-0.0126953125,0.016601562,0.036132812,3.6879077,-14.885405,-57.11228,15.816362,-0.59472656,-0.012634277,0.8258667,0.0068359375,-0.0126953125,0.0,19.977303,-13.018437,-129.08774,14.595182,0.0,0.0,0.0,0.0,0.0,0.0,0.0,-9.726729,-129.1296,34.32261,0.0,0.0,0.0,0.0,0.0,0.0,0.0,0.5769867,0.00948428,-0.81678337,-0.9105835,-0.12182617,-0.35736084,-0.11816406,-0.0390625,-0.0029296875,0.5791218,11.945412,0.19635399,-16.909948,1.0265503,-0.0848999,-0.22808838,-0.057617188,0.05859375,0.06640625,3.6257966,9.8429985,-56.754604,-18.366497,-0.42504883,0.10974121,0.92523193,-0.016601562,0.009765625,0.00390625,3.9629414,8.270939,-128.66826,-14.878345,0.0,0.0,0.0,0.0,0.0,0.0,0.0,14.413014,-128.52353,4.1551867,0.0,0.0,0.0,0.0,0.0,0.0,0.0,1.3265655,44.959892,1.4591664,
1.230468731664587,63,-0.060913086,0.80114746,0.4732666,-0.001953125,0.026367188,0.08496094,0.0,0.0,0.0,0.0,0.0,0.0,0.0,0.0,0.0,0.0,0.0,-0.576855,-0.009427319,0.81697035,-0.9875488,0.022644043,-0.08300781,-0.022460938,0.041015625,0.034179688,1.450234,-11.942688,-0.19517474,16.913818,0.97387695,-0.12774658,-0.2658081,-0.0126953125,0.03515625,0.036132812,3.6308155,-14.871074,-57.1144,15.81274,-0.5794678,-0.0061035156,0.80303955,0.0068359375,0.005859375,0.018554688,20.059217,-13.059505,-129.09596,14.614436,0.0,0.0,0.0,0.0,0.0,0.0,0.0,-9.777454,-129.13441,34.342793,0.0,0.0,0.0,0.0,0.0,0.0,0.0,0.576855,0.009427319,-0.81697035,-0.9227295,-0.13043213,-0.35546875,-0.041992188,-0.001953125,-0.0029296875,0.5757331,11.942688,0.19517474,-16.913818,1.0267944,-0.09387207,-0.20733643,-0.09667969,0.041015625,0.06640625,3.5704546,9.82146,-56.756733,-18.382767,-0.42285156,0.1149292,0.9015503,0.0029296875,0.028320312,0.00390625,3.9769998,8.225189,-128.66861,-14.98047,0.0,0.0,0.0,0.0,0.0,0.0,0.0,14.372551,-128.52493,4.0524836,0.0,0.0,0.0,0.0,0.0,0.0,0.0,1.3420604,44.962624,1.4664564,
1.2499999813735487,64,-0.08581543,0.81292725,0.5038452,-0.060546875,0.02734375,0.06738281,0.0,0.0,0.0,0.0,0.0,0.0,0.0,0.0,0.0,0.0,0.0,-0.57571447,-0.008954761,0.81776327,-0.99053955,0.016967773,-0.09210205,-0.041015625,0.041015625,0.0146484375,1.4327214,-11.919073,-0.1853913,16.930233,0.9793701,-0.11425781,-0.25585938,-0.0126953125,0.03515625,0.036132812,3.656502,-14.872049,-57.103367,15.820796,-0.5874634,-0.0028686523,0.7921753,0.0068359375,-0.0126953125,0.0,19.98378,-13.059114,-129.07863,14.602482,0.0,0.0,0.0,0.0,0.0,0.0,0.0,-9.769936,-129.11224,34.329636,0.0,0.0,0.0,0.0,0.0,0.0,0.0,0.57571447,0.008954761,-0.81776327,-0.9227295,-0.13043213,-0.35546875,-0.041992188,-0.001953125,-0.0029296875,0.5421248,11.919073,0.1853913,-16.930233,0.99072266,-0.10534668,-0.21838379,-0.057617188,0.021484375,0.06640625,3.542045,9.797845,-56.766518,-18.399181,-0.42504883,0.085998535,0.89764404,0.001953125,-0.009765625,0.00390625,4.0038924,8.167948,-128.6785,-15.029402,0.0,0.0,0.0,0.0,0.0,0.0,0.0,14.315112,-128.5334,4.0027924,0.0,0.0,0.0,0.0,0.0,0.0,0.0,1.366413,44.961685,1.4543142,
1.2695312310825104,65,-0.055603027,0.82702637,0.5001831,-0.041015625,0.026367188,0.048828125,0.0,0.0,0.0,0.0,0.0,0.0,0.0,0.0,0.0,0.0,0.0,-0.57516134,-0.009001324,0.8182177,-0.9906616,0.024414062,-0.07006836,-0.041015625,0.060546875,0.0146484375,1.4075041,-11.907621,-0.18635531,16.939644,0.9987793,-0.11022949,-0.24108887,-0.087890625,0.036132812,0.052734375,3.64583,-14.852615,-57.102722,15.813879,-0.6187744,-0.012817383,0.80908203,-0.01171875,-0.01171875,0.0,20.005192,-13.04309,-129.07954,14.578571,0.0,0.0,0.0,0.0,0.0,0.0,0.0,-9.755613,-129.11414,34.305794,0.0,0.0,0.0,0.0,0.0,0.0,0.0,0.57516134,0.009001324,-0.8182177,-0.9312134,-0.08929443,-0.35217285,-0.00390625,0.0546875,0.037109375,0.5791218,11.907621,0.18635531,-16.939644,0.982605,-0.08526611,-0.23608398,0.0,0.0390625,0.046875,3.5310276,9.728044,-56.760452,-18.411213,-0.41290283,0.06774902,0.9015503,0.0029296875,0.009765625,0.00390625,4.025404,8.039644,-128.67508,-15.062091,0.0,0.0,0.0,0.0,0.0,0.0,0.0,14.182041,-128.53394,3.9711409,0.0,0.0,0.0,0.0,0.0,0.0,0.0,1.3831825,44.96318,1.4669461,
1.2890624807914721,66,-0.06890869,0.8013916,0.4784546,-0.041992188,0.0078125,0.06738281,0.0,0.0,0.0,0.0,0.0,0.0,0.0,0.0,0.0,0.0,0.0,-0.5742187,-0.008488193,0.8188077,-0.99560547,0.019958496,-0.090026855,-0.041015625,0.041015625,0.034179688,1.3549415,-11.888107,-0.17573191,16.951859,0.9636841,-0.13226318,-0.25878906,-0.0126953125,0.015625,0.055664062,3.6010876,-14.81599,-57.093613,15.826874,-0.6046753,-0.010253906,0.8031006,0.0068359375,0.005859375,0.0,20.0464,-13.040981,-129.07335,14.592028,0.0,0.0,0.0,0.0,0.0,0.0,0.0,-9.751825,-129.10399,34.319084,0.0,0.0,0.0,0.0,0.0,0.0,0.0,0.5742187,0.008488193,-0.8188077,-0.91345215,-0.11230469,-0.34454346,-0.13769531,-0.0390625,0.018554688,0.55531895,11.888107,0.17573191,-16.951859,0.9831543,-0.08123779,-0.20355225,-0.07714844,0.022460938,0.047851562,3.440142,9.734509,-56.76897,-18.38211,-0.42712402,0.084106445,0.8927002,-0.016601562,0.009765625,0.022460938,3.9594316,8.019254,-128.68372,-15.088572,0.0,0.0,0.0,0.0,0.0,0.0,0.0,14.172571,-128.54596,3.9409943,0.0,0.0,0.0,0.0,0.0,0.0,0.0,1.4113482,44.959816,1.4558364,
1.3085937305004338,67,-0.056030273,0.8119507,0.46722412,-0.020507812,0.044921875,0.048828125,0.0,0.0,0.0,0.0,0.0,0.0,0.0,0.0,0.0,0.0,0.0,-0.57400936,-0.008241641,0.81895816,-0.98657227,0.020568848,-0.07611084,-0.022460938,-0.016601562,0.052734375,1.345521,-11.883772,-0.17062752,16.954973,0.9763794,-0.11425781,-0.23388672,0.005859375,0.03515625,0.017578125,3.6107526,-14.819956,-57.09128,15.817569,-0.6088867,-0.023864746,0.79919434,0.0068359375,0.005859375,0.018554688,20.00002,-13.041763,-129.06557,14.614104,0.0,0.0,0.0,0.0,0.0,0.0,0.0,-9.751902,-129.0953,34.34143,0.0,0.0,0.0,0.0,0.0,0.0,0.0,0.57400936,0.008241641,-0.81895816,-0.9136963,-0.13226318,-0.3682251,-0.060546875,0.017578125,0.017578125,0.56648237,11.883772,0.17062752,-16.954973,0.9909668,-0.097351074,-0.2055664,-0.11621094,0.059570312,0.047851562,3.3841398,9.70312,-56.778027,-18.376682,-0.41693115,0.085754395,0.90649414,-0.016601562,0.009765625,0.00390625,3.9816256,7.982964,-128.69772,-15.145289,0.0,0.0,0.0,0.0,0.0,0.0,0.0,14.148154,-128.56169,3.8811636,0.0,0.0,0.0,0.0,0.0,0.0,0.0,1.4125831,44.960247,1.4425428,
1.3281249802093955,68,-0.072143555,0.8133545,0.46868896,-0.021484375,0.0068359375,0.048828125,0.0,0.0,0.0,0.0,0.0,0.0,0.0,0.0,0.0,0.0,0.0,-0.5743284,-0.008542839,0.81868404,-0.9996948,0.020874023,-0.08404541,-0.060546875,0.021484375,0.033203125,1.3835251,-11.890378,-0.17686328,16.949299,0.9747925,-0.09851074,-0.23583984,-0.0126953125,0.036132812,0.017578125,3.6217983,-14.838832,-57.093414,15.830958,-0.59680176,-0.018371582,0.8070679,-0.01171875,-0.01171875,0.018554688,19.975874,-13.06266,-129.08284,14.616568,0.0,0.0,0.0,0.0,0.0,0.0,0.0,-9.778975,-129.11139,34.344566,0.0,0.0,0.0,0.0,0.0,0.0,0.0,0.5743284,0.008542839,-0.81868404,-0.9335327,-0.11206055,-0.29736328,0.03515625,0.07324219,-0.00390625,0.54751205,11.890378,0.17686328,-16.949299,1.0184937,-0.09576416,-0.2298584,-0.0390625,0.05859375,0.06542969,3.4208515,9.730629,-56.772785,-18.402746,-0.4465332,0.10632324,0.90460205,0.0029296875,0.009765625,0.00390625,4.005653,7.941169,-128.68513,-15.156699,0.0,0.0,0.0,0.0,0.0,0.0,0.0,14.11017,-128.5468,3.8681479,0.0,0.0,0.0,0.0,0.0,0.0,0.0,1.4033861,44.95844,1.4536464,
1.3476562299183572,69,-0.08843994,0.817688,0.45916748,-0.061523438,0.0078125,0.06738281,0.0,0.0,0.0,0.0,0.0,0.0,0.0,0.0,0.0,0.0,0.0,-0.57390606,-0.007820092,0.8190505,-0.9764404,0.03100586,-0.06793213,-0.022460938,0.022460938,0.033203125,1.3536409,-11.881634,-0.16190016,16.956884,0.9718628,-0.093444824,-0.24572754,-0.049804688,0.0546875,0.03515625,3.6160088,-14.828272,-57.080368,15.849186,-0.59765625,-0.011474609,0.8031006,-0.01171875,0.005859375,0.0,19.998903,-13.058415,-129.05957,14.614403,0.0,0.0,0.0,0.0,0.0,0.0,0.0,-9.770006,-129.08516,34.341003,0.0,0.0,0.0,0.0,0.0,0.0,0.0,0.57390606,0.007820092,-0.8190505,-0.9071655,-0.09161377,-0.3139038,-0.00390625,-0.00390625,0.016601562,0.53265774,11.881634,0.16190016,-16.956884,1.0029907,-0.10546875,-0.19592285,-0.09667969,0.059570312,0.047851562,3.3950565,9.708713,-56.782063,-18.387707,-0.4210205,0.08685303,0.90356445,0.0029296875,0.009765625,0.00390625,4.0136137,7.925516,-128.69174,-15.148615,0.0,0.0,0.0,0.0,0.0,0.0,0.0,14.102381,-128.55602,3.8739624,0.0,0.0,0.0,0.0,0.0,0.0,0.0,1.4137983,44.961517,1.4199255,
1.367187479627319,70,-0.07714844,0.798584,0.46868896,-0.022460938,-0.01171875,0.08496094,0.0,0.0,0.0,0.0,0.0,0.0,0.0,0.0,0.0,0.0,0.0,-0.5741842,-0.0083476845,0.8188384,-0.9885254,0.037963867,-0.06781006,-0.00390625,0.041015625,0.0146484375,1.3755815,-11.887394,-0.17282294,16.952494,0.9840088,-0.09490967,-0.24285889,-0.032226562,0.036132812,0.016601562,3.5879598,-14.82938,-57.090275,15.853366,-0.5967407,-0.014465332,0.8120117,0.0068359375,0.0048828125,-0.018554688,19.973984,-13.08953,-129.07002,14.611531,0.0,0.0,0.0,0.0,0.0,0.0,0.0,-9.793989,-129.09077,34.336926,0.0,0.0,0.0,0.0,0.0,0.0,0.0,0.5741842,0.0083476845,-0.8188384,-0.944458,-0.1038208,-0.34838867,-0.09863281,0.057617188,0.017578125,0.58450294,11.887394,0.17282294,-16.952494,0.9869995,-0.07336426,-0.21551514,-0.078125,0.09667969,0.06542969,3.4003577,9.694704,-56.777225,-18.36888,-0.41375732,0.09375,0.90057373,0.0029296875,0.009765625,0.00390625,3.9564135,7.966402,-128.6928,-15.112226,0.0,0.0,0.0,0.0,0.0,0.0,0.0,14.155138,-128.5588,3.9072332,0.0,0.0,0.0,0.0,0.0,0.0,0.0,1.4117548,44.960236,1.4482969,
1.3867187293362806,71,-0.074401855,0.81427,0.45080566,-0.059570312,0.045898438,0.068359375,0.0,0.0,0.0,0.0,0.0,0.0,0.0,0.0,0.0,0.0,0.0,-0.5744466,-0.008506808,0.8186587,-0.9996948,0.020874023,-0.08605957,-0.022460938,0.0029296875,0.033203125,1.383808,-11.892824,-0.17611732,16.948774,0.9937134,-0.10900879,-0.24798584,-0.0126953125,0.0546875,0.016601562,3.6326485,-14.848843,-57.095074,15.829087,-0.59747314,-0.0016479492,0.8060303,0.0068359375,0.005859375,0.018554688,19.902939,-13.068709,-129.07849,14.594636,0.0,0.0,0.0,0.0,0.0,0.0,0.0,-9.769785,-129.09433,34.319786,0.0,0.0,0.0,0.0,0.0,0.0,0.0,0.5744466,0.008506808,-0.8186587,-0.9331665,-0.08605957,-0.36102295,-0.022460938,0.036132812,0.037109375,0.58850646,11.892824,0.17611732,-16.948774,0.99871826,-0.08947754,-0.22357178,-0.038085938,0.0029296875,0.047851562,3.4068003,9.696903,-56.77171,-18.3754,-0.4537964,0.09051514,0.89971924,-0.016601562,0.029296875,0.022460938,3.9479406,7.965331,-128.6928,-15.123322,0.0,0.0,0.0,0.0,0.0,0.0,0.0,14.155563,-128.55986,3.8949451,0.0,0.0,0.0,0.0,0.0,0.0,0.0,1.4105091,44.960217,1.4569321,
1.4062499790452423,72,-0.062194824,0.8170166,0.45947266,-0.06347656,-0.049804688,0.048828125,0.0,0.0,0.0,0.0,0.0,0.0,0.0,0.0,0.0,0.0,0.0,-0.57438123,-0.008455386,0.81865495,-0.99053955,0.041931152,-0.06976318,-0.00390625,0.00390625,-0.0048828125,1.4112531,-11.891472,-0.17505276,16.948698,0.9746704,-0.105407715,-0.22485352,-0.068359375,0.03515625,0.07324219,3.676688,-14.860878,-57.089592,15.854717,-0.59661865,-0.0056762695,0.81689453,0.0068359375,0.005859375,0.0,19.879835,-13.043654,-129.07037,14.619805,0.0,0.0,0.0,0.0,0.0,0.0,0.0,-9.743754,-129.08318,34.34452,0.0,0.0,0.0,0.0,0.0,0.0,0.0,0.57438123,0.008455386,-0.81865495,-0.90600586,-0.08258057,-0.36395264,-0.022460938,0.016601562,-0.00390625,0.5753932,11.891472,0.17505276,-16.948698,1.0206299,-0.09375,-0.21905518,-0.01953125,0.040039062,0.046875,3.3954601,9.690622,-56.77071,-18.399252,-0.409729,0.081726074,0.8985596,-0.016601562,0.009765625,0.00390625,3.933231,7.935089,-128.69176,-15.190911,0.0,0.0,0.0,0.0,0.0,0.0,0.0,14.12632,-128.56299,3.8280916,0.0,0.0,0.0,0.0,0.0,0.0,0.0,1.4033782,44.95885,1.4489847,
1.425781228754204,73,-0.075805664,0.7966919,0.49053955,-0.07910156,0.046875,0.068359375,0.0,0.0,0.0,0.0,0.0,0.0,0.0,0.0,0.0,0.0,0.0,-0.57460886,-0.007946356,0.81853396,-0.98638916,0.02947998,-0.087890625,-0.00390625,0.00390625,-0.0048828125,1.3992771,-11.896186,-0.16451421,16.946192,0.98760986,-0.11175537,-0.24298096,-0.0126953125,0.0546875,0.036132812,3.6726384,-14.876693,-57.08091,15.8821125,-0.6010742,-0.028259277,0.83380127,0.026367188,0.0048828125,0.01953125,19.89415,-13.07778,-129.07036,14.692066,0.0,0.0,0.0,0.0,0.0,0.0,0.0,-9.780213,-129.08128,34.41828,0.0,0.0,0.0,0.0,0.0,0.0,0.0,0.57460886,0.007946356,-0.81853396,-0.9216919,-0.1281128,-0.33184814,-0.11816406,0.0390625,0.018554688,0.5736903,11.896186,0.16451421,-16.946192,1.0149536,-0.081726074,-0.20617676,-0.09667969,0.059570312,0.06640625,3.3455048,9.671246,-56.778,-18.37521,-0.4210205,0.074035645,0.88482666,0.021484375,-0.009765625,0.0029296875,3.9917934,7.896679,-128.69714,-15.203997,0.0,0.0,0.0,0.0,0.0,0.0,0.0,14.085678,-128.56808,3.814186,0.0,0.0,0.0,0.0,0.0,0.0,0.0,1.4348879,44.95926,1.443754,
1.4453124784631657,74,-0.070129395,0.80633545,0.4645996,0.037109375,0.024414062,0.06542969,0.0,0.0,0.0,0.0,0.0,0.0,0.0,0.0,0.0,0.0,0.0,-0.5755268,-0.0076540327,0.8179063,-0.99468994,0.02166748,-0.07611084,-0.00390625,0.022460938,0.033203125,1.3910015,-11.91519,-0.15846221,16.933197,1.0002441,-0.12683105,-0.26605225,-0.05078125,0.036132812,0.03515625,3.6626549,-14.90199,-57.077133,15.849796,-0.6010132,-0.027282715,0.83776855,0.0068359375,-0.0126953125,0.018554688,19.914803,-13.123457,-129.04831,14.646152,0.0,0.0,0.0,0.0,0.0,0.0,0.0,-9.826867,-129.06227,34.372807,0.0,0.0,0.0,0.0,0.0,0.0,0.0,0.5755268,0.0076540327,-0.8179063,-0.9423218,-0.09466553,-0.3630371,-0.022460938,0.07519531,0.016601562,0.5263757,11.91519,0.15846221,-16.933197,1.017456,-0.101745605,-0.2277832,-0.057617188,0.05859375,0.06640625,3.3745224,9.713887,-56.78552,-18.39403,-0.43426514,0.092163086,0.8966675,0.001953125,-0.009765625,0.00390625,4.0189285,7.9283,-128.70859,-15.22131,0.0,0.0,0.0,0.0,0.0,0.0,0.0,14.138524,-128.58495,3.7902756,0.0,0.0,0.0,0.0,0.0,0.0,0.0,1.4248195,44.960777,1.4233329,
1.4648437281721274,75,-0.08508301,0.789917,0.47680664,-0.020507812,0.045898438,0.08496094,0.0,0.0,0.0,0.0,0.0,0.0,0.0,0.0,0.0,0.0,0.0,-0.57628727,-0.0074750967,0.81734705,-0.98480225,0.019165039,-0.052246094,-0.00390625,0.022460938,0.0146484375,1.3596991,-11.930934,-0.1547577,16.921618,0.97406006,-0.122924805,-0.24786377,-0.08886719,0.036132812,0.034179688,3.6200135,-14.893816,-57.072968,15.829246,-0.60095215,-0.02520752,0.81799316,0.0068359375,0.005859375,0.0,19.947443,-13.138508,-129.06267,14.610158,0.0,0.0,0.0,0.0,0.0,0.0,0.0,-9.848343,-129.08057,34.33829,0.0,0.0,0.0,0.0,0.0,0.0,0.0,0.57628727,0.0074750967,-0.81734705,-0.9119873,-0.0769043,-0.35211182,0.03515625,0.09277344,0.016601562,0.53522307,11.930934,0.1547577,-16.921618,0.99902344,-0.08544922,-0.20581055,-0.0390625,0.040039062,0.046875,3.4078922,9.698614,-56.787987,-18.395742,-0.43737793,0.078308105,0.8878174,-0.016601562,0.009765625,0.022460938,3.9295948,7.958556,-128.70906,-15.207174,0.0,0.0,0.0,0.0,0.0,0.0,0.0,14.190758,-128.58777,3.7976055,0.0,0.0,0.0,0.0,0.0,0.0,0.0,1.4269753,44.959965,1.4173023,
1.484374977881089,76,-0.071777344,0.8045654,0.4944458,-0.099609375,0.02734375,0.05078125,0.0,0.0,0.0,0.0,0.0,0.0,0.0,0.0,0.0,0.0,0.0,-0.57645977,-0.007202124,0.81727356,-0.9815674,0.02520752,-0.06903076,-0.022460938,0.022460938,-0.0048828125,1.3485717,-11.934504,-0.1491063,16.920095,0.9849243,-0.13311768,-0.25500488,-0.03125,0.016601562,0.0546875,3.6191483,-14.911467,-57.06607,15.82478,-0.5890503,-0.035339355,0.80114746,0.0068359375,-0.0126953125,-0.018554688,19.979492,-13.173666,-129.05737,14.645105,0.0,0.0,0.0,0.0,0.0,0.0,0.0,-9.897591,-129.07568,34.37496,0.0,0.0,0.0,0.0,0.0,0.0,0.0,0.57645977,0.007202124,-0.81727356,-0.9458008,-0.12652588,-0.33868408,-0.099609375,-9.765625E-4,0.038085938,0.5256317,11.934504,0.1491063,-16.920095,0.9980469,-0.09942627,-0.19586182,-0.05859375,0.05859375,0.046875,3.4086964,9.705541,-56.793095,-18.374086,-0.42504883,0.08807373,0.8897705,0.0029296875,0.009765625,-0.015625,3.911614,8.032119,-128.71268,-15.166829,0.0,0.0,0.0,0.0,0.0,0.0,0.0,14.251436,-128.58777,3.842557,0.0,0.0,0.0,0.0,0.0,0.0,0.0,1.4462974,44.961063,1.4163525,
1.5039062275900508,77,-0.06188965,0.79626465,0.47625732,-0.020507812,0.044921875,0.06738281,0.0,0.0,0.0,0.0,0.0,0.0,0.0,0.0,0.0,0.0,0.0,-0.5757069,-0.0066352626,0.8177404,-0.9954834,0.049865723,-0.07458496,-0.041015625,0.0029296875,0.033203125,1.2867919,-11.918917,-0.13737051,16.92976,0.9577637,-0.12713623,-0.2477417,-0.06933594,0.055664062,0.015625,3.5879598,-14.881575,-57.05409,15.8486595,-0.5928345,-0.02142334,0.8031006,-0.01171875,-0.0126953125,-0.018554688,19.978601,-13.166011,-129.03207,14.658247,0.0,0.0,0.0,0.0,0.0,0.0,0.0,-9.873512,-129.05185,34.384876,0.0,0.0,0.0,0.0,0.0,0.0,0.0,0.5757069,0.0066352626,-0.8177404,-0.9030762,-0.08782959,-0.35321045,-0.080078125,-9.765625E-4,0.017578125,0.47724393,11.918917,0.13737051,-16.92976,0.9914551,-0.06536865,-0.18804932,-0.07714844,0.059570312,0.06640625,3.396498,9.703448,-56.808865,-18.373123,-0.41467285,0.10583496,0.8946533,0.001953125,0.009765625,0.022460938,3.8406336,8.033537,-128.7335,-15.164465,0.0,0.0,0.0,0.0,0.0,0.0,0.0,14.2620125,-128.61087,3.8406887,0.0,0.0,0.0,0.0,0.0,0.0,0.0,1.505137,44.956352,1.4244311,
1.5234374772990125,78,-0.07647705,0.7984009,0.44378662,-0.021484375,0.0068359375,0.048828125,0.0,0.0,0.0,0.0,0.0,0.0,0.0,0.0,0.0,0.0,0.0,-0.5753348,-0.0064217392,0.81804407,-0.99053955,0.014038086,-0.092163086,-0.041015625,0.0029296875,0.0146484375,1.2538259,-11.911215,-0.1329499,16.936049,0.9593506,-0.10662842,-0.2506714,-0.01171875,0.03515625,0.055664062,3.5685894,-14.852493,-57.04864,15.853109,-0.57598877,-0.03387451,0.8239136,0.0068359375,-0.0126953125,0.018554688,20.000608,-13.134292,-129.02925,14.658009,0.0,0.0,0.0,0.0,0.0,0.0,0.0,-9.856516,-129.0466,34.38779,0.0,0.0,0.0,0.0,0.0,0.0,0.0,0.5753348,0.0064217392,-0.81804407,-0.9302368,-0.0925293,-0.33843994,0.015625,0.07421875,0.037109375,0.45456478,11.911215,0.1329499,-16.936049,1.0129395,-0.099609375,-0.19812012,-0.07714844,0.041015625,0.028320312,3.412313,9.699428,-56.815178,-18.387741,-0.4229126,0.107910156,0.9015503,-0.016601562,0.009765625,0.00390625,3.8311388,8.037007,-128.7359,-15.170526,0.0,0.0,0.0,0.0,0.0,0.0,0.0,14.274099,-128.61282,3.8321447,0.0,0.0,0.0,0.0,0.0,0.0,0.0,1.5143425,44.957726,1.4179685,
1.5429687270079742,79,-0.086242676,0.81073,0.4720459,-0.060546875,0.02734375,0.06738281,0.0,0.0,0.0,0.0,0.0,0.0,0.0,0.0,0.0,0.0,0.0,-0.5756869,-0.006037331,0.81783766,-0.9935913,0.03137207,-0.077941895,-0.060546875,0.059570312,0.034179688,1.2552298,-11.918504,-0.124991484,16.931774,0.9849243,-0.09588623,-0.25585938,0.005859375,0.015625,0.037109375,3.5895965,-14.8810835,-57.03991,15.844474,-0.5930176,-0.03515625,0.7932739,-0.01171875,-0.0126953125,-0.018554688,20.007689,-13.163368,-129.0192,14.63217,0.0,0.0,0.0,0.0,0.0,0.0,0.0,-9.897198,-129.03923,34.363754,0.0,0.0,0.0,0.0,0.0,0.0,0.0,0.5756869,0.006037331,-0.81783766,-0.92785645,-0.06311035,-0.34313965,-0.022460938,0.055664062,0.037109375,0.4463111,11.918504,0.124991484,-16.931774,0.9793701,-0.08117676,-0.19067383,-0.05859375,0.095703125,0.046875,3.408926,9.692683,-56.815685,-18.38184,-0.43023682,0.076171875,0.8907471,0.0029296875,0.028320312,0.022460938,3.813978,8.053407,-128.73264,-15.172756,0.0,0.0,0.0,0.0,0.0,0.0,0.0,14.293468,-128.61395,3.8297386,0.0,0.0,0.0,0.0,0.0,0.0,0.0,1.5139157,44.959797,1.3975618,
1.5624999767169359,80,-0.064086914,0.80615234,0.4644165,-0.041015625,0.02734375,0.0859375,0.0,0.0,0.0,0.0,0.0,0.0,0.0,0.0,0.0,0.0,0.0,-0.57612944,-0.006382428,0.8174543,-0.9875488,0.026428223,-0.07598877,-0.060546875,0.022460938,0.0146484375,1.274568,-11.927664,-0.13213608,16.923838,0.982666,-0.10662842,-0.23791504,-0.0126953125,0.03515625,0.036132812,3.571277,-14.878687,-57.053276,15.864051,-0.5894165,1.2207031E-4,0.8040161,0.0068359375,-0.0126953125,0.018554688,19.962633,-13.169798,-129.04436,14.65279,0.0,0.0,0.0,0.0,0.0,0.0,0.0,-9.900969,-129.0574,34.38377,0.0,0.0,0.0,0.0,0.0,0.0,0.0,0.57612944,0.006382428,-0.8174543,-0.94647217,-0.10040283,-0.3237915,-0.041992188,-0.0029296875,0.017578125,0.40830377,11.927664,0.13213608,-16.923838,0.99554443,-0.086364746,-0.1741333,-0.07714844,0.078125,0.06640625,3.4709082,9.746977,-56.81199,-18.410532,-0.40582275,0.057556152,0.91137695,-0.03515625,0.0107421875,0.00390625,3.773875,8.1912,-128.73135,-15.172422,0.0,0.0,0.0,0.0,0.0,0.0,0.0,14.432821,-128.61237,3.829853,0.0,0.0,0.0,0.0,0.0,0.0,0.0,1.5160829,44.95649,1.4195186,
1.5820312264258976,81,-0.048828125,0.82769775,0.4821167,0.017578125,0.025390625,0.083984375,0.0,0.0,0.0,0.0,0.0,0.0,0.0,0.0,0.0,0.0,0.0,-0.5764042,-0.0066796755,0.8173075,-1.0009155,0.01574707,-0.06726074,-0.041015625,0.022460938,0.033203125,1.265941,-11.933355,-0.13829,16.9208,0.9828491,-0.09674072,-0.26080322,-0.05078125,0.036132812,0.015625,3.5373988,-14.859703,-57.058567,15.863081,-0.59869385,-0.012390137,0.8050537,-0.01171875,-0.01171875,0.0,20.003096,-13.162596,-129.04729,14.65415,0.0,0.0,0.0,0.0,0.0,0.0,0.0,-9.89797,-129.05605,34.385025,0.0,0.0,0.0,0.0,0.0,0.0,0.0,0.5764042,0.0066796755,-0.8173075,-0.93322754,-0.08996582,-0.3217163,-0.099609375,0.018554688,0.017578125,0.4463111,11.933355,0.13829,-16.9208,1.0269165,-0.08685303,-0.20440674,-0.0390625,0.05859375,0.046875,3.4575136,9.757696,-56.811657,-18.377268,-0.44555664,0.10913086,0.92230225,-0.016601562,0.029296875,0.00390625,3.7288291,8.247403,-128.72902,-15.123175,0.0,0.0,0.0,0.0,0.0,0.0,0.0,14.49608,-128.60991,3.8768349,0.0,0.0,0.0,0.0,0.0,0.0,0.0,1.5219568,44.957424,1.4407839,
1.6015624761348592,82,-0.06317139,0.83496094,0.46661377,-0.021484375,0.0068359375,0.06640625,0.0,0.0,0.0,0.0,0.0,0.0,0.0,0.0,0.0,0.0,0.0,-0.57603604,-0.0066958843,0.81754607,-0.9925537,0.040100098,-0.07476807,-0.00390625,0.0029296875,0.0146484375,1.2330526,-11.925734,-0.13862556,16.92574,0.9904785,-0.11468506,-0.26593018,-0.032226562,0.036132812,0.016601562,3.5218666,-14.809411,-57.058666,15.87054,-0.57250977,-0.008300781,0.80303955,0.0068359375,-0.0126953125,0.0,19.92691,-13.077828,-129.03282,14.684651,0.0,0.0,0.0,0.0,0.0,0.0,0.0,-9.803225,-129.0361,34.415493,0.0,0.0,0.0,0.0,0.0,0.0,0.0,0.57603604,0.0066958843,-0.81754607,-0.93444824,-0.10455322,-0.3237915,-0.060546875,0.017578125,0.017578125,0.43521255,11.925734,0.13862556,-16.92574,0.99902344,-0.08544922,-0.20678711,-0.0390625,0.07714844,0.046875,3.4306242,9.788837,-56.809956,-18.371197,-0.41693115,0.08178711,0.9035034,0.0029296875,0.009765625,0.00390625,3.664686,8.293838,-128.73048,-15.132162,0.0,0.0,0.0,0.0,0.0,0.0,0.0,14.55139,-128.61588,3.8640823,0.0,0.0,0.0,0.0,0.0,0.0,0.0,1.5232124,44.956604,1.4414473,
1.621093725843821,83,-0.045959473,0.8195801,0.46704102,-0.040039062,0.045898438,0.06738281,0.0,0.0,0.0,0.0,0.0,0.0,0.0,0.0,0.0,0.0,0.0,-0.5763152,-0.0067760767,0.81738585,-0.98547363,0.029296875,-0.075927734,-0.060546875,0.022460938,0.0146484375,1.2234935,-11.931513,-0.14028578,16.922422,0.9645996,-0.103027344,-0.22875977,-0.05078125,0.036132812,0.03515625,3.5099494,-14.79883,-57.06231,15.856885,-0.5827637,-0.019897461,0.81988525,-0.01171875,0.005859375,-0.018554688,19.836754,-13.060168,-129.0397,14.685926,0.0,0.0,0.0,0.0,0.0,0.0,0.0,-9.772364,-129.03712,34.412994,0.0,0.0,0.0,0.0,0.0,0.0,0.0,0.5763152,0.0067760767,-0.81738585,-0.9284668,-0.10601807,-0.30810547,-0.061523438,-0.001953125,0.038085938,0.38206118,11.931513,0.14028578,-16.922422,0.9953003,-0.06744385,-0.19799805,-0.057617188,0.05859375,0.06640625,3.449236,9.8472805,-56.813145,-18.403927,-0.43841553,0.080322266,0.89276123,0.0029296875,0.009765625,0.00390625,3.6127043,8.349371,-128.73378,-15.17669,0.0,0.0,0.0,0.0,0.0,0.0,0.0,14.618309,-128.62172,3.8161287,0.0,0.0,0.0,0.0,0.0,0.0,0.0,1.5101764,44.95854,1.4374855,
1.6406249755527826,84,-0.051757812,0.78900146,0.47790527,0.018554688,0.043945312,0.047851562,0.0,0.0,0.0,0.0,0.0,0.0,0.0,0.0,0.0,0.0,0.0,-0.5764042,-0.0066796755,0.8173075,-0.9906006,0.027404785,-0.07501221,-0.059570312,0.022460938,-0.0048828125,1.2069073,-11.933355,-0.13829,16.9208,0.9581909,-0.11151123,-0.24468994,-0.0126953125,0.0546875,0.016601562,3.4841952,-14.785021,-57.0636,15.862688,-0.58148193,-0.0060424805,0.80700684,0.026367188,-0.013671875,-0.018554688,19.838507,-13.059405,-129.04434,14.682297,0.0,0.0,0.0,0.0,0.0,0.0,0.0,-9.76581,-129.03499,34.409317,0.0,0.0,0.0,0.0,0.0,0.0,0.0,0.5764042,0.0066796755,-0.8173075,-0.9585571,-0.10345459,-0.35131836,-0.0029296875,0.07421875,0.016601562,0.37115026,11.933355,0.13829,-16.9208,0.97528076,-0.072143555,-0.20349121,-0.07714844,0.059570312,0.046875,3.4401987,9.851524,-56.81068,-18.410038,-0.44561768,0.08239746,0.9006958,0.0029296875,0.009765625,0.00390625,3.5845747,8.343238,-128.7354,-15.203146,0.0,0.0,0.0,0.0,0.0,0.0,0.0,14.610664,-128.62944,3.7900658,0.0,0.0,0.0,0.0,0.0,0.0,0.0,1.5219568,44.957424,1.4407839,
1.6601562252617443,85,-0.07537842,0.8093262,0.45080566,-0.020507812,0.044921875,0.048828125,0.0,0.0,0.0,0.0,0.0,0.0,0.0,0.0,0.0,0.0,0.0,-0.5767391,-0.0063737836,0.8170812,-0.9937744,0.021484375,-0.068115234,-0.060546875,0.041015625,0.034179688,1.2085276,-11.940287,-0.1319571,16.916115,0.9703369,-0.11401367,-0.23382568,-0.049804688,0.07421875,0.053710938,3.4893053,-14.811272,-57.053093,15.86432,-0.5897217,-0.01763916,0.80999756,-0.01171875,0.005859375,0.0,19.841534,-13.103681,-129.04347,14.687276,0.0,0.0,0.0,0.0,0.0,0.0,0.0,-9.8060665,-129.03206,34.41262,0.0,0.0,0.0,0.0,0.0,0.0,0.0,0.5767391,0.0063737836,-0.8170812,-0.914917,-0.07110596,-0.34716797,0.015625,0.015625,0.016601562,0.34378096,11.940287,0.1319571,-16.916115,1.0026245,-0.09350586,-0.22753906,-0.057617188,0.05859375,0.06640625,3.427027,9.861767,-56.820843,-18.417715,-0.39837646,0.089538574,0.88964844,0.0029296875,0.009765625,0.00390625,3.5822256,8.327892,-128.74931,-15.239525,0.0,0.0,0.0,0.0,0.0,0.0,0.0,14.597111,-128.63501,3.752819,0.0,0.0,0.0,0.0,0.0,0.0,0.0,1.533319,44.957573,1.4329967,
1.679687474970706,86,-0.07598877,0.8204956,0.48675537,-0.021484375,0.0068359375,0.08496094,0.0,0.0,0.0,0.0,0.0,0.0,0.0,0.0,0.0,0.0,0.0,-0.57665163,-0.0063208947,0.8171413,-0.9874878,0.02166748,-0.08502197,-0.060546875,0.021484375,0.033203125,1.1966491,-11.9384775,-0.13086212,16.917356,0.9914551,-0.11981201,-0.22210693,-0.0126953125,0.0546875,0.016601562,3.4893053,-14.798677,-57.053074,15.864563,-0.581604,-0.0138549805,0.79418945,0.0068359375,0.0048828125,-0.018554688,19.787191,-13.07676,-129.03435,14.708692,0.0,0.0,0.0,0.0,0.0,0.0,0.0,-9.762721,-129.0244,34.4308,0.0,0.0,0.0,0.0,0.0,0.0,0.0,0.57665163,0.0063208947,-0.8171413,-0.93548584,-0.107788086,-0.31207275,-0.080078125,-0.020507812,0.038085938,0.2960753,11.9384775,0.13086212,-16.917356,1.0087891,-0.09362793,-0.21484375,-0.07714844,0.059570312,0.06640625,3.4225678,9.905497,-56.8169,-18.447912,-0.41381836,0.07885742,0.8897095,0.001953125,-0.009765625,0.00390625,3.5306396,8.372103,-128.74039,-15.305994,0.0,0.0,0.0,0.0,0.0,0.0,0.0,14.645653,-128.62875,3.685194,0.0,0.0,0.0,0.0,0.0,0.0,0.0,1.5337373,44.957573,1.4301128,
1.6992187246796677,87,-0.06903076,0.79437256,0.47045898,-0.021484375,0.0068359375,0.06640625,0.0,0.0,0.0,0.0,0.0,0.0,0.0,0.0,0.0,0.0,0.0,-0.57691187,-0.0070753843,0.8169276,-0.99975586,0.01977539,-0.07714844,-0.059570312,0.041992188,-0.00390625,1.2271665,-11.943865,-0.1464824,16.912933,0.97595215,-0.09466553,-0.2298584,-0.0107421875,0.053710938,0.07421875,3.5413263,-14.825241,-57.07015,15.826824,-0.5786133,-0.014953613,0.79815674,0.0068359375,-0.0126953125,0.0,19.735384,-13.063858,-129.04233,14.657744,0.0,0.0,0.0,0.0,0.0,0.0,0.0,-9.747047,-129.03549,34.37933,0.0,0.0,0.0,0.0,0.0,0.0,0.0,0.57691187,0.0070753843,-0.8169276,-0.91137695,-0.10662842,-0.338562,-0.080078125,-0.020507812,0.038085938,0.38359454,11.943865,0.1464824,-16.912933,1.006958,-0.10852051,-0.19793701,-0.07714844,0.059570312,0.08496094,3.396786,9.916916,-56.80611,-18.404356,-0.42095947,0.08795166,0.8927002,-0.016601562,0.029296875,0.00390625,3.5508785,8.353138,-128.73143,-15.241081,0.0,0.0,0.0,0.0,0.0,0.0,0.0,14.620389,-128.61688,3.75218,0.0,0.0,0.0,0.0,0.0,0.0,0.0,1.5312219,44.955475,1.4707024,
1.7187499743886294,88,-0.053771973,0.8060303,0.48303223,0.037109375,0.024414062,0.06542969,0.0,0.0,0.0,0.0,0.0,0.0,0.0,0.0,0.0,0.0,0.0,-0.57712144,-0.0073213447,0.81677663,-0.98864746,0.023376465,-0.07006836,-0.041015625,0.022460938,0.0146484375,1.2153091,-11.948205,-0.1515745,16.90981,0.9786377,-0.10748291,-0.23388672,-0.05078125,0.036132812,0.03515625,3.5120127,-14.782643,-57.07788,15.8411045,-0.59436035,0.004211426,0.7980957,-0.03125,-0.01171875,0.0,19.629364,-12.999044,-129.06348,14.68281,0.0,0.0,0.0,0.0,0.0,0.0,0.0,-9.661718,-129.0523,34.401173,0.0,0.0,0.0,0.0,0.0,0.0,0.0,0.57712144,0.0073213447,-0.81677663,-0.92681885,-0.13653564,-0.34368896,0.015625,0.0546875,0.037109375,0.36850482,11.948205,0.1515745,-16.90981,1.0031738,-0.08850098,-0.19207764,-0.057617188,0.05859375,0.08496094,3.4133456,9.976856,-56.79867,-18.42425,-0.43133545,0.09375,0.9351196,-0.016601562,0.009765625,0.00390625,3.4478734,8.411421,-128.72049,-15.26288,0.0,0.0,0.0,0.0,0.0,0.0,0.0,14.691568,-128.60237,3.7265606,0.0,0.0,0.0,0.0,0.0,0.0,0.0,1.5299623,44.95506,1.4840109,
1.7382812240975911,89,-0.08703613,0.79888916,0.480896,-0.059570312,0.045898438,0.068359375,0.0,0.0,0.0,0.0,0.0,0.0,0.0,0.0,0.0,0.0,0.0,-0.57747275,-0.0073832693,0.81651825,-0.9906006,0.027404785,-0.07598877,-0.022460938,0.022460938,0.033203125,1.1836598,-11.955476,-0.15285656,16.904459,0.9558716,-0.123168945,-0.24572754,-0.03125,0.03515625,0.0546875,3.4649801,-14.755408,-57.076553,15.825909,-0.58551025,-0.0040283203,0.81396484,-0.01171875,0.005859375,0.0,19.593895,-12.986977,-129.06656,14.675392,0.0,0.0,0.0,0.0,0.0,0.0,0.0,-9.63109,-129.05714,34.391403,0.0,0.0,0.0,0.0,0.0,0.0,0.0,0.57747275,0.0073832693,-0.81651825,-0.9102173,-0.09484863,-0.37976074,-0.060546875,0.037109375,-0.0029296875,0.36584026,11.955476,0.15285656,-16.904459,1.0349121,-0.081970215,-0.20458984,-0.05859375,0.07714844,0.046875,3.4211948,9.977396,-56.798508,-18.437176,-0.4208374,0.099975586,0.8887329,0.001953125,0.009765625,0.022460938,3.4432707,8.373613,-128.71887,-15.287387,0.0,0.0,0.0,0.0,0.0,0.0,0.0,14.65404,-128.59853,3.7015772,0.0,0.0,0.0,0.0,0.0,0.0,0.0,1.5404717,44.95395,1.495971,
1.7578124738065528,90,-0.078430176,0.8134155,0.4529419,-0.061523438,-0.01171875,0.06738281,0.0,0.0,0.0,0.0,0.0,0.0,0.0,0.0,0.0,0.0,0.0,-0.5781973,-0.0070626764,0.815989,-0.98742676,0.034301758,-0.081848145,-0.022460938,0.0029296875,0.0146484375,1.1594405,-11.970478,-0.14621928,16.893503,0.98498535,-0.13122559,-0.24304199,-0.0126953125,0.03515625,0.036132812,3.4816093,-14.76552,-57.074963,15.80572,-0.58258057,-0.010009766,0.80999756,-0.01171875,-0.0126953125,-0.018554688,19.549906,-12.969673,-129.04965,14.658718,0.0,0.0,0.0,0.0,0.0,0.0,0.0,-9.613518,-129.0381,34.374016,0.0,0.0,0.0,0.0,0.0,0.0,0.0,0.5781973,0.0070626764,-0.815989,-0.90838623,-0.10882568,-0.3307495,-0.060546875,0.017578125,-0.0029296875,0.34206915,11.970478,0.14621928,-16.893503,1.0258179,-0.08984375,-0.21026611,-0.057617188,0.040039062,0.06640625,3.4004729,10.016705,-56.80759,-18.430994,-0.4312744,0.078186035,0.89471436,-0.016601562,0.009765625,-0.015625,3.4416783,8.397098,-128.7365,-15.309788,0.0,0.0,0.0,0.0,0.0,0.0,0.0,14.686873,-128.61983,3.6756802,0.0,0.0,0.0,0.0,0.0,0.0,0.0,1.5430269,44.953606,1.4824548,
1.7773437235155145,91,-0.07910156,0.83251953,0.4829712,0.017578125,0.025390625,0.06640625,0.0,0.0,0.0,0.0,0.0,0.0,0.0,0.0,0.0,0.0,0.0,-0.57903534,-0.007600191,0.81543666,-0.99157715,0.030273438,-0.07293701,-0.060546875,0.021484375,0.033203125,1.2046353,-11.987828,-0.15734753,16.882067,0.98583984,-0.10089111,-0.24194336,-0.013671875,0.016601562,0.017578125,3.4954162,-14.803497,-57.081226,15.789734,-0.5856323,-0.010864258,0.809021,-0.01171875,0.005859375,0.018554688,19.614243,-13.01651,-129.06,14.625957,0.0,0.0,0.0,0.0,0.0,0.0,0.0,-9.670181,-129.0464,34.344707,0.0,0.0,0.0,0.0,0.0,0.0,0.0,0.57903534,0.007600191,-0.81543666,-0.9130249,-0.07977295,-0.35412598,-0.00390625,-0.0234375,0.016601562,0.33102235,11.987828,0.15734753,-16.882067,1.0125732,-0.10168457,-0.22375488,-0.07714844,0.059570312,0.06640625,3.4295397,10.075195,-56.79785,-18.458467,-0.42919922,0.06829834,0.87597656,-0.016601562,0.009765625,0.00390625,3.4433844,8.443633,-128.71844,-15.346657,0.0,0.0,0.0,0.0,0.0,0.0,0.0,14.740183,-128.6039,3.6370144,0.0,0.0,0.0,0.0,0.0,0.0,0.0,1.5270141,44.95518,1.5033212,
1.7968749732244762,92,-0.0848999,0.8208008,0.49890137,-0.021484375,0.025390625,0.048828125,0.0,0.0,0.0,0.0,0.0,0.0,0.0,0.0,0.0,0.0,0.0,-0.57900226,-0.0073103216,0.8154493,-0.9816284,0.026062012,-0.061035156,-0.022460938,0.022460938,0.0146484375,1.1604526,-11.987143,-0.15134631,16.882328,0.96551514,-0.104003906,-0.24072266,-0.030273438,0.07324219,0.0546875,3.4714723,-14.78356,-57.075623,15.772524,-0.59155273,-0.0067749023,0.81396484,-0.01171875,-0.01171875,0.018554688,19.609581,-13.002281,-129.06485,14.599868,0.0,0.0,0.0,0.0,0.0,0.0,0.0,-9.656672,-129.0492,34.318256,0.0,0.0,0.0,0.0,0.0,0.0,0.0,0.57900226,0.0073103216,-0.8154493,-0.9013672,-0.11022949,-0.31799316,-0.041992188,0.016601562,0.038085938,0.31027427,11.987143,0.15134631,-16.882328,1.0273438,-0.0758667,-0.18273926,-0.057617188,0.05859375,0.06640625,3.4354148,10.100865,-56.80376,-18.475227,-0.43029785,0.089904785,0.92230225,0.0029296875,0.028320312,0.00390625,3.4233687,8.506139,-128.72517,-15.377174,0.0,0.0,0.0,0.0,0.0,0.0,0.0,14.789814,-128.607,3.6111279,0.0,0.0,0.0,0.0,0.0,0.0,0.0,1.5396423,44.9545,1.496216,
1.816406222933438,93,-0.06072998,0.8062134,0.4882202,-0.12011719,0.009765625,0.06933594,0.0,0.0,0.0,0.0,0.0,0.0,0.0,0.0,0.0,0.0,0.0,-0.579674,-0.0068436153,0.8149081,-0.98443604,0.037963867,-0.07281494,-0.022460938,0.0029296875,0.0146484375,1.0991391,-12.001049,-0.14168401,16.871126,0.9833374,-0.1184082,-0.25091553,-0.0126953125,0.036132812,0.017578125,3.4408817,-14.76479,-57.06707,15.758253,-0.588562,-0.0068969727,0.8189087,0.026367188,-0.013671875,-0.018554688,19.604044,-12.9809065,-129.04193,14.581951,0.0,0.0,0.0,0.0,0.0,0.0,0.0,-9.632967,-129.02815,34.298836,0.0,0.0,0.0,0.0,0.0,0.0,0.0,0.579674,0.0068436153,-0.8149081,-0.94488525,-0.13464355,-0.36627197,-0.022460938,-0.022460938,0.016601562,0.35443035,12.001049,0.14168401,-16.871126,1.020874,-0.077819824,-0.21124268,-0.05859375,0.05859375,0.046875,3.4169574,10.117527,-56.815487,-18.46469,-0.4229126,0.0881958,0.875,0.0029296875,0.009765625,0.00390625,3.4239404,8.50108,-128.7452,-15.389796,0.0,0.0,0.0,0.0,0.0,0.0,0.0,14.787329,-128.6286,3.5968122,0.0,0.0,0.0,0.0,0.0,0.0,0.0,1.5976462,44.949387,1.5139502,
1.8359374726423996,94,-0.08416748,0.8087158,0.47192383,0.017578125,0.025390625,0.083984375,0.0,0.0,0.0,0.0,0.0,0.0,0.0,0.0,0.0,0.0,0.0,-0.58018786,-0.0074452674,0.81466216,-0.9916382,0.030273438,-0.07098389,-0.060546875,-0.016601562,0.052734375,1.1524999,-12.011687,-0.1541401,16.866032,0.9780884,-0.1270752,-0.23095703,-0.0126953125,0.016601562,0.036132812,3.4429295,-14.77834,-57.07828,15.777896,-0.60980225,-0.014099121,0.815979,0.0068359375,0.0048828125,-0.018554688,19.546577,-12.995528,-129.05634,14.621443,0.0,0.0,0.0,0.0,0.0,0.0,0.0,-9.632416,-129.04921,34.33622,0.0,0.0,0.0,0.0,0.0,0.0,0.0,0.58018786,0.0074452674,-0.81466216,-0.9140625,-0.08148193,-0.36395264,-0.041992188,-0.041992188,0.037109375,0.40830377,12.011687,0.1541401,-16.866032,1.006897,-0.08062744,-0.21191406,-0.057617188,0.05859375,0.06640625,3.407605,10.165203,-56.80164,-18.46238,-0.43725586,0.0993042,0.89178467,0.001953125,0.0087890625,0.041015625,3.377712,8.537439,-128.73071,-15.401598,0.0,0.0,0.0,0.0,0.0,0.0,0.0,14.833336,-128.60838,3.5818405,0.0,0.0,0.0,0.0,0.0,0.0,0.0,1.5975139,44.9528,1.5485483,
1.8554687223513613,95,-0.07318115,0.8213501,0.46875,-0.021484375,0.0068359375,0.06640625,0.0,0.0,0.0,0.0,0.0,0.0,0.0,0.0,0.0,0.0,0.0,-0.58006567,-0.0072525106,0.81475323,-0.9874878,0.038024902,-0.073791504,-0.07910156,0.021484375,0.052734375,1.1391793,-12.009158,-0.15014946,16.867916,0.97631836,-0.11517334,-0.24188232,0.024414062,0.0546875,-9.765625E-4,3.406513,-14.76543,-57.07916,15.785202,-0.5907593,-0.021484375,0.7971802,0.026367188,0.0234375,0.0,19.556608,-13.015525,-129.06053,14.621855,0.0,0.0,0.0,0.0,0.0,0.0,0.0,-9.643126,-129.05972,34.334595,0.0,0.0,0.0,0.0,0.0,0.0,0.0,0.58006567,0.0072525106,-0.81475323,-0.8972168,-0.09863281,-0.3552246,-0.041992188,-0.021484375,0.017578125,0.40638232,12.009158,0.15014946,-16.867916,1.0011597,-0.06951904,-0.20599365,-0.07714844,0.059570312,0.046875,3.3825774,10.155891,-56.802395,-18.450117,-0.41375732,0.083984375,0.87890625,0.0029296875,0.009765625,0.00390625,3.3468504,8.503162,-128.72386,-15.403439,0.0,0.0,0.0,0.0,0.0,0.0,0.0,14.810443,-128.60408,3.5765667,0.0,0.0,0.0,0.0,0.0,0.0,0.0,1.5983801,44.953213,1.5381212,
1.874999972060323,96,-0.05291748,0.8118286,0.4701538,-0.060546875,0.02734375,0.06738281,0.0,0.0,0.0,0.0,0.0,0.0,0.0,0.0,0.0,0.0,0.0,-0.580157,-0.007534894,0.81462735,-0.98760986,0.020568848,-0.07611084,-0.060546875,0.059570312,0.034179688,1.144492,-12.011048,-0.15599567,16.86531,0.97283936,-0.097473145,-0.22583008,-0.013671875,0.0546875,-0.001953125,3.389747,-14.748985,-57.08357,15.783018,-0.5706787,-0.020202637,0.8109741,-0.01171875,0.005859375,0.0,19.583942,-12.997492,-129.06548,14.612373,0.0,0.0,0.0,0.0,0.0,0.0,0.0,-9.636439,-129.05434,34.32795,0.0,0.0,0.0,0.0,0.0,0.0,0.0,0.580157,0.007534894,-0.81462735,-0.930542,-0.11541748,-0.36517334,-0.022460938,0.036132812,0.016601562,0.43069306,12.011048,0.15599567,-16.86531,0.9859009,-0.09729004,-0.21044922,0.0,0.0390625,0.06542969,3.3567803,10.166012,-56.797672,-18.432945,-0.43133545,0.07611084,0.9016113,-0.016601562,0.029296875,0.00390625,3.364994,8.485958,-128.7266,-15.39988,0.0,0.0,0.0,0.0,0.0,0.0,0.0,14.799793,-128.61469,3.5767603,0.0,0.0,0.0,0.0,0.0,0.0,0.0,1.589973,44.95103,1.5481129,
1.8945312217692847,97,-0.06384277,0.7963257,0.47924805,-0.021484375,0.025390625,0.048828125,0.0,0.0,0.0,0.0,0.0,0.0,0.0,0.0,0.0,0.0,0.0,-0.5803317,-0.0076402724,0.81450695,-1.0027466,0.030456543,-0.07293701,-0.041015625,0.041992188,-0.00390625,1.1473949,-12.0146675,-0.15817735,16.86282,0.96240234,-0.105773926,-0.24572754,-0.0126953125,0.0546875,0.036132812,3.4458284,-14.757467,-57.083553,15.772126,-0.59002686,-0.03527832,0.7962036,0.0068359375,-0.0126953125,0.018554688,19.541115,-12.941486,-129.0621,14.608191,0.0,0.0,0.0,0.0,0.0,0.0,0.0,-9.580072,-129.05595,34.323048,0.0,0.0,0.0,0.0,0.0,0.0,0.0,0.5803317,0.0076402724,-0.81450695,-0.9302368,-0.091552734,-0.33843994,0.015625,0.03515625,0.037109375,0.44013038,12.0146675,0.15817735,-16.86282,0.9940796,-0.10437012,-0.19573975,-0.0390625,0.05859375,0.046875,3.33912,10.164987,-56.798344,-18.424839,-0.42919922,0.10681152,0.9262085,0.0029296875,0.009765625,0.00390625,3.3554385,8.477865,-128.72578,-15.407587,0.0,0.0,0.0,0.0,0.0,0.0,0.0,14.784111,-128.61128,3.5730915,0.0,0.0,0.0,0.0,0.0,0.0,0.0,1.5891124,44.951042,1.5538855,
1.9140624714782464,98,-0.075927734,0.8245239,0.4907837,-0.041015625,0.026367188,0.048828125,0.0,0.0,0.0,0.0,0.0,0.0,0.0,0.0,0.0,0.0,0.0,-0.57994246,-0.0076547973,0.8148105,-1.0010376,0.0068969727,-0.060424805,-0.041015625,0.022460938,0.0146484375,1.1302117,-12.006607,-0.15847805,16.869102,0.9603882,-0.10870361,-0.23077393,-0.03125,0.03515625,0.036132812,3.4441803,-14.739723,-57.08733,15.766434,-0.58477783,-0.024597168,0.79522705,0.0068359375,0.005859375,0.0,19.50583,-12.91276,-129.0753,14.605665,0.0,0.0,0.0,0.0,0.0,0.0,0.0,-9.543839,-129.07228,34.31867,0.0,0.0,0.0,0.0,0.0,0.0,0.0,0.57994246,0.0076547973,-0.8148105,-0.9567871,-0.12133789,-0.34161377,-0.11816406,-0.0390625,0.017578125,0.4484978,12.006607,0.15847805,-16.869102,1.0068359,-0.08959961,-0.21185303,-0.07714844,0.059570312,0.06640625,3.3251362,10.137296,-56.79656,-18.4259,-0.4414673,0.084350586,0.89276123,0.0029296875,0.009765625,-0.034179688,3.327255,8.491941,-128.7204,-15.42155,0.0,0.0,0.0,0.0,0.0,0.0,0.0,14.80104,-128.60524,3.5569525,0.0,0.0,0.0,0.0,0.0,0.0,0.0,1.5979234,44.951508,1.5596244,
1.933593721187208,99,-0.05999756,0.81103516,0.47131348,-0.041992188,0.0068359375,0.048828125,0.0,0.0,0.0,0.0,0.0,0.0,0.0,0.0,0.0,0.0,0.0,-0.5801375,-0.007912188,0.81464386,-0.9946289,0.030456543,-0.077941895,-0.041015625,0.041015625,0.0146484375,1.1545357,-12.010645,-0.16380681,16.865654,0.99005127,-0.13342285,-0.2390747,-0.03125,0.0546875,0.03515625,3.465884,-14.758053,-57.08833,15.760076,-0.572876,-0.024230957,0.84069824,-0.01171875,0.005859375,0.0,19.580671,-12.922205,-129.06693,14.593612,0.0,0.0,0.0,0.0,0.0,0.0,0.0,-9.5816555,-129.06308,34.312515,0.0,0.0,0.0,0.0,0.0,0.0,0.0,0.5801375,0.007912188,-0.81464386,-0.91516113,-0.091552734,-0.3522339,-0.080078125,-0.040039062,0.017578125,0.47229823,12.010645,0.16380681,-16.865654,1.0029297,-0.08154297,-0.21087646,-0.07714844,0.041015625,0.06640625,3.288905,10.168199,-56.791576,-18.398428,-0.42108154,0.07092285,0.8986206,-0.016601562,0.009765625,0.022460938,3.3380644,8.520936,-128.72261,-15.40652,0.0,0.0,0.0,0.0,0.0,0.0,0.0,14.822704,-128.6098,3.5747385,0.0,0.0,0.0,0.0,0.0,0.0,0.0,1.5773349,44.951294,1.5598648,
1.9531249708961698,100,-0.062072754,0.8110962,0.4644165,-0.041015625,0.02734375,0.0859375,0.0,0.0,0.0,0.0,0.0,0.0,0.0,0.0,0.0,0.0,0.0,-0.5795862,-0.007959317,0.8151009,-0.977478,0.03375244,-0.057922363,-0.022460938,0.022460938,0.033203125,1.1509708,-11.999231,-0.16478257,16.875116,0.97161865,-0.1375122,-0.25091553,-0.0126953125,0.036132812,0.017578125,3.4282837,-14.736793,-57.09311,15.775116,-0.5961304,-0.03717041,0.8189697,-0.01171875,0.024414062,0.0,19.661716,-12.934992,-129.08102,14.648696,0.0,0.0,0.0,0.0,0.0,0.0,0.0,-9.606834,-129.07661,34.369263,0.0,0.0,0.0,0.0,0.0,0.0,0.0,0.5795862,0.007959317,-0.8151009,-0.9133911,-0.10534668,-0.30810547,0.03515625,0.053710938,0.037109375,0.4853748,11.999231,0.16478257,-16.875116,1.007019,-0.10949707,-0.1920166,-0.0390625,0.05859375,0.06542969,3.3118026,10.176546,-56.79093,-18.42596,-0.44555664,0.09442139,0.8977051,-0.017578125,-0.028320312,-0.015625,3.3213067,8.536117,-128.72165,-15.428026,0.0,0.0,0.0,0.0,0.0,0.0,0.0,14.830553,-128.6112,3.5559864,0.0,0.0,0.0,0.0,0.0,0.0,0.0,1.5941079,44.95266,1.5724623,
1.9726562206051315,101,-0.045654297,0.8097534,0.48583984,-0.021484375,0.0068359375,0.06640625,0.0,0.0,0.0,0.0,0.0,0.0,0.0,0.0,0.0,0.0,0.0,-0.5796302,-0.0084089115,0.8149208,-0.9925537,0.02947998,-0.08190918,-0.041015625,0.0029296875,0.033203125,1.1760305,-12.000141,-0.17409056,16.871387,0.9785156,-0.11035156,-0.24584961,0.005859375,0.03515625,0.017578125,3.4492927,-14.7371645,-57.103516,15.771242,-0.5908203,-0.022521973,0.8129883,-0.01171875,-0.06640625,9.765625E-4,19.585918,-12.908472,-129.08694,14.639399,0.0,0.0,0.0,0.0,0.0,0.0,0.0,-9.554259,-129.08443,34.355675,0.0,0.0,0.0,0.0,0.0,0.0,0.0,0.5796302,0.0084089115,-0.8149208,-0.95147705,-0.1026001,-0.35131836,0.03515625,0.034179688,0.016601562,0.5218958,12.000141,0.17409056,-16.871387,0.9989624,-0.074523926,-0.21575928,-0.018554688,0.021484375,0.06542969,3.274707,10.165155,-56.784298,-18.404438,-0.4169922,0.061950684,0.8858032,-0.016601562,0.009765625,0.00390625,3.305412,8.529102,-128.71704,-15.431593,0.0,0.0,0.0,0.0,0.0,0.0,0.0,14.825359,-128.6112,3.5509224,0.0,0.0,0.0,0.0,0.0,0.0,0.0,1.5899173,44.946724,1.5946546,
1.9921874703140932,102,-0.06506348,0.8201294,0.47052002,-0.022460938,-0.0126953125,0.06640625,0.0,0.0,0.0,0.0,0.0,0.0,0.0,0.0,0.0,0.0,0.0,-0.57946295,-0.008361731,0.81515795,-0.98150635,0.026245117,-0.07098389,-0.060546875,0.041015625,0.0146484375,1.1516507,-11.996678,-0.17311375,16.876299,0.9864502,-0.08135986,-0.23388672,-0.0126953125,0.03515625,0.036132812,3.4631715,-14.731501,-57.099575,15.751676,-0.5906372,-0.009765625,0.8119507,0.0068359375,-0.0126953125,0.0,19.552404,-12.882877,-129.08022,14.590187,0.0,0.0,0.0,0.0,0.0,0.0,0.0,-9.531341,-129.08171,34.30698,0.0,0.0,0.0,0.0,0.0,0.0,0.0,0.57946295,0.008361731,-0.81515795,-0.9110718,-0.083740234,-0.3531494,-0.099609375,-0.07910156,0.017578125,0.55883145,11.996678,0.17311375,-16.876299,1.0230103,-0.08477783,-0.1984253,-0.057617188,0.05859375,0.06640625,3.2290726,10.201262,-56.788406,-18.387112,-0.4230957,0.08288574,0.90948486,0.001953125,-0.009765625,0.022460938,3.2737503,8.538681,-128.71771,-15.442373,0.0,0.0,0.0,0.0,0.0,0.0,0.0,14.846798,-128.6136,3.5369816,0.0,0.0,0.0,0.0,0.0,0.0,0.0,1.5936615,44.95094,1.5939677,
2.011718720023055,103,-0.05670166,0.8071289,0.48809814,-0.021484375,0.0068359375,0.06640625,0.0,0.0,0.0,0.0,0.0,0.0,0.0,0.0,0.0,0.0,0.0,-0.5793746,-0.00890425,0.815184,-1.0070801,0.014770508,-0.060302734,-0.060546875,0.07910156,0.034179688,1.1648288,-11.99485,-0.18434557,16.876833,0.9784546,-0.113342285,-0.23291016,-0.049804688,0.0546875,0.03515625,3.474122,-14.731168,-57.11157,15.730161,-0.5914917,-0.0028686523,0.81689453,0.0068359375,-0.0126953125,0.018554688,19.477388,-12.870255,-129.09837,14.578968,0.0,0.0,0.0,0.0,0.0,0.0,0.0,-9.509525,-129.09906,34.29374,0.0,0.0,0.0,0.0,0.0,0.0,0.0,0.5793746,0.00890425,-0.815184,-0.91845703,-0.11199951,-0.31207275,-0.080078125,-9.765625E-4,0.038085938,0.63272893,11.99485,0.18434557,-16.876833,1.0059814,-0.080566406,-0.20996094,-0.01953125,0.021484375,0.046875,3.1651442,10.233107,-56.77523,-18.358051,-0.4701538,0.09289551,0.89782715,0.0029296875,0.009765625,0.00390625,3.2437117,8.542428,-128.70526,-15.45541,0.0,0.0,0.0,0.0,0.0,0.0,0.0,14.862661,-128.60783,3.5194988,0.0,0.0,0.0,0.0,0.0,0.0,0.0,1.5927836,44.948795,1.6230123,
2.0312499697320168,104,-0.05670166,0.8071289,0.48809814,-0.021484375,0.0068359375,0.06640625,0.0,0.0,0.0,0.0,0.0,0.0,0.0,0.0,0.0,0.0,0.0,-0.5793746,-0.00890425,0.815184,-0.9876709,0.01373291,-0.07324219,-0.022460938,-0.015625,0.0146484375,1.1253533,-11.99485,-0.18434557,16.876833,0.9746094,-0.10736084,-0.2298584,-0.06933594,0.055664062,0.034179688,3.4519594,-14.699053,-57.112514,15.704902,-0.5880127,-0.03729248,0.78930664,0.0068359375,0.0234375,0.0,19.453098,-12.826452,-129.09001,14.574947,0.0,0.0,0.0,0.0,0.0,0.0,0.0,-9.468383,-129.09767,34.29033,0.0,0.0,0.0,0.0,0.0,0.0,0.0,0.5793746,0.00890425,-0.815184,-0.92370605,-0.1272583,-0.3642578,0.053710938,0.091796875,0.056640625,0.6026341,11.99485,0.18434557,-16.876833,1.0050049,-0.08154297,-0.20599365,0.0,0.057617188,0.06542969,3.1674318,10.223147,-56.77418,-18.386644,-0.41497803,0.07171631,0.9074707,0.001953125,-0.009765625,0.00390625,3.235735,8.503,-128.70326,-15.518251,0.0,0.0,0.0,0.0,0.0,0.0,0.0,14.830812,-128.61067,3.4548302,0.0,0.0,0.0,0.0,0.0,0.0,0.0,1.5927836,44.948795,1.6230123,
2.0507812194409785,105,-0.070129395,0.8083496,0.46759033,-0.061523438,-0.01171875,0.048828125,0.0,0.0,0.0,0.0,0.0,0.0,0.0,0.0,0.0,0.0,0.0,-0.57884496,-0.00895399,0.8155767,-0.98742676,0.03338623,-0.08685303,-0.022460938,0.022460938,0.033203125,1.1412388,-11.983886,-0.18537538,16.884966,0.98114014,-0.12420654,-0.24694824,-0.049804688,0.03515625,0.0546875,3.4557574,-14.689945,-57.112583,15.731057,-0.5980835,-0.032226562,0.8209839,0.026367188,-0.03125,9.765625E-4,19.446503,-12.814205,-129.09653,14.609024,0.0,0.0,0.0,0.0,0.0,0.0,0.0,-9.468084,-129.10486,34.327057,0.0,0.0,0.0,0.0,0.0,0.0,0.0,0.57884496,0.00895399,-0.8155767,-0.9140625,-0.08557129,-0.3571167,-0.041992188,-0.022460938,0.037109375,0.60973555,11.983886,0.18537538,-16.884966,0.9876709,-0.05731201,-0.18206787,-0.11621094,0.078125,0.06640625,3.1462228,10.2012615,-56.77724,-18.39661,-0.4013672,0.097595215,0.88964844,9.765625E-4,-0.047851562,0.00390625,3.2044852,8.5353365,-128.71088,-15.556673,0.0,0.0,0.0,0.0,0.0,0.0,0.0,14.866477,-128.6168,3.4145126,0.0,0.0,0.0,0.0,0.0,0.0,0.0,1.6020461,44.948822,1.6305122,
2.07031246914994,106,-0.067993164,0.8093262,0.47650146,-0.020507812,0.044921875,0.06738281,0.0,0.0,0.0,0.0,0.0,0.0,0.0,0.0,0.0,0.0,0.0,-0.57866836,-0.008998368,0.81571496,-0.99487305,0.025146484,-0.054138184,-0.060546875,0.0029296875,0.033203125,1.1800172,-11.980229,-0.18629412,16.887829,0.98583984,-0.099853516,-0.24987793,-0.0126953125,0.036132812,0.017578125,3.4568338,-14.698524,-57.11505,15.770417,-0.58880615,-0.022521973,0.80114746,0.0078125,-0.06738281,9.765625E-4,19.46496,-12.837108,-129.09106,14.628185,0.0,0.0,0.0,0.0,0.0,0.0,0.0,-9.48724,-129.09947,34.345245,0.0,0.0,0.0,0.0,0.0,0.0,0.0,0.57866836,0.008998368,-0.81571496,-0.9337158,-0.12640381,-0.3534546,-0.13769531,-0.05859375,0.018554688,0.6081289,11.980229,0.18629412,-16.887829,1.0071411,-0.070617676,-0.203125,-0.07714844,0.041015625,0.047851562,3.108161,10.19992,-56.77515,-18.387402,-0.4456787,0.0881958,0.91741943,0.001953125,-0.009765625,0.022460938,3.2425044,8.496259,-128.70647,-15.579863,0.0,0.0,0.0,0.0,0.0,0.0,0.0,14.835928,-128.6156,3.390047,0.0,0.0,0.0,0.0,0.0,0.0,0.0,1.5907136,44.949944,1.6243074,
2.089843718858902,107,-0.06365967,0.8162842,0.5003052,-0.021484375,0.025390625,0.048828125,0.0,0.0,0.0,0.0,0.0,0.0,0.0,0.0,0.0,0.0,0.0,-0.57788175,-0.008970248,0.8162044,-0.9804077,0.034057617,-0.07385254,-0.022460938,0.0029296875,0.033203125,1.1798514,-11.963944,-0.18571192,16.897963,0.99664307,-0.11407471,-0.24005127,-0.0126953125,0.03515625,0.036132812,3.4507115,-14.677589,-57.113506,15.78904,-0.5947876,-0.018432617,0.80511475,0.026367188,-0.03125,9.765625E-4,19.425802,-12.817475,-129.10065,14.657568,0.0,0.0,0.0,0.0,0.0,0.0,0.0,-9.4669,-129.10815,34.374893,0.0,0.0,0.0,0.0,0.0,0.0,0.0,0.57788175,0.008970248,-0.8162044,-0.90234375,-0.109680176,-0.34057617,0.07324219,0.052734375,0.015625,0.61675537,11.963944,0.18571192,-16.897963,1.0126343,-0.10064697,-0.2208252,-0.057617188,0.05859375,0.06640625,3.1185362,10.19659,-56.77562,-18.411268,-0.4005127,0.07458496,0.8945923,0.021484375,-0.009765625,0.0029296875,3.3087273,8.4672165,-128.70773,-15.60903,0.0,0.0,0.0,0.0,0.0,0.0,0.0,14.786215,-128.61641,3.3680077,0.0,0.0,0.0,0.0,0.0,0.0,0.0,1.605498,44.946674,1.630683,
