TOTAL_TIME,0m10s
TOTAL_FRAMES,536
SELECTED_FRAMES,536
NO_OF_JOINTS,12
FREQUENCY,51.2
DESCRIPTION,Capture 40
TIME_STAMP,Nov 1, 2010

Time,Frame,Pelvis_accelX_Pelvis,Pelvis_accelY_Pelvis,Pelvis_accelZ_Pelvis,Pelvis_gyroX_Pelvis,Pelvis_gyroY_Pelvis,Pelvis_gyroZ_Pelvis,Pelvis_Joint angle_Pelvis,Pelvis_Relative pos X_Pelvis,Pelvis_Relative pos Y_Pelvis,Pelvis_Relative pos Z_Pelvis,RightPelvis_accelX_RightPelvis,RightPelvis_accelY_RightPelvis,RightPelvis_accelZ_RightPelvis,RightPelvis_gyroX_RightPelvis,RightPelvis_gyroY_RightPelvis,RightPelvis_gyroZ_RightPelvis,RightPelvis_Joint angle_RightPelvis,RightPelvis_Relative pos X_RightPelvis,RightPelvis_Relative pos Y_RightPelvis,RightPelvis_Relative pos Z_RightPelvis,RightUpLeg_accelX_RightUpLeg,RightUpLeg_accelY_RightUpLeg,RightUpLeg_accelZ_RightUpLeg,RightUpLeg_gyroX_RightUpLeg,RightUpLeg_gyroY_RightUpLeg,RightUpLeg_gyroZ_RightUpLeg,RightUpLeg_Joint angle_RightUpLeg,RightUpLeg_Relative pos X_RightUpLeg,RightUpLeg_Relative pos Y_RightUpLeg,RightUpLeg_Relative pos Z_RightUpLeg,RightLeg_accelX_RightLeg,RightLeg_accelY_RightLeg,RightLeg_accelZ_RightLeg,RightLeg_gyroX_RightLeg,RightLeg_gyroY_RightLeg,RightLeg_gyroZ_RightLeg,RightLeg_Joint angle_RightLeg,RightLeg_Relative pos X_RightLeg,RightLeg_Relative pos Y_RightLeg,RightLeg_Relative pos Z_RightLeg,RightFoot_accelX_RightFoot,RightFoot_accelY_RightFoot,RightFoot_accelZ_RightFoot,RightFoot_gyroX_RightFoot,RightFoot_gyroY_RightFoot,RightFoot_gyroZ_RightFoot,RightFoot_Joint angle_RightFoot,RightFoot_Relative pos X_RightFoot,RightFoot_Relative pos Y_RightFoot,RightFoot_Relative pos Z_RightFoot,RightFootEnd_accelX_RightFootEnd,RightFootEnd_accelY_RightFootEnd,RightFootEnd_accelZ_RightFootEnd,RightFootEnd_gyroX_RightFootEnd,RightFootEnd_gyroY_RightFootEnd,RightFootEnd_gyroZ_RightFootEnd,RightFootEnd_Joint angle_RightFootEnd,RightFootEnd_Relative pos X_RightFootEnd,RightFootEnd_Relative pos Y_RightFootEnd,RightFootEnd_Relative pos Z_RightFootEnd,LeftPelvis_accelX_LeftPelvis,LeftPelvis_accelY_LeftPelvis,LeftPelvis_accelZ_LeftPelvis,LeftPelvis_gyroX_LeftPelvis,LeftPelvis_gyroY_LeftPelvis,LeftPelvis_gyroZ_LeftPelvis,LeftPelvis_Joint angle_LeftPelvis,LeftPelvis_Relative pos X_LeftPelvis,LeftPelvis_Relative pos Y_LeftPelvis,LeftPelvis_Relative pos Z_LeftPelvis,LeftUpLeg_accelX_LeftUpLeg,LeftUpLeg_accelY_LeftUpLeg,LeftUpLeg_accelZ_LeftUpLeg,LeftUpLeg_gyroX_LeftUpLeg,LeftUpLeg_gyroY_LeftUpLeg,LeftUpLeg_gyroZ_LeftUpLeg,LeftUpLeg_Joint angle_LeftUpLeg,LeftUpLeg_Relative pos X_LeftUpLeg,LeftUpLeg_Relative pos Y_LeftUpLeg,LeftUpLeg_Relative pos Z_LeftUpLeg,LeftLeg_accelX_LeftLeg,LeftLeg_accelY_LeftLeg,LeftLeg_accelZ_LeftLeg,LeftLeg_gyroX_LeftLeg,LeftLeg_gyroY_LeftLeg,LeftLeg_gyroZ_LeftLeg,LeftLeg_Joint angle_LeftLeg,LeftLeg_Relative pos X_LeftLeg,LeftLeg_Relative pos Y_LeftLeg,LeftLeg_Relative pos Z_LeftLeg,LeftFoot_accelX_LeftFoot,LeftFoot_accelY_LeftFoot,LeftFoot_accelZ_LeftFoot,LeftFoot_gyroX_LeftFoot,LeftFoot_gyroY_LeftFoot,LeftFoot_gyroZ_LeftFoot,LeftFoot_Joint angle_LeftFoot,LeftFoot_Relative pos X_LeftFoot,LeftFoot_Relative pos Y_LeftFoot,LeftFoot_Relative pos Z_LeftFoot,LeftFootEnd_accelX_LeftFootEnd,LeftFootEnd_accelY_LeftFootEnd,LeftFootEnd_accelZ_LeftFootEnd,LeftFootEnd_gyroX_LeftFootEnd,LeftFootEnd_gyroY_LeftFootEnd,LeftFootEnd_gyroZ_LeftFootEnd,LeftFootEnd_Joint angle_LeftFootEnd,LeftFootEnd_Relative pos X_LeftFootEnd,LeftFootEnd_Relative pos Y_LeftFootEnd,LeftFootEnd_Relative pos Z_LeftFootEnd,Spine_accelX_Spine,Spine_accelY_Spine,Spine_accelZ_Spine,Spine_gyroX_Spine,Spine_gyroY_Spine,Spine_gyroZ_Spine,Spine_Joint angle_Spine,Spine_Relative pos X_Spine,Spine_Relative pos Y_Spine,Spine_Relative pos Z_Spine,
0.0,0,-0.71698,0.7064209,0.6689453,0.11816406,2.546875,1.0703125,0.0,0.0,0.0,0.0,0.0,0.0,0.0,0.0,0.0,0.0,0.0,-0.9159945,0.13122645,0.37752715,-0.7527466,0.48773193,-0.04699707,0.48242188,0.25683594,1.0673828,15.611951,-18.963924,2.7167945,7.815982,0.6029663,-0.60040283,-0.6420288,3.25,-0.25585938,-1.546875,28.214691,-34.185448,-49.572254,24.654533,-0.7023926,-0.7230835,0.4008789,-4.1552734,-0.33203125,2.4453125,47.575413,-82.38307,-97.33978,48.754135,0.0,0.0,0.0,0.0,0.0,0.0,0.0,-74.341064,-108.18265,63.408688,0.0,0.0,0.0,0.0,0.0,0.0,0.0,0.9159945,-0.13122645,-0.37752715,-0.6137085,0.20751953,-0.487854,-0.57714844,4.40625,-0.4169922,15.383425,18.963924,-2.7167945,-7.815982,0.9220581,-0.15612793,-0.12579346,-2.9824219,0.9951172,0.9003906,16.613094,17.944252,-56.313038,11.471177,-0.5115967,0.00592041,0.8782959,0.21191406,0.00390625,0.040039062,57.649876,-1.9025612,-117.55126,43.74324,0.0,0.0,0.0,0.0,0.0,0.0,0.0,11.190914,-123.35539,57.68704,0.0,0.0,0.0,0.0,0.0,0.0,0.0,4.7084537,44.54119,-4.0581574,
0.0195312497089617,1,-0.71698,0.7064209,0.6689453,0.11816406,2.546875,1.0703125,0.0,0.0,0.0,0.0,0.0,0.0,0.0,0.0,0.0,0.0,0.0,-0.9159945,0.13122645,0.37752715,-0.7527466,0.48773193,-0.04699707,0.48242188,0.25683594,1.0673828,15.611951,-18.963924,2.7167945,7.815982,0.6029663,-0.60040283,-0.6420288,3.25,-0.25585938,-1.546875,28.214691,-34.185448,-49.572254,24.654533,-0.7023926,-0.7230835,0.4008789,-4.1552734,-0.33203125,2.4453125,47.575413,-82.38307,-97.33978,48.754135,0.0,0.0,0.0,0.0,0.0,0.0,0.0,-74.341064,-108.18265,63.408688,0.0,0.0,0.0,0.0,0.0,0.0,0.0,0.9159945,-0.13122645,-0.37752715,-0.6137085,0.20751953,-0.487854,-0.57714844,4.40625,-0.4169922,15.383425,18.963924,-2.7167945,-7.815982,0.9220581,-0.15612793,-0.12579346,-2.9824219,0.9951172,0.9003906,16.613094,17.944252,-56.313038,11.471177,-0.5115967,0.00592041,0.8782959,0.21191406,0.00390625,0.040039062,57.649876,-1.9025612,-117.55126,43.74324,0.0,0.0,0.0,0.0,0.0,0.0,0.0,11.190914,-123.35539,57.68704,0.0,0.0,0.0,0.0,0.0,0.0,0.0,4.7084537,44.54119,-4.0581574,
0.0390624994179234,2,-0.71698,0.7064209,0.6689453,0.11816406,2.546875,1.0703125,0.0,0.0,0.0,0.0,0.0,0.0,0.0,0.0,0.0,0.0,0.0,-0.9159945,0.13122645,0.37752715,-0.7527466,0.48773193,-0.04699707,0.48242188,0.25683594,1.0673828,15.611951,-18.963924,2.7167945,7.815982,0.6029663,-0.60040283,-0.6420288,3.25,-0.25585938,-1.546875,28.214691,-34.185448,-49.572254,24.654533,-0.7023926,-0.7230835,0.4008789,-4.1552734,-0.33203125,2.4453125,47.575413,-82.38307,-97.33978,48.754135,0.0,0.0,0.0,0.0,0.0,0.0,0.0,-74.341064,-108.18265,63.408688,0.0,0.0,0.0,0.0,0.0,0.0,0.0,0.9159945,-0.13122645,-0.37752715,-0.6137085,0.20751953,-0.487854,-0.57714844,4.40625,-0.4169922,15.383425,18.963924,-2.7167945,-7.815982,0.9220581,-0.15612793,-0.12579346,-2.9824219,0.9951172,0.9003906,16.613094,17.944252,-56.313038,11.471177,-0.5115967,0.00592041,0.8782959,0.21191406,0.00390625,0.040039062,57.649876,-1.9025612,-117.55126,43.74324,0.0,0.0,0.0,0.0,0.0,0.0,0.0,11.190914,-123.35539,57.68704,0.0,0.0,0.0,0.0,0.0,0.0,0.0,4.7084537,44.54119,-4.0581574,
0.0585937491268851,3,-0.07141113,0.8126831,0.5223999,-0.234375,0.12597656,0.036132812,0.0,0.0,0.0,0.0,0.0,0.0,0.0,0.0,0.0,0.0,0.0,-0.5753326,0.01787067,0.81798565,-0.9958496,0.09039307,0.12524414,-0.00390625,1.1376953,0.65527344,13.749163,-11.911167,0.36997825,16.93484,0.97265625,-0.17077637,-0.27294922,-0.03125,0.03515625,0.036132812,9.766923,-6.9683585,-55.826042,25.094244,-0.6161499,0.017822266,0.7792969,0.0068359375,0.059570312,-0.01953125,10.9222355,-8.457179,-127.79317,27.208467,0.0,0.0,0.0,0.0,0.0,0.0,0.0,-4.9079647,-127.59439,46.88923,0.0,0.0,0.0,0.0,0.0,0.0,0.0,0.5753326,-0.01787067,-0.81798565,-0.9400635,-0.1484375,-0.28485107,-0.17578125,-0.056640625,0.0390625,7.2214847,11.911167,-0.36997825,-16.93484,1.0147095,-0.023803711,-0.18579102,0.07714844,0.09375,0.044921875,3.0379598,14.587835,-57.219357,-20.23961,-0.40594482,0.0513916,0.9281006,-0.049804688,0.61328125,1.0957031,6.999052,15.5421295,-129.21274,-21.17966,0.0,0.0,0.0,0.0,0.0,0.0,0.0,24.818506,-129.42177,-3.4607182,0.0,0.0,0.0,0.0,0.0,0.0,0.0,3.43276,44.85559,1.4344742,
0.0781249988358468,4,-0.10473633,0.8513794,0.53552246,-0.296875,0.013671875,0.0546875,0.0,0.0,0.0,0.0,0.0,0.0,0.0,0.0,0.0,0.0,0.0,-0.5769694,0.021159615,0.8166548,-0.99053955,0.059143066,0.06793213,-0.022460938,0.6455078,0.421875,13.076386,-11.945054,0.43806964,16.907284,0.9439697,-0.144104,-0.28955078,-0.12695312,0.017578125,0.033203125,8.954075,-8.079504,-55.869583,24.904293,-0.6259155,0.03289795,0.7694092,0.0068359375,0.005859375,0.018554688,10.949796,-9.563236,-127.838806,26.931305,0.0,0.0,0.0,0.0,0.0,0.0,0.0,-5.9920526,-127.6383,46.607765,0.0,0.0,0.0,0.0,0.0,0.0,0.0,0.5769694,-0.021159615,-0.8166548,-0.9052124,-0.16778564,-0.28204346,0.034179688,-0.12207031,0.015625,7.614633,11.945054,-0.43806964,-16.907284,0.99816895,-0.026489258,-0.16174316,-0.27148438,0.11816406,0.12402344,3.1056406,14.730984,-57.28063,-20.208477,-0.38757324,0.038085938,0.9260864,-0.01171875,0.5371094,0.9638672,5.783402,15.813085,-129.275,-21.020618,0.0,0.0,0.0,0.0,0.0,0.0,0.0,24.740051,-129.44942,-3.124588,0.0,0.0,0.0,0.0,0.0,0.0,0.0,3.659104,44.834408,1.4235047,
0.09765624854480849,5,-0.1171875,0.8664551,0.5111084,-0.12011719,0.009765625,0.10546875,0.0,0.0,0.0,0.0,0.0,0.0,0.0,0.0,0.0,0.0,0.0,-0.5805837,0.022724506,0.81398255,-0.9265747,0.097595215,-0.017944336,0.034179688,0.041992188,0.0146484375,12.69459,-12.019882,0.47046778,16.851961,0.9267578,-0.17755127,-0.3234253,-0.068359375,0.0546875,0.072265625,8.581307,-8.648167,-55.879906,24.684797,-0.61120605,0.012756348,0.77337646,0.0068359375,-0.0126953125,0.018554688,11.305871,-10.236354,-127.847,26.673841,0.0,0.0,0.0,0.0,0.0,0.0,0.0,-6.661727,-127.64882,46.350105,0.0,0.0,0.0,0.0,0.0,0.0,0.0,0.5805837,-0.022724506,-0.81398255,-0.95422363,-0.15283203,-0.25439453,0.16796875,-0.047851562,0.03515625,7.8782597,12.019882,-0.47046778,-16.851961,0.9916382,-0.06536865,-0.17816162,-0.34765625,0.08203125,0.18261719,3.3611517,14.953355,-57.30169,-20.195301,-0.41308594,0.058532715,0.9281616,-0.051757812,0.36816406,0.66308594,4.666568,16.055092,-129.3027,-20.765652,0.0,0.0,0.0,0.0,0.0,0.0,0.0,24.73893,-129.4392,-2.7477741,0.0,0.0,0.0,0.0,0.0,0.0,0.0,3.7457786,44.824978,1.420316,
0.11718749825377019,6,-0.07598877,0.8165283,0.48272705,-0.061523438,0.009765625,0.140625,0.0,0.0,0.0,0.0,0.0,0.0,0.0,0.0,0.0,0.0,0.0,-0.5852601,0.021127589,0.8107699,-0.9673462,0.060424805,0.0848999,-0.00390625,-0.12988281,-0.005859375,12.6556015,-12.116697,0.43740657,16.78545,0.94989014,-0.144104,-0.34240723,0.06542969,0.07128906,0.076171875,8.668957,-8.678367,-55.92997,24.546005,-0.63916016,0.02154541,0.7605591,0.0078125,-0.048828125,0.01953125,11.617219,-10.451259,-127.89493,26.515203,0.0,0.0,0.0,0.0,0.0,0.0,0.0,-6.859416,-127.70205,46.188747,0.0,0.0,0.0,0.0,0.0,0.0,0.0,0.5852601,-0.021127589,-0.8107699,-0.9538574,-0.051330566,-0.28411865,0.32226562,0.20117188,0.053710938,7.6646485,12.116697,-0.43740657,-16.78545,1.0133057,-0.111572266,-0.17041016,-0.21289062,0.09863281,0.14257812,3.535461,14.968418,-57.27474,-20.089617,-0.3965454,0.070251465,0.9221802,-0.013671875,0.21777344,0.19238281,3.8273036,15.984562,-129.27791,-20.28232,0.0,0.0,0.0,0.0,0.0,0.0,0.0,24.55058,-129.40431,-2.2103767,0.0,0.0,0.0,0.0,0.0,0.0,0.0,3.656005,44.834423,1.4707878,
0.1367187479627319,7,-0.047729492,0.81677246,0.48498535,-0.25976562,-0.060546875,0.18164062,0.0,0.0,0.0,0.0,0.0,0.0,0.0,0.0,0.0,0.0,0.0,-0.5899054,0.019246943,0.80738306,-0.9690552,0.054382324,0.04296875,0.07128906,-0.16796875,-0.0068359375,12.896866,-12.212872,0.3984714,16.715334,0.9404297,-0.15545654,-0.3503418,0.026367188,0.072265625,0.055664062,8.871481,-8.59971,-55.961685,24.44294,-0.644104,0.026611328,0.7654419,0.0078125,-0.08496094,9.765625E-4,11.923588,-10.544652,-127.91995,26.373013,0.0,0.0,0.0,0.0,0.0,0.0,0.0,-6.941927,-127.72557,46.044266,0.0,0.0,0.0,0.0,0.0,0.0,0.0,0.5899054,-0.019246943,-0.80738306,-0.9729004,0.024536133,-0.33166504,0.091796875,0.051757812,0.036132812,7.4559574,12.212872,-0.3984714,-16.715334,0.99853516,-0.13336182,-0.21435547,-0.095703125,0.059570312,0.14160156,3.5444212,14.902654,-57.259182,-19.794788,-0.4008789,0.062072754,0.95373535,0.041015625,0.02734375,0.0029296875,3.5194752,15.781226,-129.26016,-19.629114,0.0,0.0,0.0,0.0,0.0,0.0,0.0,24.36689,-129.38074,-1.5651474,0.0,0.0,0.0,0.0,0.0,0.0,0.0,3.6712587,44.82606,1.6137698,
0.1562499976716936,8,-0.051574707,0.81500244,0.49798584,-0.3203125,-0.09765625,0.1640625,0.0,0.0,0.0,0.0,0.0,0.0,0.0,0.0,0.0,0.0,0.0,-0.5931199,0.017893897,0.8051041,-0.97613525,0.082336426,0.06439209,0.052734375,-0.015625,0.033203125,13.17459,-12.279422,0.3704592,16.66815,0.963562,-0.16333008,-0.33465576,-0.14160156,0.11230469,0.10839844,8.817819,-8.647652,-56.00829,24.253874,-0.612854,0.03540039,0.78619385,0.0078125,-0.12109375,0.020507812,12.242261,-10.672462,-127.9702,26.184391,0.0,0.0,0.0,0.0,0.0,0.0,0.0,-7.052221,-127.76257,45.853264,0.0,0.0,0.0,0.0,0.0,0.0,0.0,0.5931199,-0.017893897,-0.8051041,-0.9453125,-0.0134887695,-0.2779541,-0.3095703,-0.111328125,0.0,7.494781,12.279422,-0.3704592,-16.66815,1.0027466,-0.1204834,-0.20568848,-0.0390625,0.095703125,0.12207031,3.483015,14.837484,-57.251965,-19.389626,-0.3925171,0.05822754,0.9133301,0.021484375,0.0087890625,0.041015625,3.4088686,15.552052,-129.2564,-18.875435,0.0,0.0,0.0,0.0,0.0,0.0,0.0,24.154167,-129.36879,-0.8185444,0.0,0.0,0.0,0.0,0.0,0.0,0.0,3.8545103,44.80356,1.8438323,
0.1757812473806553,9,-0.020446777,0.77923584,0.47302246,-0.021484375,0.0068359375,0.08496094,0.0,0.0,0.0,0.0,0.0,0.0,0.0,0.0,0.0,0.0,0.0,-0.5955594,0.015396925,0.80337656,-0.98864746,0.105773926,0.12945557,0.09082031,0.13671875,0.053710938,13.285193,-12.329925,0.31876397,16.632385,0.9657593,-0.19787598,-0.2979126,-0.123046875,0.13085938,0.10839844,8.596331,-8.798871,-56.07857,24.151587,-0.631897,0.040893555,0.78912354,0.0078125,-0.08496094,9.765625E-4,12.686427,-10.81481,-128.03036,26.247252,0.0,0.0,0.0,0.0,0.0,0.0,0.0,-7.201106,-127.80375,45.91707,0.0,0.0,0.0,0.0,0.0,0.0,0.0,0.5955594,-0.015396925,-0.80337656,-0.9530029,-0.0637207,-0.258667,-0.21386719,-0.016601562,0.040039062,7.489883,12.329925,-0.31876397,-16.632385,1.0228271,-0.13769531,-0.18621826,-0.11621094,0.115234375,0.103515625,3.4292545,14.827333,-57.21895,-19.041496,-0.38006592,0.06512451,0.897522,0.001953125,-0.009765625,0.00390625,3.2540162,15.523249,-129.21616,-18.163095,0.0,0.0,0.0,0.0,0.0,0.0,0.0,24.135666,-129.31345,-0.111925125,0.0,0.0,0.0,0.0,0.0,0.0,0.0,3.9045475,44.79176,2.036075,
0.19531249708961698,10,-0.028442383,0.8053589,0.48937988,0.07910156,0.09863281,0.028320312,0.0,0.0,0.0,0.0,0.0,0.0,0.0,0.0,0.0,0.0,0.0,-0.59809184,0.013438765,0.80149794,-0.9908447,0.11035156,0.1484375,0.052734375,0.13574219,0.07324219,13.186497,-12.382356,0.2782241,16.593493,0.96661377,-0.20788574,-0.25408936,-0.064453125,0.14941406,0.12890625,8.336846,-8.926285,-56.121395,24.117119,-0.62597656,0.03375244,0.7970581,-0.01171875,-0.06640625,9.765625E-4,12.945981,-10.850941,-128.06508,26.49001,0.0,0.0,0.0,0.0,0.0,0.0,0.0,-7.243099,-127.81945,46.159454,0.0,0.0,0.0,0.0,0.0,0.0,0.0,0.59809184,-0.013438765,-0.80149794,-0.9255371,-0.03894043,-0.29187012,-0.041015625,0.19238281,0.05859375,7.2206693,12.382356,-0.2782241,-16.593493,0.9994507,-0.14031982,-0.15216064,0.038085938,0.15039062,0.06347656,3.3986876,14.751619,-57.188858,-18.868288,-0.39642334,0.10809326,0.9349365,0.020507812,-0.029296875,0.022460938,3.3025086,15.575461,-129.18361,-17.611368,0.0,0.0,0.0,0.0,0.0,0.0,0.0,24.205482,-129.26904,0.43276024,0.0,0.0,0.0,0.0,0.0,0.0,0.0,3.7891345,44.79872,2.076376,
0.21484374679857868,11,-0.08392334,0.7938843,0.48773193,-0.16015625,-0.0107421875,-0.0029296875,0.0,0.0,0.0,0.0,0.0,0.0,0.0,0.0,0.0,0.0,0.0,-0.60039157,0.013751294,0.7997012,-0.993103,0.10028076,0.17218018,0.034179688,0.15527344,0.053710938,13.1521845,-12.429969,0.2846945,16.556295,0.9688721,-0.2052002,-0.21722412,-0.046875,0.111328125,0.11035156,8.04713,-9.041548,-56.11688,24.121899,-0.60980225,0.03918457,0.7970581,-0.01171875,-0.030273438,0.018554688,13.081185,-10.781799,-128.06277,26.79361,0.0,0.0,0.0,0.0,0.0,0.0,0.0,-7.185091,-127.81365,46.465958,0.0,0.0,0.0,0.0,0.0,0.0,0.0,0.60039157,-0.013751294,-0.7997012,-0.9481201,-0.07476807,-0.29211426,-0.11816406,0.15625,0.0390625,6.9700413,12.429969,-0.2846945,-16.556295,1.0233765,-0.089782715,-0.17468262,0.038085938,0.13183594,0.044921875,3.1820467,14.560763,-57.21139,-18.700058,-0.38433838,0.053100586,0.9122925,0.0029296875,0.009765625,-0.015625,3.3737102,15.558619,-129.1975,-17.260035,0.0,0.0,0.0,0.0,0.0,0.0,0.0,24.199844,-129.26643,0.7788696,0.0,0.0,0.0,0.0,0.0,0.0,0.0,3.7747593,44.797985,2.0636497,
0.23437499650754037,12,-0.09710693,0.7972412,0.48413086,-0.21875,-0.0078125,0.034179688,0.0,0.0,0.0,0.0,0.0,0.0,0.0,0.0,0.0,0.0,0.0,-0.6028467,0.016635308,0.79786485,-0.99005127,0.09454346,0.16314697,-0.060546875,0.021484375,0.052734375,13.267423,-12.480795,0.34440255,16.518276,0.9762573,-0.23095703,-0.21838379,-0.01171875,0.07324219,0.0546875,7.862897,-9.105999,-56.042294,24.163778,-0.6000366,0.026062012,0.79803467,0.026367188,-0.03125,-0.017578125,13.0893,-10.6879,-127.98648,27.092438,0.0,0.0,0.0,0.0,0.0,0.0,0.0,-7.0914497,-127.732346,46.765404,0.0,0.0,0.0,0.0,0.0,0.0,0.0,0.6028467,-0.016635308,-0.79786485,-0.9332886,-0.089416504,-0.26275635,-0.00390625,0.0546875,0.037109375,7.1175585,12.480795,-0.34440255,-16.518276,1.0238037,-0.093688965,-0.14501953,-0.078125,0.15234375,0.06542969,3.065352,14.587154,-57.27631,-18.546387,-0.38031006,0.04888916,0.9290161,0.041015625,0.0087890625,0.0029296875,3.464415,15.775015,-129.25856,-16.989714,0.0,0.0,0.0,0.0,0.0,0.0,0.0,24.417122,-129.32214,1.0484009,0.0,0.0,0.0,0.0,0.0,0.0,0.0,3.906643,44.791203,2.0178745,
0.2539062462165021,13,-0.097839355,0.81726074,0.51116943,-0.1015625,-0.029296875,0.049804688,0.0,0.0,0.0,0.0,0.0,0.0,0.0,0.0,0.0,0.0,0.0,-0.60413384,0.019257788,0.79685515,-0.97161865,0.09173584,0.13824463,-0.041992188,-0.03515625,0.051757812,13.410547,-12.507442,0.39869592,16.497374,0.9741211,-0.19952393,-0.20727539,0.043945312,0.053710938,0.018554688,7.8616486,-9.039952,-55.974445,24.223455,-0.616272,0.012878418,0.78326416,0.0068359375,0.0048828125,-0.018554688,12.98551,-10.502358,-127.91164,27.255829,0.0,0.0,0.0,0.0,0.0,0.0,0.0,-6.908607,-127.647995,46.927532,0.0,0.0,0.0,0.0,0.0,0.0,0.0,0.60413384,-0.019257788,-0.79685515,-0.94085693,-0.059509277,-0.2802124,0.03515625,0.11230469,0.016601562,7.243322,12.507442,-0.39869592,-16.497374,1.0003052,-0.057434082,-0.13494873,-0.2705078,0.099609375,0.125,3.0045907,14.609575,-57.332127,-18.424444,-0.37615967,0.054870605,0.9230957,0.001953125,-0.009765625,0.00390625,3.4609659,15.990702,-129.30806,-16.711643,0.0,0.0,0.0,0.0,0.0,0.0,0.0,24.653557,-129.36548,1.3164787,0.0,0.0,0.0,0.0,0.0,0.0,0.0,4.0073185,44.78591,1.9557867,
0.2734374959254638,14,-0.087768555,0.809021,0.50787354,-0.041992188,0.0078125,0.06738281,0.0,0.0,0.0,0.0,0.0,0.0,0.0,0.0,0.0,0.0,0.0,-0.6064939,0.019424094,0.79504824,-0.96484375,0.04888916,0.13354492,-0.00390625,0.0029296875,0.052734375,13.4248085,-12.556303,0.4021389,16.459963,0.9666748,-0.17370605,-0.22607422,0.043945312,0.015625,0.018554688,7.8742466,-8.982392,-55.9595,24.20649,-0.6053467,0.0075683594,0.79022217,0.0068359375,0.005859375,0.0,12.889075,-10.338858,-127.896225,27.273293,0.0,0.0,0.0,0.0,0.0,0.0,0.0,-6.7604465,-127.62765,46.94778,0.0,0.0,0.0,0.0,0.0,0.0,0.0,0.6064939,-0.019424094,-0.79504824,-0.93182373,-0.059265137,-0.25567627,0.07324219,0.15039062,0.056640625,7.050461,12.556303,-0.4021389,-16.459963,1.0300903,-0.13775635,-0.16662598,-0.13476562,0.041992188,0.10449219,3.0991411,14.5261135,-57.34354,-18.308268,-0.40264893,0.08331299,0.92614746,0.001953125,-0.009765625,0.00390625,3.342109,15.90872,-129.31366,-16.276903,0.0,0.0,0.0,0.0,0.0,0.0,0.0,24.580925,-129.35364,1.7455902,0.0,0.0,0.0,0.0,0.0,0.0,0.0,3.9575171,44.791397,1.9246349,
0.2929687456344255,15,-0.061462402,0.7914429,0.5040283,-0.16015625,-0.0087890625,0.087890625,0.0,0.0,0.0,0.0,0.0,0.0,0.0,0.0,0.0,0.0,0.0,-0.60933125,0.018647065,0.79287654,-0.99523926,0.053222656,0.13354492,0.0146484375,-0.07324219,0.07128906,13.54401,-12.615046,0.38605207,16.415003,0.94348145,-0.16571045,-0.2677002,0.005859375,0.015625,0.037109375,7.9223614,-8.927406,-55.969097,24.140041,-0.60687256,0.030334473,0.7733154,0.0068359375,0.0048828125,-0.018554688,12.853047,-10.252772,-127.903625,27.205875,0.0,0.0,0.0,0.0,0.0,0.0,0.0,-6.658171,-127.624825,46.87761,0.0,0.0,0.0,0.0,0.0,0.0,0.0,0.60933125,-0.018647065,-0.79287654,-0.9581299,-0.07080078,-0.28424072,-0.0029296875,0.15234375,-0.00390625,6.92903,12.615046,-0.38605207,-16.415003,0.99975586,-0.10534668,-0.1484375,0.0390625,0.0390625,0.06542969,3.1557288,14.451267,-57.33386,-18.20829,-0.40270996,0.07635498,0.92315674,0.001953125,-0.009765625,0.00390625,3.4106486,15.798352,-129.29205,-15.971115,0.0,0.0,0.0,0.0,0.0,0.0,0.0,24.485363,-129.32443,2.0446186,0.0,0.0,0.0,0.0,0.0,0.0,0.0,3.9569046,44.78806,1.9875727,
0.3124999953433872,16,-0.047546387,0.7839966,0.48968506,-0.23925781,-0.045898438,0.03515625,0.0,0.0,0.0,0.0,0.0,0.0,0.0,0.0,0.0,0.0,0.0,-0.6114604,0.019553544,0.79123104,-0.9850464,0.04260254,0.1194458,-0.00390625,0.0029296875,0.052734375,13.751001,-12.659125,0.40481898,16.380936,0.93927,-0.17047119,-0.2626953,-0.05078125,-0.0029296875,0.0546875,7.9480386,-8.90524,-55.952965,24.06402,-0.6130371,0.030273438,0.8187866,-0.01171875,0.005859375,0.0,12.836671,-10.221464,-127.89411,27.104702,0.0,0.0,0.0,0.0,0.0,0.0,0.0,-6.613724,-127.604866,46.773293,0.0,0.0,0.0,0.0,0.0,0.0,0.0,0.6114604,-0.019553544,-0.79123104,-0.94195557,-0.06237793,-0.2409668,-0.060546875,-0.001953125,-0.0029296875,7.164234,12.659125,-0.40481898,-16.380936,1.0189209,-0.057739258,-0.1560669,-0.07714844,0.059570312,0.06640625,3.0337687,14.515798,-57.357666,-18.02884,-0.3555298,0.060668945,0.9013672,0.0029296875,0.009765625,0.00390625,3.450371,15.886784,-129.3216,-15.773016,0.0,0.0,0.0,0.0,0.0,0.0,0.0,24.57744,-129.34064,2.2421894,0.0,0.0,0.0,0.0,0.0,0.0,0.0,4.10281,44.77208,2.0641918,
0.3320312450523489,17,-0.03253174,0.7766113,0.47528076,-0.041992188,-0.0126953125,0.030273438,0.0,0.0,0.0,0.0,0.0,0.0,0.0,0.0,0.0,0.0,0.0,-0.6132743,0.019423725,0.7898483,-0.975708,0.08502197,0.13513184,0.015625,0.041992188,0.0146484375,13.8490305,-12.696679,0.40213138,16.352308,0.94677734,-0.19335938,-0.2548828,-0.10644531,0.017578125,0.072265625,7.9809675,-8.9078455,-55.954914,24.017601,-0.6278076,0.042785645,0.7782593,-0.01171875,0.024414062,0.0,12.919552,-10.242863,-127.89482,27.039574,0.0,0.0,0.0,0.0,0.0,0.0,0.0,-6.615528,-127.60483,46.705338,0.0,0.0,0.0,0.0,0.0,0.0,0.0,0.6132743,-0.019423725,-0.7898483,-0.92700195,-0.07269287,-0.27148438,-0.0029296875,0.07421875,0.016601562,7.2710857,12.696679,-0.40213138,-16.352308,1.0045166,-0.07141113,-0.113220215,-0.25195312,0.13574219,0.06738281,2.944904,14.576413,-57.357277,-17.873116,-0.35144043,0.06549072,0.91119385,0.00390625,0.06640625,0.00390625,3.2843778,16.032166,-129.31258,-15.552858,0.0,0.0,0.0,0.0,0.0,0.0,0.0,24.717747,-129.32095,2.4636955,0.0,0.0,0.0,0.0,0.0,0.0,0.0,4.145951,44.76627,2.1182256,
0.3515624947613106,18,-0.059326172,0.8163452,0.5220947,0.095703125,0.001953125,-0.02734375,0.0,0.0,0.0,0.0,0.0,0.0,0.0,0.0,0.0,0.0,0.0,-0.615123,0.017914407,0.7883682,-0.98480225,0.075683594,0.12200928,0.052734375,0.041015625,0.034179688,13.741157,-12.734954,0.3708838,16.321667,0.9926758,-0.1795044,-0.2672119,-0.087890625,0.016601562,0.072265625,7.9785814,-8.944237,-55.98849,23.99049,-0.60266113,0.043945312,0.78515625,0.0068359375,0.005859375,0.018554688,13.060315,-10.303362,-127.927155,27.04609,0.0,0.0,0.0,0.0,0.0,0.0,0.0,-6.6656294,-127.63068,46.70935,0.0,0.0,0.0,0.0,0.0,0.0,0.0,0.615123,-0.017914407,-0.7883682,-0.9400635,-0.074157715,-0.2420044,0.03515625,0.19042969,-0.00390625,7.001798,12.734954,-0.3708838,-16.321667,1.0147705,-0.12548828,-0.1328125,-0.13574219,0.060546875,0.0859375,2.9454358,14.494543,-57.334404,-17.757545,-0.37713623,0.057922363,0.9142456,-0.016601562,0.029296875,0.00390625,3.2244008,16.02657,-129.28348,-15.239789,0.0,0.0,0.0,0.0,0.0,0.0,0.0,24.718498,-129.27759,2.7739477,0.0,0.0,0.0,0.0,0.0,0.0,0.0,4.0153875,44.77555,2.1155472,
0.37109374447027227,19,-0.0635376,0.8233032,0.51135254,-0.061523438,-0.0126953125,-0.005859375,0.0,0.0,0.0,0.0,0.0,0.0,0.0,0.0,0.0,0.0,0.0,-0.61785614,0.017130906,0.7862128,-1.0062866,0.07751465,0.14587402,0.052734375,0.059570312,0.072265625,13.731377,-12.791536,0.3546629,16.277042,0.9758911,-0.20440674,-0.2432251,-0.087890625,-0.021484375,0.091796875,7.9808445,-8.978369,-55.994164,23.983822,-0.61431885,0.012756348,0.7961426,-0.01171875,0.024414062,0.0,13.165147,-10.323059,-127.931915,27.09905,0.0,0.0,0.0,0.0,0.0,0.0,0.0,-6.691472,-127.62992,46.76301,0.0,0.0,0.0,0.0,0.0,0.0,0.0,0.61785614,-0.017130906,-0.7862128,-0.9562988,-0.084228516,-0.25878906,-0.0029296875,0.07421875,0.016601562,6.881993,12.791536,-0.3546629,-16.277042,1.0100708,-0.10845947,-0.122924805,-9.765625E-4,0.11328125,0.045898438,2.9818969,14.510722,-57.322372,-17.654922,-0.3720703,0.061645508,0.9388428,-0.015625,0.029296875,-0.034179688,3.3688898,16.091381,-129.26506,-14.980543,0.0,0.0,0.0,0.0,0.0,0.0,0.0,24.79467,-129.25153,3.0278625,0.0,0.0,0.0,0.0,0.0,0.0,0.0,3.9418435,44.780617,2.1220205,
0.39062499417923396,20,-0.061645508,0.8082886,0.49920654,-0.1796875,-0.009765625,-0.0029296875,0.0,0.0,0.0,0.0,0.0,0.0,0.0,0.0,0.0,0.0,0.0,-0.6197746,0.018013544,0.7848099,-0.98687744,0.07849121,0.13098145,-0.041015625,0.021484375,0.052734375,13.840267,-12.831255,0.37293625,16.247997,0.9556885,-0.20050049,-0.26690674,-0.0703125,-0.020507812,0.03515625,7.976538,-8.9621,-55.97398,23.96122,-0.6126709,0.048095703,0.8019409,0.025390625,0.022460938,-0.018554688,13.229796,-10.321026,-127.90973,27.177889,0.0,0.0,0.0,0.0,0.0,0.0,0.0,-6.6933575,-127.60676,46.843605,0.0,0.0,0.0,0.0,0.0,0.0,0.0,0.6197746,-0.018013544,-0.7848099,-0.94781494,-0.052612305,-0.27624512,-0.060546875,0.037109375,0.038085938,7.0106177,12.831255,-0.37293625,-16.247997,0.9848633,-0.06915283,-0.09899902,-0.07714844,0.00390625,0.0859375,2.9303105,14.570897,-57.33961,-17.507864,-0.39050293,0.046325684,0.9034424,-0.016601562,0.029296875,0.00390625,3.6248784,16.239431,-129.27832,-14.733063,0.0,0.0,0.0,0.0,0.0,0.0,0.0,24.965954,-129.26361,3.2630844,0.0,0.0,0.0,0.0,0.0,0.0,0.0,4.0068684,44.778713,2.1364818,
0.41015624388819566,21,-0.04510498,0.79711914,0.5235596,-0.0029296875,-0.013671875,0.01171875,0.0,0.0,0.0,0.0,0.0,0.0,0.0,0.0,0.0,0.0,0.0,-0.6204558,0.01875264,0.78421867,-0.9692383,0.10101318,0.10455322,0.015625,0.1171875,0.053710938,13.827742,-12.845359,0.38823777,16.235758,0.96710205,-0.18823242,-0.27697754,-0.0126953125,-0.022460938,0.055664062,7.892299,-9.025311,-55.968796,23.916916,-0.61621094,0.016723633,0.79315186,-0.01171875,0.041992188,0.017578125,13.305063,-10.380048,-127.89717,27.173985,0.0,0.0,0.0,0.0,0.0,0.0,0.0,-6.7582664,-127.5937,46.839783,0.0,0.0,0.0,0.0,0.0,0.0,0.0,0.6204558,-0.01875264,-0.78421867,-0.9703369,-0.080200195,-0.25091553,0.015625,0.09375,0.037109375,7.112899,12.845359,-0.38823777,-16.235758,1.000061,-0.08935547,-0.13671875,-0.26953125,-0.030273438,0.12597656,2.9677489,14.607904,-57.357235,-17.421722,-0.38024902,0.07672119,0.94573975,-0.016601562,0.009765625,-0.015625,3.6145468,16.29406,-129.29039,-14.506408,0.0,0.0,0.0,0.0,0.0,0.0,0.0,25.02442,-129.26736,3.4878778,0.0,0.0,0.0,0.0,0.0,0.0,0.0,4.057334,44.772766,2.13944,
0.42968749359715736,22,-0.04949951,0.78308105,0.49371338,0.057617188,0.041992188,0.0107421875,0.0,0.0,0.0,0.0,0.0,0.0,0.0,0.0,0.0,0.0,0.0,-0.62150204,0.01744004,0.7834109,-0.9755249,0.10449219,0.13543701,0.0146484375,0.078125,0.11035156,13.787763,-12.867018,0.36106297,16.219034,0.9623413,-0.17919922,-0.26989746,-0.013671875,-0.041015625,0.037109375,7.88227,-9.114033,-55.987717,23.94492,-0.6060791,0.024291992,0.79211426,0.025390625,0.059570312,0.018554688,13.341564,-10.475352,-127.90456,27.199125,0.0,0.0,0.0,0.0,0.0,0.0,0.0,-6.8534255,-127.59817,46.86497,0.0,0.0,0.0,0.0,0.0,0.0,0.0,0.62150204,-0.01744004,-0.7834109,-0.96606445,-0.064208984,-0.26843262,-0.00390625,0.015625,0.016601562,7.091907,12.867018,-0.36106297,-16.219034,1.0151367,-0.12359619,-0.17626953,-0.19238281,-0.049804688,0.125,2.9994395,14.659746,-57.331554,-17.280369,-0.41375732,0.03955078,0.81689453,-0.015625,0.06738281,0.00390625,3.505819,16.209297,-129.25789,-14.222668,0.0,0.0,0.0,0.0,0.0,0.0,0.0,24.95764,-129.23683,3.7630558,0.0,0.0,0.0,0.0,0.0,0.0,0.0,3.987431,44.77742,2.1665215,
0.44921874330611905,23,-0.0713501,0.8087158,0.5283203,-0.099609375,0.02734375,0.032226562,0.0,0.0,0.0,0.0,0.0,0.0,0.0,0.0,0.0,0.0,0.0,-0.62212366,0.016709864,0.78291994,-0.9906616,0.07611084,0.10107422,-0.022460938,-0.016601562,0.052734375,13.841209,-12.879889,0.34594598,16.20887,0.9607544,-0.16345215,-0.270813,-0.06933594,-0.001953125,0.053710938,7.9358287,-9.092617,-56.00118,23.966698,-0.61224365,0.014709473,0.78723145,0.0068359375,0.059570312,0.018554688,13.3891945,-10.463017,-127.925064,27.218206,0.0,0.0,0.0,0.0,0.0,0.0,0.0,-6.837639,-127.620995,46.883858,0.0,0.0,0.0,0.0,0.0,0.0,0.0,0.62212366,-0.016709864,-0.78291994,-0.97076416,-0.040527344,-0.23291016,-0.080078125,-0.040039062,-0.0029296875,7.162043,12.879889,-0.34594598,-16.20887,0.9898071,-0.09124756,-0.15625,-0.07714844,0.022460938,0.06640625,3.0231674,14.732868,-57.312866,-17.141277,-0.38830566,0.0770874,0.92211914,-0.015625,0.047851562,0.00390625,3.4423606,16.228373,-129.23114,-13.935169,0.0,0.0,0.0,0.0,0.0,0.0,0.0,24.971231,-129.21162,4.053581,0.0,0.0,0.0,0.0,0.0,0.0,0.0,3.963356,44.777763,2.1936688,
0.46874999301508075,24,-0.059020996,0.7896118,0.53881836,-0.08105469,0.0068359375,0.013671875,0.0,0.0,0.0,0.0,0.0,0.0,0.0,0.0,0.0,0.0,0.0,-0.62282646,0.017558154,0.7822676,-0.9937134,0.072387695,0.09307861,-0.041015625,0.041015625,0.034179688,13.887799,-12.894438,0.36350816,16.195364,0.96014404,-0.184021,-0.2678833,-0.05078125,-0.021484375,0.0546875,7.863496,-9.112654,-55.99231,23.895472,-0.6081543,0.016601562,0.7723999,0.0068359375,0.095703125,-9.765625E-4,13.430353,-10.455471,-127.910164,27.166758,0.0,0.0,0.0,0.0,0.0,0.0,0.0,-6.846752,-127.611336,46.834984,0.0,0.0,0.0,0.0,0.0,0.0,0.0,0.62282646,-0.017558154,-0.7822676,-0.93878174,-0.051330566,-0.2565918,-0.022460938,0.07519531,0.037109375,7.269251,12.894438,-0.36350816,-16.195364,1.0275879,-0.08782959,-0.15997314,-0.056640625,-0.052734375,0.0859375,2.9922514,14.700347,-57.33478,-16.98581,-0.38830566,0.08898926,0.9290161,-0.015625,0.06738281,0.00390625,3.5461333,16.157423,-129.24832,-13.633471,0.0,0.0,0.0,0.0,0.0,0.0,0.0,24.911415,-129.22325,4.3487988,0.0,0.0,0.0,0.0,0.0,0.0,0.0,4.0487576,44.76624,2.2187562,
0.48828124272404244,25,-0.047058105,0.7662964,0.5183716,0.09667969,0.041015625,0.028320312,0.0,0.0,0.0,0.0,0.0,0.0,0.0,0.0,0.0,0.0,0.0,-0.6223681,0.017572466,0.7827482,-0.9937134,0.099243164,0.11743164,-0.060546875,0.07910156,0.053710938,13.778374,-12.88495,0.36380452,16.205315,0.9584961,-0.17425537,-0.24993896,-0.087890625,-0.021484375,0.07324219,7.786438,-9.1645155,-56.00059,23.85979,-0.6481323,0.027648926,0.7783203,0.025390625,0.07714844,0.018554688,13.448706,-10.512801,-127.92572,27.137634,0.0,0.0,0.0,0.0,0.0,0.0,0.0,-6.898368,-127.63882,46.805313,0.0,0.0,0.0,0.0,0.0,0.0,0.0,0.6223681,-0.017572466,-0.7827482,-0.95666504,-0.036315918,-0.29675293,0.015625,0.1328125,0.016601562,7.093207,12.88495,-0.36380452,-16.205315,1.0184937,-0.13665771,-0.20684814,-0.095703125,-0.0146484375,0.0859375,3.068607,14.527605,-57.34193,-16.957449,-0.4088745,0.054626465,0.9074707,0.00390625,0.06640625,0.00390625,3.514799,15.8683815,-129.252,-13.421475,0.0,0.0,0.0,0.0,0.0,0.0,0.0,24.632626,-129.23055,4.5561666,0.0,0.0,0.0,0.0,0.0,0.0,0.0,4.0306845,44.77293,2.1996841,
0.5078124924330042,26,-0.060302734,0.8173828,0.5251465,0.057617188,0.04296875,0.06542969,0.0,0.0,0.0,0.0,0.0,0.0,0.0,0.0,0.0,0.0,0.0,-0.6229568,0.016634263,0.78220886,-1.0072021,0.090148926,0.14813232,-0.041992188,0.001953125,0.07128906,13.729233,-12.897138,0.3443809,16.194149,0.9486084,-0.20025635,-0.2559204,-0.08984375,-0.05859375,0.03515625,7.8170557,-9.180926,-56.018715,23.86794,-0.60479736,0.0390625,0.78515625,0.0068359375,0.059570312,-0.01953125,13.60695,-10.5553,-127.93659,27.136555,0.0,0.0,0.0,0.0,0.0,0.0,0.0,-6.941236,-127.64895,46.804253,0.0,0.0,0.0,0.0,0.0,0.0,0.0,0.6229568,-0.016634263,-0.78220886,-0.9265137,-0.037963867,-0.29187012,-0.080078125,-0.040039062,0.017578125,7.0190625,12.897138,-0.3443809,-16.194149,0.9939575,-0.07336426,-0.15246582,0.07714844,0.056640625,0.026367188,2.994148,14.522155,-57.32457,-16.835903,-0.3920288,0.09375,0.854187,-0.015625,0.0859375,0.022460938,4.1745753,15.80917,-129.23138,-13.271233,0.0,0.0,0.0,0.0,0.0,0.0,0.0,24.75237,-129.27876,4.5271034,0.0,0.0,0.0,0.0,0.0,0.0,0.0,3.9566069,44.77634,2.1988673,
0.5273437421419659,27,-0.07165527,0.7926636,0.4993286,-0.07910156,0.06640625,0.10546875,0.0,0.0,0.0,0.0,0.0,0.0,0.0,0.0,0.0,0.0,0.0,-0.623336,0.016531767,0.781999,-1.0039062,0.087768555,0.113220215,-0.041015625,-0.07324219,0.013671875,13.799192,-12.904988,0.34225887,16.189804,0.9708252,-0.19812012,-0.2869873,-0.05078125,-0.059570312,0.0546875,7.921469,-9.133466,-56.013706,23.885918,-0.64471436,0.05316162,0.7762451,-0.0126953125,0.078125,-9.765625E-4,13.667929,-10.578604,-127.93561,27.139757,0.0,0.0,0.0,0.0,0.0,0.0,0.0,-6.962498,-127.657616,46.80635,0.0,0.0,0.0,0.0,0.0,0.0,0.0,0.623336,-0.016531767,-0.781999,-0.930603,-0.04559326,-0.33813477,-0.041015625,0.13378906,-0.0029296875,6.9561253,12.904988,-0.34225887,-16.189804,1.0031738,-0.095458984,-0.18804932,-0.11425781,-0.08886719,0.10644531,2.9643168,14.433044,-57.322502,-16.77404,-0.40045166,0.117126465,0.9398804,-0.015625,0.06738281,0.00390625,4.4422812,15.632162,-129.23666,-13.164555,0.0,0.0,0.0,0.0,0.0,0.0,0.0,24.693434,-129.2915,4.662222,0.0,0.0,0.0,0.0,0.0,0.0,0.0,3.9620423,44.77842,2.211534,
0.5468749918509276,28,-0.07647705,0.7929077,0.51538086,0.0,0.06347656,0.06640625,0.0,0.0,0.0,0.0,0.0,0.0,0.0,0.0,0.0,0.0,0.0,-0.6235068,0.0168687,0.7817429,-0.96466064,0.12298584,0.06903076,-0.00390625,0.00390625,-0.0048828125,13.769623,-12.908523,0.3492344,16.1845,0.96972656,-0.20202637,-0.28503418,0.0048828125,-0.060546875,0.038085938,7.9673295,-9.143524,-56.009148,23.850782,-0.61395264,0.030517578,0.7841797,0.0068359375,0.095703125,-9.765625E-4,13.721058,-10.695185,-127.929794,27.083292,0.0,0.0,0.0,0.0,0.0,0.0,0.0,-7.072555,-127.6671,46.749954,0.0,0.0,0.0,0.0,0.0,0.0,0.0,0.6235068,-0.0168687,-0.7817429,-0.9088135,-0.06506348,-0.2763672,0.015625,0.11328125,0.016601562,6.7907877,12.908523,-0.3492344,-16.1845,1.033081,-0.11785889,-0.17468262,-0.13476562,-0.032226562,0.08691406,3.0148678,14.24341,-57.33762,-16.734444,-0.42523193,0.07788086,0.9154053,-0.03515625,0.047851562,0.022460938,4.341313,15.260901,-129.24373,-12.994451,0.0,0.0,0.0,0.0,0.0,0.0,0.0,24.347168,-129.3061,4.8225546,0.0,0.0,0.0,0.0,0.0,0.0,0.0,3.971034,44.774147,2.2010884,
0.5664062415598893,29,-0.076538086,0.7928467,0.5093994,0.09863281,0.080078125,0.045898438,0.0,0.0,0.0,0.0,0.0,0.0,0.0,0.0,0.0,0.0,0.0,-0.62468266,0.017009461,0.7809191,-0.97125244,0.11352539,0.11669922,-0.041015625,0.041015625,0.052734375,13.693618,-12.932867,0.35214868,16.167446,0.9525757,-0.19628906,-0.32073975,-0.013671875,-0.060546875,0.056640625,8.043275,-9.192506,-56.008663,23.85308,-0.6275635,0.054626465,0.77130127,0.0068359375,0.09667969,0.036132812,13.776637,-10.890112,-127.937775,27.089474,0.0,0.0,0.0,0.0,0.0,0.0,0.0,-7.2537565,-127.686646,46.753353,0.0,0.0,0.0,0.0,0.0,0.0,0.0,0.62468266,-0.017009461,-0.7809191,-0.9515381,-0.105895996,-0.2952881,-0.17578125,0.021484375,-0.001953125,6.67597,12.932867,-0.35214868,-16.167446,1.0181274,-0.107666016,-0.18432617,0.078125,-0.017578125,0.02734375,2.946964,14.189505,-57.34073,-16.625755,-0.37487793,0.07702637,0.9014282,0.00390625,0.06640625,0.00390625,4.353747,15.154052,-129.24167,-12.84419,0.0,0.0,0.0,0.0,0.0,0.0,0.0,24.235573,-129.2952,4.9765463,0.0,0.0,0.0,0.0,0.0,0.0,0.0,3.9248986,44.784203,2.1641946,
0.585937491268851,30,-0.06719971,0.7927246,0.52911377,0.078125,0.061523438,0.06542969,0.0,0.0,0.0,0.0,0.0,0.0,0.0,0.0,0.0,0.0,0.0,-0.624379,0.016173283,0.78118557,-0.97125244,0.11352539,0.11669922,-0.041015625,0.041015625,0.052734375,13.575458,-12.926581,0.33483717,16.172964,0.92962646,-0.18658447,-0.29553223,-0.07128906,-0.078125,0.036132812,8.1083765,-9.18622,-56.025974,23.858597,-0.6282959,0.015258789,0.7753906,0.025390625,0.07714844,0.0,13.943026,-10.98208,-127.943726,27.079365,0.0,0.0,0.0,0.0,0.0,0.0,0.0,-7.3402343,-127.70377,46.74368,0.0,0.0,0.0,0.0,0.0,0.0,0.0,0.624379,-0.016173283,-0.78118557,-0.95410156,-0.07006836,-0.31860352,-0.11816406,0.0,-0.001953125,6.5354605,12.926581,-0.33483717,-16.172964,1.000061,-0.07342529,-0.1437378,-0.038085938,-0.015625,0.06640625,2.8203614,14.140981,-57.325027,-16.527063,-0.37487793,0.07702637,0.9014282,0.00390625,0.06640625,0.00390625,4.462561,15.117693,-129.22913,-12.756668,0.0,0.0,0.0,0.0,0.0,0.0,0.0,24.199213,-129.28265,5.064068,0.0,0.0,0.0,0.0,0.0,0.0,0.0,3.823276,44.794914,2.1284213,
0.6054687409778127,31,-0.08312988,0.7753296,0.53930664,0.0390625,0.0625,0.06542969,0.0,0.0,0.0,0.0,0.0,0.0,0.0,0.0,0.0,0.0,0.0,-0.6232339,0.017356616,0.7820377,-0.97491455,0.09326172,0.049621582,-0.11621094,0.022460938,0.0146484375,13.566172,-12.902874,0.35933572,16.190605,0.9541626,-0.17675781,-0.3057251,0.0048828125,-0.041015625,0.037109375,8.171136,-9.156406,-55.9981,23.872974,-0.6378784,0.037231445,0.7654419,-0.01171875,0.060546875,0.017578125,14.031797,-11.04812,-127.91259,27.083832,0.0,0.0,0.0,0.0,0.0,0.0,0.0,-7.403368,-127.68224,46.746662,0.0,0.0,0.0,0.0,0.0,0.0,0.0,0.6232339,-0.017356616,-0.7820377,-0.9852905,-0.07305908,-0.29211426,-0.022460938,0.07519531,0.016601562,6.614142,12.902874,-0.35933572,-16.190605,1.0195923,-0.101623535,-0.15478516,-0.038085938,-0.015625,0.06640625,2.8339324,14.143407,-57.353004,-16.468782,-0.40063477,0.06945801,0.9104004,-0.015625,0.06738281,0.00390625,4.4480534,15.073521,-129.24902,-12.610569,0.0,0.0,0.0,0.0,0.0,0.0,0.0,24.137995,-129.2985,5.217762,0.0,0.0,0.0,0.0,0.0,0.0,0.0,3.8626733,44.79233,2.084178,
0.6249999906867744,32,-0.07733154,0.77905273,0.5232544,-0.020507812,0.064453125,0.06738281,0.0,0.0,0.0,0.0,0.0,0.0,0.0,0.0,0.0,0.0,0.0,-0.6225341,0.017906936,0.78252214,-0.99121094,0.105773926,0.07269287,-0.07910156,0.1171875,0.034179688,13.38887,-12.888385,0.3707289,16.200634,0.9522095,-0.17376709,-0.30670166,-0.032226562,-0.041015625,0.036132812,8.067378,-9.273849,-56.00991,23.777512,-0.64141846,0.010681152,0.78234863,0.0068359375,0.078125,0.055664062,14.146638,-11.269268,-127.928154,26.974787,0.0,0.0,0.0,0.0,0.0,0.0,0.0,-7.6254816,-127.71435,46.637268,0.0,0.0,0.0,0.0,0.0,0.0,0.0,0.6225341,-0.017906936,-0.78252214,-0.93011475,-0.082214355,-0.31970215,-0.080078125,0.018554688,0.038085938,6.6345983,12.888385,-0.3707289,-16.200634,0.9873657,-0.121154785,-0.16784668,0.15527344,-0.018554688,0.045898438,2.9140992,14.129649,-57.364132,-16.449326,-0.430542,0.049926758,0.91937256,-0.03515625,0.048828125,0.00390625,4.627831,15.001034,-129.26064,-12.468208,0.0,0.0,0.0,0.0,0.0,0.0,0.0,24.081846,-129.30927,5.352083,0.0,0.0,0.0,0.0,0.0,0.0,0.0,3.8790255,44.789856,2.0609977,
0.6445312403957361,33,-0.07940674,0.8099365,0.5305176,0.0,0.06347656,0.048828125,0.0,0.0,0.0,0.0,0.0,0.0,0.0,0.0,0.0,0.0,0.0,-0.62297034,0.017660476,0.7822123,-0.9885864,0.11352539,0.12957764,-0.060546875,0.0029296875,0.052734375,13.370363,-12.897417,0.36562666,16.194221,0.95599365,-0.18371582,-0.3137207,-0.0703125,-0.020507812,0.03515625,8.079196,-9.333021,-56.017014,23.772985,-0.6409302,0.035339355,0.7694092,0.0068359375,0.059570312,0.018554688,14.240554,-11.4067545,-127.93254,26.96573,0.0,0.0,0.0,0.0,0.0,0.0,0.0,-7.76585,-127.72611,46.63002,0.0,0.0,0.0,0.0,0.0,0.0,0.0,0.62297034,-0.017660476,-0.7822123,-0.9378052,-0.054992676,-0.26745605,-0.15722656,-0.09667969,-0.001953125,6.678789,12.897417,-0.36562666,-16.194221,1.00354,-0.097473145,-0.16436768,0.07910156,-0.11035156,0.06640625,2.849775,14.1422,-57.360683,-16.342047,-0.40063477,0.05859375,0.8936157,-0.016601562,0.029296875,0.00390625,4.8282385,14.924486,-129.2517,-12.352689,0.0,0.0,0.0,0.0,0.0,0.0,0.0,24.00984,-129.30023,5.465705,0.0,0.0,0.0,0.0,0.0,0.0,0.0,3.8763964,44.79052,2.0759811,
0.6640624901046978,34,-0.06689453,0.77697754,0.5498657,-0.017578125,0.140625,0.06738281,0.0,0.0,0.0,0.0,0.0,0.0,0.0,0.0,0.0,0.0,0.0,-0.6233613,0.018793067,0.78182334,-0.9794922,0.098083496,0.11541748,-0.1171875,0.021484375,0.052734375,13.365149,-12.905511,0.38907465,16.186167,0.9447632,-0.18719482,-0.3036499,-0.051757812,-0.059570312,0.036132812,8.186188,-9.329189,-55.98782,23.803204,-0.6317749,0.04296875,0.76934814,-0.01171875,0.024414062,0.0,14.352932,-11.512888,-127.89879,26.982485,0.0,0.0,0.0,0.0,0.0,0.0,0.0,-7.864211,-127.702065,46.64457,0.0,0.0,0.0,0.0,0.0,0.0,0.0,0.6233613,-0.018793067,-0.78182334,-0.9540405,-0.06915283,-0.3166504,-0.13769531,-0.01953125,0.018554688,6.6877685,12.905511,-0.38907465,-16.186167,1.0101318,-0.08862305,-0.1921997,-0.1328125,-0.10644531,0.125,2.8330343,14.139569,-57.38124,-16.252031,-0.4192505,0.061584473,0.93408203,-0.015625,0.029296875,-0.015625,4.712517,14.676382,-129.28046,-12.282019,0.0,0.0,0.0,0.0,0.0,0.0,0.0,23.748585,-129.33217,5.5434475,0.0,0.0,0.0,0.0,0.0,0.0,0.0,3.8875332,44.79017,2.0229545,
0.6835937398136595,35,-0.09338379,0.76361084,0.52453613,0.05859375,0.0625,0.083984375,0.0,0.0,0.0,0.0,0.0,0.0,0.0,0.0,0.0,0.0,0.0,-0.62451935,0.019332401,0.78095686,-0.96710205,0.101135254,0.09454346,-0.15429688,0.022460938,-0.0048828125,13.319494,-12.929486,0.40024063,16.168226,0.94866943,-0.19329834,-0.29077148,0.04296875,-0.022460938,0.01953125,8.196087,-9.369782,-55.98501,23.76723,-0.6220703,0.026794434,0.79016113,-0.0126953125,0.078125,-9.765625E-4,14.402333,-11.629847,-127.89034,26.964603,0.0,0.0,0.0,0.0,0.0,0.0,0.0,-7.986355,-127.70358,46.627537,0.0,0.0,0.0,0.0,0.0,0.0,0.0,0.62451935,-0.019332401,-0.78095686,-0.9266968,-0.051818848,-0.32635498,-0.060546875,0.017578125,0.017578125,6.702649,12.929486,-0.40024063,-16.168226,0.9830322,-0.109191895,-0.19744873,-0.17382812,-0.013671875,0.068359375,2.8568413,14.16146,-57.39374,-16.166878,-0.41107178,0.03857422,0.91833496,-0.016601562,0.009765625,0.041015625,4.539154,14.496797,-129.28908,-12.182688,0.0,0.0,0.0,0.0,0.0,0.0,0.0,23.586912,-129.35387,5.632658,0.0,0.0,0.0,0.0,0.0,0.0,0.0,3.889276,44.793514,2.0013423,
0.7031249895226211,36,-0.07385254,0.78570557,0.48443604,0.07910156,0.10058594,0.083984375,0.0,0.0,0.0,0.0,0.0,0.0,0.0,0.0,0.0,0.0,0.0,-0.6255031,0.019853655,0.7802059,-0.98223877,0.12445068,0.11090088,-0.11621094,0.059570312,0.034179688,13.259012,-12.949856,0.41103226,16.152683,0.967041,-0.18914795,-0.29388428,0.00390625,-0.041015625,-9.765625E-4,8.270563,-9.390829,-55.965267,23.784819,-0.6237793,0.04071045,0.77233887,-0.0126953125,0.078125,-9.765625E-4,14.476017,-11.739149,-127.85863,26.982664,0.0,0.0,0.0,0.0,0.0,0.0,0.0,-8.104481,-127.67445,46.647224,0.0,0.0,0.0,0.0,0.0,0.0,0.0,0.6255031,-0.019853655,-0.7802059,-0.9345703,-0.039733887,-0.29382324,-0.080078125,-0.07910156,0.017578125,6.6589394,12.949856,-0.41103226,-16.152683,1.0090942,-0.13256836,-0.23925781,0.021484375,-0.12792969,0.10449219,2.9002955,14.164358,-57.404366,-16.031485,-0.40063477,0.08721924,0.93200684,-0.016601562,0.009765625,0.022460938,4.4124193,14.240994,-129.30542,-11.976032,0.0,0.0,0.0,0.0,0.0,0.0,0.0,23.319778,-129.3703,5.8456764,0.0,0.0,0.0,0.0,0.0,0.0,0.0,3.849736,44.80111,1.9463527,
0.7226562392315828,37,-0.06335449,0.80249023,0.519104,-0.017578125,0.140625,0.0859375,0.0,0.0,0.0,0.0,0.0,0.0,0.0,0.0,0.0,0.0,0.0,-0.628199,0.01965161,0.7779612,-0.9893799,0.10632324,0.097595215,-0.13574219,0.0029296875,0.033203125,13.257806,-13.005665,0.40684927,16.106209,0.96759033,-0.20477295,-0.30194092,-0.0146484375,-0.021484375,-9.765625E-4,8.342756,-9.42999,-55.965885,23.774277,-0.63201904,0.032043457,0.7852173,-0.01171875,0.024414062,0.0,14.529311,-11.840912,-127.87065,26.975204,0.0,0.0,0.0,0.0,0.0,0.0,0.0,-8.214841,-127.6853,46.643074,0.0,0.0,0.0,0.0,0.0,0.0,0.0,0.628199,-0.01965161,-0.7779612,-0.93011475,-0.079833984,-0.29711914,-0.17578125,-0.095703125,-0.022460938,6.6035485,13.005665,-0.40684927,-16.106209,0.9864502,-0.093322754,-0.24108887,0.0,-0.016601562,0.028320312,2.8860192,14.166987,-57.40086,-15.86949,-0.39257812,0.04522705,0.9182129,-0.016601562,0.009765625,0.00390625,4.196427,13.993582,-129.29906,-11.816881,0.0,0.0,0.0,0.0,0.0,0.0,0.0,23.059196,-129.36317,6.0107594,0.0,0.0,0.0,0.0,0.0,0.0,0.0,3.8062053,44.80218,1.941767,
0.7421874889405445,38,-0.049560547,0.7910156,0.4907837,0.041992188,0.15820312,0.08496094,0.0,0.0,0.0,0.0,0.0,0.0,0.0,0.0,0.0,0.0,0.0,-0.63115245,0.019021196,0.77564645,-0.9827881,0.07946777,0.1270752,-0.15429688,0.041015625,0.034179688,13.265518,-13.066812,0.39379773,16.058285,0.9430542,-0.21166992,-0.30078125,0.0048828125,-0.021484375,0.018554688,8.391594,-9.494268,-55.98008,23.757572,-0.6398926,0.040283203,0.7683716,0.0068359375,0.078125,-9.765625E-4,14.632855,-11.9731,-127.87666,26.976974,0.0,0.0,0.0,0.0,0.0,0.0,0.0,-8.3687105,-127.69577,46.64705,0.0,0.0,0.0,0.0,0.0,0.0,0.0,0.63115245,-0.019021196,-0.77564645,-0.9189453,-0.071777344,-0.31573486,-0.09863281,0.057617188,-0.0029296875,6.5409193,13.066812,-0.39379773,-16.058285,0.98986816,-0.11230469,-0.20648193,0.0390625,-0.016601562,0.028320312,2.8904247,14.181453,-57.389874,-15.776673,-0.4130249,0.06555176,0.9202881,-0.016601562,0.009765625,0.00390625,4.116944,13.866829,-129.28474,-11.721834,0.0,0.0,0.0,0.0,0.0,0.0,0.0,22.937008,-129.3527,6.105051,0.0,0.0,0.0,0.0,0.0,0.0,0.0,3.763088,44.807125,1.9632617,
0.7617187386495062,39,-0.1015625,0.81152344,0.5311279,0.12207031,0.19433594,0.08300781,0.0,0.0,0.0,0.0,0.0,0.0,0.0,0.0,0.0,0.0,0.0,-0.6340993,0.018578507,0.7731816,-0.98669434,0.07110596,0.104003906,-0.13574219,0.001953125,0.052734375,13.15136,-13.127822,0.38463268,16.007257,0.93096924,-0.17492676,-0.28955078,0.061523438,-0.0029296875,9.765625E-4,8.463341,-9.495967,-55.981915,23.69558,-0.6177368,0.038635254,0.7545166,-0.01171875,0.060546875,0.017578125,14.611793,-12.021589,-127.883606,26.906113,0.0,0.0,0.0,0.0,0.0,0.0,0.0,-8.416723,-127.7082,46.577568,0.0,0.0,0.0,0.0,0.0,0.0,0.0,0.6340993,-0.018578507,-0.7731816,-0.9448242,-0.05596924,-0.3430786,-0.041015625,0.15332031,-0.0234375,6.20921,13.127822,-0.38463268,-16.007257,0.9783325,-0.07928467,-0.25976562,0.17480469,-0.055664062,-0.0107421875,2.8438616,14.053346,-57.38437,-15.719803,-0.38952637,0.049194336,0.9172363,-0.036132812,-0.0087890625,0.022460938,4.103937,13.588982,-129.27727,-11.666241,0.0,0.0,0.0,0.0,0.0,0.0,0.0,22.638494,-129.34735,6.1696663,0.0,0.0,0.0,0.0,0.0,0.0,0.0,3.645662,44.81662,1.9129863,
0.7812499883584679,40,-0.09466553,0.81726074,0.52008057,0.10058594,0.13671875,0.046875,0.0,0.0,0.0,0.0,0.0,0.0,0.0,0.0,0.0,0.0,0.0,-0.63604206,0.019268006,0.77156883,-0.96813965,0.08770752,0.08441162,-0.15429688,0.0029296875,0.033203125,12.960318,-13.168041,0.39890742,15.973867,0.91467285,-0.17816162,-0.28741455,0.0048828125,-0.021484375,-9.765625E-4,8.5251875,-9.531636,-55.97041,23.64401,-0.64904785,0.030761719,0.75061035,-0.0126953125,0.060546875,-9.765625E-4,14.571694,-12.117979,-127.86922,26.789331,0.0,0.0,0.0,0.0,0.0,0.0,0.0,-8.515926,-127.70279,46.46018,0.0,0.0,0.0,0.0,0.0,0.0,0.0,0.63604206,-0.019268006,-0.77156883,-0.9729614,-0.05682373,-0.32733154,-0.23242188,0.022460938,-0.021484375,5.9090633,13.168041,-0.39890742,-15.973867,1.017456,-0.087768555,-0.23382568,0.01953125,-0.016601562,0.046875,2.6778111,13.906182,-57.39798,-15.6068125,-0.4343872,0.080078125,0.9124756,-0.036132812,-0.0087890625,0.022460938,4.09199,13.322885,-129.30054,-11.624059,0.0,0.0,0.0,0.0,0.0,0.0,0.0,22.36945,-129.36995,6.2134943,0.0,0.0,0.0,0.0,0.0,0.0,0.0,3.5516248,44.828564,1.8082974,
0.8007812380674296,41,-0.095947266,0.77734375,0.49090576,0.10058594,0.13867188,0.1015625,0.0,0.0,0.0,0.0,0.0,0.0,0.0,0.0,0.0,0.0,0.0,-0.6361033,0.019836426,0.7714728,-0.9788208,0.08013916,0.14001465,-0.1171875,0.059570312,0.072265625,12.763344,-13.16931,0.4106755,15.971878,0.935791,-0.18493652,-0.28564453,-0.033203125,-0.040039062,0.017578125,8.518551,-9.5649605,-55.962322,23.617355,-0.631958,0.03503418,0.7753296,-0.0126953125,0.060546875,-9.765625E-4,14.566237,-12.183331,-127.85185,26.735096,0.0,0.0,0.0,0.0,0.0,0.0,0.0,-8.588713,-127.693405,46.4084,0.0,0.0,0.0,0.0,0.0,0.0,0.0,0.6361033,-0.019836426,-0.7714728,-0.92388916,-0.06854248,-0.3255005,-0.19433594,0.021484375,-0.021484375,5.689442,13.16931,-0.4106755,-15.971878,0.9984741,-0.087524414,-0.23937988,-0.07714844,-0.0146484375,0.029296875,2.6576333,13.821013,-57.41084,-15.602608,-0.38531494,0.054138184,0.91033936,-0.016601562,0.009765625,0.022460938,4.041717,13.118916,-129.3058,-11.654669,0.0,0.0,0.0,0.0,0.0,0.0,0.0,22.174326,-129.37724,6.177948,0.0,0.0,0.0,0.0,0.0,0.0,0.0,3.4746726,44.837284,1.7121005,
0.8203124877763913,42,-0.10211182,0.8112793,0.49035645,0.099609375,0.119140625,0.08300781,0.0,0.0,0.0,0.0,0.0,0.0,0.0,0.0,0.0,0.0,0.0,-0.63790154,0.019019797,0.7700719,-0.993042,0.06500244,0.124816895,-0.07910156,-0.0546875,0.033203125,12.69664,-13.20654,0.3937688,15.942877,0.93792725,-0.17810059,-0.29858398,0.00390625,-0.041015625,-9.765625E-4,8.611489,-9.565655,-55.970512,23.622948,-0.6418457,0.042297363,0.7614746,0.0068359375,0.041992188,0.018554688,14.599659,-12.234896,-127.86237,26.72062,0.0,0.0,0.0,0.0,0.0,0.0,0.0,-8.645891,-127.70383,46.395985,0.0,0.0,0.0,0.0,0.0,0.0,0.0,0.63790154,-0.019019797,-0.7700719,-0.9238281,-0.06341553,-0.2930298,-0.1171875,0.21484375,-0.001953125,5.368669,13.20654,-0.3937688,-15.942877,1.0222168,-0.11975098,-0.23468018,0.07714844,0.01953125,-0.0107421875,2.6078198,13.664614,-57.3987,-15.588015,-0.40679932,0.06359863,0.9064331,-0.036132812,-0.02734375,-0.0146484375,3.9892907,12.871042,-129.29851,-11.6209,0.0,0.0,0.0,0.0,0.0,0.0,0.0,21.920103,-129.3619,6.215707,0.0,0.0,0.0,0.0,0.0,0.0,0.0,3.3667269,44.84894,1.6811705,
0.839843737485353,43,-0.08380127,0.80493164,0.4987793,0.021484375,0.140625,0.103515625,0.0,0.0,0.0,0.0,0.0,0.0,0.0,0.0,0.0,0.0,0.0,-0.6400234,0.018336952,0.7682887,-0.98223877,0.0947876,0.07952881,-0.041015625,-0.03515625,0.013671875,12.6903305,-13.250469,0.37963176,15.905958,0.9663696,-0.17333984,-0.3157959,-0.0146484375,-0.041015625,0.017578125,8.705855,-9.543062,-55.986362,23.579092,-0.64611816,0.025756836,0.7536011,-0.01171875,0.041992188,-9.765625E-4,14.559066,-12.254016,-127.87982,26.63118,0.0,0.0,0.0,0.0,0.0,0.0,0.0,-8.655247,-127.72793,46.30339,0.0,0.0,0.0,0.0,0.0,0.0,0.0,0.6400234,-0.018336952,-0.7682887,-0.9512329,-0.08087158,-0.3206787,-0.022460938,0.19238281,0.017578125,5.0918527,13.250469,-0.37963176,-15.905958,1.0145874,-0.097717285,-0.22381592,0.0,0.0390625,0.02734375,2.5548158,13.503731,-57.38721,-15.619007,-0.42633057,0.061950684,0.9104614,-0.016601562,-0.0087890625,0.00390625,4.000908,12.622819,-129.27988,-11.702755,0.0,0.0,0.0,0.0,0.0,0.0,0.0,21.67507,-129.34906,6.1324406,0.0,0.0,0.0,0.0,0.0,0.0,0.0,3.3082256,44.85185,1.6854289,
0.8593749871943147,44,-0.08380127,0.8139038,0.5038452,0.041015625,0.13964844,0.08496094,0.0,0.0,0.0,0.0,0.0,0.0,0.0,0.0,0.0,0.0,0.0,-0.6412977,0.017992247,0.7671854,-0.98028564,0.103271484,0.09460449,-0.07910156,0.060546875,0.0146484375,12.665433,-13.276851,0.3724954,15.883117,0.94976807,-0.18835449,-0.3057251,-0.08886719,-0.020507812,0.053710938,8.752213,-9.582214,-55.992516,23.532682,-0.6401367,0.027404785,0.78131104,-0.0126953125,0.078125,-9.765625E-4,14.583756,-12.3597355,-127.88788,26.5243,0.0,0.0,0.0,0.0,0.0,0.0,0.0,-8.769609,-127.74355,46.197548,0.0,0.0,0.0,0.0,0.0,0.0,0.0,0.6412977,-0.017992247,-0.7671854,-0.9529419,-0.06225586,-0.31854248,-0.0029296875,0.0546875,-0.00390625,5.041855,13.276851,-0.3724954,-15.883117,0.99664307,-0.07348633,-0.23742676,-0.078125,0.09667969,0.06542969,2.4893928,13.477969,-57.37858,-15.585085,-0.40893555,0.06640625,0.9310913,0.001953125,-0.009765625,0.00390625,3.9999287,12.56267,-129.28227,-11.732864,0.0,0.0,0.0,0.0,0.0,0.0,0.0,21.609482,-129.36028,6.104477,0.0,0.0,0.0,0.0,0.0,0.0,0.0,3.2917008,44.850857,1.6997093,
0.8789062369032764,45,-0.053100586,0.8132324,0.5338745,0.10058594,0.13769531,0.08300781,0.0,0.0,0.0,0.0,0.0,0.0,0.0,0.0,0.0,0.0,0.0,-0.6431967,0.016915645,0.7656785,-0.96936035,0.0960083,0.11437988,-0.07910156,0.0029296875,0.052734375,12.617339,-13.316168,0.35020635,15.851918,0.94659424,-0.19311523,-0.30969238,-0.051757812,-0.001953125,-0.0029296875,8.845689,-9.611914,-56.013165,23.542023,-0.62823486,0.014404297,0.74768066,-0.01171875,0.041992188,0.017578125,14.613851,-12.462225,-127.90573,26.503265,0.0,0.0,0.0,0.0,0.0,0.0,0.0,-8.8714485,-127.771904,46.17733,0.0,0.0,0.0,0.0,0.0,0.0,0.0,0.6431967,-0.016915645,-0.7656785,-0.9421997,-0.08312988,-0.31481934,-0.022460938,0.13378906,0.017578125,4.930779,13.316168,-0.35020635,-15.851918,1.0144653,-0.12860107,-0.21569824,-0.11621094,0.059570312,0.06640625,2.4686277,13.50442,-57.358036,-15.525984,-0.4017334,0.058410645,0.9163208,-0.016601562,0.009765625,0.022460938,3.8896754,12.528906,-129.26247,-11.699216,0.0,0.0,0.0,0.0,0.0,0.0,0.0,21.56939,-129.3472,6.1418924,0.0,0.0,0.0,0.0,0.0,0.0,0.0,3.193789,44.86031,1.6918244,
0.8984374866122381,46,-0.06048584,0.7784424,0.4979248,0.060546875,0.12011719,0.083984375,0.0,0.0,0.0,0.0,0.0,0.0,0.0,0.0,0.0,0.0,0.0,-0.6444035,0.015086498,0.7646924,-0.9692383,0.09527588,0.10046387,-0.09765625,0.022460938,0.0146484375,12.604403,-13.341147,0.31233725,15.831503,0.94207764,-0.17230225,-0.3255005,0.0048828125,-0.0029296875,0.017578125,8.934152,-9.6007805,-56.046837,23.519695,-0.64038086,0.01171875,0.7664795,0.0068359375,0.0234375,0.018554688,14.63737,-12.516912,-127.94072,26.438807,0.0,0.0,0.0,0.0,0.0,0.0,0.0,-8.924989,-127.81606,46.112007,0.0,0.0,0.0,0.0,0.0,0.0,0.0,0.6444035,-0.015086498,-0.7646924,-0.90600586,-0.081604004,-0.32366943,-0.041015625,0.09472656,-0.0029296875,4.720325,13.341147,-0.31233725,-15.831503,0.9906616,-0.1352539,-0.20727539,0.0390625,0.020507812,0.045898438,2.4566262,13.381643,-57.31631,-15.521269,-0.4152832,0.049316406,0.9527588,0.0029296875,0.009765625,-0.015625,3.9075065,12.353492,-129.21777,-11.648046,0.0,0.0,0.0,0.0,0.0,0.0,0.0,21.393517,-129.30315,6.1928434,0.0,0.0,0.0,0.0,0.0,0.0,0.0,3.102258,44.864998,1.7291268,
0.9179687363211998,47,-0.09954834,0.7905884,0.5239258,0.060546875,0.11816406,0.029296875,0.0,0.0,0.0,0.0,0.0,0.0,0.0,0.0,0.0,0.0,0.0,-0.6446782,0.016305432,0.7644848,-0.9824219,0.0925293,0.10040283,-0.1171875,0.041015625,0.034179688,12.507067,-13.346838,0.337573,15.827206,0.9559326,-0.18566895,-0.31274414,0.0234375,-0.021484375,0.0,8.9762745,-9.611105,-56.02313,23.490871,-0.6516113,0.061279297,0.7772217,-0.01171875,0.024414062,0.0,14.6577635,-12.59396,-127.91104,26.369167,0.0,0.0,0.0,0.0,0.0,0.0,0.0,-9.002205,-127.78559,46.04328,0.0,0.0,0.0,0.0,0.0,0.0,0.0,0.6446782,-0.016305432,-0.7644848,-0.9387207,-0.050476074,-0.3322754,-0.099609375,-0.07910156,-0.0029296875,4.6568613,13.346838,-0.337573,-15.827206,0.97546387,-0.06518555,-0.19464111,0.15527344,-0.018554688,-0.0107421875,2.4744089,13.367834,-57.34147,-15.5075,-0.3842163,0.06121826,0.8994751,0.0029296875,0.009765625,-0.015625,4.050961,12.281619,-129.23625,-11.616918,0.0,0.0,0.0,0.0,0.0,0.0,0.0,21.315508,-129.31863,6.2265863,0.0,0.0,0.0,0.0,0.0,0.0,0.0,3.0995698,44.869606,1.6568114,
0.9374999860301615,48,-0.08868408,0.79119873,0.5067749,0.05859375,0.080078125,0.029296875,0.0,0.0,0.0,0.0,0.0,0.0,0.0,0.0,0.0,0.0,0.0,-0.6436863,0.01788674,0.76520723,-0.9906616,0.09625244,0.11932373,-0.11621094,0.09765625,0.053710938,12.3800535,-13.3263035,0.37031093,15.842163,0.9555054,-0.16607666,-0.30371094,-0.05078125,0.016601562,0.03515625,8.920287,-9.674503,-56.0036,23.467634,-0.6442871,0.01574707,0.76745605,0.0068359375,0.041992188,0.018554688,14.626338,-12.681926,-127.88895,26.30864,0.0,0.0,0.0,0.0,0.0,0.0,0.0,-9.094835,-127.76754,45.984573,0.0,0.0,0.0,0.0,0.0,0.0,0.0,0.6436863,-0.01788674,-0.76520723,-0.92755127,-0.04083252,-0.33416748,-0.1953125,-0.115234375,-0.06347656,4.8357797,13.3263035,-0.37031093,-15.842163,0.98327637,-0.05731201,-0.20568848,-0.09667969,0.00390625,0.06738281,2.453836,13.513927,-57.375008,-15.437657,-0.4088745,0.051696777,0.89959717,-0.016601562,-0.0087890625,-0.015625,4.05502,12.381044,-129.27322,-11.649546,0.0,0.0,0.0,0.0,0.0,0.0,0.0,21.419285,-129.36174,6.193659,0.0,0.0,0.0,0.0,0.0,0.0,0.0,3.1332116,44.86711,1.5868628,
0.9570312357391232,49,-0.0769043,0.8016968,0.48760986,0.10058594,0.13574219,0.009765625,0.0,0.0,0.0,0.0,0.0,0.0,0.0,0.0,0.0,0.0,0.0,-0.64413023,0.01833709,0.7649047,-1.0010986,0.06427002,0.118774414,-0.060546875,0.001953125,0.07128906,12.256346,-13.335495,0.37963465,15.835898,0.9677124,-0.20092773,-0.2939453,-0.032226562,-0.0029296875,0.036132812,8.962365,-9.657717,-55.989403,23.461525,-0.62890625,0.03503418,0.7584839,0.0068359375,0.041992188,0.018554688,14.562991,-12.696445,-127.89111,26.298168,0.0,0.0,0.0,0.0,0.0,0.0,0.0,-9.109764,-127.77267,45.973312,0.0,0.0,0.0,0.0,0.0,0.0,0.0,0.64413023,-0.01833709,-0.7649047,-0.95440674,-0.094177246,-0.25299072,-0.13671875,0.25390625,-0.001953125,4.6177464,13.335495,-0.37963465,-15.835898,1.0083008,-0.113586426,-0.23547363,-0.2705078,0.025390625,0.10644531,2.323216,13.377234,-57.382324,-15.351297,-0.4006958,0.04559326,0.8916626,0.0029296875,0.009765625,-0.034179688,3.7982864,12.1653385,-129.27902,-11.580872,0.0,0.0,0.0,0.0,0.0,0.0,0.0,21.19971,-129.37552,6.2626133,0.0,0.0,0.0,0.0,0.0,0.0,0.0,3.0621252,44.87774,1.5027758,
0.9765624854480849,50,-0.107421875,0.8078003,0.545166,0.07910156,0.099609375,0.06542969,0.0,0.0,0.0,0.0,0.0,0.0,0.0,0.0,0.0,0.0,0.0,-0.6450512,0.01956009,0.76406413,-0.99871826,0.08215332,0.096191406,-0.022460938,-0.053710938,0.033203125,12.098104,-13.354557,0.40495452,15.818496,0.9345093,-0.18969727,-0.31256104,0.024414062,-0.0029296875,0.038085938,9.003899,-9.651287,-55.96851,23.42561,-0.6361084,0.025390625,0.7625122,0.0068359375,0.059570312,-9.765625E-4,14.591718,-12.729725,-127.851166,26.242083,0.0,0.0,0.0,0.0,0.0,0.0,0.0,-9.151722,-127.73605,45.91796,0.0,0.0,0.0,0.0,0.0,0.0,0.0,0.6450512,-0.01956009,-0.76406413,-0.9402466,-0.0869751,-0.27850342,0.13085938,0.265625,0.056640625,4.2768626,13.354557,-0.40495452,-15.818496,1.0025024,-0.1473999,-0.2074585,-0.057617188,0.021484375,0.047851562,2.419375,13.216034,-57.40736,-15.42796,-0.39239502,0.0703125,0.9053955,-0.016601562,0.029296875,0.00390625,3.7300892,11.919389,-129.30121,-11.52706,0.0,0.0,0.0,0.0,0.0,0.0,0.0,20.952415,-129.39626,6.317829,0.0,0.0,0.0,0.0,0.0,0.0,0.0,3.005548,44.884083,1.388359,
0.9960937351570466,51,-0.06738281,0.7866821,0.5140991,0.05859375,0.08105469,0.06542969,0.0,0.0,0.0,0.0,0.0,0.0,0.0,0.0,0.0,0.0,0.0,-0.6452639,0.020282906,0.763915,-0.98028564,0.089904785,0.0814209,-0.022460938,0.00390625,-0.0048828125,12.051723,-13.358962,0.41991904,15.815409,0.9685669,-0.16851807,-0.31079102,-0.03125,-0.0029296875,0.0546875,9.039507,-9.656532,-55.95486,23.387178,-0.6368408,0.038330078,0.7456665,0.0068359375,0.041992188,0.0,14.55681,-12.793471,-127.84375,26.157429,0.0,0.0,0.0,0.0,0.0,0.0,0.0,-9.212206,-127.738144,45.833313,0.0,0.0,0.0,0.0,0.0,0.0,0.0,0.6452639,-0.020282906,-0.763915,-0.9335327,-0.113464355,-0.36218262,-0.09863281,0.018554688,-0.0029296875,4.122458,13.358962,-0.41991904,-15.815409,0.994751,-0.1293335,-0.20349121,0.19335938,0.036132812,-0.0126953125,2.488213,13.089483,-57.42361,-15.498071,-0.4017334,0.051513672,0.9064331,-0.016601562,0.009765625,0.00390625,3.857067,11.739757,-129.3087,-11.523858,0.0,0.0,0.0,0.0,0.0,0.0,0.0,20.760069,-129.40236,6.3271723,0.0,0.0,0.0,0.0,0.0,0.0,0.0,3.0195363,44.88575,1.3587693,
1.0156249848660084,52,-0.06536865,0.7965698,0.5161133,0.09667969,0.022460938,0.045898438,0.0,0.0,0.0,0.0,0.0,0.0,0.0,0.0,0.0,0.0,0.0,-0.64366376,0.020214524,0.76515555,-0.9715576,0.08508301,0.12817383,-0.09765625,-0.03515625,0.033203125,12.0659275,-13.325836,0.41850337,15.841093,0.9567261,-0.15423584,-0.338562,-0.05078125,0.016601562,0.03515625,9.176781,-9.5866785,-55.952892,23.427982,-0.6479492,0.034729004,0.7416992,0.0068359375,0.041992188,0.018554688,14.584423,-12.804744,-127.83537,26.101707,0.0,0.0,0.0,0.0,0.0,0.0,0.0,-9.2175865,-127.734566,45.777847,0.0,0.0,0.0,0.0,0.0,0.0,0.0,0.64366376,-0.020214524,-0.76515555,-0.9360962,-0.07897949,-0.28826904,-0.17578125,-0.095703125,-0.022460938,4.1382947,13.325836,-0.41850337,-15.841093,0.9993286,-0.037597656,-0.21105957,0.15527344,0.018554688,0.026367188,2.4236586,13.07739,-57.42209,-15.490019,-0.3904419,0.07501221,0.9349365,-0.016601562,0.009765625,0.00390625,4.175185,11.7317295,-129.3114,-11.577112,0.0,0.0,0.0,0.0,0.0,0.0,0.0,20.759111,-129.41023,6.2713013,0.0,0.0,0.0,0.0,0.0,0.0,0.0,3.009172,44.883045,1.3456157,
1.03515623457497,53,-0.0725708,0.8016968,0.510376,0.057617188,0.0234375,0.028320312,0.0,0.0,0.0,0.0,0.0,0.0,0.0,0.0,0.0,0.0,0.0,-0.6428486,0.01991614,0.76582545,-0.98291016,0.07922363,0.14001465,-0.07910156,0.0029296875,0.033203125,12.144682,-13.308961,0.41232583,15.85496,0.9364624,-0.15539551,-0.32641602,-0.03125,-0.0029296875,0.0546875,9.338393,-9.518738,-55.94554,23.512913,-0.65838623,0.015197754,0.7764282,-0.01171875,0.060546875,0.017578125,14.567609,-12.794397,-127.83756,26.108921,0.0,0.0,0.0,0.0,0.0,0.0,0.0,-9.210533,-127.74445,45.78341,0.0,0.0,0.0,0.0,0.0,0.0,0.0,0.6428486,-0.01991614,-0.76582545,-0.9515381,-0.105285645,-0.32183838,0.053710938,0.034179688,0.036132812,4.1125174,13.308961,-0.41232583,-15.85496,1.0070801,-0.053649902,-0.21411133,-0.21191406,0.024414062,0.10546875,2.3740509,13.053333,-57.41718,-15.513181,-0.40478516,0.054504395,0.9094238,-0.016601562,0.009765625,0.00390625,4.0551643,11.639242,-129.3086,-11.722694,0.0,0.0,0.0,0.0,0.0,0.0,0.0,20.653889,-129.40208,6.130726,0.0,0.0,0.0,0.0,0.0,0.0,0.0,2.995026,44.883167,1.346846,
1.0546874842839318,54,-0.07977295,0.7808838,0.4915161,0.018554688,0.04296875,0.01171875,0.0,0.0,0.0,0.0,0.0,0.0,0.0,0.0,0.0,0.0,0.0,-0.6419039,0.02019446,0.7666386,-0.99176025,0.08465576,0.11218262,-0.060546875,-0.03515625,0.013671875,12.17526,-13.289399,0.4180879,15.871797,0.9440918,-0.17437744,-0.3106079,-0.051757812,-0.021484375,0.036132812,9.45014,-9.446481,-55.93589,23.537285,-0.67297363,0.04034424,0.7585449,0.0068359375,0.041992188,0.018554688,14.569536,-12.786884,-127.827324,26.081556,0.0,0.0,0.0,0.0,0.0,0.0,0.0,-9.192263,-127.748436,45.75453,0.0,0.0,0.0,0.0,0.0,0.0,0.0,0.6419039,-0.02019446,-0.7666386,-0.93829346,-0.093566895,-0.32965088,0.034179688,0.07324219,0.057617188,4.090889,13.289399,-0.4180879,-15.871797,1.0140991,-0.12365723,-0.24243164,-0.30859375,0.0068359375,0.14453125,2.5449135,13.050149,-57.42614,-15.600622,-0.40985107,0.08148193,0.92614746,0.001953125,0.0087890625,0.041015625,3.7224698,11.529877,-129.31552,-11.727682,0.0,0.0,0.0,0.0,0.0,0.0,0.0,20.532024,-129.40533,6.131422,0.0,0.0,0.0,0.0,0.0,0.0,0.0,3.0025687,44.88409,1.3317235,
1.0742187339928935,55,-0.09680176,0.8182373,0.51116943,0.01953125,0.0625,0.029296875,0.0,0.0,0.0,0.0,0.0,0.0,0.0,0.0,0.0,0.0,0.0,-0.64089584,0.020354982,0.76746064,-0.9923096,0.105651855,0.08166504,-0.022460938,-0.034179688,-0.0048828125,12.136985,-13.268531,0.42141116,15.888814,0.9360962,-0.16912842,-0.32043457,0.024414062,-0.022460938,0.018554688,9.502536,-9.418439,-55.934105,23.542149,-0.65875244,0.050720215,0.76049805,0.0068359375,0.059570312,-9.765625E-4,14.525485,-12.84286,-127.82341,26.07861,0.0,0.0,0.0,0.0,0.0,0.0,0.0,-9.235963,-127.757034,45.750755,0.0,0.0,0.0,0.0,0.0,0.0,0.0,0.64089584,-0.020354982,-0.76746064,-0.9360962,-0.079956055,-0.3295288,-0.022460938,-0.0029296875,0.037109375,4.0637517,13.268531,-0.42141116,-15.888814,1.0022583,-0.13543701,-0.22729492,0.01953125,0.020507812,0.046875,2.6777382,13.032672,-57.426907,-15.622671,-0.39874268,0.049316406,0.9182739,0.001953125,-0.028320312,-0.015625,3.5430398,11.349044,-129.31126,-11.669273,0.0,0.0,0.0,0.0,0.0,0.0,0.0,20.344437,-129.41241,6.1945,0.0,0.0,0.0,0.0,0.0,0.0,0.0,2.991119,44.885,1.3073796,
1.0937499837018552,56,-0.103027344,0.81140137,0.4993286,0.07714844,0.041015625,0.009765625,0.0,0.0,0.0,0.0,0.0,0.0,0.0,0.0,0.0,0.0,0.0,-0.6400794,0.0203207,0.7681839,-0.994812,0.07220459,0.103027344,0.0146484375,-0.03515625,0.033203125,12.061288,-13.25163,0.42070156,15.903787,0.9592285,-0.17602539,-0.30273438,-0.03125,-0.021484375,0.055664062,9.540915,-9.403177,-55.936714,23.53983,-0.6392822,0.01184082,0.74176025,0.0068359375,0.041992188,0.0,14.486819,-12.880081,-127.821205,26.03915,0.0,0.0,0.0,0.0,0.0,0.0,0.0,-9.266197,-127.764595,45.71038,0.0,0.0,0.0,0.0,0.0,0.0,0.0,0.6400794,-0.0203207,-0.7681839,-0.94055176,-0.1081543,-0.33166504,0.034179688,0.07324219,0.057617188,3.9530957,13.25163,-0.42070156,-15.903787,0.9852295,-0.04736328,-0.21569824,0.17382812,0.055664062,0.043945312,2.7195897,12.978063,-57.42753,-15.673928,-0.43463135,0.057922363,0.9272461,0.021484375,-0.009765625,0.0029296875,3.6596065,11.214306,-129.3132,-11.726896,0.0,0.0,0.0,0.0,0.0,0.0,0.0,20.198587,-129.41954,6.14184,0.0,0.0,0.0,0.0,0.0,0.0,0.0,2.9552274,44.88974,1.2749411,
1.1132812334108169,57,-0.08905029,0.80096436,0.4829712,0.056640625,0.00390625,0.028320312,0.0,0.0,0.0,0.0,0.0,0.0,0.0,0.0,0.0,0.0,0.0,-0.63908434,0.019776825,0.7689851,-0.9880371,0.05810547,0.12866211,0.08984375,-0.07324219,0.07128906,12.043837,-13.231028,0.40944153,15.920376,0.93585205,-0.17999268,-0.30456543,-0.06933594,0.017578125,0.03515625,9.682391,-9.312788,-55.94132,23.559864,-0.6481323,0.024841309,0.7467041,0.0068359375,0.041992188,0.018554688,14.54981,-12.882998,-127.82027,26.005795,0.0,0.0,0.0,0.0,0.0,0.0,0.0,-9.265625,-127.77611,45.67507,0.0,0.0,0.0,0.0,0.0,0.0,0.0,0.63908434,-0.019776825,-0.7689851,-0.92004395,-0.07702637,-0.3010254,0.053710938,0.053710938,0.015625,3.7980804,13.231028,-0.40944153,-15.920376,1.00531,-0.033691406,-0.21221924,-0.19335938,0.04296875,0.10546875,2.6484108,12.879585,-57.41278,-15.712969,-0.3862915,0.062194824,0.9053955,0.0029296875,0.009765625,0.00390625,3.6414235,11.092119,-129.29456,-11.853624,0.0,0.0,0.0,0.0,0.0,0.0,0.0,20.069584,-129.39352,6.0188923,0.0,0.0,0.0,0.0,0.0,0.0,0.0,2.8989868,44.892555,1.2547252,
1.1328124831197786,58,-0.095458984,0.81689453,0.4633789,0.036132812,-0.033203125,0.028320312,0.0,0.0,0.0,0.0,0.0,0.0,0.0,0.0,0.0,0.0,0.0,-0.6390168,0.019806575,0.76915604,-0.96429443,0.0892334,0.109313965,0.052734375,-0.07324219,0.032226562,12.051494,-13.2296295,0.41005754,15.923915,0.93981934,-0.14282227,-0.32635498,0.043945312,0.034179688,0.038085938,9.808507,-9.250452,-55.940014,23.583235,-0.6635742,0.06072998,0.760437,0.0068359375,0.060546875,0.037109375,14.492838,-12.876413,-127.82443,25.965628,0.0,0.0,0.0,0.0,0.0,0.0,0.0,-9.248735,-127.7811,45.63273,0.0,0.0,0.0,0.0,0.0,0.0,0.0,0.6390168,-0.019806575,-0.76915604,-0.95184326,-0.05316162,-0.2919922,-0.060546875,-0.001953125,-0.0234375,3.8239765,13.2296295,-0.41005754,-15.923915,0.97875977,-0.09716797,-0.22113037,-0.21289062,0.09863281,0.12402344,2.7463768,12.94251,-57.414677,-15.686422,-0.3843994,0.05102539,0.920166,-0.016601562,0.009765625,0.022460938,3.3952293,11.095978,-129.29417,-11.735973,0.0,0.0,0.0,0.0,0.0,0.0,0.0,20.068691,-129.39903,6.138439,0.0,0.0,0.0,0.0,0.0,0.0,0.0,2.8722105,44.89897,1.230044,
1.1523437328287403,59,-0.083984375,0.80181885,0.48382568,0.037109375,0.025390625,0.083984375,0.0,0.0,0.0,0.0,0.0,0.0,0.0,0.0,0.0,0.0,0.0,-0.6392844,0.019107025,0.76893336,-0.98236084,0.09838867,0.097473145,0.052734375,-0.034179688,0.013671875,12.0449,-13.2351675,0.39557463,15.919304,0.95581055,-0.14929199,-0.34051514,-0.087890625,0.016601562,0.072265625,9.91437,-9.248053,-55.951225,23.58101,-0.65618896,0.023071289,0.75756836,0.044921875,0.00390625,-0.017578125,14.5168085,-12.92761,-127.8242,25.834465,0.0,0.0,0.0,0.0,0.0,0.0,0.0,-9.299522,-127.78637,45.50302,0.0,0.0,0.0,0.0,0.0,0.0,0.0,0.6392844,-0.019107025,-0.76893336,-0.94506836,-0.073791504,-0.33441162,-0.041992188,-0.041015625,-0.0234375,3.7775056,13.2351675,-0.39557463,-15.919304,0.96710205,-0.11694336,-0.1940918,0.038085938,0.09472656,0.045898438,2.7549164,12.909298,-57.40199,-15.64632,-0.38012695,0.06707764,0.9024048,0.0029296875,0.009765625,-0.015625,3.4123704,11.127342,-129.27928,-11.56007,0.0,0.0,0.0,0.0,0.0,0.0,0.0,20.097538,-129.37888,6.315077,0.0,0.0,0.0,0.0,0.0,0.0,0.0,2.838099,44.900127,1.2438587,
1.171874982537702,60,-0.079711914,0.7928467,0.4985962,-0.10058594,0.0087890625,0.068359375,0.0,0.0,0.0,0.0,0.0,0.0,0.0,0.0,0.0,0.0,0.0,-0.63861525,0.018962588,0.7694329,-0.9926758,0.099243164,0.11541748,-0.00390625,-0.12988281,0.0126953125,12.168083,-13.221317,0.39258435,15.929647,0.9517212,-0.18835449,-0.32366943,-0.10644531,0.017578125,0.072265625,10.098685,-9.161843,-55.941338,23.639622,-0.6563721,0.019042969,0.7803345,0.0068359375,0.0234375,0.0,14.696757,-12.943235,-127.81922,25.825533,0.0,0.0,0.0,0.0,0.0,0.0,0.0,-9.322144,-127.788,45.494926,0.0,0.0,0.0,0.0,0.0,0.0,0.0,0.63861525,-0.018962588,-0.7694329,-0.95874023,-0.045837402,-0.34594727,-0.0234375,-0.12011719,-0.024414062,3.8794928,13.221317,-0.39258435,-15.929647,1.0150146,-0.091674805,-0.19818115,-0.07714844,0.041015625,0.10449219,2.7373815,12.928713,-57.396736,-15.584239,-0.39068604,0.038024902,0.93499756,-0.03515625,0.0107421875,0.00390625,3.5003417,11.110368,-129.2632,-11.489441,0.0,0.0,0.0,0.0,0.0,0.0,0.0,20.085815,-129.36368,6.38472,0.0,0.0,0.0,0.0,0.0,0.0,0.0,2.8584445,44.896145,1.2659962,
1.1914062322466636,61,-0.079589844,0.7929077,0.5085449,-0.061523438,-0.01171875,0.048828125,0.0,0.0,0.0,0.0,0.0,0.0,0.0,0.0,0.0,0.0,0.0,-0.6379611,0.018955298,0.77002525,-0.97821045,0.09851074,0.08856201,-0.060546875,-0.091796875,0.013671875,12.271185,-13.207773,0.3924334,15.94191,0.9515991,-0.19226074,-0.34161377,-0.06933594,0.036132812,0.053710938,10.263355,-9.066448,-55.93095,23.70963,-0.6383667,0.0078125,0.74572754,0.026367188,0.0234375,0.018554688,14.833798,-12.9615555,-127.80202,25.907148,0.0,0.0,0.0,0.0,0.0,0.0,0.0,-9.352739,-127.77886,45.577606,0.0,0.0,0.0,0.0,0.0,0.0,0.0,0.6379611,-0.018955298,-0.77002525,-0.9296875,-0.049865723,-0.3234253,-0.3095703,-0.091796875,0.0,4.017418,13.207773,-0.3924334,-15.94191,1.0090942,-0.11364746,-0.24731445,-0.11621094,0.078125,0.123046875,2.752713,12.976974,-57.395325,-15.44564,-0.41516113,0.0692749,0.9557495,0.0029296875,0.009765625,0.00390625,3.382172,11.064794,-129.26021,-11.26212,0.0,0.0,0.0,0.0,0.0,0.0,0.0,20.040222,-129.35675,6.610915,0.0,0.0,0.0,0.0,0.0,0.0,0.0,2.8636594,44.897503,1.2673063,
1.2109374819556253,62,-0.08770752,0.8180542,0.5159302,0.056640625,0.0048828125,0.046875,0.0,0.0,0.0,0.0,0.0,0.0,0.0,0.0,0.0,0.0,0.0,-0.63707185,0.018583175,0.7707932,-0.98779297,0.09020996,0.12823486,-0.041015625,-0.07324219,0.013671875,12.316671,-13.189362,0.38472933,15.9578085,0.9382324,-0.19854736,-0.3375244,0.0068359375,0.03515625,0.055664062,10.343777,-8.998909,-55.932194,23.735825,-0.6539917,0.031921387,0.7467041,0.0068359375,0.0234375,0.018554688,14.855871,-12.977049,-127.79552,25.966139,0.0,0.0,0.0,0.0,0.0,0.0,0.0,-9.367651,-127.77865,45.637108,0.0,0.0,0.0,0.0,0.0,0.0,0.0,0.63707185,-0.018583175,-0.7707932,-0.90625,-0.09698486,-0.2952881,-0.21386719,0.0029296875,0.040039062,4.033326,13.189362,-0.38472933,-15.9578085,1.0026855,-0.12945557,-0.20562744,-0.0390625,0.1328125,0.064453125,2.743667,12.949054,-57.38717,-15.416657,-0.39245605,0.057373047,0.9034424,0.001953125,-0.009765625,0.022460938,3.415066,11.048967,-129.25208,-11.165186,0.0,0.0,0.0,0.0,0.0,0.0,0.0,20.024897,-129.35541,6.708761,0.0,0.0,0.0,0.0,0.0,0.0,0.0,2.8566465,44.89843,1.2785966,
1.230468731664587,63,-0.08453369,0.80163574,0.44604492,0.13671875,0.041015625,0.044921875,0.0,0.0,0.0,0.0,0.0,0.0,0.0,0.0,0.0,0.0,0.0,-0.6378326,0.016973052,0.7700854,-0.98254395,0.09326172,0.11431885,0.0146484375,-0.111328125,0.013671875,12.289153,-13.205112,0.3513948,15.943155,0.9503174,-0.16375732,-0.3425293,-0.0107421875,0.053710938,0.09375,10.550254,-8.900202,-55.943996,23.791798,-0.64398193,0.03161621,0.7536011,0.0068359375,0.0234375,0.018554688,14.906603,-12.994551,-127.79506,26.026302,0.0,0.0,0.0,0.0,0.0,0.0,0.0,-9.381591,-127.78559,45.69652,0.0,0.0,0.0,0.0,0.0,0.0,0.0,0.6378326,-0.016973052,-0.7700854,-0.89556885,-0.12677002,-0.284729,0.034179688,0.09277344,0.119140625,3.7834103,13.205112,-0.3513948,-15.943155,0.99676514,-0.103393555,-0.21453857,0.0,0.0390625,0.06542969,2.720885,12.911095,-57.354378,-15.431299,-0.3965454,0.062316895,0.9113159,0.0029296875,0.009765625,0.00390625,3.4433844,10.979971,-129.21558,-11.223503,0.0,0.0,0.0,0.0,0.0,0.0,0.0,19.955013,-129.32416,6.6511345,0.0,0.0,0.0,0.0,0.0,0.0,0.0,2.7004464,44.904972,1.2469504,
1.2499999813735487,64,-0.0949707,0.81414795,0.4961548,0.057617188,0.0234375,0.046875,0.0,0.0,0.0,0.0,0.0,0.0,0.0,0.0,0.0,0.0,0.0,-0.6385088,0.01590538,0.76959693,-0.9776001,0.090148926,0.12426758,0.052734375,-0.072265625,0.013671875,12.193738,-13.219111,0.32929063,15.9330435,0.9430542,-0.17132568,-0.33850098,-0.048828125,0.03515625,0.07324219,10.662968,-8.863198,-55.962154,23.785692,-0.6478882,0.03765869,0.7437134,0.0068359375,0.005859375,0.0,14.893161,-13.048691,-127.81792,25.994205,0.0,0.0,0.0,0.0,0.0,0.0,0.0,-9.41489,-127.81431,45.66102,0.0,0.0,0.0,0.0,0.0,0.0,0.0,0.6385088,-0.01590538,-0.76959693,-0.9603882,-0.09320068,-0.32763672,0.16894531,0.18652344,0.09667969,3.4360988,13.219111,-0.32929063,-15.9330435,1.0227661,-0.08581543,-0.21618652,-0.01953125,0.07714844,0.046875,2.6783228,12.73174,-57.329834,-15.483751,-0.40582275,0.058532715,0.91137695,-0.016601562,0.009765625,0.00390625,3.4964802,10.799157,-129.19281,-11.253801,0.0,0.0,0.0,0.0,0.0,0.0,0.0,19.768274,-129.29611,6.6229935,0.0,0.0,0.0,0.0,0.0,0.0,0.0,2.580082,44.91471,1.2123485,
1.2695312310825104,65,-0.06774902,0.7984619,0.49035645,0.016601562,-0.0146484375,-0.0078125,0.0,0.0,0.0,0.0,0.0,0.0,0.0,0.0,0.0,0.0,0.0,-0.63732684,0.016332526,0.77052826,-0.9714966,0.08905029,0.1262207,-0.041992188,-0.036132812,0.07128906,12.180748,-13.194643,0.33813396,15.952325,0.9333496,-0.1954956,-0.32354736,0.0078125,0.072265625,0.07421875,10.727539,-8.807584,-55.9552,23.798403,-0.66119385,0.026123047,0.7704468,0.0068359375,0.005859375,0.0,14.914008,-13.073082,-127.80728,26.019405,0.0,0.0,0.0,0.0,0.0,0.0,0.0,-9.431396,-127.80969,45.68584,0.0,0.0,0.0,0.0,0.0,0.0,0.0,0.63732684,-0.016332526,-0.77052826,-0.95233154,-0.08685303,-0.272583,0.053710938,-0.005859375,0.07714844,3.366332,13.194643,-0.33813396,-15.952325,0.99401855,-0.07342529,-0.21173096,-0.05859375,0.095703125,0.083984375,2.7123828,12.675221,-57.341015,-15.544434,-0.39245605,0.070129395,0.92315674,0.0029296875,0.028320312,-0.015625,3.5893238,10.839403,-129.20132,-11.234184,0.0,0.0,0.0,0.0,0.0,0.0,0.0,19.80466,-129.30527,6.643818,0.0,0.0,0.0,0.0,0.0,0.0,0.0,2.5816798,44.914043,1.1833621,
1.2890624807914721,66,-0.060668945,0.7883301,0.48706055,0.015625,-0.034179688,-0.025390625,0.0,0.0,0.0,0.0,0.0,0.0,0.0,0.0,0.0,0.0,0.0,-0.63660276,0.016093757,0.7712356,-0.98516846,0.055725098,0.14953613,-0.041992188,0.001953125,0.09082031,12.264242,-13.17965,0.33319065,15.966968,0.9367676,-0.18188477,-0.31951904,0.025390625,0.053710938,0.037109375,10.826403,-8.745611,-55.949993,23.86792,-0.6464844,0.0041503906,0.7457886,0.0068359375,0.005859375,0.0,14.953607,-13.052208,-127.79303,26.087091,0.0,0.0,0.0,0.0,0.0,0.0,0.0,-9.4245205,-127.80442,45.754856,0.0,0.0,0.0,0.0,0.0,0.0,0.0,0.63660276,-0.016093757,-0.7712356,-0.95111084,-0.07330322,-0.30981445,-0.0048828125,-0.140625,0.057617188,3.541271,13.17965,-0.33319065,-15.966968,0.98724365,-0.06933594,-0.20373535,-0.19335938,0.09765625,0.12402344,2.759318,12.832116,-57.33548,-15.51545,-0.39770508,0.04534912,0.9152832,0.001953125,0.009765625,0.022460938,3.5244787,11.044339,-129.18839,-11.184751,0.0,0.0,0.0,0.0,0.0,0.0,0.0,20.005077,-129.29253,6.6967516,0.0,0.0,0.0,0.0,0.0,0.0,0.0,2.5818505,44.917366,1.1938303,
1.3085937305004338,67,-0.0680542,0.80926514,0.47253418,0.056640625,0.0029296875,-0.0078125,0.0,0.0,0.0,0.0,0.0,0.0,0.0,0.0,0.0,0.0,0.0,-0.636445,0.015416804,0.7712633,-0.98950195,0.055358887,0.1774292,-0.00390625,-0.016601562,0.052734375,12.346175,-13.176384,0.31917566,15.967541,0.9412842,-0.16949463,-0.2826538,-0.049804688,0.0546875,0.053710938,10.921172,-8.6531105,-55.942566,23.931198,-0.6569214,0.037963867,0.7456665,0.0068359375,0.0234375,0.018554688,14.850689,-12.904275,-127.79313,26.113792,0.0,0.0,0.0,0.0,0.0,0.0,0.0,-9.282992,-127.805244,45.783348,0.0,0.0,0.0,0.0,0.0,0.0,0.0,0.636445,-0.015416804,-0.7712633,-0.9107666,-0.060180664,-0.3156128,0.12988281,0.0703125,0.055664062,3.517639,13.176384,-0.31917566,-15.967541,0.991272,-0.08831787,-0.18988037,-0.23144531,0.061523438,0.14355469,2.860676,12.841922,-57.32657,-15.510907,-0.40472412,0.07446289,0.9163208,0.020507812,-0.029296875,0.0029296875,3.3059452,10.941291,-129.18224,-11.108669,0.0,0.0,0.0,0.0,0.0,0.0,0.0,19.905418,-129.28244,6.7702904,0.0,0.0,0.0,0.0,0.0,0.0,0.0,2.5420532,44.91543,1.1998816,
1.3281249802093955,68,-0.08929443,0.8486328,0.47937012,0.07519531,-0.03515625,0.009765625,0.0,0.0,0.0,0.0,0.0,0.0,0.0,0.0,0.0,0.0,0.0,-0.637161,0.014633832,0.77081865,-0.98913574,0.07513428,0.15686035,0.09082031,-0.11035156,-0.005859375,12.384704,-13.19121,0.30296564,15.958336,0.9425049,-0.19598389,-0.29370117,-0.048828125,0.03515625,0.07324219,11.05576,-8.558804,-55.941162,23.990057,-0.6460571,0.025817871,0.7397461,0.026367188,0.041015625,0.018554688,14.770035,-12.769189,-127.80278,26.111015,0.0,0.0,0.0,0.0,0.0,0.0,0.0,-9.151176,-127.821754,45.780495,0.0,0.0,0.0,0.0,0.0,0.0,0.0,0.637161,-0.014633832,-0.77081865,-0.97216797,-0.06890869,-0.3137207,0.111328125,0.051757812,0.056640625,3.4230826,13.19121,-0.30296564,-15.958336,1.0060425,-0.15148926,-0.23516846,-0.13476562,0.060546875,0.14257812,3.0434322,12.855753,-57.305862,-15.490452,-0.39257812,0.055114746,0.9260864,0.001953125,0.0087890625,0.041015625,3.2174718,10.832164,-129.1398,-10.883703,0.0,0.0,0.0,0.0,0.0,0.0,0.0,19.802876,-129.24574,6.990799,0.0,0.0,0.0,0.0,0.0,0.0,0.0,2.4601674,44.92507,1.1806889,
1.3476562299183572,69,-0.08935547,0.81677246,0.4671631,0.017578125,0.025390625,0.06640625,0.0,0.0,0.0,0.0,0.0,0.0,0.0,0.0,0.0,0.0,0.0,-0.63693124,0.014303922,0.7709894,-0.98773193,0.09411621,0.12628174,0.109375,-0.12890625,-0.005859375,12.489756,-13.186452,0.2961355,15.961871,0.93969727,-0.18896484,-0.29266357,-0.12597656,-0.001953125,0.07128906,11.232577,-8.424088,-55.925377,24.085125,-0.66796875,0.042053223,0.78027344,0.026367188,0.0234375,0.0,14.811997,-12.658792,-127.77329,26.20488,0.0,0.0,0.0,0.0,0.0,0.0,0.0,-9.049814,-127.78975,45.876656,0.0,0.0,0.0,0.0,0.0,0.0,0.0,0.63693124,-0.014303922,-0.7709894,-0.92266846,-0.051330566,-0.30871582,-0.13769531,-0.0390625,0.059570312,3.4054782,13.186452,-0.2961355,-15.961871,1.0178223,-0.15368652,-0.24328613,0.07714844,0.056640625,0.064453125,3.115647,12.820406,-57.30006,-15.387624,-0.40582275,0.058532715,0.9133301,0.021484375,-0.009765625,0.022460938,3.2255542,10.647494,-129.12393,-10.612729,0.0,0.0,0.0,0.0,0.0,0.0,0.0,19.617096,-129.23007,7.263852,0.0,0.0,0.0,0.0,0.0,0.0,0.0,2.4178472,44.926918,1.1639216,
1.367187479627319,70,-0.0881958,0.80981445,0.47406006,0.13671875,0.041992188,0.08203125,0.0,0.0,0.0,0.0,0.0,0.0,0.0,0.0,0.0,0.0,0.0,-0.63663447,0.01300184,0.7712666,-0.98773193,0.117126465,0.14959717,0.0146484375,-0.18652344,-0.0068359375,12.691512,-13.180306,0.26917842,15.967609,0.9398804,-0.21539307,-0.31970215,-0.16308594,0.017578125,0.0703125,11.493,-8.227519,-55.914642,24.224741,-0.67004395,0.038269043,0.76153564,0.044921875,0.05859375,0.0,14.959679,-12.5243225,-127.77649,26.375011,0.0,0.0,0.0,0.0,0.0,0.0,0.0,-8.913907,-127.79207,46.04598,0.0,0.0,0.0,0.0,0.0,0.0,0.0,0.63663447,-0.01300184,-0.7712666,-0.9229126,-0.0690918,-0.30194092,-0.061523438,0.037109375,0.05859375,3.3802035,13.180306,-0.26917842,-15.967609,1.0067139,-0.09954834,-0.21575928,0.018554688,0.11328125,0.08300781,2.997089,12.776098,-57.26885,-15.316445,-0.37390137,0.06213379,0.8895874,0.021484375,-0.009765625,0.0029296875,3.213819,10.681873,-129.08873,-10.536985,0.0,0.0,0.0,0.0,0.0,0.0,0.0,19.641914,-129.18454,7.344572,0.0,0.0,0.0,0.0,0.0,0.0,0.0,2.355856,44.92992,1.1871996,
1.3867187293362806,71,-0.062194824,0.7980957,0.45135498,0.09765625,0.0625,0.10058594,0.0,0.0,0.0,0.0,0.0,0.0,0.0,0.0,0.0,0.0,0.0,-0.6364733,0.010767394,0.7713507,-0.9692993,0.13336182,0.14886475,0.033203125,-0.20605469,0.03125,12.865001,-13.176972,0.22291839,15.969351,0.93084717,-0.2453003,-0.34661865,0.0068359375,0.015625,0.055664062,11.777109,-8.034443,-55.918236,24.403263,-0.6416626,0.05029297,0.7485962,0.025390625,0.059570312,0.018554688,15.062302,-12.434837,-127.77031,26.64413,0.0,0.0,0.0,0.0,0.0,0.0,0.0,-8.825461,-127.78678,46.3142,0.0,0.0,0.0,0.0,0.0,0.0,0.0,0.6364733,-0.010767394,-0.7713507,-0.9338379,-0.059143066,-0.30187988,0.09277344,0.12988281,0.036132812,3.2113812,13.176972,-0.22291839,-15.969351,1.0084229,-0.10461426,-0.23352051,-0.11621094,0.115234375,0.12207031,2.9785469,12.6838,-57.227337,-15.30346,-0.38232422,0.044067383,0.91522217,0.001953125,0.009765625,0.022460938,3.2701004,10.674411,-129.04039,-10.408997,0.0,0.0,0.0,0.0,0.0,0.0,0.0,19.623562,-129.13913,7.477066,0.0,0.0,0.0,0.0,0.0,0.0,0.0,2.2217727,44.933353,1.2060454,
1.4062499790452423,72,-0.08416748,0.824646,0.4800415,-0.01953125,0.08300781,0.06738281,0.0,0.0,0.0,0.0,0.0,0.0,0.0,0.0,0.0,0.0,0.0,-0.6382512,0.009589436,0.7699087,-0.9641113,0.13354492,0.13494873,-0.060546875,-0.111328125,0.032226562,13.007179,-13.213777,0.19853109,15.939497,0.9175415,-0.21533203,-0.34143066,0.08203125,0.0146484375,0.0390625,11.966702,-7.9601727,-55.907875,24.518263,-0.6452637,0.018798828,0.7655029,0.026367188,0.059570312,0.037109375,15.109709,-12.44412,-127.73907,26.848722,0.0,0.0,0.0,0.0,0.0,0.0,0.0,-8.848229,-127.756996,46.523544,0.0,0.0,0.0,0.0,0.0,0.0,0.0,0.6382512,-0.009589436,-0.7699087,-0.940979,-0.06536865,-0.3215332,-0.099609375,-9.765625E-4,-0.0029296875,3.1880703,13.213777,-0.19853109,-15.939497,0.996521,-0.13635254,-0.21533203,-0.01953125,0.095703125,0.083984375,3.0675225,12.715475,-57.200535,-15.22334,-0.39666748,0.050354004,0.91137695,0.001953125,-0.047851562,-0.015625,3.326902,10.729568,-129.00208,-10.118489,0.0,0.0,0.0,0.0,0.0,0.0,0.0,19.676434,-129.09718,7.7689753,0.0,0.0,0.0,0.0,0.0,0.0,0.0,2.1473212,44.937035,1.2204165,
1.425781228754204,73,-0.08996582,0.7811279,0.48382568,0.01953125,0.08300781,0.10253906,0.0,0.0,0.0,0.0,0.0,0.0,0.0,0.0,0.0,0.0,0.0,-0.6389762,0.009001882,0.76928973,-0.98254395,0.11627197,0.13665771,-0.09765625,-0.07324219,0.013671875,13.07785,-13.228786,0.18636684,15.926683,0.9347534,-0.17980957,-0.3284912,0.043945312,0.015625,0.038085938,12.0679865,-7.9715767,-55.904625,24.605982,-0.6529541,0.032043457,0.7258911,-0.01171875,0.024414062,0.018554688,15.124663,-12.524491,-127.734085,26.950846,0.0,0.0,0.0,0.0,0.0,0.0,0.0,-8.940903,-127.76005,46.626724,0.0,0.0,0.0,0.0,0.0,0.0,0.0,0.6389762,-0.009001882,-0.76928973,-0.92181396,-0.06347656,-0.33337402,-0.15722656,-0.038085938,0.018554688,3.2167413,13.228786,-0.18636684,-15.926683,0.9989624,-0.1373291,-0.18273926,0.038085938,0.13183594,0.044921875,2.9837346,12.682774,-57.184006,-15.104691,-0.39263916,0.06188965,0.9546509,0.020507812,-0.029296875,0.0029296875,3.4385478,10.812357,-128.97757,-9.889999,0.0,0.0,0.0,0.0,0.0,0.0,0.0,19.761066,-129.07355,7.9979057,0.0,0.0,0.0,0.0,0.0,0.0,0.0,2.116385,44.937336,1.232044,
1.4453124784631657,74,-0.092285156,0.8248291,0.47528076,0.13867188,0.1171875,0.045898438,0.0,0.0,0.0,0.0,0.0,0.0,0.0,0.0,0.0,0.0,0.0,-0.63949025,0.008568945,0.7689073,-0.98187256,0.0993042,0.16223145,-0.09863281,-0.15039062,0.05078125,13.073412,-13.239429,0.17740378,15.918766,0.93847656,-0.1897583,-0.33850098,-0.0126953125,0.036132812,0.017578125,12.2153845,-7.9089503,-55.893345,24.690636,-0.65112305,0.026916504,0.7506714,0.044921875,0.0048828125,0.01953125,15.139251,-12.506003,-127.71904,27.029078,0.0,0.0,0.0,0.0,0.0,0.0,0.0,-8.928675,-127.75073,46.70616,0.0,0.0,0.0,0.0,0.0,0.0,0.0,0.63949025,-0.008568945,-0.7689073,-0.9590454,-0.065979004,-0.28125,0.015625,0.15234375,0.078125,3.11571,13.239429,-0.17740378,-15.918766,0.9945679,-0.11340332,-0.22332764,-0.038085938,0.040039062,0.103515625,2.9315796,12.659895,-57.172844,-15.032613,-0.39245605,0.061340332,0.9034424,0.001953125,-0.028320312,0.00390625,3.5641973,10.822178,-128.96774,-9.771967,0.0,0.0,0.0,0.0,0.0,0.0,0.0,19.776777,-129.06113,8.111544,0.0,0.0,0.0,0.0,0.0,0.0,0.0,2.0222578,44.944424,1.1810105,
1.4648437281721274,75,-0.13891602,0.8439331,0.4677124,0.099609375,0.119140625,0.08300781,0.0,0.0,0.0,0.0,0.0,0.0,0.0,0.0,0.0,0.0,0.0,-0.64088285,0.008305215,0.76774186,-0.97772217,0.0869751,0.13909912,-0.07910156,-0.0546875,0.033203125,12.950492,-13.268261,0.17194374,15.894637,0.93304443,-0.16900635,-0.32141113,0.0068359375,0.03515625,0.037109375,12.368994,-7.815565,-55.877182,24.728159,-0.6710205,0.034484863,0.74176025,0.0068359375,0.0234375,0.018554688,15.139147,-12.441038,-127.69607,27.070488,0.0,0.0,0.0,0.0,0.0,0.0,0.0,-8.862126,-127.73189,46.746178,0.0,0.0,0.0,0.0,0.0,0.0,0.0,0.64088285,-0.008305215,-0.76774186,-0.9347534,-0.050354004,-0.29882812,-0.022460938,0.07519531,0.078125,2.8711264,13.268261,-0.17194374,-15.894637,0.9748535,-0.109069824,-0.21307373,-0.038085938,0.05859375,0.103515625,2.9019823,12.623715,-57.167965,-14.950166,-0.40893555,0.04663086,0.90649414,-0.017578125,-0.028320312,0.00390625,3.5704546,10.696041,-128.95927,-9.661453,0.0,0.0,0.0,0.0,0.0,0.0,0.0,19.656775,-129.0483,8.2203865,0.0,0.0,0.0,0.0,0.0,0.0,0.0,1.8555477,44.95429,1.0626404,
1.484374977881089,76,-0.08428955,0.8096924,0.46398926,-0.020507812,0.064453125,0.0859375,0.0,0.0,0.0,0.0,0.0,0.0,0.0,0.0,0.0,0.0,0.0,-0.64213675,0.008205158,0.76677203,-1.0026855,0.06317139,0.1875,-0.1171875,-0.13085938,0.032226562,13.083192,-13.294225,0.16987221,15.874558,0.9416504,-0.18499756,-0.34051514,0.061523438,0.015625,0.0,12.583948,-7.6911707,-55.85324,24.805664,-0.66619873,0.026367188,0.7536621,0.0068359375,0.0234375,0.018554688,15.159205,-12.38105,-127.6796,27.16459,0.0,0.0,0.0,0.0,0.0,0.0,0.0,-8.808905,-127.718254,46.842842,0.0,0.0,0.0,0.0,0.0,0.0,0.0,0.64213675,-0.008205158,-0.76677203,-0.9371948,-0.08312988,-0.3187256,-0.060546875,0.017578125,0.017578125,2.8653934,13.294225,-0.16987221,-15.874558,0.9793701,-0.09313965,-0.18664551,0.018554688,0.13183594,0.026367188,2.834416,12.66977,-57.164253,-14.904053,-0.39868164,0.06915283,0.9389038,0.001953125,-0.009765625,0.00390625,3.5720444,10.880161,-128.95332,-9.622502,0.0,0.0,0.0,0.0,0.0,0.0,0.0,19.823175,-129.0379,8.267631,0.0,0.0,0.0,0.0,0.0,0.0,0.0,1.8251162,44.958576,1.0473545,
1.5039062275900508,77,-0.08416748,0.8366089,0.48114014,-0.01953125,0.083984375,0.0859375,0.0,0.0,0.0,0.0,0.0,0.0,0.0,0.0,0.0,0.0,0.0,-0.64301157,0.007129628,0.7660472,-0.95965576,0.09588623,0.17114258,-0.041992188,-0.16796875,0.0126953125,13.302021,-13.312332,0.14760539,15.859551,0.9239502,-0.16864014,-0.3213501,0.08105469,0.034179688,9.765625E-4,12.832121,-7.5244594,-55.83315,24.92569,-0.65802,0.031066895,0.7437134,-0.01171875,0.024414062,0.0,15.08212,-12.233618,-127.65669,27.281008,0.0,0.0,0.0,0.0,0.0,0.0,0.0,-8.666261,-127.69595,46.95929,0.0,0.0,0.0,0.0,0.0,0.0,0.0,0.64301157,-0.007129628,-0.7660472,-0.9351196,-0.07885742,-0.33343506,0.091796875,0.09082031,0.036132812,2.8123684,13.312332,-0.14760539,-15.859551,1.0114136,-0.1015625,-0.17041016,-0.09765625,0.115234375,0.08496094,2.829508,12.651821,-57.14386,-14.923317,-0.39263916,0.03918457,0.9221802,0.001953125,-0.028320312,-0.015625,3.6974525,11.068128,-128.93771,-9.584257,0.0,0.0,0.0,0.0,0.0,0.0,0.0,19.997963,-129.0216,8.311781,0.0,0.0,0.0,0.0,0.0,0.0,0.0,1.7801005,44.959633,1.075756,
1.5234374772990125,78,-0.097229004,0.80908203,0.47827148,0.05859375,0.06347656,0.1015625,0.0,0.0,0.0,0.0,0.0,0.0,0.0,0.0,0.0,0.0,0.0,-0.6432721,0.006352283,0.76574713,-0.9483032,0.10668945,0.15844727,-0.060546875,-0.111328125,0.013671875,13.457131,-13.317727,0.13151193,15.85334,0.93048096,-0.15325928,-0.31835938,0.026367188,0.034179688,0.056640625,13.032798,-7.4124355,-55.818066,25.021996,-0.64630127,0.012023926,0.74176025,0.0068359375,0.0234375,0.0,15.070002,-12.160244,-127.634995,27.341389,0.0,0.0,0.0,0.0,0.0,0.0,0.0,-8.603432,-127.68475,47.022346,0.0,0.0,0.0,0.0,0.0,0.0,0.0,0.6432721,-0.006352283,-0.76574713,-0.9450073,-0.06732178,-0.31762695,-0.041992188,-0.0029296875,0.037109375,2.809513,13.317727,-0.13151193,-15.85334,1.005249,-0.15344238,-0.21929932,-0.05859375,0.095703125,0.06542969,2.900093,12.655001,-57.127686,-14.920076,-0.43139648,0.07098389,0.9154053,0.001953125,-0.009765625,0.00390625,3.7395785,11.118658,-128.91322,-9.472557,0.0,0.0,0.0,0.0,0.0,0.0,0.0,20.055285,-128.9932,8.419516,0.0,0.0,0.0,0.0,0.0,0.0,0.0,1.7498856,44.95726,1.097061,
1.5429687270079742,79,-0.1005249,0.83496094,0.46661377,0.037109375,0.024414062,0.06542969,0.0,0.0,0.0,0.0,0.0,0.0,0.0,0.0,0.0,0.0,0.0,-0.64304256,0.005862005,0.76594514,-0.9729004,0.09887695,0.17816162,-0.022460938,-0.07324219,0.013671875,13.4519205,-13.312974,0.121361636,15.857439,0.9263916,-0.19030762,-0.31744385,-0.087890625,0.055664062,0.052734375,13.1433115,-7.3359685,-55.8221,25.039623,-0.66796875,0.040222168,0.74768066,0.0068359375,0.005859375,0.018554688,15.13636,-12.1406765,-127.63484,27.341768,0.0,0.0,0.0,0.0,0.0,0.0,0.0,-8.597895,-127.69353,47.024033,0.0,0.0,0.0,0.0,0.0,0.0,0.0,0.64304256,-0.005862005,-0.76594514,-0.9307251,-0.053344727,-0.3008423,-0.17578125,-0.076171875,0.018554688,2.8219573,13.312974,-0.121361636,-15.857439,1.0167236,-0.11767578,-0.20202637,0.076171875,0.13085938,0.044921875,2.8599231,12.671217,-57.114555,-14.8556,-0.3988037,0.05999756,0.95666504,0.001953125,-0.009765625,0.041015625,3.7971523,11.227223,-128.901,-9.349499,0.0,0.0,0.0,0.0,0.0,0.0,0.0,20.156136,-128.97887,8.54705,0.0,0.0,0.0,0.0,0.0,0.0,0.0,1.6954341,44.959827,1.0792961,
1.5624999767169359,80,-0.093811035,0.8265991,0.43652344,0.037109375,0.024414062,0.046875,0.0,0.0,0.0,0.0,0.0,0.0,0.0,0.0,0.0,0.0,0.0,-0.6440258,0.005143149,0.7651391,-0.9678345,0.08831787,0.16607666,-0.060546875,-0.111328125,0.013671875,13.533419,-13.333331,0.10647912,15.840752,0.9387207,-0.18188477,-0.34246826,0.0068359375,0.03515625,0.037109375,13.299616,-7.240501,-55.805927,25.101368,-0.6487427,0.049438477,0.7614746,0.026367188,-0.03125,0.01953125,15.156568,-12.0813465,-127.613815,27.425785,0.0,0.0,0.0,0.0,0.0,0.0,0.0,-8.536895,-127.675804,47.10817,0.0,0.0,0.0,0.0,0.0,0.0,0.0,0.6440258,-0.005143149,-0.7651391,-0.94140625,-0.097595215,-0.32373047,-0.0234375,-0.022460938,0.057617188,2.7881117,13.333331,-0.10647912,-15.840752,1.0269165,-0.07989502,-0.20837402,-9.765625E-4,0.13183594,0.064453125,2.8085375,12.691093,-57.10052,-14.820208,-0.39752197,0.06542969,0.90545654,0.001953125,-0.047851562,-0.015625,3.8835287,11.33587,-128.8932,-9.327437,0.0,0.0,0.0,0.0,0.0,0.0,0.0,20.273201,-128.97374,8.563987,0.0,0.0,0.0,0.0,0.0,0.0,0.0,1.6330101,44.962833,1.072289,
1.5820312264258976,81,-0.08251953,0.8204346,0.44714355,0.037109375,0.0048828125,0.046875,0.0,0.0,0.0,0.0,0.0,0.0,0.0,0.0,0.0,0.0,0.0,-0.6446149,0.004936019,0.7646642,-0.98321533,0.08917236,0.18792725,-0.041992188,-0.07324219,0.051757812,13.566608,-13.345526,0.10219089,15.830919,0.9221802,-0.19500732,-0.32244873,0.025390625,0.03515625,0.037109375,13.426838,-7.1527634,-55.797455,25.119198,-0.6660156,0.036193848,0.75164795,0.0068359375,-0.0126953125,0.0,15.192134,-12.042721,-127.614624,27.448631,0.0,0.0,0.0,0.0,0.0,0.0,0.0,-8.509651,-127.68083,47.132633,0.0,0.0,0.0,0.0,0.0,0.0,0.0,0.6446149,-0.004936019,-0.7646642,-0.9199829,-0.074645996,-0.31671143,-0.00390625,-0.08203125,0.037109375,2.756408,13.345526,-0.10219089,-15.830919,1.0126343,-0.10760498,-0.21386719,-0.17382812,0.060546875,0.10546875,2.8293698,12.721273,-57.100075,-14.802501,-0.3986206,0.058410645,0.9104004,-0.016601562,-0.009765625,0.022460938,3.8433864,11.342458,-128.88821,-9.288704,0.0,0.0,0.0,0.0,0.0,0.0,0.0,20.279797,-128.96533,8.60478,0.0,0.0,0.0,0.0,0.0,0.0,0.0,1.5928627,44.965427,1.0525311,
1.6015624761348592,82,-0.08117676,0.8265381,0.47399902,0.07714844,0.0234375,0.064453125,0.0,0.0,0.0,0.0,0.0,0.0,0.0,0.0,0.0,0.0,0.0,-0.64445007,0.004331025,0.7647834,-0.9748535,0.10095215,0.17419434,0.034179688,-0.1484375,0.0126953125,13.669678,-13.3421135,0.089665666,15.833387,0.9579468,-0.18371582,-0.32867432,0.025390625,0.053710938,0.018554688,13.6138,-7.0034547,-55.786007,25.180733,-0.6602783,0.020263672,0.7605591,0.0068359375,-0.0126953125,0.018554688,15.189892,-11.933353,-127.59239,27.498737,0.0,0.0,0.0,0.0,0.0,0.0,0.0,-8.397588,-127.65974,47.180958,0.0,0.0,0.0,0.0,0.0,0.0,0.0,0.64445007,-0.004331025,-0.7647834,-0.9302368,-0.08959961,-0.2991333,-0.080078125,-9.765625E-4,0.038085938,2.737596,13.3421135,-0.089665666,-15.833387,1.0223389,-0.12176514,-0.22680664,-0.09667969,0.115234375,0.103515625,2.9169862,12.761819,-57.083622,-14.817825,-0.38842773,0.042297363,0.89849854,0.0029296875,0.009765625,0.00390625,3.8363485,11.435697,-128.86485,-9.2048645,0.0,0.0,0.0,0.0,0.0,0.0,0.0,20.375778,-128.94493,8.687435,0.0,0.0,0.0,0.0,0.0,0.0,0.0,1.5491227,44.96619,1.050732,
1.621093725843821,83,-0.09246826,0.8416748,0.46746826,0.037109375,0.005859375,0.06542969,0.0,0.0,0.0,0.0,0.0,0.0,0.0,0.0,0.0,0.0,0.0,-0.64457715,0.0040130285,0.7647111,-0.9413452,0.09863281,0.16625977,0.0146484375,-0.091796875,0.013671875,13.737102,-13.344746,0.08308214,15.831892,0.9379883,-0.17315674,-0.3204956,-0.068359375,0.07421875,0.053710938,13.778946,-6.8810635,-55.770676,25.22923,-0.66326904,0.020446777,0.74176025,-0.01171875,0.005859375,0.0,15.156449,-11.83592,-127.58463,27.51271,0.0,0.0,0.0,0.0,0.0,0.0,0.0,-8.291357,-127.657936,47.194016,0.0,0.0,0.0,0.0,0.0,0.0,0.0,0.64457715,-0.0040130285,-0.7647111,-0.9371948,-0.008911133,-0.31134033,0.034179688,-0.0048828125,0.037109375,2.7260597,13.344746,-0.08308214,-15.831892,1.020935,-0.10870361,-0.19226074,0.018554688,0.11328125,0.064453125,2.9102676,12.809775,-57.0784,-14.801517,-0.3883667,0.06616211,0.91625977,0.001953125,-0.028320312,0.00390625,3.9087594,11.583892,-128.85287,-9.165823,0.0,0.0,0.0,0.0,0.0,0.0,0.0,20.523497,-128.92969,8.725147,0.0,0.0,0.0,0.0,0.0,0.0,0.0,1.5057368,44.96921,1.0332017,
1.6406249755527826,84,-0.07952881,0.8183594,0.44799805,0.017578125,0.025390625,0.083984375,0.0,0.0,0.0,0.0,0.0,0.0,0.0,0.0,0.0,0.0,0.0,-0.64454603,0.0038318676,0.76478046,-0.98028564,0.09466553,0.20495605,-0.022460938,-0.015625,-0.0048828125,13.765879,-13.344097,0.079331525,15.833325,0.9281616,-0.20220947,-0.30755615,-0.06933594,0.036132812,0.053710938,13.856376,-6.807432,-55.760944,25.243217,-0.64367676,0.046447754,0.7357178,-0.01171875,-0.047851562,0.01953125,15.172782,-11.761239,-127.56181,27.506794,0.0,0.0,0.0,0.0,0.0,0.0,0.0,-8.216368,-127.63721,47.18773,0.0,0.0,0.0,0.0,0.0,0.0,0.0,0.64454603,-0.0038318676,-0.76478046,-0.9447632,-0.047546387,-0.24676514,0.03515625,0.034179688,0.016601562,2.7133205,13.344097,-0.079331525,-15.833325,1.0050049,-0.10247803,-0.19494629,-9.765625E-4,0.13183594,0.064453125,2.9030616,12.83366,-57.07501,-14.802649,-0.3852539,0.06713867,0.9113159,-0.016601562,0.009765625,0.00390625,3.9179165,11.686832,-128.85495,-9.161054,0.0,0.0,0.0,0.0,0.0,0.0,0.0,20.62277,-128.92278,8.731614,0.0,0.0,0.0,0.0,0.0,0.0,0.0,1.4821208,44.971664,1.0237834,
1.6601562252617443,85,-0.076416016,0.82629395,0.4539795,0.056640625,0.005859375,0.1015625,0.0,0.0,0.0,0.0,0.0,0.0,0.0,0.0,0.0,0.0,0.0,-0.645364,0.0026676473,0.7640879,-0.9771118,0.103515625,0.19818115,-0.00390625,-0.072265625,-0.005859375,13.843965,-13.3610325,0.055228557,15.818989,0.9089966,-0.19946289,-0.30639648,-0.030273438,0.0546875,0.0546875,13.941225,-6.756707,-55.766914,25.275166,-0.6630249,0.039916992,0.78125,0.026367188,-0.013671875,-0.018554688,15.179044,-11.719594,-127.5743,27.549852,0.0,0.0,0.0,0.0,0.0,0.0,0.0,-8.186515,-127.65264,47.23129,0.0,0.0,0.0,0.0,0.0,0.0,0.0,0.645364,-0.0026676473,-0.7640879,-0.93499756,-0.06866455,-0.31079102,-0.061523438,-0.060546875,0.017578125,2.7612329,13.3610325,-0.055228557,-15.818989,0.9893799,-0.08929443,-0.18188477,-0.13671875,0.13378906,0.06640625,2.921479,12.888923,-57.04981,-14.76391,-0.4078369,0.0635376,0.9163208,0.001953125,-0.028320312,0.022460938,3.9927254,11.846879,-128.82837,-9.051462,0.0,0.0,0.0,0.0,0.0,0.0,0.0,20.786438,-128.8939,8.839331,0.0,0.0,0.0,0.0,0.0,0.0,0.0,1.4368544,44.97212,1.0565858,
1.679687474970706,86,-0.070251465,0.8222046,0.46374512,0.05859375,0.0625,0.083984375,0.0,0.0,0.0,0.0,0.0,0.0,0.0,0.0,0.0,0.0,0.0,-0.6459425,9.1024814E-4,0.76350945,-0.973938,0.109436035,0.18927002,-0.060546875,-0.07324219,0.013671875,13.943152,-13.373013,0.018844973,15.807013,0.91522217,-0.1918335,-0.3133545,-0.03125,0.03515625,0.036132812,14.035628,-6.7030573,-55.78841,25.337324,-0.65966797,0.053771973,0.74560547,-0.01171875,-0.01171875,0.018554688,15.206462,-11.678583,-127.59741,27.636574,0.0,0.0,0.0,0.0,0.0,0.0,0.0,-8.153774,-127.672325,47.32068,0.0,0.0,0.0,0.0,0.0,0.0,0.0,0.6459425,-9.1024814E-4,-0.76350945,-0.94677734,-0.0513916,-0.3283081,0.034179688,-0.0048828125,0.037109375,2.7712104,13.373013,-0.018844973,-15.807013,1.0029907,-0.13641357,-0.18188477,-0.0390625,0.11425781,0.10253906,2.9543946,12.869431,-57.013527,-14.74262,-0.4006958,0.052490234,0.90838623,0.001953125,-0.028320312,0.00390625,4.0290995,11.926388,-128.78868,-8.941968,0.0,0.0,0.0,0.0,0.0,0.0,0.0,20.862968,-128.8462,8.951402,0.0,0.0,0.0,0.0,0.0,0.0,0.0,1.3709882,44.969765,1.1062679,
1.6992187246796677,87,-0.076538086,0.8082886,0.4389038,0.05859375,0.06347656,0.1015625,0.0,0.0,0.0,0.0,0.0,0.0,0.0,0.0,0.0,0.0,0.0,-0.6472859,-8.956231E-4,0.76240784,-0.9678955,0.11114502,0.19732666,-0.060546875,-0.16796875,0.0126953125,14.076364,-13.400825,-0.018542174,15.784207,0.92626953,-0.19720459,-0.30651855,0.005859375,0.07324219,0.017578125,14.180665,-6.6056647,-55.793842,25.405064,-0.6680298,0.032409668,0.73876953,0.0068359375,0.005859375,0.0,15.175326,-11.591763,-127.59871,27.748064,0.0,0.0,0.0,0.0,0.0,0.0,0.0,-8.06827,-127.67579,47.43357,0.0,0.0,0.0,0.0,0.0,0.0,0.0,0.6472859,8.956231E-4,-0.76240784,-0.95184326,-0.05328369,-0.24578857,-0.061523438,-0.001953125,0.017578125,2.8312373,13.400825,0.018542174,-15.784207,0.99713135,-0.117370605,-0.18383789,0.018554688,0.076171875,0.045898438,2.9759827,12.976224,-56.9747,-14.696188,-0.3843994,0.045043945,0.920166,0.001953125,-0.028320312,0.00390625,4.142079,12.122859,-128.74243,-8.840134,0.0,0.0,0.0,0.0,0.0,0.0,0.0,21.06623,-128.79604,9.049273,0.0,0.0,0.0,0.0,0.0,0.0,0.0,1.2908669,44.97234,1.1487792,
1.7187499743886294,88,-0.084350586,0.80566406,0.4569702,-9.765625E-4,0.044921875,0.103515625,0.0,0.0,0.0,0.0,0.0,0.0,0.0,0.0,0.0,0.0,0.0,-0.64778686,-0.0021037636,0.7620331,-0.9678955,0.11981201,0.20544434,-0.060546875,-0.07324219,0.033203125,14.239679,-13.411199,-0.043554414,15.776447,0.9350586,-0.20739746,-0.30664062,0.0068359375,0.03515625,0.037109375,14.286461,-6.5134034,-55.792496,25.489676,-0.6326294,0.046081543,0.73669434,0.0068359375,-0.0126953125,0.0,15.139762,-11.467849,-127.587425,27.863361,0.0,0.0,0.0,0.0,0.0,0.0,0.0,-7.950412,-127.66306,47.54991,0.0,0.0,0.0,0.0,0.0,0.0,0.0,0.64778686,0.0021037636,-0.7620331,-0.947876,-0.05493164,-0.3027954,-0.13769531,-0.078125,0.05859375,2.9494872,13.411199,0.043554414,-15.776447,1.0072021,-0.10852051,-0.18017578,0.038085938,0.09472656,0.064453125,2.8911695,12.992714,-56.94478,-14.604023,-0.3842163,0.054260254,0.89556885,0.001953125,-0.009765625,0.022460938,4.1903086,12.191057,-128.71622,-8.738825,0.0,0.0,0.0,0.0,0.0,0.0,0.0,21.121222,-128.7618,9.157433,0.0,0.0,0.0,0.0,0.0,0.0,0.0,1.2606766,44.973797,1.1958326,
1.7382812240975911,89,-0.09234619,0.836792,0.47540283,0.057617188,0.04296875,0.06542969,0.0,0.0,0.0,0.0,0.0,0.0,0.0,0.0,0.0,0.0,0.0,-0.647547,-0.0027831746,0.76225066,-0.98864746,0.09051514,0.2288208,-0.022460938,-0.111328125,0.013671875,14.4215975,-13.406231,-0.057620365,15.780951,0.96325684,-0.17816162,-0.30578613,0.04296875,0.053710938,-9.765625E-4,14.474338,-6.35598,-55.756985,25.62285,-0.65875244,0.05078125,0.7545166,0.0068359375,0.0048828125,-0.018554688,15.028966,-11.300909,-127.56271,28.02106,0.0,0.0,0.0,0.0,0.0,0.0,0.0,-7.7805433,-127.632355,47.70568,0.0,0.0,0.0,0.0,0.0,0.0,0.0,0.647547,0.0027831746,-0.76225066,-0.9481201,-0.07550049,-0.2999878,-0.061523438,-0.021484375,0.07910156,3.0051122,13.406231,0.057620365,-15.780951,0.9996338,-0.08441162,-0.16833496,-0.05859375,0.11425781,0.10253906,2.8309605,13.020112,-56.93565,-14.552567,-0.38946533,0.049194336,0.91430664,0.001953125,-0.009765625,-0.015625,4.3254485,12.383175,-128.70271,-8.667747,0.0,0.0,0.0,0.0,0.0,0.0,0.0,21.317171,-128.7437,9.226178,0.0,0.0,0.0,0.0,0.0,0.0,0.0,1.2240274,44.975136,1.2040515,
1.7578124738065528,90,-0.07366943,0.8360596,0.43804932,0.07714844,0.04296875,0.1015625,0.0,0.0,0.0,0.0,0.0,0.0,0.0,0.0,0.0,0.0,0.0,-0.6480818,-0.0035428833,0.7616818,-0.9651489,0.07409668,0.199646,-0.022460938,-0.111328125,0.013671875,14.554623,-13.417302,-0.073348686,15.769175,0.95977783,-0.19470215,-0.3008423,-0.013671875,0.0546875,-0.001953125,14.644262,-6.2027416,-55.73945,25.705383,-0.6489258,0.036621094,0.7575073,0.0068359375,0.0234375,0.0,14.985257,-11.118656,-127.55105,28.11169,0.0,0.0,0.0,0.0,0.0,0.0,0.0,-7.6136847,-127.61458,47.800022,0.0,0.0,0.0,0.0,0.0,0.0,0.0,0.6480818,0.0035428833,-0.7616818,-0.97473145,-0.038879395,-0.29675293,-0.08105469,-0.059570312,0.12011719,3.0815306,13.417302,0.073348686,-15.769175,1.022644,-0.13769531,-0.19604492,0.01953125,0.057617188,0.06542969,2.7924612,13.038265,-56.915337,-14.430436,-0.37200928,0.055847168,0.913208,0.021484375,-0.009765625,0.0029296875,4.4086003,12.416206,-128.6694,-8.455475,0.0,0.0,0.0,0.0,0.0,0.0,0.0,21.362457,-128.70505,9.433056,0.0,0.0,0.0,0.0,0.0,0.0,0.0,1.1671202,44.97289,1.2022384,
1.7773437235155145,91,-0.10675049,0.8340454,0.45483398,0.057617188,0.043945312,0.083984375,0.0,0.0,0.0,0.0,0.0,0.0,0.0,0.0,0.0,0.0,0.0,-0.6487195,-0.004613105,0.76110893,-0.9651489,0.07989502,0.20178223,-0.041992188,-0.07324219,0.033203125,14.601758,-13.430506,-0.09550558,15.757315,0.9356079,-0.18475342,-0.3284912,0.025390625,0.053710938,0.037109375,14.785913,-6.0799513,-55.73376,25.752645,-0.65008545,0.026916504,0.73779297,-0.01171875,-0.01171875,0.0,14.996334,-10.976227,-127.53845,28.147495,0.0,0.0,0.0,0.0,0.0,0.0,0.0,-7.4829535,-127.604095,47.837814,0.0,0.0,0.0,0.0,0.0,0.0,0.0,0.6487195,0.004613105,-0.76110893,-0.9281006,-0.07775879,-0.26464844,-0.13867188,-0.17578125,0.05859375,3.1670609,13.430506,0.09550558,-15.757315,0.9817505,-0.13909912,-0.203125,0.15429688,0.09277344,0.043945312,2.7874796,13.239076,-56.895943,-14.336654,-0.3852539,0.057250977,0.8994751,9.765625E-4,-0.047851562,0.00390625,4.5473456,12.66613,-128.65538,-8.304253,0.0,0.0,0.0,0.0,0.0,0.0,0.0,21.620796,-128.69368,9.579153,0.0,0.0,0.0,0.0,0.0,0.0,0.0,1.0741457,44.974754,1.188125,
1.7968749732244762,92,-0.09283447,0.8007202,0.42834473,0.018554688,0.043945312,0.06640625,0.0,0.0,0.0,0.0,0.0,0.0,0.0,0.0,0.0,0.0,0.0,-0.64868236,-0.0040204497,0.76126504,-0.961853,0.086120605,0.17700195,-0.022460938,-0.091796875,0.032226562,14.654376,-13.429736,-0.083235785,15.760546,0.9326782,-0.18273926,-0.3204956,-0.0126953125,0.0546875,0.036132812,14.965129,-5.9482794,-55.691624,25.826912,-0.6717529,0.052124023,0.75354004,-0.01171875,0.024414062,0.0,14.994962,-10.878996,-127.48677,28.210995,0.0,0.0,0.0,0.0,0.0,0.0,0.0,-7.394038,-127.55692,47.903164,0.0,0.0,0.0,0.0,0.0,0.0,0.0,0.64868236,0.0040204497,-0.76126504,-0.9463501,-0.09423828,-0.29718018,-0.080078125,-0.07910156,0.038085938,3.1650205,13.429736,0.083235785,-15.760546,1.0131226,-0.09265137,-0.19226074,-9.765625E-4,0.11328125,0.064453125,2.7272801,13.339399,-56.908173,-14.288586,-0.36895752,0.052856445,0.9102783,0.001953125,-0.009765625,-0.015625,4.659301,12.9001045,-128.66913,-8.266328,0.0,0.0,0.0,0.0,0.0,0.0,0.0,21.849798,-128.70828,9.620379,0.0,0.0,0.0,0.0,0.0,0.0,0.0,1.0428095,44.981236,1.1261477,
1.816406222933438,93,-0.1026001,0.8150635,0.4555664,0.017578125,0.005859375,0.06542969,0.0,0.0,0.0,0.0,0.0,0.0,0.0,0.0,0.0,0.0,0.0,-0.64763874,-0.0035039755,0.76218647,-0.9490967,0.07171631,0.21356201,-0.022460938,-0.015625,0.033203125,14.683802,-13.40813,-0.07254314,15.779622,0.97143555,-0.17456055,-0.30688477,0.0068359375,0.03515625,0.037109375,15.077802,-5.832118,-55.660282,25.893105,-0.6359253,0.03717041,0.7713623,0.0068359375,0.005859375,0.0,14.971066,-10.768848,-127.464355,28.272943,0.0,0.0,0.0,0.0,0.0,0.0,0.0,-7.2903476,-127.53179,47.965027,0.0,0.0,0.0,0.0,0.0,0.0,0.0,0.64763874,0.0035039755,-0.76218647,-0.9439087,-0.059448242,-0.2802124,0.12988281,0.03125,0.09667969,3.1261854,13.40813,0.07254314,-15.779622,1.0067749,-0.117492676,-0.20184326,-0.21289062,0.13574219,0.123046875,2.6870055,13.339171,-56.914707,-14.282366,-0.36993408,0.052856445,0.9102783,-0.017578125,-0.046875,-0.015625,4.567203,12.991619,-128.67284,-8.266779,0.0,0.0,0.0,0.0,0.0,0.0,0.0,21.933805,-128.7076,9.623964,0.0,0.0,0.0,0.0,0.0,0.0,0.0,1.021584,44.984028,1.0748553,
1.8359374726423996,94,-0.106933594,0.8389282,0.44195557,0.037109375,0.005859375,0.06542969,0.0,0.0,0.0,0.0,0.0,0.0,0.0,0.0,0.0,0.0,0.0,-0.64699364,-0.0030696979,0.7626406,-0.98883057,0.07476807,0.23846436,0.015625,-0.03515625,0.013671875,14.671699,-13.394774,-0.06355227,15.789025,0.96624756,-0.18121338,-0.296875,-0.087890625,0.055664062,0.034179688,15.171672,-5.7229776,-55.63464,25.912514,-0.64160156,0.05029297,0.7416382,0.026367188,0.0048828125,0.0,14.89716,-10.642488,-127.43425,28.252916,0.0,0.0,0.0,0.0,0.0,0.0,0.0,-7.16724,-127.504295,47.944542,0.0,0.0,0.0,0.0,0.0,0.0,0.0,0.64699364,0.0030696979,-0.7626406,-0.9630127,-0.06359863,-0.29595947,-0.00390625,-0.0234375,0.078125,3.1113086,13.394774,0.06355227,-15.789025,0.97961426,-0.099121094,-0.16583252,-0.15527344,0.11621094,0.10449219,2.6966043,13.359071,-56.923286,-14.234396,-0.3821411,0.081970215,0.920166,0.001953125,-0.028320312,-0.015625,4.540664,13.103714,-128.67007,-8.124784,0.0,0.0,0.0,0.0,0.0,0.0,0.0,22.038809,-128.69586,9.769089,0.0,0.0,0.0,0.0,0.0,0.0,0.0,0.98853,44.98278,1.0196888,
1.8554687223513613,95,-0.09661865,0.83776855,0.45758057,-0.0234375,-0.05078125,0.06640625,0.0,0.0,0.0,0.0,0.0,0.0,0.0,0.0,0.0,0.0,0.0,-0.6467503,-0.0029711444,0.7629449,-0.97839355,0.07421875,0.20465088,0.09082031,-0.091796875,0.013671875,14.729418,-13.389736,-0.061511897,15.795324,0.9522705,-0.1697998,-0.31762695,-0.048828125,0.03515625,0.07324219,15.321509,-5.586587,-55.60013,25.984192,-0.6532593,0.021972656,0.76348877,0.0068359375,0.0234375,0.018554688,14.849023,-10.485132,-127.41057,28.293964,0.0,0.0,0.0,0.0,0.0,0.0,0.0,-7.009483,-127.48188,47.986717,0.0,0.0,0.0,0.0,0.0,0.0,0.0,0.6467503,0.0029711444,-0.7629449,-0.9451294,-0.075805664,-0.29016113,-0.099609375,-0.09863281,0.07910156,3.123617,13.389736,0.061511897,-15.795324,1.0179443,-0.13360596,-0.1831665,-0.07714844,0.059570312,0.06640625,2.6980557,13.393384,-56.920937,-14.164154,-0.38049316,0.022888184,0.9290161,0.001953125,-0.028320312,0.022460938,4.58817,13.128434,-128.66318,-7.969769,0.0,0.0,0.0,0.0,0.0,0.0,0.0,22.063778,-128.68677,9.92532,0.0,0.0,0.0,0.0,0.0,0.0,0.0,0.94403446,44.988068,0.97545785,
1.874999972060323,96,-0.08074951,0.85614014,0.44335938,-0.04296875,-0.05078125,0.048828125,0.0,0.0,0.0,0.0,0.0,0.0,0.0,0.0,0.0,0.0,0.0,-0.64679164,-0.003471218,0.7628794,-0.96221924,0.094055176,0.22888184,0.09082031,-0.091796875,0.013671875,14.743554,-13.390593,-0.07186497,15.793968,0.9501343,-0.17767334,-0.28674316,-0.05078125,0.036132812,0.03515625,15.39084,-5.4938774,-55.597363,25.993687,-0.6538086,0.043762207,0.7496338,0.0068359375,0.0234375,0.018554688,14.791746,-10.3659935,-127.41052,28.29863,0.0,0.0,0.0,0.0,0.0,0.0,0.0,-6.903125,-127.47897,47.994587,0.0,0.0,0.0,0.0,0.0,0.0,0.0,0.64679164,0.003471218,-0.7628794,-0.946167,-0.07678223,-0.29119873,0.053710938,0.0146484375,0.056640625,3.120168,13.390593,0.07186497,-15.793968,1.0106812,-0.10961914,-0.21179199,-0.05859375,0.095703125,0.083984375,2.7181497,13.46536,-56.913284,-14.151745,-0.40057373,0.08135986,0.9182129,0.001953125,-0.009765625,0.022460938,4.601471,13.184187,-128.65536,-7.9443493,0.0,0.0,0.0,0.0,0.0,0.0,0.0,22.126526,-128.67273,9.9463215,0.0,0.0,0.0,0.0,0.0,0.0,0.0,0.89292765,44.98843,0.9617546,
1.8945312217692847,97,-0.08758545,0.8175659,0.44525146,0.055664062,-0.0146484375,0.028320312,0.0,0.0,0.0,0.0,0.0,0.0,0.0,0.0,0.0,0.0,0.0,-0.6464963,-0.0033701006,0.76311177,-0.9747925,0.07714844,0.2584839,0.12792969,-0.12890625,-0.025390625,14.86004,-13.384476,-0.069771536,15.7987795,0.9446411,-0.19213867,-0.29870605,-0.0703125,-0.001953125,0.015625,15.548108,-5.332245,-55.55553,26.084766,-0.6611328,0.025268555,0.7437134,-0.01171875,0.041992188,0.017578125,14.75359,-10.180107,-127.35983,28.410603,0.0,0.0,0.0,0.0,0.0,0.0,0.0,-6.723164,-127.43183,48.107018,0.0,0.0,0.0,0.0,0.0,0.0,0.0,0.6464963,0.0033701006,-0.76311177,-0.9367676,-0.05279541,-0.27819824,0.034179688,0.034179688,0.09765625,3.1290646,13.384476,0.069771536,-15.7987795,1.0188599,-0.12567139,-0.19012451,-0.0390625,0.11425781,0.06542969,2.6414542,13.491576,-56.913418,-14.106338,-0.3843994,0.044067383,0.91918945,-0.016601562,0.009765625,0.022460938,4.6492414,13.279264,-128.65768,-7.9290366,0.0,0.0,0.0,0.0,0.0,0.0,0.0,22.226612,-128.67427,9.959993,0.0,0.0,0.0,0.0,0.0,0.0,0.0,0.8643023,44.98901,0.9309065,
1.9140624714782464,98,-0.09100342,0.8413696,0.42260742,-0.005859375,-0.08984375,0.0107421875,0.0,0.0,0.0,0.0,0.0,0.0,0.0,0.0,0.0,0.0,0.0,-0.6460962,-0.003596038,0.763429,-0.9558716,0.109802246,0.21221924,0.109375,-0.16699219,-0.0068359375,15.042353,-13.376195,-0.07444913,15.8053465,0.93981934,-0.18408203,-0.30358887,-0.032226562,0.036132812,0.016601562,15.774583,-5.123826,-55.507496,26.22609,-0.66186523,0.043029785,0.7456665,-0.01171875,0.024414062,0.0,14.685634,-9.967564,-127.31859,28.592638,0.0,0.0,0.0,0.0,0.0,0.0,0.0,-6.497719,-127.3947,48.286507,0.0,0.0,0.0,0.0,0.0,0.0,0.0,0.6460962,0.003596038,-0.763429,-0.9649658,-0.055603027,-0.3008423,-0.0234375,-0.022460938,0.057617188,3.1305034,13.376195,0.07444913,-15.8053465,1.0109863,-0.113586426,-0.19207764,-0.05859375,0.11425781,0.06542969,2.5790644,13.49225,-56.90496,-14.065227,-0.38946533,0.051208496,0.91326904,0.0029296875,0.009765625,0.00390625,4.689891,13.376622,-128.64407,-7.8877983,0.0,0.0,0.0,0.0,0.0,0.0,0.0,22.328457,-128.65652,9.996607,0.0,0.0,0.0,0.0,0.0,0.0,0.0,0.8230394,44.989536,0.9084626,
1.933593721187208,99,-0.068481445,0.8101196,0.44067383,-0.06347656,-0.05078125,0.0126953125,0.0,0.0,0.0,0.0,0.0,0.0,0.0,0.0,0.0,0.0,0.0,-0.6458434,-0.0041475445,0.76361954,-0.93548584,0.11920166,0.21142578,0.034179688,-0.03515625,0.033203125,15.093743,-13.370961,-0.085867025,15.809292,0.9337158,-0.18383789,-0.29656982,-0.03125,0.07421875,0.03515625,15.86132,-5.0429983,-55.492794,26.27989,-0.67993164,0.04260254,0.7456665,0.0068359375,0.0234375,0.018554688,14.584151,-9.887438,-127.30658,28.66299,0.0,0.0,0.0,0.0,0.0,0.0,0.0,-6.4014378,-127.3842,48.354774,0.0,0.0,0.0,0.0,0.0,0.0,0.0,0.6458434,0.0041475445,-0.76361954,-0.9227905,-0.058654785,-0.28808594,0.034179688,-0.043945312,0.07714844,3.127813,13.370961,0.085867025,-15.809292,1.0228882,-0.113708496,-0.19226074,-0.1171875,0.13378906,0.06542969,2.603087,13.528279,-56.891552,-14.06084,-0.40679932,0.074401855,0.9232178,0.001953125,-0.009765625,-0.015625,4.649494,13.411726,-128.63593,-7.855385,0.0,0.0,0.0,0.0,0.0,0.0,0.0,22.363525,-128.64104,10.029959,0.0,0.0,0.0,0.0,0.0,0.0,0.0,0.7797921,44.989693,0.9038798,
1.9531249708961698,100,-0.06958008,0.8319702,0.43695068,-0.043945312,-0.0703125,0.01171875,0.0,0.0,0.0,0.0,0.0,0.0,0.0,0.0,0.0,0.0,0.0,-0.6453383,-0.0051718885,0.7640848,-0.9572754,0.09277344,0.23980713,0.0146484375,-0.07324219,0.032226562,15.171933,-13.360504,-0.10707412,15.818925,0.9499512,-0.1795044,-0.32659912,-0.03125,0.03515625,0.0546875,15.95366,-4.9656878,-55.498764,26.346092,-0.65197754,0.030944824,0.7338257,0.0068359375,0.0234375,0.0,14.575915,-9.806528,-127.31769,28.715801,0.0,0.0,0.0,0.0,0.0,0.0,0.0,-6.32796,-127.40396,48.40922,0.0,0.0,0.0,0.0,0.0,0.0,0.0,0.6453383,0.0051718885,-0.7640848,-0.9289551,-0.06750488,-0.28131104,0.053710938,0.033203125,0.07714844,3.1401813,13.360504,0.10707412,-15.818925,0.9957886,-0.10131836,-0.14837646,-0.1171875,0.115234375,0.046875,2.5883822,13.574143,-56.872883,-14.089006,-0.3638916,0.04864502,0.92303467,0.0029296875,0.009765625,0.00390625,4.628847,13.618768,-128.61722,-7.903222,0.0,0.0,0.0,0.0,0.0,0.0,0.0,22.560337,-128.61891,9.98846,0.0,0.0,0.0,0.0,0.0,0.0,0.0,0.73805106,44.991444,0.92788565,
1.9726562206051315,101,-0.09887695,0.86260986,0.44787598,0.015625,-0.051757812,0.046875,0.0,0.0,0.0,0.0,0.0,0.0,0.0,0.0,0.0,0.0,0.0,-0.6452428,-0.005470426,0.7641809,-0.9713135,0.08178711,0.21270752,0.034179688,-0.09277344,0.051757812,15.263565,-13.358526,-0.11325477,15.820913,0.9595337,-0.20251465,-0.30285645,-0.051757812,-0.059570312,0.036132812,16.102098,-4.856599,-55.471104,26.440708,-0.6553955,0.066467285,0.7416382,0.0068359375,0.0234375,0.0,14.555193,-9.700813,-127.29097,28.808897,0.0,0.0,0.0,0.0,0.0,0.0,0.0,-6.2240634,-127.378944,48.501118,0.0,0.0,0.0,0.0,0.0,0.0,0.0,0.6452428,0.005470426,-0.7641809,-0.9277954,-0.056030273,-0.2713623,0.015625,0.07421875,0.057617188,3.123366,13.358526,0.11325477,-15.820913,0.9961548,-0.09729004,-0.12866211,-0.1171875,0.115234375,0.06640625,2.5752666,13.617887,-56.869026,-14.08204,-0.38012695,0.06506348,0.9053955,-0.016601562,-0.0087890625,-0.015625,4.588426,13.798021,-128.61234,-7.8844466,0.0,0.0,0.0,0.0,0.0,0.0,0.0,22.731094,-128.60353,10.010126,0.0,0.0,0.0,0.0,0.0,0.0,0.0,0.69545835,44.993107,0.9093017,
1.9921874703140932,102,-0.0871582,0.8451538,0.4116211,-0.0048828125,-0.08984375,0.029296875,0.0,0.0,0.0,0.0,0.0,0.0,0.0,0.0,0.0,0.0,0.0,-0.64514637,-0.006074167,0.76412916,-0.9612427,0.09106445,0.2288208,0.109375,-0.053710938,0.033203125,15.330593,-13.35653,-0.12575409,15.819843,0.93463135,-0.18676758,-0.31256104,0.005859375,0.015625,0.037109375,16.226696,-4.746434,-55.456867,26.486696,-0.6641846,0.022460938,0.7407837,-0.01171875,0.041992188,-9.765625E-4,14.544468,-9.595607,-127.26488,28.850666,0.0,0.0,0.0,0.0,0.0,0.0,0.0,-6.1172004,-127.35615,48.543037,0.0,0.0,0.0,0.0,0.0,0.0,0.0,0.64514637,0.006074167,-0.76412916,-0.967041,-0.06274414,-0.28808594,0.12988281,0.0703125,0.055664062,3.0940835,13.35653,0.12575409,-15.819843,1.0071411,-0.1404419,-0.16711426,-0.15527344,0.11621094,0.08496094,2.6226392,13.642947,-56.853165,-14.094793,-0.39666748,0.06707764,0.9428711,0.0029296875,0.047851562,0.00390625,4.54088,13.888839,-128.59195,-7.847885,0.0,0.0,0.0,0.0,0.0,0.0,0.0,22.81871,-128.58084,10.047663,0.0,0.0,0.0,0.0,0.0,0.0,0.0,0.6485826,44.989464,0.9052191,
2.011718720023055,103,-0.06652832,0.84381104,0.44293213,-0.064453125,-0.087890625,0.048828125,0.0,0.0,0.0,0.0,0.0,0.0,0.0,0.0,0.0,0.0,0.0,-0.6454704,-0.0068685426,0.7638447,-0.96240234,0.09082031,0.24475098,0.09082031,-0.09082031,-0.005859375,15.410925,-13.363241,-0.14220013,15.813954,0.960022,-0.1828003,-0.3267212,-0.03125,0.016601562,0.0546875,16.375378,-4.619088,-55.44459,26.522705,-0.6741333,0.031555176,0.74768066,0.0068359375,0.0234375,-0.018554688,14.557681,-9.461514,-127.261795,28.85294,0.0,0.0,0.0,0.0,0.0,0.0,0.0,-5.991133,-127.35963,48.54683,0.0,0.0,0.0,0.0,0.0,0.0,0.0,0.6454704,0.0068685426,-0.7638447,-0.9751587,-0.06964111,-0.28027344,0.072265625,0.013671875,0.056640625,3.0758712,13.363241,0.14220013,-15.813954,1.0155029,-0.12554932,-0.15057373,-0.05859375,0.11425781,0.06542969,2.705301,13.71688,-56.83708,-14.111148,-0.4017334,0.07128906,0.9300537,0.001953125,-0.009765625,0.00390625,4.668918,14.093771,-128.56407,-7.7796383,0.0,0.0,0.0,0.0,0.0,0.0,0.0,23.027538,-128.55582,10.114317,0.0,0.0,0.0,0.0,0.0,0.0,0.0,0.5952047,44.99002,0.907518,
2.0312499697320168,104,-0.07751465,0.85809326,0.4562378,-0.044921875,-0.08886719,0.047851562,0.0,0.0,0.0,0.0,0.0,0.0,0.0,0.0,0.0,0.0,0.0,-0.64505905,-0.007365889,0.7642801,-0.9389038,0.078308105,0.21868896,0.109375,-0.072265625,-0.005859375,15.473503,-13.354722,-0.15249673,15.822967,0.935791,-0.1798706,-0.32250977,-0.08886719,0.017578125,0.015625,16.512474,-4.495124,-55.433006,26.562525,-0.68621826,0.02709961,0.7279663,0.0068359375,0.041992188,0.0,14.598507,-9.3466,-127.243126,28.858185,0.0,0.0,0.0,0.0,0.0,0.0,0.0,-5.886056,-127.35054,48.55509,0.0,0.0,0.0,0.0,0.0,0.0,0.0,0.64505905,0.007365889,-0.7642801,-0.9494629,-0.026672363,-0.29571533,-0.041992188,-0.080078125,0.037109375,3.1166525,13.354722,0.15249673,-15.822967,1.0075684,-0.1194458,-0.15142822,-9.765625E-4,0.11328125,0.064453125,2.6584435,13.770447,-56.82308,-14.074845,-0.39660645,0.06329346,0.9152832,-0.016601562,-0.009765625,0.022460938,4.7793837,14.2761755,-128.5556,-7.736379,0.0,0.0,0.0,0.0,0.0,0.0,0.0,23.21746,-128.5479,10.1540985,0.0,0.0,0.0,0.0,0.0,0.0,0.0,0.55557495,44.993805,0.90254617,
2.0507812194409785,105,-0.07373047,0.8121338,0.4229126,0.015625,-0.051757812,0.046875,0.0,0.0,0.0,0.0,0.0,0.0,0.0,0.0,0.0,0.0,0.0,-0.6438905,-0.0074601956,0.7652033,-0.96014404,0.0949707,0.22790527,0.052734375,-0.03515625,0.051757812,15.488613,-13.330531,-0.15444918,15.842081,0.9588623,-0.1876831,-0.32470703,-0.06933594,-0.001953125,0.053710938,16.58695,-4.425148,-55.415726,26.62061,-0.6638794,0.040161133,0.7357788,0.0068359375,0.059570312,0.018554688,14.61975,-9.2906,-127.228485,28.909985,0.0,0.0,0.0,0.0,0.0,0.0,0.0,-5.8164887,-127.337555,48.60723,0.0,0.0,0.0,0.0,0.0,0.0,0.0,0.6438905,0.0074601956,-0.7652033,-0.93725586,-0.08782959,-0.2843628,-0.00390625,-0.0234375,0.057617188,3.0905385,13.330531,0.15444918,-15.842081,1.019104,-0.11767578,-0.17834473,-0.11621094,0.115234375,0.08496094,2.7046497,13.829888,-56.821938,-14.1109705,-0.39874268,0.06317139,0.9369507,0.0029296875,0.009765625,-0.015625,4.7713437,14.420898,-128.54477,-7.7386665,0.0,0.0,0.0,0.0,0.0,0.0,0.0,23.349897,-128.5351,10.15815,0.0,0.0,0.0,0.0,0.0,0.0,0.0,0.52447534,44.992535,0.87997246,
2.07031246914994,106,-0.08074951,0.8083496,0.42510986,-0.0234375,-0.03125,0.047851562,0.0,0.0,0.0,0.0,0.0,0.0,0.0,0.0,0.0,0.0,0.0,-0.6428593,-0.007289966,0.76609385,-0.9591675,0.095947266,0.22692871,0.034179688,-0.015625,0.033203125,15.495249,-13.309181,-0.1509249,15.860518,0.91973877,-0.175354,-0.3203125,-0.032226562,0.016601562,0.036132812,16.649736,-4.364093,-55.39873,26.676636,-0.6639404,0.038269043,0.73083496,0.0068359375,0.005859375,0.018554688,14.572822,-9.236685,-127.21059,28.961018,0.0,0.0,0.0,0.0,0.0,0.0,0.0,-5.7592993,-127.32287,48.65667,0.0,0.0,0.0,0.0,0.0,0.0,0.0,0.6428593,0.007289966,-0.76609385,-0.94415283,-0.079833984,-0.28625488,0.053710938,0.013671875,0.07714844,3.029442,13.309181,0.1509249,-15.860518,1.0141602,-0.12756348,-0.17126465,-0.07714844,0.059570312,0.08496094,2.7433815,13.823765,-56.828808,-14.149665,-0.39257812,0.06402588,0.9398804,0.0029296875,0.009765625,-0.015625,4.744499,14.400159,-128.55191,-7.7608824,0.0,0.0,0.0,0.0,0.0,0.0,0.0,23.327065,-128.53632,10.136872,0.0,0.0,0.0,0.0,0.0,0.0,0.0,0.5012689,44.994175,0.84878814,
2.089843718858902,107,-0.074645996,0.821167,0.43499756,-0.043945312,-0.0703125,0.01171875,0.0,0.0,0.0,0.0,0.0,0.0,0.0,0.0,0.0,0.0,0.0,-0.64228845,-0.007963978,0.76670915,-0.9580078,0.098083496,0.21600342,0.0146484375,-0.03515625,0.033203125,15.499951,-13.297361,-0.16487902,15.873257,0.9590454,-0.17779541,-0.34265137,-0.0126953125,0.03515625,0.036132812,16.704502,-4.314968,-55.40238,26.707024,-0.68811035,0.035949707,0.7506714,0.0068359375,0.005859375,0.0,14.593493,-9.22763,-127.218925,29.020327,0.0,0.0,0.0,0.0,0.0,0.0,0.0,-5.7564573,-127.33606,48.718697,0.0,0.0,0.0,0.0,0.0,0.0,0.0,0.64228845,0.007963978,-0.76670915,-0.9571533,-0.072509766,-0.29699707,0.015625,0.015625,0.037109375,3.0223904,13.297361,0.16487902,-15.873257,1.00531,-0.10845947,-0.17321777,-0.05859375,0.07714844,0.046875,2.75726,13.864219,-56.81311,-14.170275,-0.38433838,0.06097412,0.9241333,0.0029296875,0.009765625,0.00390625,4.733297,14.42541,-128.5364,-7.7889447,0.0,0.0,0.0,0.0,0.0,0.0,0.0,23.340893,-128.5136,10.114445,0.0,0.0,0.0,0.0,0.0,0.0,0.0,0.4570039,44.999565,0.8502623,
2.1093749685678636,108,-0.09185791,0.852417,0.43865967,-0.06347656,-0.06933594,0.0126953125,0.0,0.0,0.0,0.0,0.0,0.0,0.0,0.0,0.0,0.0,0.0,-0.6419384,-0.008480305,0.7667655,-0.9683838,0.09875488,0.24188232,0.052734375,-0.03515625,0.051757812,15.49025,-13.290116,-0.17556861,15.874422,0.95458984,-0.19934082,-0.3008423,-0.0126953125,0.016601562,0.036132812,16.743916,-4.2786713,-55.406715,26.719347,-0.6739502,0.040527344,0.73187256,0.0068359375,0.041992188,0.0,14.547106,-9.200399,-127.20511,29.028063,0.0,0.0,0.0,0.0,0.0,0.0,0.0,-5.7266493,-127.31836,48.72531,0.0,0.0,0.0,0.0,0.0,0.0,0.0,0.6419384,0.008480305,-0.7667655,-0.9268799,-0.06506348,-0.30291748,0.091796875,0.11035156,0.036132812,2.9789414,13.290116,0.17556861,-15.874422,1.0233154,-0.10772705,-0.17059326,-0.11621094,0.059570312,0.0859375,2.7453787,13.814985,-56.803604,-14.174874,-0.38531494,0.06903076,0.92211914,-0.016601562,-0.0087890625,-0.015625,4.634176,14.324351,-128.52493,-7.8151875,0.0,0.0,0.0,0.0,0.0,0.0,0.0,23.23317,-128.4925,10.091539,0.0,0.0,0.0,0.0,0.0,0.0,0.0,0.41560966,44.992073,0.84555495,
