TOTAL_TIME,0m12s
TOTAL_FRAMES,608
SELECTED_FRAMES,608
NO_OF_JOINTS,12
FREQUENCY,51.2
DESCRIPTION,Capture 45
TIME_STAMP,Nov 1, 2010

Time,Frame,Pelvis_accelX_Pelvis,Pelvis_accelY_Pelvis,Pelvis_accelZ_Pelvis,Pelvis_gyroX_Pelvis,Pelvis_gyroY_Pelvis,Pelvis_gyroZ_Pelvis,Pelvis_Joint angle_Pelvis,Pelvis_Relative pos X_Pelvis,Pelvis_Relative pos Y_Pelvis,Pelvis_Relative pos Z_Pelvis,RightPelvis_accelX_RightPelvis,RightPelvis_accelY_RightPelvis,RightPelvis_accelZ_RightPelvis,RightPelvis_gyroX_RightPelvis,RightPelvis_gyroY_RightPelvis,RightPelvis_gyroZ_RightPelvis,RightPelvis_Joint angle_RightPelvis,RightPelvis_Relative pos X_RightPelvis,RightPelvis_Relative pos Y_RightPelvis,RightPelvis_Relative pos Z_RightPelvis,RightUpLeg_accelX_RightUpLeg,RightUpLeg_accelY_RightUpLeg,RightUpLeg_accelZ_RightUpLeg,RightUpLeg_gyroX_RightUpLeg,RightUpLeg_gyroY_RightUpLeg,RightUpLeg_gyroZ_RightUpLeg,RightUpLeg_Joint angle_RightUpLeg,RightUpLeg_Relative pos X_RightUpLeg,RightUpLeg_Relative pos Y_RightUpLeg,RightUpLeg_Relative pos Z_RightUpLeg,RightLeg_accelX_RightLeg,RightLeg_accelY_RightLeg,RightLeg_accelZ_RightLeg,RightLeg_gyroX_RightLeg,RightLeg_gyroY_RightLeg,RightLeg_gyroZ_RightLeg,RightLeg_Joint angle_RightLeg,RightLeg_Relative pos X_RightLeg,RightLeg_Relative pos Y_RightLeg,RightLeg_Relative pos Z_RightLeg,RightFoot_accelX_RightFoot,RightFoot_accelY_RightFoot,RightFoot_accelZ_RightFoot,RightFoot_gyroX_RightFoot,RightFoot_gyroY_RightFoot,RightFoot_gyroZ_RightFoot,RightFoot_Joint angle_RightFoot,RightFoot_Relative pos X_RightFoot,RightFoot_Relative pos Y_RightFoot,RightFoot_Relative pos Z_RightFoot,RightFootEnd_accelX_RightFootEnd,RightFootEnd_accelY_RightFootEnd,RightFootEnd_accelZ_RightFootEnd,RightFootEnd_gyroX_RightFootEnd,RightFootEnd_gyroY_RightFootEnd,RightFootEnd_gyroZ_RightFootEnd,RightFootEnd_Joint angle_RightFootEnd,RightFootEnd_Relative pos X_RightFootEnd,RightFootEnd_Relative pos Y_RightFootEnd,RightFootEnd_Relative pos Z_RightFootEnd,LeftPelvis_accelX_LeftPelvis,LeftPelvis_accelY_LeftPelvis,LeftPelvis_accelZ_LeftPelvis,LeftPelvis_gyroX_LeftPelvis,LeftPelvis_gyroY_LeftPelvis,LeftPelvis_gyroZ_LeftPelvis,LeftPelvis_Joint angle_LeftPelvis,LeftPelvis_Relative pos X_LeftPelvis,LeftPelvis_Relative pos Y_LeftPelvis,LeftPelvis_Relative pos Z_LeftPelvis,LeftUpLeg_accelX_LeftUpLeg,LeftUpLeg_accelY_LeftUpLeg,LeftUpLeg_accelZ_LeftUpLeg,LeftUpLeg_gyroX_LeftUpLeg,LeftUpLeg_gyroY_LeftUpLeg,LeftUpLeg_gyroZ_LeftUpLeg,LeftUpLeg_Joint angle_LeftUpLeg,LeftUpLeg_Relative pos X_LeftUpLeg,LeftUpLeg_Relative pos Y_LeftUpLeg,LeftUpLeg_Relative pos Z_LeftUpLeg,LeftLeg_accelX_LeftLeg,LeftLeg_accelY_LeftLeg,LeftLeg_accelZ_LeftLeg,LeftLeg_gyroX_LeftLeg,LeftLeg_gyroY_LeftLeg,LeftLeg_gyroZ_LeftLeg,LeftLeg_Joint angle_LeftLeg,LeftLeg_Relative pos X_LeftLeg,LeftLeg_Relative pos Y_LeftLeg,LeftLeg_Relative pos Z_LeftLeg,LeftFoot_accelX_LeftFoot,LeftFoot_accelY_LeftFoot,LeftFoot_accelZ_LeftFoot,LeftFoot_gyroX_LeftFoot,LeftFoot_gyroY_LeftFoot,LeftFoot_gyroZ_LeftFoot,LeftFoot_Joint angle_LeftFoot,LeftFoot_Relative pos X_LeftFoot,LeftFoot_Relative pos Y_LeftFoot,LeftFoot_Relative pos Z_LeftFoot,LeftFootEnd_accelX_LeftFootEnd,LeftFootEnd_accelY_LeftFootEnd,LeftFootEnd_accelZ_LeftFootEnd,LeftFootEnd_gyroX_LeftFootEnd,LeftFootEnd_gyroY_LeftFootEnd,LeftFootEnd_gyroZ_LeftFootEnd,LeftFootEnd_Joint angle_LeftFootEnd,LeftFootEnd_Relative pos X_LeftFootEnd,LeftFootEnd_Relative pos Y_LeftFootEnd,LeftFootEnd_Relative pos Z_LeftFootEnd,Spine_accelX_Spine,Spine_accelY_Spine,Spine_accelZ_Spine,Spine_gyroX_Spine,Spine_gyroY_Spine,Spine_gyroZ_Spine,Spine_Joint angle_Spine,Spine_Relative pos X_Spine,Spine_Relative pos Y_Spine,Spine_Relative pos Z_Spine,
0.0,0,-0.119384766,0.7151489,0.6064453,-0.048828125,0.3955078,0.32617188,0.0,0.0,0.0,0.0,0.0,0.0,0.0,0.0,0.0,0.0,0.0,-0.83918333,0.03895934,-0.542561,-1.2210693,0.29760742,0.44207764,-1.4550781,1.0410156,0.38867188,18.919226,-17.373695,0.80657893,-11.232695,1.1954956,-0.3334961,0.16101074,1.8525391,0.6269531,-0.5839844,32.308834,-37.331825,-52.215508,-17.521324,-0.5339966,0.0178833,0.84643555,-0.22070312,-0.18945312,-0.20703125,8.926561,-39.23012,-119.61077,7.7054634,0.0,0.0,0.0,0.0,0.0,0.0,0.0,-56.90719,-118.31534,16.868595,0.0,0.0,0.0,0.0,0.0,0.0,0.0,0.83918333,-0.03895934,0.542561,-1.0380859,-0.109802246,0.015258789,-0.80859375,-1.0136719,-0.4873047,11.915519,17.373695,-0.80657893,11.232695,1.0272827,-0.04559326,0.056030273,0.07421875,0.13085938,-0.18164062,3.7128835,14.466006,-56.429703,23.377037,-0.38238525,0.038024902,0.91625977,0.078125,-0.03125,0.078125,37.59267,10.548731,-125.29834,44.034206,0.0,0.0,0.0,0.0,0.0,0.0,0.0,12.270923,-127.46244,63.8359,0.0,0.0,0.0,0.0,0.0,0.0,0.0,2.2819088,44.943768,-0.3021974,
0.0195312497089617,1,-0.119384766,0.7151489,0.6064453,-0.048828125,0.3955078,0.32617188,0.0,0.0,0.0,0.0,0.0,0.0,0.0,0.0,0.0,0.0,0.0,-0.83918333,0.03895934,-0.542561,-1.2210693,0.29760742,0.44207764,-1.4550781,1.0410156,0.38867188,18.919226,-17.373695,0.80657893,-11.232695,1.1954956,-0.3334961,0.16101074,1.8525391,0.6269531,-0.5839844,32.308834,-37.331825,-52.215508,-17.521324,-0.5339966,0.0178833,0.84643555,-0.22070312,-0.18945312,-0.20703125,8.926561,-39.23012,-119.61077,7.7054634,0.0,0.0,0.0,0.0,0.0,0.0,0.0,-56.90719,-118.31534,16.868595,0.0,0.0,0.0,0.0,0.0,0.0,0.0,0.83918333,-0.03895934,0.542561,-1.0380859,-0.109802246,0.015258789,-0.80859375,-1.0136719,-0.4873047,11.915519,17.373695,-0.80657893,11.232695,1.0272827,-0.04559326,0.056030273,0.07421875,0.13085938,-0.18164062,3.7128835,14.466006,-56.429703,23.377037,-0.38238525,0.038024902,0.91625977,0.078125,-0.03125,0.078125,37.59267,10.548731,-125.29834,44.034206,0.0,0.0,0.0,0.0,0.0,0.0,0.0,12.270923,-127.46244,63.8359,0.0,0.0,0.0,0.0,0.0,0.0,0.0,2.2819088,44.943768,-0.3021974,
0.0390624994179234,2,-0.119384766,0.7151489,0.6064453,-0.048828125,0.3955078,0.32617188,0.0,0.0,0.0,0.0,0.0,0.0,0.0,0.0,0.0,0.0,0.0,-0.83918333,0.03895934,-0.542561,-1.2210693,0.29760742,0.44207764,-1.4550781,1.0410156,0.38867188,18.919226,-17.373695,0.80657893,-11.232695,1.1954956,-0.3334961,0.16101074,1.8525391,0.6269531,-0.5839844,32.308834,-37.331825,-52.215508,-17.521324,-0.5339966,0.0178833,0.84643555,-0.22070312,-0.18945312,-0.20703125,8.926561,-39.23012,-119.61077,7.7054634,0.0,0.0,0.0,0.0,0.0,0.0,0.0,-56.90719,-118.31534,16.868595,0.0,0.0,0.0,0.0,0.0,0.0,0.0,0.83918333,-0.03895934,0.542561,-1.0380859,-0.109802246,0.015258789,-0.80859375,-1.0136719,-0.4873047,11.915519,17.373695,-0.80657893,11.232695,1.0272827,-0.04559326,0.056030273,0.07421875,0.13085938,-0.18164062,3.7128835,14.466006,-56.429703,23.377037,-0.38238525,0.038024902,0.91625977,0.078125,-0.03125,0.078125,37.59267,10.548731,-125.29834,44.034206,0.0,0.0,0.0,0.0,0.0,0.0,0.0,12.270923,-127.46244,63.8359,0.0,0.0,0.0,0.0,0.0,0.0,0.0,2.2819088,44.943768,-0.3021974,
0.0585937491268851,3,-0.22515869,0.7697754,0.4833374,0.24707031,-0.171875,0.059570312,0.0,0.0,0.0,0.0,0.0,0.0,0.0,0.0,0.0,0.0,0.0,-0.7273802,0.15506433,0.6685928,-0.9529419,-0.26898193,0.34222412,-0.040039062,1.4628906,0.5439453,28.601177,-15.059026,3.2103124,13.841944,0.9125366,0.13531494,-0.21643066,-1.3798828,1.2089844,0.6152344,29.779778,5.0238867,-47.59465,30.126228,-1.0374756,-0.13323975,0.31652832,0.88378906,-1.1132812,-0.703125,64.145164,19.486744,-116.85794,16.720737,0.0,0.0,0.0,0.0,0.0,0.0,0.0,36.52128,-125.412834,22.7697,0.0,0.0,0.0,0.0,0.0,0.0,0.0,0.7273802,-0.15506433,-0.6685928,-0.95703125,0.08337402,-0.18579102,0.13183594,0.07128906,-0.23046875,10.276534,15.059026,-3.2103124,-13.841944,0.9959717,-0.14019775,-0.11853027,-0.13574219,-0.12597656,-0.15722656,6.8940663,18.096403,-58.909863,-2.0909786,-0.37219238,0.025878906,0.91326904,-0.049804688,0.61328125,1.1152344,10.817889,17.562326,-130.40334,6.5398083,0.0,0.0,0.0,0.0,0.0,0.0,0.0,15.756234,-130.77783,26.45423,0.0,0.0,0.0,0.0,0.0,0.0,0.0,4.6002216,44.45206,-5.304902,
0.0781249988358468,4,-0.30975342,0.7671509,0.49749756,0.265625,-0.21289062,-0.06933594,0.0,0.0,0.0,0.0,0.0,0.0,0.0,0.0,0.0,0.0,0.0,-0.7249739,0.15290812,0.6717369,-0.9295654,-0.14849854,0.44989014,0.28222656,1.3955078,0.0087890625,27.296576,-15.009205,3.165672,13.907036,0.8687744,-0.13470459,-0.15625,-1.6884766,0.81347656,0.6298828,27.166052,4.5649967,-48.252064,28.81641,-1.0928345,-0.21368408,0.203125,0.5410156,-0.7392578,-0.43164062,65.93735,18.70198,-117.71852,16.912687,0.0,0.0,0.0,0.0,0.0,0.0,0.0,35.882732,-126.41833,22.18965,0.0,0.0,0.0,0.0,0.0,0.0,0.0,0.7249739,-0.15290812,-0.6717369,-0.97906494,0.01727295,-0.18725586,-0.040039062,0.15429688,-0.24902344,9.926422,15.009205,-3.165672,-13.907036,1.0363159,-0.07489014,-0.118774414,0.0390625,-0.22070312,-0.23339844,6.904557,18.109734,-58.935555,-2.5042305,-0.3690796,0.04663086,0.93096924,-0.03125,0.5371094,0.9638672,11.249466,17.595297,-130.46922,5.702587,0.0,0.0,0.0,0.0,0.0,0.0,0.0,15.435615,-130.81104,25.583866,0.0,0.0,0.0,0.0,0.0,0.0,0.0,4.418071,44.465954,-5.353614,
0.09765624854480849,5,-0.35327148,0.7602539,0.48760986,0.45214844,-0.5234375,-0.076171875,0.0,0.0,0.0,0.0,0.0,0.0,0.0,0.0,0.0,0.0,0.0,-0.7188767,0.15194081,0.678445,-0.9024048,0.058532715,0.55895996,0.90722656,1.1396484,-0.58691406,26.629501,-14.882977,3.1456459,14.045916,0.81347656,-0.29693604,-0.19421387,-1.1171875,0.3720703,0.30664062,25.326672,4.7687187,-48.53685,27.741571,-1.0857544,-0.34051514,0.12243652,0.140625,-0.2919922,-0.3310547,66.97102,18.23346,-118.34346,17.033573,0.0,0.0,0.0,0.0,0.0,0.0,0.0,35.465874,-127.27367,21.745518,0.0,0.0,0.0,0.0,0.0,0.0,0.0,0.7188767,-0.15194081,-0.678445,-0.9953003,-0.06781006,-0.17803955,-0.13574219,0.07910156,-0.22753906,9.424939,14.882977,-3.1456459,-14.045916,0.9873047,-0.033447266,-0.21679688,0.020507812,-0.2763672,-0.23242188,7.056079,18.065702,-59.002052,-3.0984697,-0.38049316,0.037719727,0.94677734,-0.087890625,0.46484375,0.66308594,11.568921,17.48015,-130.6222,4.4145017,0.0,0.0,0.0,0.0,0.0,0.0,0.0,15.02894,-130.98123,24.258419,0.0,0.0,0.0,0.0,0.0,0.0,0.0,4.1830983,44.466644,-5.5261164,
0.11718749825377019,6,-0.34228516,0.76885986,0.4814453,0.46191406,-0.8300781,-0.1328125,0.0,0.0,0.0,0.0,0.0,0.0,0.0,0.0,0.0,0.0,0.0,-0.7091198,0.14866973,0.6894789,-0.76220703,0.23809814,0.34906006,0.8486328,1.0976562,-0.35742188,26.01595,-14.680978,3.0779243,14.27435,0.8175659,-0.32434082,-0.26416016,-0.38476562,-0.048828125,-0.29785156,24.149448,5.1384172,-48.824203,26.847378,-0.78826904,0.83184814,1.3012085,-1.6523438,-1.3320312,0.56933594,67.535,17.748932,-118.987076,16.782585,0.0,0.0,0.0,0.0,0.0,0.0,0.0,34.90431,-128.15378,21.318092,0.0,0.0,0.0,0.0,0.0,0.0,0.0,0.7091198,-0.14866973,-0.6894789,-0.97491455,-0.1986084,-0.24682617,-0.15527344,0.11816406,-0.24707031,8.7418375,14.680978,-3.0779243,-14.27435,1.0062256,0.008178711,-0.23815918,0.15527344,-0.2783203,-0.234375,7.1498704,17.92218,-59.051926,-3.9947872,-0.38879395,0.016906738,0.94976807,-0.10839844,0.23925781,0.17382812,11.356208,17.23935,-130.7583,2.6381702,0.0,0.0,0.0,0.0,0.0,0.0,0.0,14.692678,-131.14825,22.467789,0.0,0.0,0.0,0.0,0.0,0.0,0.0,3.835104,44.48672,-5.6481504,
0.1367187479627319,7,-0.29522705,0.8067627,0.54022217,0.028320312,-0.85839844,-0.14160156,0.0,0.0,0.0,0.0,0.0,0.0,0.0,0.0,0.0,0.0,0.0,-0.69654804,0.14601935,0.7027008,-0.97875977,0.3859253,0.06652832,0.71777344,2.1210938,-0.0234375,24.749594,-14.420706,3.0230532,14.548084,1.4541016,-0.21862793,-0.06427002,-1.0322266,-0.16210938,0.23828125,22.308363,4.696106,-49.47015,24.908827,-0.16235352,-0.61431885,0.53430176,0.19921875,-0.8388672,-0.5488281,67.9662,16.170292,-119.71011,14.695751,0.0,0.0,0.0,0.0,0.0,0.0,0.0,33.246246,-129.09882,19.080994,0.0,0.0,0.0,0.0,0.0,0.0,0.0,0.69654804,-0.14601935,-0.7027008,-0.9262085,-0.23657227,-0.29431152,0.30371094,0.12402344,-0.2529297,8.498932,14.420706,-3.0230532,-14.548084,1.0305786,0.037719727,-0.28625488,9.765625E-4,-0.23925781,-0.1953125,7.125244,17.80947,-59.154915,-5.2172947,-0.39892578,0.02923584,0.9310913,-0.015625,0.06738281,-0.0146484375,10.808897,16.964954,-130.93698,0.49664688,0.0,0.0,0.0,0.0,0.0,0.0,0.0,14.4517975,-131.34424,20.3314,0.0,0.0,0.0,0.0,0.0,0.0,0.0,3.7374656,44.507126,-5.5437217,
0.1562499976716936,8,-0.19573975,0.786499,0.5762329,0.14648438,-0.8613281,-0.14453125,0.0,0.0,0.0,0.0,0.0,0.0,0.0,0.0,0.0,0.0,0.0,-0.6831149,0.14481272,0.71593404,-1.3018188,0.21807861,0.67266846,0.13183594,1.6992188,0.049804688,23.809061,-14.142596,2.9980721,14.822055,1.4057617,-0.37634277,0.4140625,0.2998047,0.4482422,0.13671875,19.335775,4.2451944,-50.347713,22.87053,-0.41912842,-0.22875977,0.635376,-0.45117188,-0.078125,-0.49316406,69.17143,14.603383,-120.94896,14.022398,0.0,0.0,0.0,0.0,0.0,0.0,0.0,31.601559,-130.58469,18.189522,0.0,0.0,0.0,0.0,0.0,0.0,0.0,0.6831149,-0.14481272,-0.71593404,-0.91503906,-0.1541748,-0.350708,1.2226562,0.38964844,-0.18164062,8.423383,14.142596,-2.9980721,-14.822055,1.0414429,-0.082214355,-0.2975464,-0.67578125,-0.19140625,-0.09277344,6.798985,17.49597,-59.311905,-6.6387587,-0.39257812,0.057128906,0.9300537,-0.015625,0.047851562,0.00390625,10.868157,16.454147,-131.14882,-1.7258334,0.0,0.0,0.0,0.0,0.0,0.0,0.0,13.992968,-131.54726,18.116026,0.0,0.0,0.0,0.0,0.0,0.0,0.0,3.8633094,44.52126,-5.3191495,
0.1757812473806553,9,6.1035156E-5,0.80126953,0.5820923,0.2548828,-1.1533203,-0.25878906,0.0,0.0,0.0,0.0,0.0,0.0,0.0,0.0,0.0,0.0,0.0,-0.6665648,0.13571844,0.73313904,-1.2422485,-0.070739746,1.0253296,-0.49121094,0.21875,-0.49902344,23.684881,-13.799957,2.8097925,15.178251,0.80999756,-0.39111328,-0.1496582,-1.78125,0.21875,-0.22558594,18.583529,4.653595,-50.631584,22.46555,-0.8118286,-0.24542236,1.2253418,-0.50878906,0.08691406,-0.45898438,67.93044,14.572588,-121.462906,14.182047,0.0,0.0,0.0,0.0,0.0,0.0,0.0,31.467718,-131.147,18.638924,0.0,0.0,0.0,0.0,0.0,0.0,0.0,0.6665648,-0.13571844,-0.73313904,-0.93518066,-0.009094238,-0.30639648,1.2792969,0.52441406,-0.018554688,7.8262653,13.799957,-2.8097925,-15.178251,0.9824219,-0.076293945,-0.25494385,-0.36914062,-0.047851562,-0.24902344,6.289056,16.785992,-59.27274,-7.935738,-0.38555908,0.03289795,0.9389038,0.00390625,0.06738281,-0.052734375,11.2152605,15.598987,-131.13951,-3.637175,0.0,0.0,0.0,0.0,0.0,0.0,0.0,13.2044525,-131.52997,16.213486,0.0,0.0,0.0,0.0,0.0,0.0,0.0,3.725782,44.585712,-4.8662367,
0.19531249708961698,10,0.15838623,0.8328247,0.5831299,-0.48046875,-0.83203125,-0.34960938,0.0,0.0,0.0,0.0,0.0,0.0,0.0,0.0,0.0,0.0,0.0,-0.6534558,0.12493091,0.746777,-0.96154785,0.2734375,0.08654785,1.9785156,0.4326172,-0.19335938,24.087435,-13.528561,2.586457,15.460598,0.9185791,-0.47857666,0.036376953,0.5126953,-0.37304688,0.0546875,18.028408,5.0033627,-50.786354,22.298965,-0.55914307,0.060424805,0.7652588,-0.12695312,0.026367188,-0.095703125,67.37158,14.498897,-121.77643,14.841023,0.0,0.0,0.0,0.0,0.0,0.0,0.0,31.360725,-131.51881,19.370064,0.0,0.0,0.0,0.0,0.0,0.0,0.0,0.6534558,-0.12493091,-0.746777,-1.029602,-0.006958008,-0.27978516,0.3984375,0.04296875,-0.0703125,7.9533224,13.528561,-2.586457,-15.460598,0.9880371,0.072387695,-0.22045898,-0.09765625,-0.21875,-0.41992188,6.2883077,16.286348,-59.115192,-8.624784,-0.3805542,0.022705078,0.94970703,0.00390625,0.0859375,-0.015625,10.790197,15.271972,-131.03679,-5.235344,0.0,0.0,0.0,0.0,0.0,0.0,0.0,12.925325,-131.43639,14.620411,0.0,0.0,0.0,0.0,0.0,0.0,0.0,3.916584,44.65308,-4.043022,
0.21484374679857868,11,0.19500732,0.82702637,0.60302734,0.13769531,-0.54589844,-0.5439453,0.0,0.0,0.0,0.0,0.0,0.0,0.0,0.0,0.0,0.0,0.0,-0.64245415,0.11856459,0.7572441,-1.0689087,-0.047546387,0.112854004,-1.2275391,1.1767578,0.23632812,23.21416,-13.300793,2.4546545,15.677301,1.3933105,0.24243164,-0.27130127,3.459961,-0.07714844,-0.9892578,16.138922,4.1577873,-51.46096,20.79349,-0.58258057,-0.004211426,0.83569336,-0.06933594,0.0078125,-0.01953125,68.77361,12.373707,-122.60939,14.264737,0.0,0.0,0.0,0.0,0.0,0.0,0.0,29.213444,-132.00856,19.534592,0.0,0.0,0.0,0.0,0.0,0.0,0.0,0.64245415,-0.11856459,-0.7572441,-1.029602,-0.006958008,-0.27978516,0.3984375,0.04296875,-0.0703125,8.46812,13.300793,-2.4546545,-15.677301,1.0464478,0.018676758,-0.21734619,-1.140625,-0.18359375,-0.14355469,6.826622,16.05858,-58.98339,-8.841488,-0.36889648,0.072631836,0.92993164,-0.0126953125,0.16308594,-0.07128906,10.963882,15.273809,-130.94595,-6.452682,0.0,0.0,0.0,0.0,0.0,0.0,0.0,12.988229,-131.33675,13.40904,0.0,0.0,0.0,0.0,0.0,0.0,0.0,4.177114,44.67765,-3.4514399,
0.23437499650754037,12,0.05834961,0.7796631,0.5584717,0.72753906,-0.5029297,-0.5566406,0.0,0.0,0.0,0.0,0.0,0.0,0.0,0.0,0.0,0.0,0.0,-0.62968034,0.10904929,0.7692703,-1.0127563,-0.45007324,0.16088867,-0.9609375,1.1464844,-0.22265625,22.09457,-13.036335,2.2576587,15.92628,1.0072021,0.32214355,-0.10095215,-2.0742188,0.25585938,0.07128906,14.536823,3.861353,-52.04142,19.796055,-0.5704956,-0.007446289,0.8248291,-0.1640625,0.009765625,-0.021484375,68.14997,12.083011,-123.31618,13.774916,0.0,0.0,0.0,0.0,0.0,0.0,0.0,28.8764,-132.35605,19.763695,0.0,0.0,0.0,0.0,0.0,0.0,0.0,0.62968034,-0.10904929,-0.7692703,-1.0302124,-0.049926758,-0.20343018,0.45507812,-0.3095703,-0.11230469,8.891609,13.036335,-2.2576587,-15.92628,1.0264282,-0.14770508,-0.20397949,-0.92871094,-0.11328125,-0.109375,7.414841,16.730919,-58.77465,-9.474331,-0.40063477,0.09698486,0.9546509,-0.048828125,0.296875,-0.08984375,11.994144,15.929747,-130.75143,-7.5963516,0.0,0.0,0.0,0.0,0.0,0.0,0.0,13.700695,-131.17445,12.272589,0.0,0.0,0.0,0.0,0.0,0.0,0.0,3.804701,44.72643,-3.225966,
0.2539062462165021,13,-0.10015869,0.74645996,0.61816406,0.13867188,-0.5029297,-0.36132812,0.0,0.0,0.0,0.0,0.0,0.0,0.0,0.0,0.0,0.0,0.0,-0.6162962,0.105633214,0.7806141,-0.9520874,0.10345459,0.0010375977,1.1513672,0.6855469,-0.7626953,22.003098,-12.75924,2.1869352,16.161133,0.83551025,-0.47387695,-0.31274414,-2.3632812,-0.33203125,0.20214844,14.32814,4.1780405,-52.111233,18.473309,-0.57489014,-0.026123047,0.83673096,-0.18261719,-0.0078125,-0.05859375,62.71461,11.652649,-123.43701,11.97436,0.0,0.0,0.0,0.0,0.0,0.0,0.0,28.363855,-132.13963,18.662928,0.0,0.0,0.0,0.0,0.0,0.0,0.0,0.6162962,-0.105633214,-0.7806141,-0.996521,-0.15789795,-0.21606445,-0.2529297,-0.2890625,-0.14453125,9.107462,12.75924,-2.1869352,-16.161133,1.0343018,-0.06201172,-0.19085693,0.46289062,-0.19042969,-0.42773438,7.780563,16.929611,-58.695763,-9.9182625,-0.381958,0.12573242,0.9437256,-0.14160156,0.3955078,-0.16503906,11.798106,16.159254,-130.68503,-8.419817,0.0,0.0,0.0,0.0,0.0,0.0,0.0,14.031767,-131.18416,11.45648,0.0,0.0,0.0,0.0,0.0,0.0,0.0,3.636525,44.747295,-3.1841908,
0.2734374959254638,14,-0.10809326,0.7268677,0.62316895,-0.10644531,-0.8027344,-0.33984375,0.0,0.0,0.0,0.0,0.0,0.0,0.0,0.0,0.0,0.0,0.0,-0.60009325,0.10825393,0.7927283,-1.0267334,0.11767578,-0.030700684,-0.15234375,0.765625,-0.03515625,21.760885,-12.42379,2.2411916,16.411934,1.019165,-0.38012695,-0.37683105,1.2666016,0.078125,-0.29003906,13.297493,3.6949234,-52.315582,17.171408,-0.5697632,-0.01550293,0.8535156,-0.18261719,-0.025390625,-0.040039062,61.444096,10.04302,-123.7213,11.348957,0.0,0.0,0.0,0.0,0.0,0.0,0.0,26.636831,-132.08873,18.715488,0.0,0.0,0.0,0.0,0.0,0.0,0.0,0.60009325,-0.10825393,-0.7927283,-1.0007324,-0.3217163,-0.15435791,-0.40625,-0.5576172,-0.1640625,10.161983,12.42379,-2.2411916,-16.411934,1.0098267,0.19390869,-0.16046143,0.65527344,-0.10058594,-0.41210938,8.25897,17.26078,-58.721348,-10.430687,-0.4500122,0.05621338,0.9312134,-0.21777344,0.37890625,-0.31445312,10.121506,16.912153,-130.72736,-9.694416,0.0,0.0,0.0,0.0,0.0,0.0,0.0,14.91574,-131.37097,10.192726,0.0,0.0,0.0,0.0,0.0,0.0,0.0,3.9831157,44.72224,-3.0920014,
0.2929687456344255,15,0.028564453,0.8245239,0.60839844,-0.16894531,-0.9169922,-0.3935547,0.0,0.0,0.0,0.0,0.0,0.0,0.0,0.0,0.0,0.0,0.0,-0.5808868,0.10527626,0.8073309,-1.0984497,-0.22564697,0.07891846,0.3935547,0.5566406,0.07714844,21.628675,-12.026157,2.1795452,16.714252,1.0518188,0.056396484,-0.28778076,0.060546875,0.13183594,-0.095703125,12.524669,3.4938688,-52.66333,16.491581,-0.55255127,-0.009216309,0.85839844,-0.18261719,-0.026367188,-0.05859375,60.732445,9.252394,-124.24583,11.302342,0.0,0.0,0.0,0.0,0.0,0.0,0.0,25.702997,-132.28436,19.323132,0.0,0.0,0.0,0.0,0.0,0.0,0.0,0.5808868,-0.10527626,-0.8073309,-1.0007324,-0.39398193,-0.12054443,0.41503906,-0.62109375,-0.07128906,11.565907,12.026157,-2.1795452,-16.714252,1.0234985,0.23376465,-0.066223145,-0.52246094,-0.10058594,-0.07714844,8.667189,17.815252,-58.59948,-11.03496,-0.43621826,-0.20581055,0.92645264,-0.29296875,0.34472656,-0.578125,9.139424,18.24558,-130.60704,-10.9847355,0.0,0.0,0.0,0.0,0.0,0.0,0.0,16.394228,-131.46815,8.907314,0.0,0.0,0.0,0.0,0.0,0.0,0.0,4.3238783,44.715828,-2.7198656,
0.3124999953433872,16,0.056640625,0.87939453,0.611084,-0.21875,-0.62890625,-0.390625,0.0,0.0,0.0,0.0,0.0,0.0,0.0,0.0,0.0,0.0,0.0,-0.5667279,0.10171962,0.81781983,-1.0496216,-0.10626221,-0.061401367,1.5439453,0.1640625,-0.21386719,21.829107,-11.733024,2.1059115,16.931406,0.94628906,-0.10620117,-0.21966553,-0.89941406,0.14257812,0.10546875,12.149989,3.55124,-52.753025,16.147081,-0.56988525,-0.028137207,0.822876,-0.18261719,-0.026367188,-0.05859375,57.336105,9.349646,-124.32576,10.746536,0.0,0.0,0.0,0.0,0.0,0.0,0.0,25.629004,-132.05673,19.39362,0.0,0.0,0.0,0.0,0.0,0.0,0.0,0.5667279,-0.10171962,-0.81781983,-1.0307007,-0.37945557,-0.089904785,0.7402344,-0.45507812,-0.013671875,12.829368,11.733024,-2.1059115,-16.931406,0.982605,0.16046143,-0.10144043,-0.6894531,-0.46875,0.28710938,9.330855,18.299515,-58.453957,-11.33893,-0.5023804,0.2288208,0.9579468,1.6542969,-0.017578125,-1.7382812,5.058072,18.95187,-130.45987,-11.81771,0.0,0.0,0.0,0.0,0.0,0.0,0.0,18.777292,-131.71141,7.643384,0.0,0.0,0.0,0.0,0.0,0.0,0.0,4.6526423,44.705887,-2.336314,
0.3320312450523489,17,0.11566162,0.82336426,0.6300049,-0.06640625,-0.7832031,-0.30371094,0.0,0.0,0.0,0.0,0.0,0.0,0.0,0.0,0.0,0.0,0.0,-0.55320275,0.097163044,0.827489,-0.99871826,0.06097412,0.07891846,0.80859375,0.3125,-0.07910156,21.654306,-11.453012,2.0115762,17.13159,0.9866333,-0.18328857,-0.23822021,0.1015625,0.28320312,-0.07714844,11.330181,3.3161583,-52.97469,15.550765,-0.5549927,-0.03942871,0.82092285,-0.1640625,-0.044921875,-0.07714844,54.34139,9.119928,-124.57196,10.502608,0.0,0.0,0.0,0.0,0.0,0.0,0.0,25.204935,-132.00534,19.750881,0.0,0.0,0.0,0.0,0.0,0.0,0.0,0.55320275,-0.097163044,-0.827489,-1.1577148,-0.3373413,0.0067749023,0.6425781,-0.9404297,-0.034179688,14.039021,11.453012,-2.0115762,-17.13159,0.9727783,0.12451172,-0.20471191,-1.2998047,-0.6621094,1.0693359,10.433281,18.843567,-58.254623,-11.476802,-0.46588135,0.27294922,0.8661499,0.78222656,0.17773438,-2.1464844,4.111994,18.86845,-130.2674,-12.120994,0.0,0.0,0.0,0.0,0.0,0.0,0.0,20.967762,-131.99904,7.3073874,0.0,0.0,0.0,0.0,0.0,0.0,0.0,4.8786407,44.695435,-1.9865727,
0.3515624947613106,18,0.20385742,0.7649536,0.56347656,-0.07519531,-1.03125,-0.30566406,0.0,0.0,0.0,0.0,0.0,0.0,0.0,0.0,0.0,0.0,0.0,-0.53520167,0.085309766,0.84060544,-0.973938,-0.010314941,0.072753906,0.4873047,0.40429688,0.055664062,21.146595,-11.080333,1.7661767,17.40314,1.0202637,-0.035827637,-0.19012451,0.4970703,0.18164062,-0.083984375,10.360178,3.0769682,-53.384655,15.405049,-0.55255127,-0.01586914,0.81884766,-0.12597656,-0.06347656,-0.0390625,52.49739,9.117498,-124.99153,10.786681,0.0,0.0,0.0,0.0,0.0,0.0,0.0,24.996864,-132.13567,20.605633,0.0,0.0,0.0,0.0,0.0,0.0,0.0,0.53520167,-0.085309766,-0.84060544,-1.0159302,-0.184021,-0.21130371,1.1582031,-1.0136719,0.041015625,15.772308,11.080333,-1.7661767,-17.40314,0.9727783,0.12451172,-0.20471191,-1.2998047,-0.6621094,1.0693359,11.530305,19.807415,-57.80782,-11.691333,-0.5219116,0.08404541,0.99157715,0.953125,0.041015625,-2.3544922,7.579242,19.832298,-129.82059,-12.335525,0.0,0.0,0.0,0.0,0.0,0.0,0.0,23.393412,-131.89658,6.995061,0.0,0.0,0.0,0.0,0.0,0.0,0.0,5.03523,44.705208,-1.3310969,
0.37109374447027227,19,0.17803955,0.78778076,0.4519043,-0.08105469,-0.6279297,-0.19238281,0.0,0.0,0.0,0.0,0.0,0.0,0.0,0.0,0.0,0.0,0.0,-0.528018,0.07023403,0.84644836,-0.98095703,-0.028320312,0.05053711,0.2998047,0.578125,-0.15234375,20.469189,-10.931607,1.4540621,17.524105,1.0063477,-0.035583496,-0.10925293,-0.33203125,0.21191406,0.044921875,9.212878,2.6196852,-53.819115,14.820406,-0.54473877,-0.026977539,0.8189087,-0.10644531,-0.045898438,-0.01953125,50.527977,9.150314,-125.39929,10.43867,0.0,0.0,0.0,0.0,0.0,0.0,0.0,24.825104,-132.24483,20.781319,0.0,0.0,0.0,0.0,0.0,0.0,0.0,0.528018,-0.07023403,-0.84644836,-0.9963989,-0.15405273,-0.25238037,1.5800781,-0.51953125,0.34375,16.677843,10.931607,-1.4540621,-17.524105,0.953125,0.16046143,-0.39611816,-1.0732422,-0.5917969,0.53808594,14.061978,20.42405,-57.40406,-12.141038,-0.6529541,0.36218262,1.3336182,1.2871094,-0.36816406,-2.09375,10.804454,17.543234,-129.35077,-13.031537,0.0,0.0,0.0,0.0,0.0,0.0,0.0,23.40208,-132.0328,5.467059,0.0,0.0,0.0,0.0,0.0,0.0,0.0,5.020805,44.720055,-0.5786466,
0.39062499417923396,20,0.07067871,0.78045654,0.5720825,-0.12695312,-0.20410156,-0.07910156,0.0,0.0,0.0,0.0,0.0,0.0,0.0,0.0,0.0,0.0,0.0,-0.5247729,0.064397365,0.84886706,-1.0418091,0.076049805,0.14782715,0.09277344,0.48242188,-0.15332031,20.039574,-10.864425,1.333225,17.57418,0.98809814,-0.1828003,-0.11566162,-0.46679688,0.15722656,0.0029296875,8.344708,2.1512823,-54.049267,14.335111,-0.55285645,-0.028808594,0.8406372,-0.087890625,-0.0107421875,-0.057617188,47.897144,9.000723,-125.61185,10.193501,0.0,0.0,0.0,0.0,0.0,0.0,0.0,24.453547,-132.17503,21.042725,0.0,0.0,0.0,0.0,0.0,0.0,0.0,0.5247729,-0.064397365,-0.84886706,-0.93670654,-0.26763916,-0.29553223,0.85253906,-0.7324219,0.29101562,17.357548,10.864425,-1.333225,-17.57418,1.0213013,0.31799316,-0.5111084,-2.5439453,-0.16113281,1.0029297,15.554146,20.940311,-57.214905,-12.576368,-0.10772705,0.3258667,0.8756714,1.3183594,-0.6748047,-1.9628906,15.105805,16.281805,-128.97845,-13.001916,0.0,0.0,0.0,0.0,0.0,0.0,0.0,24.162588,-131.83012,5.0373373,0.0,0.0,0.0,0.0,0.0,0.0,0.0,5.097792,44.71214,-0.24050951,
0.41015624388819566,21,0.07354736,0.7753296,0.5600586,-0.17480469,-0.48632812,0.047851562,0.0,0.0,0.0,0.0,0.0,0.0,0.0,0.0,0.0,0.0,0.0,-0.51840186,0.057814397,0.8533867,-1.020935,0.025146484,0.14996338,-0.11621094,0.3642578,0.07519531,19.715603,-10.732527,1.1969372,17.667747,0.97821045,-0.2098999,-0.11065674,0.15527344,0.11035156,-0.07421875,7.682321,1.7594042,-54.30909,14.310362,-0.53466797,-0.022399902,0.8366699,-0.087890625,-0.0107421875,-0.0390625,45.78814,8.748543,-125.89289,10.68302,0.0,0.0,0.0,0.0,0.0,0.0,0.0,23.96893,-132.17982,22.01382,0.0,0.0,0.0,0.0,0.0,0.0,0.0,0.51840186,-0.057814397,-0.8533867,-0.86065674,-0.36523438,-0.28356934,0.890625,-0.8701172,0.16796875,18.2692,10.732527,-1.1969372,-17.667747,0.93927,-0.040100098,-0.48736572,-4.864258,0.37695312,1.8544922,16.68925,21.468666,-57.004063,-13.321491,-0.10772705,0.3258667,0.8756714,1.3183594,-0.6748047,-1.9628906,11.36297,15.476859,-128.76083,-12.634298,0.0,0.0,0.0,0.0,0.0,0.0,0.0,23.357643,-131.6125,5.404955,0.0,0.0,0.0,0.0,0.0,0.0,0.0,5.3270087,44.691074,0.2082808,
0.42968749359715736,22,0.08569336,0.7456665,0.47888184,0.0234375,-0.41308594,0.1171875,0.0,0.0,0.0,0.0,0.0,0.0,0.0,0.0,0.0,0.0,0.0,-0.5141653,0.047583483,0.8566024,-0.97662354,-0.09106445,0.074401855,-0.17285156,0.28808594,0.07421875,19.278046,-10.6448145,0.98512554,17.734324,1.0065308,-0.06695557,-0.10040283,0.5126953,0.048828125,-0.13964844,7.022946,1.4296417,-54.60848,14.256823,-0.5531006,-0.039733887,0.86047363,-0.06933594,-0.0107421875,-0.038085938,44.421196,8.732645,-126.18465,11.086746,0.0,0.0,0.0,0.0,0.0,0.0,0.0,23.707788,-132.20093,22.877228,0.0,0.0,0.0,0.0,0.0,0.0,0.0,0.5141653,-0.047583483,-0.8566024,-0.7719116,-0.26672363,-0.34088135,2.2128906,-0.05078125,0.296875,18.675245,10.6448145,-0.98512554,-17.734324,0.9058838,-0.49560547,-0.3602295,-3.7070312,0.63671875,1.7050781,17.1586,21.735802,-56.785442,-14.125565,-0.15826416,0.15826416,0.95373535,1.4111328,-0.8105469,-1.9628906,11.119549,15.019801,-128.42383,-11.404516,0.0,0.0,0.0,0.0,0.0,0.0,0.0,24.900156,-130.59915,5.8362865,0.0,0.0,0.0,0.0,0.0,0.0,0.0,5.3845615,44.679405,0.75011826,
0.44921874330611905,23,0.093566895,0.7364502,0.46166992,-0.03125,-0.27929688,0.08300781,0.0,0.0,0.0,0.0,0.0,0.0,0.0,0.0,0.0,0.0,0.0,-0.51226115,0.039007306,0.8580654,-0.9958496,-0.1060791,0.059143066,-0.13476562,0.4033203,-0.0390625,18.841984,-10.605392,0.807572,17.764614,1.020752,0.0099487305,-0.12219238,0.19335938,0.072265625,-0.053710938,6.431389,1.084341,-54.84414,13.9235935,-0.55877686,-0.028442383,0.8129883,-0.049804688,0.0068359375,-0.01953125,43.063076,8.713589,-126.39191,10.91765,0.0,0.0,0.0,0.0,0.0,0.0,0.0,23.452742,-132.15222,23.128666,0.0,0.0,0.0,0.0,0.0,0.0,0.0,0.51226115,-0.039007306,-0.8580654,-0.8048706,-0.028076172,-0.22705078,2.6142578,0.3671875,0.53808594,18.722277,10.605392,-0.807572,-17.764614,0.9058838,-0.49560547,-0.3602295,-3.7070312,0.63671875,1.7050781,17.184881,21.741585,-56.625168,-14.595615,-0.1104126,0.052124023,0.8807373,1.2382812,-0.8457031,-1.8496094,13.581364,15.025584,-128.26355,-11.874567,0.0,0.0,0.0,0.0,0.0,0.0,0.0,25.7375,-130.13446,4.663994,0.0,0.0,0.0,0.0,0.0,0.0,0.0,5.3672495,44.6681,1.1736299,
0.46874999301508075,24,0.11376953,0.74884033,0.46624756,-0.12792969,-0.24023438,0.0126953125,0.0,0.0,0.0,0.0,0.0,0.0,0.0,0.0,0.0,0.0,0.0,-0.5110927,0.033344813,0.8590193,-1.0369263,-0.086242676,0.13012695,-0.021484375,0.328125,-0.078125,18.512295,-10.581203,0.69034106,17.784363,0.9967041,-0.055786133,-0.107299805,-0.35253906,0.11621094,0.044921875,5.8724275,0.75031567,-55.02435,13.679804,-0.55371094,-0.020874023,0.84259033,-0.049804688,-0.029296875,-0.01953125,41.165592,8.70545,-126.52997,10.723362,0.0,0.0,0.0,0.0,0.0,0.0,0.0,23.19515,-132.03806,23.341553,0.0,0.0,0.0,0.0,0.0,0.0,0.0,0.5110927,-0.033344813,-0.8590193,-0.8694458,0.17016602,-0.2432251,1.5048828,0.22363281,0.6533203,18.66145,10.581203,-0.69034106,-17.784363,0.9433594,0.12359619,-0.43225098,0.46679688,0.19921875,0.49121094,17.315533,21.476078,-56.54887,-14.542029,-0.056152344,-0.008239746,0.8096924,1.1630859,-0.74902344,-1.7919922,17.473797,14.220455,-127.98627,-9.107098,0.0,0.0,0.0,0.0,0.0,0.0,0.0,26.606024,-130.01175,6.187525,0.0,0.0,0.0,0.0,0.0,0.0,0.0,5.4093256,44.654488,1.4850322,
0.48828124272404244,25,0.08618164,0.73095703,0.5095825,-0.044921875,-0.109375,-0.04296875,0.0,0.0,0.0,0.0,0.0,0.0,0.0,0.0,0.0,0.0,0.0,-0.51030266,0.027281709,0.8598231,-0.99072266,-0.054260254,0.09686279,0.09082031,0.17578125,-0.0029296875,18.253952,-10.564847,0.56481594,17.801003,1.0023804,-0.14428711,-0.0927124,-0.23925781,0.07714844,0.048828125,5.537889,0.5373697,-55.18799,13.647565,-0.5657959,-0.0234375,0.83673096,-0.01171875,-0.0126953125,-0.018554688,39.11382,8.6920185,-126.67841,10.846893,0.0,0.0,0.0,0.0,0.0,0.0,0.0,22.930836,-131.95,23.845913,0.0,0.0,0.0,0.0,0.0,0.0,0.0,0.51030266,-0.027281709,-0.8598231,-0.8352661,0.10015869,-0.2467041,0.39746094,0.3935547,0.50390625,18.42131,10.564847,-0.56481594,-17.801003,0.8989868,0.1951294,-0.37554932,-2.3828125,1.0039062,0.8173828,16.424582,20.906338,-56.497677,-14.038723,-0.19342041,-0.06677246,0.94122314,1.1269531,-0.6904297,-1.9052734,19.043812,14.069462,-127.970795,-8.587236,0.0,0.0,0.0,0.0,0.0,0.0,0.0,27.520945,-129.94377,6.0554523,0.0,0.0,0.0,0.0,0.0,0.0,0.0,5.4219446,44.646015,1.8013163,
0.5078124924330042,26,0.11859131,0.73114014,0.5177002,0.0146484375,-0.095703125,-0.19042969,0.0,0.0,0.0,0.0,0.0,0.0,0.0,0.0,0.0,0.0,0.0,-0.50822777,0.025427178,0.8610491,-0.9868164,-0.07952881,0.0914917,0.109375,0.15625,0.03515625,18.025595,-10.52189,0.52642137,17.826387,1.0022583,-0.14715576,-0.10168457,0.06347656,0.034179688,0.038085938,5.3082137,0.3577404,-55.271915,13.671052,-0.5303345,-0.009643555,0.8168335,-0.049804688,-0.0107421875,-0.01953125,37.43962,8.633618,-126.76582,11.1912,0.0,0.0,0.0,0.0,0.0,0.0,0.0,22.616833,-131.8092,24.555408,0.0,0.0,0.0,0.0,0.0,0.0,0.0,0.50822777,-0.025427178,-0.8610491,-0.85528564,-0.04248047,-0.15930176,-0.31054688,0.18066406,0.4091797,18.248161,10.52189,-0.52642137,-17.826387,0.8320923,-0.114990234,-0.1687622,-3.3134766,1.2597656,0.9765625,15.743801,20.444298,-56.49944,-13.55937,-0.20318604,0.74157715,-1.112793,-3.7158203,0.86621094,-0.9902344,18.734465,13.937849,-127.78404,-7.0483675,0.0,0.0,0.0,0.0,0.0,0.0,0.0,27.889011,-130.16228,6.8530273,0.0,0.0,0.0,0.0,0.0,0.0,0.0,5.4297113,44.63925,1.8866286,
0.5273437421419659,27,0.07800293,0.6783447,0.48553467,-0.05859375,0.09277344,-0.3701172,0.0,0.0,0.0,0.0,0.0,0.0,0.0,0.0,0.0,0.0,0.0,-0.5051264,0.02515582,0.86281013,-1.0388184,-0.033325195,0.04937744,0.22265625,0.1171875,0.11035156,17.806103,-10.457683,0.5208035,17.862844,0.9945679,-0.053527832,-0.16107178,0.0625,0.053710938,0.01953125,5.0667415,0.15901947,-55.323868,13.732082,-0.5611572,-0.044311523,0.84069824,-0.01171875,0.0234375,-0.01953125,35.745865,8.471087,-126.818924,11.389716,0.0,0.0,0.0,0.0,0.0,0.0,0.0,22.185785,-131.6359,25.107792,0.0,0.0,0.0,0.0,0.0,0.0,0.0,0.5051264,-0.02515582,-0.86281013,-0.9234009,-0.09954834,-0.09387207,0.08984375,0.07128906,0.54785156,18.503807,10.457683,-0.5208035,-17.862844,1.0997925,-0.3411255,-7.324219E-4,-0.39648438,0.43359375,-0.6123047,14.958873,20.388538,-56.456367,-13.099977,-1.0244141,-0.91918945,1.5091553,-0.072265625,-0.25,1.9794922,20.240513,14.881025,-127.71448,-5.5953465,0.0,0.0,0.0,0.0,0.0,0.0,0.0,29.062565,-130.85951,7.9199724,0.0,0.0,0.0,0.0,0.0,0.0,0.0,5.47003,44.630974,1.9011458,
0.5468749918509276,28,0.017089844,0.8121948,0.49816895,0.42578125,0.47851562,-0.54296875,0.0,0.0,0.0,0.0,0.0,0.0,0.0,0.0,0.0,0.0,0.0,-0.5064551,0.0308195,0.8618561,-0.9842529,0.05456543,0.041992188,0.2607422,0.061523438,0.034179688,17.043089,-10.48519,0.6380592,17.843094,0.9528198,-0.16638184,-0.18701172,-0.6191406,0.025390625,0.038085938,4.630116,-0.35325527,-55.288364,13.709991,-0.5668335,-0.02532959,0.83081055,-0.01171875,0.005859375,-0.018554688,33.702232,7.9403553,-126.78224,11.348866,0.0,0.0,0.0,0.0,0.0,0.0,0.0,21.39551,-131.39449,25.393787,0.0,0.0,0.0,0.0,0.0,0.0,0.0,0.5064551,-0.0308195,-0.8618561,-1.0557861,-0.15301514,-0.0056762695,0.49023438,0.13671875,0.78808594,18.19493,10.48519,-0.6380592,-17.843094,0.7685547,0.5009155,-0.7185669,5.663086,-0.69921875,-1.5771484,16.425089,20.44237,-56.523716,-12.576687,-0.4024048,-0.8742676,0.96118164,0.09667969,0.11816406,0.5488281,23.86102,13.1566,-127.7538,-6.1741486,0.0,0.0,0.0,0.0,0.0,0.0,0.0,27.526966,-130.92805,7.144492,0.0,0.0,0.0,0.0,0.0,0.0,0.0,5.2037625,44.67975,1.4601793,
0.5664062415598893,29,-0.044128418,0.897583,0.55218506,0.32617188,0.45703125,0.08105469,0.0,0.0,0.0,0.0,0.0,0.0,0.0,0.0,0.0,0.0,0.0,-0.5147098,0.031016946,0.85696137,-0.9390869,0.21118164,0.008850098,0.22167969,-0.12988281,0.08886719,15.904147,-10.656088,0.64214706,17.741758,0.97558594,-0.2574463,-0.20251465,-0.296875,0.05859375,0.028320312,4.2588277,-1.0292282,-55.386745,13.940367,-0.548584,-0.012207031,0.852478,-0.01171875,-0.0126953125,-0.018554688,31.230455,7.0141735,-126.91431,11.680106,0.0,0.0,0.0,0.0,0.0,0.0,0.0,20.200413,-131.31812,26.0405,0.0,0.0,0.0,0.0,0.0,0.0,0.0,0.5147098,-0.031016946,-0.85696137,-0.9697876,-0.559021,-0.19940186,-3.2675781,0.5234375,-0.6386719,17.115196,10.656088,-0.64214706,-17.741758,0.98620605,0.7567749,-0.42144775,1.2353516,0.44628906,0.13964844,16.411654,19.946098,-56.582436,-11.883998,-0.37841797,-0.29119873,0.9627075,0.8935547,-0.31640625,-0.05859375,30.973307,11.7943535,-127.65144,-4.5598717,0.0,0.0,0.0,0.0,0.0,0.0,0.0,26.802265,-130.90485,8.180025,0.0,0.0,0.0,0.0,0.0,0.0,0.0,4.7090044,44.742733,1.2089081,
0.585937491268851,30,0.036071777,0.8250122,0.5644531,0.0234375,0.18457031,0.359375,0.0,0.0,0.0,0.0,0.0,0.0,0.0,0.0,0.0,0.0,0.0,-0.5228896,0.024915883,0.8522356,-0.9472656,0.0635376,-0.0036010742,-0.53125,0.26660156,0.15136719,14.90424,-10.825436,0.51583606,17.643919,1.031311,-0.22058105,-0.18695068,0.40039062,0.049804688,-0.0859375,3.8995304,-1.8730583,-55.642296,14.028625,-0.55010986,-0.042663574,0.8446655,-0.03125,0.024414062,-0.01953125,29.622257,5.90996,-127.203186,12.223202,0.0,0.0,0.0,0.0,0.0,0.0,0.0,18.826984,-131.40997,26.885998,0.0,0.0,0.0,0.0,0.0,0.0,0.0,0.5228896,-0.024915883,-0.8522356,-0.9708252,-0.7792969,-0.07330322,-2.5029297,-0.22070312,-1.2021484,16.720308,10.825436,-0.51583606,-17.643919,1.1408081,0.15411377,-0.1687622,0.12109375,0.20507812,0.8720703,16.977015,19.73869,-56.510532,-11.728916,-0.23376465,0.8479004,0.8777466,0.8222656,-0.029296875,0.111328125,32.318058,10.345002,-127.22113,-2.550538,0.0,0.0,0.0,0.0,0.0,0.0,0.0,25.491554,-130.11237,9.988872,0.0,0.0,0.0,0.0,0.0,0.0,0.0,4.513109,44.756977,1.4605094,
0.6054687409778127,31,0.041870117,0.81378174,0.5432739,-0.038085938,0.10644531,0.21386719,0.0,0.0,0.0,0.0,0.0,0.0,0.0,0.0,0.0,0.0,0.0,-0.5258528,0.018420042,0.85048413,-1.0412598,-0.14331055,-0.006225586,-0.7011719,0.36132812,0.1328125,14.303597,-10.886786,0.38135207,17.60766,1.0238647,-0.012329102,-0.21502686,0.9091797,0.043945312,-0.18554688,3.5596352,-2.494979,-55.87023,13.775452,-0.5731201,-0.043823242,0.81799316,-0.01171875,-0.0126953125,-0.018554688,28.769129,5.3161697,-127.44461,12.116096,0.0,0.0,0.0,0.0,0.0,0.0,0.0,17.964128,-131.47096,27.06113,0.0,0.0,0.0,0.0,0.0,0.0,0.0,0.5258528,-0.018420042,-0.85048413,-0.9503174,-0.38183594,-0.21679688,3.4433594,0.87109375,-0.37109375,16.354734,10.886786,-0.38135207,-17.60766,1.1865234,-0.43536377,-0.14111328,-2.3203125,0.6142578,0.89746094,18.067675,19.84153,-56.491936,-13.020138,-0.3782959,0.37078857,0.9041748,0.041015625,0.0087890625,0.022460938,32.349014,9.56191,-126.836395,-2.1232824,0.0,0.0,0.0,0.0,0.0,0.0,0.0,25.007011,-129.64326,10.255044,0.0,0.0,0.0,0.0,0.0,0.0,0.0,4.5106115,44.740524,1.8198994,
0.6249999906867744,32,0.040405273,0.81359863,0.5095215,-0.15429688,0.16503906,0.14453125,0.0,0.0,0.0,0.0,0.0,0.0,0.0,0.0,0.0,0.0,0.0,-0.5300121,0.014404386,0.8480602,-1.0397949,-0.23443604,-0.027709961,-0.5878906,0.30566406,0.07519531,14.057086,-10.972894,0.29821548,17.557476,1.0129395,0.09967041,-0.1706543,0.21386719,0.08984375,-0.0146484375,3.3791027,-2.872243,-55.963722,13.264076,-0.5472412,-0.054504395,0.829834,0.026367188,-0.013671875,9.765625E-4,27.8997,5.239462,-127.49594,11.46835,0.0,0.0,0.0,0.0,0.0,0.0,0.0,17.616768,-131.35248,26.683685,0.0,0.0,0.0,0.0,0.0,0.0,0.0,0.5300121,-0.014404386,-0.8480602,-0.9946289,0.34851074,-0.15631104,3.1933594,1.6767578,0.45214844,14.812679,10.972894,-0.29821548,-17.557476,0.7946167,-0.4060669,-0.26281738,-0.06738281,0.42871094,-0.57910156,17.422165,18.623503,-56.683327,-14.14565,-0.24902344,0.0020751953,0.8497925,-0.22558594,0.015625,-0.0703125,30.54946,8.198459,-126.95733,-2.407773,0.0,0.0,0.0,0.0,0.0,0.0,0.0,23.483284,-129.69241,10.043641,0.0,0.0,0.0,0.0,0.0,0.0,0.0,4.535568,44.73013,2.0748477,
0.6445312403957361,33,0.09112549,0.81640625,0.53009033,-0.111328125,0.2783203,0.16210938,0.0,0.0,0.0,0.0,0.0,0.0,0.0,0.0,0.0,0.0,0.0,-0.5370403,0.011060588,0.8436621,-1.0411987,-0.16326904,0.08404541,-0.2109375,0.11621094,0.07324219,14.004742,-11.118399,0.22898856,17.466423,1.0102539,-0.042663574,-0.09039307,-0.2939453,0.038085938,0.12402344,3.2292545,-3.0698547,-56.031395,13.023127,-0.5308838,-0.040222168,0.8248291,0.064453125,0.00390625,9.765625E-4,26.482323,5.301255,-127.52377,11.092377,0.0,0.0,0.0,0.0,0.0,0.0,0.0,17.412586,-131.21176,26.562796,0.0,0.0,0.0,0.0,0.0,0.0,0.0,0.5370403,-0.011060588,-0.8436621,-1.0129395,0.25604248,-0.32305908,-1.4570312,0.58496094,0.5878906,14.290957,11.118399,-0.22898856,-17.466423,0.9827881,0.4588623,-0.1083374,2.4101562,-0.12890625,-1.1679688,15.427521,17.578445,-56.70805,-13.200911,-0.19921875,0.060546875,0.7993164,-0.21972656,0.3203125,-0.08886719,36.39241,7.656411,-127.20964,-2.4330778,0.0,0.0,0.0,0.0,0.0,0.0,0.0,23.440483,-130.32928,9.239287,0.0,0.0,0.0,0.0,0.0,0.0,0.0,4.549552,44.716602,2.3098116,
0.6640624901046978,34,0.113586426,0.7542114,0.5289917,0.22753906,0.44335938,0.22851562,0.0,0.0,0.0,0.0,0.0,0.0,0.0,0.0,0.0,0.0,0.0,-0.54394317,0.0054822266,0.8391856,-1.0569458,-0.081604004,0.10229492,0.07128906,-0.2265625,0.107421875,13.851342,-11.261311,0.113499016,17.373743,1.0087891,-0.13378906,-0.07879639,-0.125,0.055664062,0.07128906,3.097119,-3.1568222,-56.15942,13.2317095,-0.54156494,-0.015380859,0.8475342,0.044921875,-0.013671875,9.765625E-4,25.013704,5.3470125,-127.64572,11.519077,0.0,0.0,0.0,0.0,0.0,0.0,0.0,17.183662,-131.16353,27.238918,0.0,0.0,0.0,0.0,0.0,0.0,0.0,0.54394317,-0.0054822266,-0.8391856,-0.9753418,-0.37408447,-0.19506836,-1.7636719,0.047851562,0.2841797,14.290225,11.261311,-0.113499016,-17.373743,1.0462036,0.616333,-0.33483887,-3.0615234,0.5498047,0.09667969,15.141277,17.103325,-56.588715,-12.278677,-0.30303955,-0.07531738,0.90515137,-0.08105469,0.60253906,-0.08984375,38.098896,6.529004,-126.90943,-1.4753304,0.0,0.0,0.0,0.0,0.0,0.0,0.0,22.59652,-130.3294,9.90686,0.0,0.0,0.0,0.0,0.0,0.0,0.0,4.429078,44.710293,2.5787563,
0.6835937398136595,35,0.10217285,0.6990967,0.56463623,0.4033203,0.3984375,0.09667969,0.0,0.0,0.0,0.0,0.0,0.0,0.0,0.0,0.0,0.0,0.0,-0.5467941,4.936382E-4,0.8374772,-0.9927368,0.054016113,0.08477783,0.203125,-0.24511719,0.087890625,13.640384,-11.320333,0.010219894,17.338373,0.9788208,-0.11273193,-0.14019775,-0.0126953125,0.016601562,0.036132812,2.917456,-3.1184196,-56.27333,13.691313,-0.54156494,-0.015380859,0.8475342,0.044921875,-0.013671875,9.765625E-4,24.769875,5.4000864,-127.76506,12.172178,0.0,0.0,0.0,0.0,0.0,0.0,0.0,17.236736,-131.28287,27.892021,0.0,0.0,0.0,0.0,0.0,0.0,0.0,0.5467941,-4.936382E-4,-0.8374772,-0.93426514,-0.45263672,-0.052246094,0.15039062,-0.046875,-0.16992188,14.040007,11.320333,-0.010219894,-17.338373,1.0198364,-0.13354492,-0.12298584,-5.2197266,0.640625,1.328125,14.767342,17.507042,-56.498676,-12.944373,-0.3475952,0.085754395,0.7644043,0.09863281,0.026367188,0.0029296875,34.650917,7.9266376,-127.08737,-2.4563074,0.0,0.0,0.0,0.0,0.0,0.0,0.0,24.210325,-130.72707,8.374945,0.0,0.0,0.0,0.0,0.0,0.0,0.0,4.2079067,44.728096,2.7210045,
0.7031249895226211,36,0.04449463,0.7025757,0.5562744,0.14160156,0.21191406,0.009765625,0.0,0.0,0.0,0.0,0.0,0.0,0.0,0.0,0.0,0.0,0.0,-0.54887426,-7.093139E-4,0.83617884,-0.9246826,0.15576172,0.052734375,-0.17382812,0.115234375,0.14941406,13.011564,-11.363399,-0.014684994,17.311495,0.9891968,-0.140625,-0.13543701,-0.20019531,-9.765625E-4,0.107421875,2.5079582,-3.4973035,-56.364426,14.105679,-0.5404663,-0.009521484,0.84552,0.044921875,0.022460938,0.0,22.13708,4.941833,-127.87006,12.74594,0.0,0.0,0.0,0.0,0.0,0.0,0.0,16.244362,-131.05884,28.921322,0.0,0.0,0.0,0.0,0.0,0.0,0.0,0.54887426,7.093139E-4,-0.83617884,-0.94366455,-0.25927734,-0.10876465,0.24707031,0.12597656,-0.25195312,13.626751,11.363399,0.014684994,-17.311495,0.9864502,-0.8237915,-0.1375122,0.38671875,0.5341797,0.58203125,16.378138,17.989105,-56.494587,-13.835821,-0.47277832,0.06011963,0.98547363,0.08105469,0.140625,0.059570312,33.99615,7.7979126,-126.606094,-1.5167599,0.0,0.0,0.0,0.0,0.0,0.0,0.0,24.348534,-130.36848,9.013126,0.0,0.0,0.0,0.0,0.0,0.0,0.0,3.982936,44.75522,2.6523948,
0.7226562392315828,37,-0.068725586,0.69799805,0.46166992,-0.107421875,0.4111328,0.12695312,0.0,0.0,0.0,0.0,0.0,0.0,0.0,0.0,0.0,0.0,0.0,-0.55314046,0.0022061728,0.83322304,-0.9536133,0.08721924,0.0435791,-0.5136719,0.18847656,0.24609375,12.349768,-11.451721,0.04567462,17.250301,0.9891968,-0.16986084,-0.18139648,-0.10546875,0.0546875,0.09082031,2.017903,-4.250627,-56.415916,14.365495,-0.541626,-0.019226074,0.8336792,0.026367188,0.0048828125,0.01953125,20.568558,4.019778,-127.93907,13.212981,0.0,0.0,0.0,0.0,0.0,0.0,0.0,15.062897,-130.97267,29.596195,0.0,0.0,0.0,0.0,0.0,0.0,0.0,0.55314046,-0.0022061728,-0.83322304,-0.90448,-0.1854248,-0.11810303,0.9736328,0.5917969,-0.03515625,13.09723,11.451721,-0.04567462,-17.250301,1.0102539,0.12731934,0.03149414,4.21875,-0.54589844,-0.58203125,16.567955,17.9509,-56.613655,-14.491964,-0.36480713,0.0736084,0.9260254,0.07910156,0.044921875,0.059570312,36.951286,7.9220934,-126.75557,-1.6653137,0.0,0.0,0.0,0.0,0.0,0.0,0.0,24.314419,-130.36978,9.199795,0.0,0.0,0.0,0.0,0.0,0.0,0.0,3.9905121,44.756416,2.5306225,
0.7421874889405445,38,-0.14807129,0.75701904,0.5090332,-0.26367188,0.43554688,0.203125,0.0,0.0,0.0,0.0,0.0,0.0,0.0,0.0,0.0,0.0,0.0,-0.5598289,0.0079717785,0.82877797,-1.0251465,-0.05847168,-0.029663086,-0.43847656,0.07519531,0.22558594,11.958249,-11.590194,0.16504057,17.158272,1.0048218,-0.15783691,-0.1595459,0.1953125,0.013671875,0.0234375,1.7842156,-4.916106,-56.370827,14.414702,-0.5618286,-0.024597168,0.8436279,0.044921875,-0.013671875,-0.017578125,19.326687,3.2262506,-127.91592,13.464218,0.0,0.0,0.0,0.0,0.0,0.0,0.0,14.019622,-130.8057,30.040834,0.0,0.0,0.0,0.0,0.0,0.0,0.0,0.5598289,-0.0079717785,-0.82877797,-0.9369507,-0.06524658,-0.20758057,1.1464844,1.0546875,0.18945312,12.255798,11.590194,-0.16504057,-17.158272,1.0280151,0.2942505,-0.3204956,1.390625,0.16601562,-0.06640625,17.012535,17.413647,-56.831654,-14.960901,-0.38812256,0.11895752,0.93292236,0.021484375,0.02734375,0.07910156,39.6864,6.5068913,-126.698166,-1.7623768,0.0,0.0,0.0,0.0,0.0,0.0,0.0,22.700487,-130.17001,9.4451885,0.0,0.0,0.0,0.0,0.0,0.0,0.0,4.103809,44.759068,2.3415456,
0.7617187386495062,39,-0.07861328,0.8530884,0.59851074,-0.27148438,0.18847656,0.21972656,0.0,0.0,0.0,0.0,0.0,0.0,0.0,0.0,0.0,0.0,0.0,-0.56477857,0.01240859,0.82537663,-1.0530396,-0.16247559,0.044189453,-0.4375,0.0,0.12890625,12.034127,-11.692668,0.2568962,17.087854,1.019043,-0.05065918,-0.13635254,0.57421875,0.0078125,0.034179688,1.8203744,-5.2177486,-56.317856,14.426392,-0.5410156,-0.04095459,0.83477783,0.064453125,0.00390625,0.01953125,18.616848,2.9190626,-127.86547,13.75637,0.0,0.0,0.0,0.0,0.0,0.0,0.0,13.457377,-130.62384,30.517597,0.0,0.0,0.0,0.0,0.0,0.0,0.0,0.56477857,-0.01240859,-0.82537663,-1.0376587,0.06604004,-0.13677979,0.18945312,0.7519531,0.1796875,11.632794,11.692668,-0.2568962,-17.087854,0.9397583,0.17926025,0.081970215,-2.2089844,0.55566406,0.3310547,14.895328,16.530302,-57.008957,-14.769609,-0.3809204,0.11395264,0.920105,-0.09277344,0.01171875,0.022460938,37.942535,7.055068,-127.23332,-1.9856596,0.0,0.0,0.0,0.0,0.0,0.0,0.0,23.041756,-130.5503,9.558303,0.0,0.0,0.0,0.0,0.0,0.0,0.0,4.321745,44.742184,2.284583,
0.7812499883584679,40,0.01965332,0.8930054,0.5643921,0.045898438,0.29589844,0.23144531,0.0,0.0,0.0,0.0,0.0,0.0,0.0,0.0,0.0,0.0,0.0,-0.57032585,0.010579467,0.82150847,-1.041687,-0.19769287,0.10534668,-0.13671875,-0.18847656,0.0703125,12.2888155,-11.807512,0.21902773,17.007772,1.0063477,-3.0517578E-4,-0.10418701,0.36816406,0.009765625,0.10449219,1.8216642,-5.106744,-56.330418,14.497574,-0.548584,-0.013122559,0.8376465,0.064453125,0.00390625,0.038085938,18.228498,3.2240381,-127.85332,13.99338,0.0,0.0,0.0,0.0,0.0,0.0,0.0,13.519068,-130.47546,30.927279,0.0,0.0,0.0,0.0,0.0,0.0,0.0,0.57032585,-0.010579467,-0.82150847,-1.1082764,0.117492676,-0.1854248,-0.46289062,0.009765625,0.125,11.621661,11.807512,-0.21902773,-17.007772,0.99224854,-0.20794678,-0.068603516,-1.3486328,-0.21679688,0.44335938,13.98712,16.377645,-56.98493,-14.425342,-0.3760376,0.06896973,0.9102783,-0.0546875,0.029296875,0.022460938,34.88732,7.595604,-127.32417,-1.7704372,0.0,0.0,0.0,0.0,0.0,0.0,0.0,23.371258,-130.51115,10.094706,0.0,0.0,0.0,0.0,0.0,0.0,0.0,4.3327875,44.730732,2.431957,
0.8007812380674296,41,0.041931152,0.82281494,0.550354,0.4013672,0.34277344,0.1875,0.0,0.0,0.0,0.0,0.0,0.0,0.0,0.0,0.0,0.0,0.0,-0.57668924,0.0045583844,0.8170566,-0.9996338,-0.061401367,0.06689453,0.10839844,-0.28222656,0.049804688,12.162801,-11.939255,0.09437266,16.915604,0.98999023,-0.037719727,-0.13806152,-0.44433594,0.020507812,0.17675781,1.7286166,-4.933237,-56.431465,14.636772,-0.5394287,-0.011413574,0.8257446,0.140625,-0.015625,0.040039062,17.250494,3.5326757,-127.9399,14.151256,0.0,0.0,0.0,0.0,0.0,0.0,0.0,13.613778,-130.40465,31.238426,0.0,0.0,0.0,0.0,0.0,0.0,0.0,0.57668924,-0.0045583844,-0.8170566,-1.0110474,-0.047058105,-0.17492676,-1.6669922,-0.18847656,-0.06542969,11.707081,11.939255,-0.09437266,-16.915604,1.0581055,-0.21203613,-0.18444824,0.38671875,-0.022460938,-0.013671875,14.484908,16.55664,-56.822548,-13.665485,-0.40270996,0.08319092,0.9369507,-0.09277344,0.030273438,0.022460938,33.93441,6.9627733,-126.95449,-0.44107533,0.0,0.0,0.0,0.0,0.0,0.0,0.0,22.518055,-130.0295,11.743157,0.0,0.0,0.0,0.0,0.0,0.0,0.0,3.973497,44.75527,2.5548549,
0.8203124877763913,42,0.041992188,0.78948975,0.4694214,0.34179688,0.32617188,0.22558594,0.0,0.0,0.0,0.0,0.0,0.0,0.0,0.0,0.0,0.0,0.0,-0.58254844,-0.0020810403,0.81293815,-0.9678955,0.10736084,0.071777344,0.25976562,-0.24316406,0.03125,11.791407,-12.060558,-0.043084,16.830341,0.99487305,-0.18481445,-0.17852783,-0.8027344,-0.013671875,0.24316406,1.5841208,-4.967536,-56.562103,14.953004,-0.5595703,-0.010803223,0.82873535,0.10253906,0.0029296875,0.020507812,15.510849,3.3608866,-128.08987,14.508487,0.0,0.0,0.0,0.0,0.0,0.0,0.0,13.226224,-130.40533,31.7407,0.0,0.0,0.0,0.0,0.0,0.0,0.0,0.58254844,0.0020810403,-0.81293815,-0.9147949,-0.2796631,-0.21899414,-1.2861328,-0.53125,-0.11230469,11.757332,12.060558,0.043084,-16.830341,1.0151367,0.032226562,-0.1239624,0.48339844,0.10644531,0.115234375,14.165936,17.02866,-56.6418,-13.402966,-0.335083,0.05419922,0.90423584,-0.07324219,0.030273438,0.022460938,33.220985,8.044533,-126.89109,-0.40912056,0.0,0.0,0.0,0.0,0.0,0.0,0.0,23.373634,-129.85121,12.083422,0.0,0.0,0.0,0.0,0.0,0.0,0.0,3.5666928,44.78419,2.6705222,
0.839843737485353,43,-0.018920898,0.6889038,0.48718262,0.12988281,0.4638672,0.17675781,0.0,0.0,0.0,0.0,0.0,0.0,0.0,0.0,0.0,0.0,0.0,-0.58853316,-0.0035610832,0.80856574,-0.935791,0.2680664,0.03668213,0.14648438,-0.1484375,0.032226562,11.342099,-12.184463,-0.07372549,16.739817,0.96380615,-0.31072998,-0.23852539,-0.6328125,0.041992188,0.20898438,1.5330176,-5.300327,-56.622288,15.382771,-0.54748535,-0.009216309,0.8317261,0.064453125,-0.013671875,0.01953125,13.628258,2.6070147,-128.19742,15.255752,0.0,0.0,0.0,0.0,0.0,0.0,0.0,12.264026,-130.36731,32.62523,0.0,0.0,0.0,0.0,0.0,0.0,0.0,0.58853316,0.0035610832,-0.80856574,-0.87316895,-0.32537842,-0.2232666,-0.42382812,-0.030273438,-0.060546875,11.394855,12.184463,0.07372549,-16.739817,1.010376,0.05114746,-0.18426514,0.50683594,-0.24609375,0.19433594,14.35103,17.407522,-56.61339,-13.793033,-0.3597412,0.051574707,0.9161377,-0.016601562,0.028320312,0.060546875,32.658894,8.621408,-126.95003,-1.090415,0.0,0.0,0.0,0.0,0.0,0.0,0.0,23.739431,-129.79837,11.686405,0.0,0.0,0.0,0.0,0.0,0.0,0.0,3.3212318,44.804703,2.614764,
0.8593749871943147,44,-0.09277344,0.6782837,0.5437622,-0.4013672,0.4189453,0.1328125,0.0,0.0,0.0,0.0,0.0,0.0,0.0,0.0,0.0,0.0,0.0,-0.5936634,0.0013668276,0.8048411,-0.9351196,0.2942505,-0.016601562,-0.38183594,-0.038085938,0.18652344,11.079173,-12.290673,0.028297607,16.662706,0.9610596,-0.30584717,-0.20855713,0.140625,0.032226562,0.07910156,1.3943738,-5.921188,-56.579266,15.782532,-0.5737915,-0.01928711,0.84558105,0.064453125,-0.0146484375,9.765625E-4,12.362232,1.5527158,-128.20001,16.242887,0.0,0.0,0.0,0.0,0.0,0.0,0.0,10.984505,-130.25342,33.752663,0.0,0.0,0.0,0.0,0.0,0.0,0.0,0.5936634,-0.0013668276,-0.8048411,-0.9277954,-0.27618408,-0.15216064,0.18945312,0.45898438,0.036132812,11.024302,12.290673,-0.028297607,-16.662706,1.0455933,0.07751465,-0.23547363,-0.07519531,0.022460938,0.2548828,14.249643,17.382854,-56.75607,-14.341093,-0.3555298,0.072387695,0.92596436,0.00390625,0.06640625,0.00390625,31.533417,8.719413,-127.19899,-2.1355476,0.0,0.0,0.0,0.0,0.0,0.0,0.0,23.620432,-129.94125,10.915566,0.0,0.0,0.0,0.0,0.0,0.0,0.0,3.4707947,44.80182,2.4840276,
0.8789062369032764,45,-0.121520996,0.767395,0.5372925,-0.5830078,0.25195312,0.17285156,0.0,0.0,0.0,0.0,0.0,0.0,0.0,0.0,0.0,0.0,0.0,-0.59602416,0.010611936,0.80309004,-0.95062256,0.045837402,0.013977051,-0.8720703,0.1484375,0.32226562,11.191109,-12.33955,0.21970002,16.626453,0.9784546,-0.19299316,-0.17840576,0.8378906,0.0234375,-0.03515625,1.1117076,-6.605488,-56.48305,16.114681,-0.548645,-0.021911621,0.81689453,0.026367188,0.0234375,0.018554688,11.946343,0.6450739,-128.12547,17.133648,0.0,0.0,0.0,0.0,0.0,0.0,0.0,9.846432,-130.07236,34.777786,0.0,0.0,0.0,0.0,0.0,0.0,0.0,0.59602416,-0.010611936,-0.80309004,-0.9827881,-0.18304443,-0.2388916,0.62890625,0.5048828,0.17382812,11.02332,12.33955,-0.21970002,-16.626453,0.9730835,0.018798828,-0.13293457,-0.2705078,0.19238281,0.21777344,13.679689,17.067078,-56.99934,-14.811691,-0.3925171,0.08190918,0.94873047,0.0029296875,0.047851562,-0.015625,30.206678,8.989853,-127.555145,-2.8627415,0.0,0.0,0.0,0.0,0.0,0.0,0.0,23.684544,-130.18303,10.443487,0.0,0.0,0.0,0.0,0.0,0.0,0.0,4.020621,44.763165,2.3924634,
0.8984374866122381,46,-0.12322998,0.8944702,0.5204468,-0.15136719,0.26171875,0.23632812,0.0,0.0,0.0,0.0,0.0,0.0,0.0,0.0,0.0,0.0,0.0,-0.60182077,0.015280224,0.7986918,-1.0020752,-0.11102295,0.0670166,-0.8154297,0.14941406,0.2841797,11.139258,-12.459555,0.31634793,16.535397,0.97857666,-0.048034668,-0.13397217,0.82128906,0.080078125,0.001953125,1.0822747,-7.0475073,-56.431202,16.119705,-0.55700684,-0.03845215,0.82684326,0.064453125,-0.032226562,0.020507812,11.868734,0.27865124,-128.06276,17.467598,0.0,0.0,0.0,0.0,0.0,0.0,0.0,9.252936,-129.9048,35.2383,0.0,0.0,0.0,0.0,0.0,0.0,0.0,0.60182077,-0.015280224,-0.7986918,-0.99554443,-0.0881958,-0.2666626,0.4951172,0.4892578,0.13476562,10.657466,12.459555,-0.31634793,-16.535397,0.9771118,0.020751953,-0.12908936,-0.5,-0.044921875,0.29882812,12.954119,16.674232,-57.142582,-14.96735,-0.38116455,0.05316162,0.89849854,0.0029296875,0.047851562,0.00390625,28.760841,9.059146,-127.790405,-3.296976,0.0,0.0,0.0,0.0,0.0,0.0,0.0,23.551937,-130.31622,10.248899,0.0,0.0,0.0,0.0,0.0,0.0,0.0,4.2305346,44.747456,2.3316536,
0.9179687363211998,47,-0.12054443,0.9539795,0.5128784,0.0625,0.18066406,0.24902344,0.0,0.0,0.0,0.0,0.0,0.0,0.0,0.0,0.0,0.0,0.0,-0.6093241,0.014221422,0.79295516,-1.0371094,-0.12976074,0.11248779,-0.4560547,0.09472656,0.14941406,10.89439,-12.614899,0.29442748,16.41663,1.0036621,0.013549805,-0.1060791,0.3876953,0.06640625,0.08496094,1.0592481,-7.236329,-56.451527,16.082888,-0.5285034,-0.01763916,0.8237915,0.064453125,-0.032226562,9.765625E-4,11.768322,0.36167002,-128.05139,17.562191,0.0,0.0,0.0,0.0,0.0,0.0,0.0,9.115213,-129.787,35.454063,0.0,0.0,0.0,0.0,0.0,0.0,0.0,0.6093241,-0.014221422,-0.79295516,-0.99121094,0.009887695,-0.23840332,-0.060546875,0.037109375,0.017578125,10.233084,12.614899,-0.29442748,-16.41663,1.0628052,-0.15020752,-0.16912842,-0.23046875,0.061523438,0.27539062,12.5886965,16.568628,-57.140007,-14.773308,-0.3970337,0.11779785,0.85614014,0.0029296875,0.047851562,-0.015625,27.289562,9.139138,-127.80263,-3.0677605,0.0,0.0,0.0,0.0,0.0,0.0,0.0,23.43554,-130.22636,10.702557,0.0,0.0,0.0,0.0,0.0,0.0,0.0,4.049446,44.76371,2.3088593,
0.9374999860301615,48,-0.08239746,0.82250977,0.4590454,0.080078125,0.12011719,0.13867188,0.0,0.0,0.0,0.0,0.0,0.0,0.0,0.0,0.0,0.0,0.0,-0.61487037,0.011124741,0.78875643,-1.0738525,-0.12579346,0.14038086,-0.022460938,-0.13085938,0.051757812,10.724934,-12.729723,0.23031665,16.329704,1.013977,-0.055541992,-0.095458984,-0.2919922,0.07519531,0.18066406,0.9481196,-7.1906257,-56.499958,16.156319,-0.5545044,-0.010925293,0.8297119,0.083984375,-0.032226562,0.0390625,11.213136,0.604609,-128.06932,17.706266,0.0,0.0,0.0,0.0,0.0,0.0,0.0,9.171341,-129.69516,35.698135,0.0,0.0,0.0,0.0,0.0,0.0,0.0,0.61487037,-0.011124741,-0.78875643,-0.95654297,-0.02758789,-0.25250244,-0.48339844,-0.3798828,9.765625E-4,10.222467,12.729723,-0.23031665,-16.329704,1.0024414,-0.105407715,-0.16821289,-0.23046875,-0.0126953125,0.23828125,12.45788,16.921892,-57.051014,-14.437453,-0.39648438,0.08911133,0.9329834,-0.015625,0.029296875,-0.015625,26.093142,9.786819,-127.7426,-2.7046804,0.0,0.0,0.0,0.0,0.0,0.0,0.0,23.891626,-130.06142,11.2788515,0.0,0.0,0.0,0.0,0.0,0.0,0.0,3.7567472,44.791428,2.2968044,
0.9570312357391232,49,-0.06793213,0.72869873,0.45495605,-0.07421875,0.19921875,0.06933594,0.0,0.0,0.0,0.0,0.0,0.0,0.0,0.0,0.0,0.0,0.0,-0.6171082,0.011462659,0.7869603,-0.9961548,0.048583984,0.12249756,0.31640625,-0.28125,0.030273438,10.998931,-12.776053,0.23731253,16.292517,0.99609375,-0.18304443,-0.1416626,-0.6875,0.061523438,0.24609375,0.7890712,-6.9529705,-56.465534,16.429132,-0.5562134,0.0049438477,0.81781006,0.044921875,0.0048828125,0.056640625,10.0376,0.84212637,-128.03705,18.092619,0.0,0.0,0.0,0.0,0.0,0.0,0.0,9.221136,-129.55142,36.18088,0.0,0.0,0.0,0.0,0.0,0.0,0.0,0.6171082,-0.011462659,-0.7869603,-0.9274292,-0.10241699,-0.25598145,-0.88378906,-0.11425781,0.068359375,10.360102,12.776053,-0.23731253,-16.292517,0.9595947,-0.0769043,-0.18334961,0.17675781,-0.055664062,0.19628906,12.321521,17.08836,-57.042057,-14.144265,-0.38446045,0.044921875,0.9359131,-0.015625,0.029296875,-0.015625,25.048695,10.066612,-127.7386,-2.4392385,0.0,0.0,0.0,0.0,0.0,0.0,0.0,23.98465,-129.97266,11.745116,0.0,0.0,0.0,0.0,0.0,0.0,0.0,3.70041,44.797047,2.249237,
0.9765624854480849,50,-0.12322998,0.6869507,0.53570557,-0.19433594,0.14355469,0.016601562,0.0,0.0,0.0,0.0,0.0,0.0,0.0,0.0,0.0,0.0,0.0,-0.617341,0.015885795,0.7865954,-0.9321289,0.16003418,0.09564209,0.31640625,-0.14941406,0.12695312,11.265386,-12.7808695,0.32888523,16.284964,0.96569824,-0.25628662,-0.13964844,-0.4423828,0.0390625,0.21484375,0.6878495,-6.965807,-56.36984,16.897905,-0.5510254,0.01550293,0.83062744,0.064453125,-0.013671875,0.01953125,8.912112,0.63356066,-127.9498,18.880587,0.0,0.0,0.0,0.0,0.0,0.0,0.0,8.827517,-129.36647,37.06282,0.0,0.0,0.0,0.0,0.0,0.0,0.0,0.617341,-0.015885795,-0.7865954,-0.9057617,-0.21099854,-0.2341919,-0.51953125,0.1484375,0.064453125,10.326758,12.7808695,-0.32888523,-16.284964,1.0314941,0.023864746,-0.2210083,0.15625,-0.037109375,0.13964844,12.122618,16.987946,-57.136417,-14.200855,-0.3927002,0.043029785,0.9369507,0.022460938,0.028320312,0.00390625,24.272297,10.019184,-127.88118,-2.7221298,0.0,0.0,0.0,0.0,0.0,0.0,0.0,23.743818,-130.03436,11.660272,0.0,0.0,0.0,0.0,0.0,0.0,0.0,3.8510108,44.787003,2.1178732,
0.9960937351570466,51,-0.12322998,0.69989014,0.53778076,-0.12011719,0.0078125,-0.00390625,0.0,0.0,0.0,0.0,0.0,0.0,0.0,0.0,0.0,0.0,0.0,-0.6145197,0.02059317,0.78884,-0.947876,0.13244629,0.13000488,-0.0234375,0.057617188,0.20605469,11.402872,-12.722463,0.42634246,16.331432,0.980896,-0.25500488,-0.13879395,0.047851562,-0.005859375,0.15234375,0.53522307,-7.178856,-56.289036,17.462095,-0.5606079,-0.014709473,0.82873535,0.044921875,0.022460938,0.01953125,8.353247,0.23482466,-127.87448,19.96542,0.0,0.0,0.0,0.0,0.0,0.0,0.0,8.231815,-129.1995,38.241547,0.0,0.0,0.0,0.0,0.0,0.0,0.0,0.6145197,-0.02059317,-0.78884,-0.9345703,-0.18414307,-0.18780518,0.16894531,0.3232422,0.076171875,10.229085,12.722463,-0.42634246,-16.331432,1.0032349,-0.03161621,-0.21612549,-0.34765625,0.13769531,0.27539062,11.895156,16.75993,-57.26295,-14.571669,-0.3595581,0.07763672,0.90625,0.0029296875,0.047851562,0.022460938,23.066298,9.990404,-128.08034,-3.372302,0.0,0.0,0.0,0.0,0.0,0.0,0.0,23.53124,-130.14667,11.198152,0.0,0.0,0.0,0.0,0.0,0.0,0.0,4.0807323,44.776886,2.0100303,
1.0156249848660084,52,-0.12005615,0.789978,0.5026245,0.09667969,0.020507812,-0.02734375,0.0,0.0,0.0,0.0,0.0,0.0,0.0,0.0,0.0,0.0,0.0,-0.61262596,0.02280772,0.7902478,-0.975647,0.078430176,0.123046875,-0.13671875,0.076171875,0.20605469,11.327017,-12.683256,0.47219047,16.360579,1.0091553,-0.15734863,-0.08087158,0.3095703,-0.0078125,0.064453125,0.32805344,-7.3453608,-56.257664,17.91926,-0.54626465,0.0026245117,0.8267212,0.044921875,0.0048828125,0.01953125,8.092962,0.088965416,-127.8262,20.822983,0.0,0.0,0.0,0.0,0.0,0.0,0.0,7.8787847,-129.06323,39.19601,0.0,0.0,0.0,0.0,0.0,0.0,0.0,0.61262596,-0.02280772,-0.7902478,-0.96954346,-0.09906006,-0.2421875,0.609375,0.52441406,0.1328125,9.757939,12.683256,-0.47219047,-16.360579,1.0032349,-0.03161621,-0.21612549,-0.34765625,0.13769531,0.27539062,11.739352,16.357828,-57.33977,-14.839784,-0.3637085,0.08050537,0.9309082,0.0029296875,0.028320312,0.022460938,22.283644,9.588303,-128.15717,-3.640417,0.0,0.0,0.0,0.0,0.0,0.0,0.0,22.940308,-130.13745,11.115705,0.0,0.0,0.0,0.0,0.0,0.0,0.0,4.102908,44.780056,1.8882896,
1.03515623457497,53,-0.11242676,0.82543945,0.48077393,0.07714844,0.04296875,0.064453125,0.0,0.0,0.0,0.0,0.0,0.0,0.0,0.0,0.0,0.0,0.0,-0.6135183,0.022387873,0.78947353,-1.0075073,0.03491211,0.13323975,-0.17382812,0.057617188,0.1484375,11.033639,-12.701732,0.46349844,16.344547,0.9850464,-0.109191895,-0.111328125,0.064453125,-0.024414062,0.115234375,0.24228337,-7.5024915,-56.271748,18.169828,-0.5494995,-0.013000488,0.8218384,0.044921875,0.022460938,0.01953125,7.792083,0.007071018,-127.81946,21.305826,0.0,0.0,0.0,0.0,0.0,0.0,0.0,7.5977755,-128.96777,39.766296,0.0,0.0,0.0,0.0,0.0,0.0,0.0,0.6135183,-0.022387873,-0.78947353,-0.9533081,-0.009338379,-0.23956299,0.2265625,0.24316406,0.11621094,9.203873,12.701732,-0.46349844,-16.344547,1.0026855,-0.16534424,-0.18859863,0.15625,0.0,0.15820312,11.265264,16.073032,-57.350708,-14.855154,-0.40179443,0.07110596,0.9458008,0.022460938,0.028320312,0.00390625,21.064653,9.816532,-128.18625,-3.5046616,0.0,0.0,0.0,0.0,0.0,0.0,0.0,22.996813,-130.07625,11.416616,0.0,0.0,0.0,0.0,0.0,0.0,0.0,3.9261603,44.796955,1.7807596,
1.0546874842839318,54,-0.082092285,0.8405762,0.48706055,-0.13867188,0.029296875,0.06933594,0.0,0.0,0.0,0.0,0.0,0.0,0.0,0.0,0.0,0.0,0.0,-0.6155679,0.022747155,0.7879578,-1.015686,0.013977051,0.11395264,-0.1171875,9.765625E-4,0.12890625,10.971906,-12.744164,0.4709366,16.31317,0.98028564,-0.16766357,-0.14343262,-0.16210938,-0.001953125,0.12792969,0.15701751,-7.590143,-56.26146,18.355392,-0.5604248,-0.0048828125,0.83270264,0.026367188,0.0234375,0.018554688,7.3097043,-0.09629059,-127.80723,21.61008,0.0,0.0,0.0,0.0,0.0,0.0,0.0,7.3105335,-128.87375,40.1509,0.0,0.0,0.0,0.0,0.0,0.0,0.0,0.6155679,-0.022747155,-0.7879578,-0.9525757,-0.032836914,-0.24169922,-0.041992188,-0.0029296875,0.119140625,9.146539,12.744164,-0.4709366,-16.31317,1.0070801,-0.04559326,-0.15289307,0.15429688,0.055664062,0.06347656,10.917026,16.078562,-57.35903,-14.63149,-0.3883667,0.06915283,0.9142456,0.0029296875,0.009765625,0.00390625,20.554935,10.032492,-128.23296,-3.4173632,0.0,0.0,0.0,0.0,0.0,0.0,0.0,23.038511,-130.03888,11.665636,0.0,0.0,0.0,0.0,0.0,0.0,0.0,3.8628764,44.80793,1.7242167,
1.0742187339928935,55,-0.09338379,0.79644775,0.53674316,-0.17871094,0.0107421875,0.0703125,0.0,0.0,0.0,0.0,0.0,0.0,0.0,0.0,0.0,0.0,0.0,-0.615205,0.025127923,0.78816676,-0.9822998,0.053527832,0.043945312,-0.080078125,-0.037109375,0.14746094,11.11838,-12.736651,0.52022594,16.317495,0.97558594,-0.18493652,-0.19128418,-0.14355469,-0.021484375,0.109375,0.08622923,-7.7082624,-56.21517,18.549843,-0.55426025,0.006713867,0.83758545,0.044921875,0.0048828125,0.01953125,6.8148613,-0.41346073,-127.78012,21.932358,0.0,0.0,0.0,0.0,0.0,0.0,0.0,6.813764,-128.76938,40.54931,0.0,0.0,0.0,0.0,0.0,0.0,0.0,0.615205,-0.025127923,-0.78816676,-0.94989014,-0.056518555,-0.27526855,-0.060546875,0.13476562,0.099609375,9.369198,12.736651,-0.52022594,-16.317495,1.0028076,-0.03656006,-0.17956543,-0.44335938,0.028320312,0.22167969,10.485691,16.029226,-57.401875,-14.458167,-0.3842163,0.0859375,0.92803955,0.021484375,0.0087890625,-0.015625,19.487236,10.194776,-128.34015,-3.564311,0.0,0.0,0.0,0.0,0.0,0.0,0.0,23.02561,-130.06052,11.676232,0.0,0.0,0.0,0.0,0.0,0.0,0.0,4.026397,44.793823,1.7147182,
1.0937499837018552,56,-0.09210205,0.7647095,0.54644775,0.07519531,-0.015625,0.028320312,0.0,0.0,0.0,0.0,0.0,0.0,0.0,0.0,0.0,0.0,0.0,-0.6130829,0.026886199,0.78978074,-0.9727173,0.1184082,0.05505371,0.034179688,0.040039062,0.09082031,11.062223,-12.692716,0.55662775,16.35091,0.9847412,-0.18035889,-0.21130371,-0.068359375,-0.022460938,0.111328125,0.15576635,-7.8549075,-56.185455,18.748508,-0.5476074,-0.015136719,0.8366699,0.026367188,0.0048828125,0.01953125,6.485704,-0.71689415,-127.76184,22.276505,0.0,0.0,0.0,0.0,0.0,0.0,0.0,6.3368278,-128.67398,40.9653,0.0,0.0,0.0,0.0,0.0,0.0,0.0,0.6130829,-0.026886199,-0.78978074,-0.9442749,-0.08648682,-0.29418945,-0.11816406,0.234375,0.10058594,9.181555,12.692716,-0.55662775,-16.35091,1.0033569,-0.099487305,-0.1762085,-0.2685547,-0.030273438,0.18261719,10.116666,15.709421,-57.451088,-14.45987,-0.37182617,0.08581543,0.9171753,-0.016601562,0.029296875,0.00390625,18.398592,10.014553,-128.41217,-3.6461525,0.0,0.0,0.0,0.0,0.0,0.0,0.0,22.674496,-130.0651,11.745548,0.0,0.0,0.0,0.0,0.0,0.0,0.0,4.0971394,44.790344,1.6557053,
1.1132812334108169,57,-0.12890625,0.7793579,0.5136719,0.13574219,0.020507812,-0.009765625,0.0,0.0,0.0,0.0,0.0,0.0,0.0,0.0,0.0,0.0,0.0,-0.61160535,0.02708142,0.7909358,-0.9737549,0.12890625,0.070129395,0.07128906,0.021484375,0.12890625,10.813103,-12.662126,0.56066936,16.374823,0.9840698,-0.20788574,-0.1875,-0.16210938,-0.001953125,0.12792969,0.2859903,-8.056162,-56.19102,19.03622,-0.5275879,-0.02166748,0.83270264,0.026367188,0.0048828125,0.0,6.280352,-1.1085205,-127.773834,22.709396,0.0,0.0,0.0,0.0,0.0,0.0,0.0,5.756281,-128.61967,41.471413,0.0,0.0,0.0,0.0,0.0,0.0,0.0,0.61160535,-0.02708142,-0.7909358,-0.9500122,-0.14117432,-0.25531006,0.072265625,0.052734375,0.07714844,8.891654,12.662126,-0.56066936,-16.374823,1.0142822,-0.064697266,-0.19537354,-0.057617188,0.021484375,0.123046875,9.9745865,15.58964,-57.461678,-14.621737,-0.39764404,0.055358887,0.91430664,0.0029296875,0.028320312,-0.015625,17.603079,10.057108,-128.44843,-3.9158554,0.0,0.0,0.0,0.0,0.0,0.0,0.0,22.551884,-130.0243,11.617297,0.0,0.0,0.0,0.0,0.0,0.0,0.0,4.010235,44.802006,1.5669779,
1.1328124831197786,58,-0.10876465,0.7977295,0.51831055,-0.0625,-0.03125,0.0126953125,0.0,0.0,0.0,0.0,0.0,0.0,0.0,0.0,0.0,0.0,0.0,-0.6107231,0.028137978,0.7914693,-0.986145,0.09136963,0.056518555,-0.00390625,0.0390625,0.16796875,10.667359,-12.643863,0.58254343,16.385868,0.9536743,-0.21160889,-0.16925049,-0.12402344,-0.001953125,0.109375,0.4159008,-8.259402,-56.177578,19.321617,-0.55255127,-0.014892578,0.8218384,0.0068359375,0.005859375,0.0,6.2817564,-1.4920797,-127.762665,23.192831,0.0,0.0,0.0,0.0,0.0,0.0,0.0,5.203751,-128.5446,42.01861,0.0,0.0,0.0,0.0,0.0,0.0,0.0,0.6107231,-0.028137978,-0.7914693,-0.927063,-0.07775879,-0.30395508,0.091796875,0.12988281,0.056640625,8.726184,12.643863,-0.58254343,-16.385868,1.0032349,-0.11340332,-0.17510986,0.01953125,0.057617188,0.10253906,9.833094,15.506718,-57.496998,-14.729936,-0.38226318,0.07092285,0.927063,0.021484375,0.0087890625,0.0029296875,16.849037,10.110265,-128.53088,-4.1571665,0.0,0.0,0.0,0.0,0.0,0.0,0.0,22.44131,-130.03091,11.514254,0.0,0.0,0.0,0.0,0.0,0.0,0.0,3.990553,44.802532,1.4864382,
1.1523437328287403,59,-0.12097168,0.7969971,0.508667,-0.10058594,0.0087890625,0.049804688,0.0,0.0,0.0,0.0,0.0,0.0,0.0,0.0,0.0,0.0,0.0,-0.6106402,0.030220632,0.7914812,-0.9927368,0.072265625,0.09899902,0.052734375,0.040039062,0.1484375,10.646492,-12.642147,0.6256608,16.386114,0.9833374,-0.20507812,-0.13360596,0.026367188,0.034179688,0.07519531,0.57095516,-8.429081,-56.132935,19.533047,-0.5504761,-0.011047363,0.82476807,0.026367188,0.0048828125,-0.018554688,6.3484774,-1.6959858,-127.71783,23.577145,0.0,0.0,0.0,0.0,0.0,0.0,0.0,4.827099,-128.43164,42.466743,0.0,0.0,0.0,0.0,0.0,0.0,0.0,0.6106402,-0.030220632,-0.7914812,-0.9671631,-0.07330322,-0.29699707,-0.07910156,0.27148438,0.05859375,8.444222,12.642147,-0.6256608,-16.386114,1.026062,-0.093811035,-0.19049072,-0.038085938,0.021484375,0.123046875,9.469838,15.187337,-57.55261,-14.806271,-0.39245605,0.06921387,0.9172363,0.0029296875,0.028320312,0.00390625,16.233685,9.98884,-128.6153,-4.3219814,0.0,0.0,0.0,0.0,0.0,0.0,0.0,22.168432,-130.04703,11.473516,0.0,0.0,0.0,0.0,0.0,0.0,0.0,4.055901,44.79975,1.4186311,
1.171874982537702,60,-0.08929443,0.800354,0.5406494,0.038085938,0.04296875,0.047851562,0.0,0.0,0.0,0.0,0.0,0.0,0.0,0.0,0.0,0.0,0.0,-0.6093798,0.030901523,0.79237413,-0.9907837,0.052001953,0.08673096,-0.022460938,0.020507812,0.12890625,10.6343775,-12.616055,0.6397574,16.4046,0.99731445,-0.17120361,-0.17150879,0.08300781,0.0146484375,0.05859375,0.75743926,-8.496571,-56.114742,19.774933,-0.5623779,0.0010375977,0.8405762,0.026367188,0.0048828125,0.01953125,6.3928585,-1.7758465,-127.69519,23.862734,0.0,0.0,0.0,0.0,0.0,0.0,0.0,4.586348,-128.35027,42.80909,0.0,0.0,0.0,0.0,0.0,0.0,0.0,0.6093798,-0.030901523,-0.79237413,-0.95184326,-0.053649902,-0.31066895,-0.15625,0.07910156,0.080078125,8.209874,12.616055,-0.6397574,-16.4046,0.9866333,-0.12121582,-0.21820068,0.15527344,0.055664062,0.10058594,9.204662,14.927025,-57.57863,-14.79306,-0.3812256,0.064941406,0.9250488,0.0029296875,0.009765625,0.00390625,15.622531,9.813521,-128.64215,-4.340562,0.0,0.0,0.0,0.0,0.0,0.0,0.0,21.8401,-130.00652,11.577713,0.0,0.0,0.0,0.0,0.0,0.0,0.0,4.0509224,44.799923,1.3682489,
1.1914062322466636,61,-0.121398926,0.77142334,0.5472412,0.0,0.08203125,0.048828125,0.0,0.0,0.0,0.0,0.0,0.0,0.0,0.0,0.0,0.0,0.0,-0.608209,0.03259893,0.7933174,-1.0028076,0.06768799,0.08898926,-0.00390625,0.021484375,0.09082031,10.595464,-12.591812,0.67489886,16.42413,0.9863281,-0.16790771,-0.14648438,0.045898438,0.0146484375,0.095703125,0.87088084,-8.5555935,-56.076736,19.917976,-0.53253174,-0.016540527,0.8257446,0.026367188,0.0048828125,0.0,6.487095,-1.830595,-127.65234,24.064774,0.0,0.0,0.0,0.0,0.0,0.0,0.0,4.3661795,-128.24748,43.06743,0.0,0.0,0.0,0.0,0.0,0.0,0.0,0.608209,-0.03259893,-0.7933174,-0.9199829,-0.07348633,-0.28527832,-0.21386719,0.041992188,0.040039062,8.197979,12.591812,-0.67489886,-16.42413,1.0155029,-0.06866455,-0.17663574,0.11621094,0.055664062,0.026367188,8.894216,14.87436,-57.60858,-14.738473,-0.40270996,0.07537842,0.9212036,-0.015625,0.029296875,-0.015625,15.182526,9.952691,-128.71506,-4.51558,0.0,0.0,0.0,0.0,0.0,0.0,0.0,21.834557,-130.01651,11.517257,0.0,0.0,0.0,0.0,0.0,0.0,0.0,4.075252,44.804245,1.2832624,
1.2109374819556253,62,-0.14910889,0.7729492,0.5101929,-0.080078125,0.02734375,0.049804688,0.0,0.0,0.0,0.0,0.0,0.0,0.0,0.0,0.0,0.0,0.0,-0.6075085,0.034092158,0.79369473,-0.97613525,0.089904785,0.07647705,-0.041015625,0.041015625,0.052734375,10.558103,-12.57731,0.7058134,16.431942,0.9916992,-0.1895752,-0.17449951,-0.01171875,0.03515625,0.07421875,0.9396196,-8.585345,-56.044212,20.027325,-0.5284424,-0.01184082,0.84454346,0.026367188,0.0048828125,0.0,6.624067,-1.8725414,-127.61552,24.217861,0.0,0.0,0.0,0.0,0.0,0.0,0.0,4.1758957,-128.15382,43.2701,0.0,0.0,0.0,0.0,0.0,0.0,0.0,0.6075085,-0.034092158,-0.79369473,-0.9628296,-0.12207031,-0.2649536,0.091796875,0.032226562,0.056640625,8.121271,12.57731,-0.7058134,-16.431942,1.0074463,-0.068603516,-0.18237305,-0.21191406,0.005859375,0.14355469,8.708924,14.864607,-57.64364,-14.85507,-0.380188,0.06695557,0.92211914,-0.016601562,0.029296875,0.00390625,14.507624,10.120373,-128.80325,-4.9205227,0.0,0.0,0.0,0.0,0.0,0.0,0.0,21.86208,-130.0497,11.21805,0.0,0.0,0.0,0.0,0.0,0.0,0.0,4.079356,44.802776,1.197967,
1.230468731664587,63,-0.10235596,0.763916,0.534729,-0.08203125,-0.030273438,0.03125,0.0,0.0,0.0,0.0,0.0,0.0,0.0,0.0,0.0,0.0,0.0,-0.6056024,0.03685706,0.7951007,-0.97332764,0.09625244,0.10345459,-0.00390625,0.07910156,0.053710938,10.605302,-12.537848,0.7630555,16.46105,0.97314453,-0.20458984,-0.15350342,-0.16210938,0.037109375,0.08886719,0.9549061,-8.680278,-55.9905,20.121532,-0.550354,-3.6621094E-4,0.84851074,0.0068359375,0.005859375,0.018554688,6.9226294,-2.0454402,-127.568634,24.455858,0.0,0.0,0.0,0.0,0.0,0.0,0.0,3.8572602,-128.04926,43.55593,0.0,0.0,0.0,0.0,0.0,0.0,0.0,0.6056024,-0.03685706,-0.7951007,-0.9482422,-0.08453369,-0.29223633,0.053710938,0.052734375,0.056640625,8.242145,12.537848,-0.7630555,-16.46105,1.0147095,-0.07763672,-0.15881348,-0.23242188,0.080078125,0.06738281,8.554419,14.825609,-57.705017,-14.968456,-0.37719727,0.05090332,0.9171753,-0.016601562,0.009765625,0.00390625,13.7315645,10.258251,-128.90677,-5.2322674,0.0,0.0,0.0,0.0,0.0,0.0,0.0,21.866213,-130.09406,11.007229,0.0,0.0,0.0,0.0,0.0,0.0,0.0,4.228925,44.79296,1.1446481,
1.2499999813735487,64,-0.12371826,0.7404785,0.5142212,-0.0234375,-0.032226562,0.01171875,0.0,0.0,0.0,0.0,0.0,0.0,0.0,0.0,0.0,0.0,0.0,-0.6040646,0.038606137,0.7961921,-0.98327637,0.10913086,0.095703125,0.034179688,0.059570312,0.072265625,10.62825,-12.506011,0.7992667,16.483644,0.97406006,-0.20861816,-0.14654541,-0.125,0.017578125,0.07128906,1.0028819,-8.699162,-55.9495,20.285461,-0.5479126,0.021362305,0.83258057,0.0068359375,0.041992188,0.018554688,7.301648,-2.118566,-127.52187,24.71452,0.0,0.0,0.0,0.0,0.0,0.0,0.0,3.6428246,-127.95033,43.859505,0.0,0.0,0.0,0.0,0.0,0.0,0.0,0.6040646,-0.038606137,-0.7961921,-0.91430664,-0.09918213,-0.2775879,-0.041992188,0.07519531,0.05859375,8.2600155,12.506011,-0.7992667,-16.483644,1.0074463,-0.103515625,-0.16638184,-0.19238281,0.04296875,0.12402344,8.471111,14.818823,-57.741554,-15.050826,-0.38842773,0.049194336,0.91033936,0.0029296875,0.009765625,0.00390625,12.984294,10.364172,-128.9779,-5.4519587,0.0,0.0,0.0,0.0,0.0,0.0,0.0,21.841335,-130.1082,10.886889,0.0,0.0,0.0,0.0,0.0,0.0,0.0,4.2702055,44.791134,1.0679178,
1.2695312310825104,65,-0.08660889,0.7583008,0.50341797,0.013671875,-0.109375,0.0107421875,0.0,0.0,0.0,0.0,0.0,0.0,0.0,0.0,0.0,0.0,0.0,-0.6027681,0.03914506,0.7970614,-0.9944458,0.080566406,0.06829834,-0.022460938,0.059570312,0.091796875,10.576352,-12.479169,0.81042415,16.50164,0.9805908,-0.19421387,-0.13458252,-0.06933594,-0.001953125,0.053710938,1.0971789,-8.799068,-55.938114,20.414146,-0.5510254,0.018493652,0.8345947,0.044921875,0.00390625,9.765625E-4,7.5943747,-2.2538595,-127.51395,24.937193,0.0,0.0,0.0,0.0,0.0,0.0,0.0,3.382842,-127.87881,44.121162,0.0,0.0,0.0,0.0,0.0,0.0,0.0,0.6027681,-0.03914506,-0.7970614,-0.92315674,-0.08642578,-0.23327637,0.053710938,0.15039062,0.078125,8.14635,12.479169,-0.81042415,-16.50164,1.0065308,-0.109436035,-0.16040039,0.0390625,0.057617188,0.064453125,8.266811,14.676042,-57.761955,-15.111609,-0.38110352,0.07110596,0.9014282,-0.016601562,0.029296875,0.00390625,12.508628,10.395794,-129.00539,-5.5956793,0.0,0.0,0.0,0.0,0.0,0.0,0.0,21.743916,-130.07895,10.836598,0.0,0.0,0.0,0.0,0.0,0.0,0.0,4.2877846,44.786922,1.0430226,
1.2890624807914721,66,-0.09564209,0.7844238,0.5128784,-0.04296875,-0.03125,0.048828125,0.0,0.0,0.0,0.0,0.0,0.0,0.0,0.0,0.0,0.0,0.0,-0.6021096,0.039710395,0.7975882,-0.9946289,0.072509766,0.08508301,0.0146484375,0.021484375,0.052734375,10.542454,-12.465536,0.8221282,16.512548,0.98236084,-0.16174316,-0.1862793,-0.06933594,-0.021484375,0.07324219,1.1574135,-8.843214,-55.924614,20.505417,-0.5442505,0.0024414062,0.8405762,0.0068359375,0.0048828125,-0.018554688,7.8897862,-2.3414845,-127.499565,25.044222,0.0,0.0,0.0,0.0,0.0,0.0,0.0,3.163629,-127.81379,44.26628,0.0,0.0,0.0,0.0,0.0,0.0,0.0,0.6021096,-0.039710395,-0.7975882,-0.98846436,-0.0869751,-0.2401123,0.03515625,0.11230469,0.037109375,8.021866,12.465536,-0.8221282,-16.512548,1.0115967,-0.06561279,-0.1765747,0.15527344,0.018554688,0.044921875,7.964816,14.54936,-57.77301,-15.126156,-0.37994385,0.10681152,0.9290161,0.0029296875,0.009765625,-0.015625,12.119706,10.442908,-129.06348,-5.8252726,0.0,0.0,0.0,0.0,0.0,0.0,0.0,21.655697,-130.08237,10.701428,0.0,0.0,0.0,0.0,0.0,0.0,0.0,4.287384,44.789856,1.0066003,
1.3085937305004338,67,-0.101501465,0.77075195,0.52685547,-0.10253906,-0.06933594,-0.0048828125,0.0,0.0,0.0,0.0,0.0,0.0,0.0,0.0,0.0,0.0,0.0,-0.60161406,0.04116612,0.7979287,-0.9852905,0.09484863,0.08148193,0.052734375,0.021484375,0.072265625,10.585336,-12.455275,0.85226625,16.519598,0.97821045,-0.20275879,-0.17645264,-0.01171875,0.03515625,0.055664062,1.196322,-8.879906,-55.89412,20.59724,-0.5559082,0.02355957,0.82666016,-0.01171875,0.005859375,0.018554688,8.193907,-2.4268794,-127.46989,25.177368,0.0,0.0,0.0,0.0,0.0,0.0,0.0,2.9726744,-127.73106,44.43265,0.0,0.0,0.0,0.0,0.0,0.0,0.0,0.60161406,-0.04116612,-0.7979287,-0.97540283,-0.085876465,-0.29614258,0.053710938,-0.043945312,0.036132812,8.064529,12.455275,-0.85226625,-16.519598,0.9907837,-0.03942871,-0.18322754,0.018554688,0.057617188,0.02734375,7.7132225,14.529258,-57.802002,-15.145033,-0.3803711,0.0289917,0.9182129,0.021484375,0.0087890625,-0.015625,11.709605,10.5999565,-129.13414,-6.116802,0.0,0.0,0.0,0.0,0.0,0.0,0.0,21.690212,-130.1019,10.496677,0.0,0.0,0.0,0.0,0.0,0.0,0.0,4.3475046,44.786385,0.9673022,
1.3281249802093955,68,-0.097595215,0.78356934,0.520874,-0.041992188,-0.0126953125,0.030273438,0.0,0.0,0.0,0.0,0.0,0.0,0.0,0.0,0.0,0.0,0.0,-0.6006312,0.042174116,0.7985536,-0.9802246,0.07745361,0.06726074,0.034179688,-0.015625,0.033203125,10.5944605,-12.434926,0.873135,16.532536,1.0013428,-0.1763916,-0.14367676,0.06347656,0.034179688,0.038085938,1.2511699,-8.9184675,-55.86787,20.677938,-0.54693604,0.020324707,0.8296509,0.0068359375,0.0048828125,-0.018554688,8.423523,-2.4709077,-127.442764,25.308084,0.0,0.0,0.0,0.0,0.0,0.0,0.0,2.8094277,-127.65268,44.59482,0.0,0.0,0.0,0.0,0.0,0.0,0.0,0.6006312,-0.042174116,-0.7985536,-0.9383545,-0.09661865,-0.2854004,-0.00390625,0.015625,0.037109375,8.10547,12.434926,-0.873135,-16.532536,0.9819946,-0.04425049,-0.16821289,-0.2705078,0.043945312,0.10644531,7.545066,14.5335655,-57.82318,-15.221455,-0.38848877,0.052978516,0.9329834,-0.016601562,0.009765625,0.00390625,11.089494,10.748472,-129.19223,-6.4632215,0.0,0.0,0.0,0.0,0.0,0.0,0.0,21.720484,-130.11784,10.232726,0.0,0.0,0.0,0.0,0.0,0.0,0.0,4.388732,44.78077,0.9359665,
1.3476562299183572,69,-0.08850098,0.77734375,0.5195923,-0.00390625,-0.051757812,0.0107421875,0.0,0.0,0.0,0.0,0.0,0.0,0.0,0.0,0.0,0.0,0.0,-0.60009813,0.042551957,0.79899096,-1.0087891,0.07183838,0.078063965,-0.041015625,0.07910156,0.034179688,10.476999,-12.423891,0.8809574,16.54159,1.0012207,-0.17224121,-0.19848633,-0.06933594,0.016601562,0.053710938,1.2852703,-9.010902,-55.869534,20.669949,-0.54193115,0.021118164,0.8375244,0.0068359375,0.005859375,0.018554688,8.718662,-2.604362,-127.44293,25.307701,0.0,0.0,0.0,0.0,0.0,0.0,0.0,2.5593753,-127.60408,44.626545,0.0,0.0,0.0,0.0,0.0,0.0,0.0,0.60009813,-0.042551957,-0.79899096,-0.9557495,-0.11853027,-0.29638672,-0.022460938,0.036132812,0.057617188,8.049984,12.423891,-0.8809574,-16.54159,0.98638916,-0.0892334,-0.18182373,-0.076171875,-0.033203125,0.06738281,7.398814,14.490811,-57.839886,-15.27175,-0.3904419,0.06616211,0.920166,0.001953125,0.009765625,0.022460938,10.474031,10.801525,-129.23737,-6.687852,0.0,0.0,0.0,0.0,0.0,0.0,0.0,21.653202,-130.12297,10.0892,0.0,0.0,0.0,0.0,0.0,0.0,0.0,4.387287,44.78349,0.9101198,
1.367187479627319,70,-0.07537842,0.76208496,0.5151367,-0.043945312,-0.06933594,0.030273438,0.0,0.0,0.0,0.0,0.0,0.0,0.0,0.0,0.0,0.0,0.0,-0.599232,0.04246205,0.79957384,-0.9819946,0.10394287,0.056762695,0.034179688,0.0234375,-0.0234375,10.463656,-12.405959,0.87909603,16.553658,0.9628906,-0.20709229,-0.1663208,-0.1640625,0.037109375,0.05078125,1.2981473,-9.033232,-55.86971,20.715866,-0.552124,0.01550293,0.845459,-0.01171875,0.005859375,0.0,9.184465,-2.6791353,-127.45206,25.363153,0.0,0.0,0.0,0.0,0.0,0.0,0.0,2.36652,-127.56727,44.7151,0.0,0.0,0.0,0.0,0.0,0.0,0.0,0.599232,-0.04246205,-0.79957384,-0.9556885,-0.11602783,-0.27868652,-0.060546875,0.037109375,0.038085938,8.044934,12.405959,-0.87909603,-16.553658,0.99523926,-0.08538818,-0.19189453,-0.0390625,0.05859375,0.028320312,7.3567147,14.499184,-57.836956,-15.39955,-0.3554077,0.07757568,0.90527344,0.001953125,-0.009765625,0.022460938,9.95572,10.879112,-129.27281,-6.997052,0.0,0.0,0.0,0.0,0.0,0.0,0.0,21.616096,-130.10312,9.85715,0.0,0.0,0.0,0.0,0.0,0.0,0.0,4.3897753,44.780624,0.9117571,
1.3867187293362806,71,-0.08569336,0.80303955,0.50878906,-0.10253906,-0.048828125,0.049804688,0.0,0.0,0.0,0.0,0.0,0.0,0.0,0.0,0.0,0.0,0.0,-0.59830505,0.04251451,0.80025417,-0.9689331,0.10632324,0.07775879,0.07128906,0.041015625,0.052734375,10.467079,-12.386768,0.8801822,16.567743,0.9942627,-0.21136475,-0.14770508,-0.0126953125,0.015625,0.055664062,1.3549415,-9.088573,-55.86664,20.839283,-0.54107666,0.012268066,0.82769775,0.0068359375,0.005859375,0.0,9.573845,-2.7879782,-127.443344,25.555813,0.0,0.0,0.0,0.0,0.0,0.0,0.0,2.1420984,-127.51769,44.93748,0.0,0.0,0.0,0.0,0.0,0.0,0.0,0.59830505,-0.04251451,-0.80025417,-0.9425049,-0.10437012,-0.28546143,0.015625,0.09375,0.016601562,7.9717383,12.386768,-0.8801822,-16.567743,1.0195312,-0.06976318,-0.17474365,0.018554688,0.0390625,0.0087890625,7.1850977,14.415026,-57.840515,-15.494801,-0.38830566,0.07312012,0.9182129,-0.016601562,0.009765625,0.00390625,9.500218,10.896296,-129.30112,-7.313731,0.0,0.0,0.0,0.0,0.0,0.0,0.0,21.517515,-130.09161,9.614928,0.0,0.0,0.0,0.0,0.0,0.0,0.0,4.4002843,44.77922,0.9108926,
1.4062499790452423,72,-0.08538818,0.80914307,0.5336914,-0.06347656,-0.049804688,0.048828125,0.0,0.0,0.0,0.0,0.0,0.0,0.0,0.0,0.0,0.0,0.0,-0.5981373,0.04202819,0.8005238,-0.98327637,0.06604004,0.05609131,0.052734375,0.041015625,0.052734375,10.4483385,-12.383297,0.8701139,16.573324,0.9916992,-0.15631104,-0.16241455,0.0068359375,0.03515625,0.055664062,1.4093103,-9.136013,-55.87497,20.923754,-0.5373535,-0.0037231445,0.85046387,-0.01171875,0.0234375,-0.01953125,9.890222,-2.8522692,-127.459564,25.684692,0.0,0.0,0.0,0.0,0.0,0.0,0.0,1.9605484,-127.49499,45.09523,0.0,0.0,0.0,0.0,0.0,0.0,0.0,0.5981373,-0.04202819,-0.8005238,-0.9594116,-0.093933105,-0.30010986,0.2265625,0.10644531,0.013671875,7.800793,12.383297,-0.8701139,-16.573324,1.0129395,-0.07965088,-0.20812988,-9.765625E-4,0.09472656,0.02734375,6.9779162,14.2924595,-57.837208,-15.617939,-0.39770508,0.061157227,0.934021,-0.016601562,0.009765625,0.022460938,9.027218,10.913607,-129.31924,-7.6578903,0.0,0.0,0.0,0.0,0.0,0.0,0.0,21.425182,-130.06847,9.34104,0.0,0.0,0.0,0.0,0.0,0.0,0.0,4.3791337,44.785385,0.92074037,
1.425781228754204,73,-0.088134766,0.79937744,0.55059814,-0.08203125,-0.030273438,0.03125,0.0,0.0,0.0,0.0,0.0,0.0,0.0,0.0,0.0,0.0,0.0,-0.5963543,0.04253888,0.801787,-0.9894409,0.068847656,0.06713867,-0.00390625,0.041015625,0.034179688,10.490419,-12.346384,0.8806869,16.599478,0.98327637,-0.16674805,-0.16540527,-0.10839844,0.037109375,0.0146484375,1.4346323,-9.130754,-55.864574,20.959171,-0.5363159,-7.9345703E-4,0.852417,-0.01171875,0.005859375,0.0,10.211012,-2.8549185,-127.440216,25.714638,0.0,0.0,0.0,0.0,0.0,0.0,0.0,1.848669,-127.429474,45.151848,0.0,0.0,0.0,0.0,0.0,0.0,0.0,0.5963543,-0.04253888,-0.801787,-0.9560547,-0.066345215,-0.31072998,0.015625,0.09375,0.016601562,7.7359877,12.346384,-0.8806869,-16.599478,1.0107422,-0.09362793,-0.21490479,-0.05859375,0.095703125,0.02734375,6.7633233,14.14484,-57.85734,-15.751645,-0.38427734,0.0680542,0.9182129,0.001953125,-0.028320312,0.00390625,8.625915,10.970905,-129.37839,-7.958231,0.0,0.0,0.0,0.0,0.0,0.0,0.0,21.381308,-130.09349,9.103832,0.0,0.0,0.0,0.0,0.0,0.0,0.0,4.43621,44.778294,0.9238546,
1.4453124784631657,74,-0.0793457,0.78411865,0.5263672,-0.1015625,-0.029296875,0.068359375,0.0,0.0,0.0,0.0,0.0,0.0,0.0,0.0,0.0,0.0,0.0,-0.59542257,0.043346196,0.80233645,-0.99554443,0.07659912,0.07421875,0.052734375,0.00390625,-0.0048828125,10.586135,-12.327095,0.8974005,16.610851,0.982666,-0.15301514,-0.16131592,-0.013671875,0.016601562,0.017578125,1.4398065,-9.092844,-55.845375,20.993263,-0.545105,0.011352539,0.8444824,-0.01171875,0.005859375,-0.018554688,10.500224,-2.8243961,-127.42626,25.730389,0.0,0.0,0.0,0.0,0.0,0.0,0.0,1.7867823,-127.37801,45.19069,0.0,0.0,0.0,0.0,0.0,0.0,0.0,0.59542257,-0.043346196,-0.80233645,-0.93829346,-0.09118652,-0.26672363,-0.1953125,-0.017578125,0.018554688,7.8243337,12.327095,-0.8974005,-16.610851,1.0308838,-0.101867676,-0.19647217,-9.765625E-4,0.09472656,-0.0107421875,6.5494876,14.125075,-57.869232,-15.723516,-0.36901855,0.056640625,0.93292236,-0.016601562,0.009765625,0.00390625,8.300139,11.169718,-129.40547,-8.038261,0.0,0.0,0.0,0.0,0.0,0.0,0.0,21.483284,-130.08623,9.084522,0.0,0.0,0.0,0.0,0.0,0.0,0.0,4.5000014,44.76837,0.92089045,
1.4648437281721274,75,-0.07293701,0.7940674,0.55511475,-0.10058594,-0.009765625,0.10449219,0.0,0.0,0.0,0.0,0.0,0.0,0.0,0.0,0.0,0.0,0.0,-0.5950047,0.043061964,0.8027855,-0.9630127,0.08972168,0.07745361,0.015625,0.041015625,0.034179688,10.706126,-12.31844,0.89151603,16.62015,0.98706055,-0.17871094,-0.15252686,0.043945312,0.034179688,0.038085938,1.4961945,-9.115427,-55.84794,21.067062,-0.5341797,0.005126953,0.8425293,0.0068359375,0.0048828125,-0.018554688,10.7450285,-2.8375802,-127.433044,25.828447,0.0,0.0,0.0,0.0,0.0,0.0,0.0,1.6811285,-127.34908,45.309227,0.0,0.0,0.0,0.0,0.0,0.0,0.0,0.5950047,-0.043061964,-0.8027855,-0.9483032,-0.08673096,-0.3217163,-0.11816406,0.15625,0.018554688,7.8267913,12.31844,-0.89151603,-16.62015,1.0214844,-0.053833008,-0.18377686,0.037109375,0.11328125,-0.0107421875,6.277885,14.017332,-57.869812,-15.742415,-0.39031982,0.07421875,0.90838623,0.001953125,0.009765625,0.022460938,7.961414,11.237553,-129.43533,-8.247057,0.0,0.0,0.0,0.0,0.0,0.0,0.0,21.457636,-130.07755,8.932211,0.0,0.0,0.0,0.0,0.0,0.0,0.0,4.56534,44.764946,0.9824946,
1.484374977881089,76,-0.08306885,0.7495117,0.5361328,-0.0625,-0.030273438,0.06738281,0.0,0.0,0.0,0.0,0.0,0.0,0.0,0.0,0.0,0.0,0.0,-0.5937166,0.04325346,0.8037288,-0.9854126,0.070617676,0.07312012,0.015625,0.00390625,0.0146484375,10.788701,-12.291774,0.8954807,16.639677,0.9879761,-0.18170166,-0.15753174,-0.0126953125,0.036132812,0.017578125,1.5430692,-9.095037,-55.838814,21.146942,-0.54211426,0.010314941,0.8326416,-0.01171875,-0.01171875,0.018554688,11.0180855,-2.7996273,-127.416374,25.924036,0.0,0.0,0.0,0.0,0.0,0.0,0.0,1.6219215,-127.303215,45.4284,0.0,0.0,0.0,0.0,0.0,0.0,0.0,0.5937166,-0.04325346,-0.8037288,-0.93951416,-0.10614014,-0.25402832,0.07324219,0.072265625,0.015625,7.777005,12.291774,-0.8954807,-16.639677,0.9836426,-0.056274414,-0.18395996,-0.05859375,0.07714844,0.028320312,6.058707,13.900436,-57.876667,-15.835068,-0.40045166,0.113220215,0.9260864,-0.016601562,-0.0087890625,0.00390625,7.6313148,11.280323,-129.46587,-8.549061,0.0,0.0,0.0,0.0,0.0,0.0,0.0,21.410633,-130.07219,8.684563,0.0,0.0,0.0,0.0,0.0,0.0,0.0,4.608307,44.760273,0.99535036,
1.5039062275900508,77,-0.09661865,0.7854614,0.5148926,-0.12207031,-0.047851562,0.068359375,0.0,0.0,0.0,0.0,0.0,0.0,0.0,0.0,0.0,0.0,0.0,-0.59291625,0.04424706,0.80417633,-0.9973755,0.07312012,0.052246094,-0.022460938,0.00390625,-0.0048828125,10.8476715,-12.275204,0.9160514,16.648943,0.9852295,-0.16778564,-0.17437744,-0.06933594,0.055664062,0.015625,1.5376062,-9.098682,-55.823498,21.151089,-0.54193115,0.023071289,0.845459,-0.01171875,-0.01171875,0.0,11.312227,-2.8204741,-127.4001,25.936436,0.0,0.0,0.0,0.0,0.0,0.0,0.0,1.5049739,-127.2466,45.461227,0.0,0.0,0.0,0.0,0.0,0.0,0.0,0.59291625,-0.04424706,-0.80417633,-0.9343262,-0.09490967,-0.27752686,0.015625,0.03515625,-0.00390625,7.8637204,12.275204,-0.9160514,-16.648943,1.0025024,-0.07550049,-0.17828369,-0.0390625,0.05859375,0.046875,5.941187,13.90345,-57.89168,-15.940549,-0.3762207,0.050720215,0.93688965,-0.016601562,0.029296875,0.00390625,7.2607164,11.4183855,-129.50679,-8.87624,0.0,0.0,0.0,0.0,0.0,0.0,0.0,21.446918,-130.07693,8.41888,0.0,0.0,0.0,0.0,0.0,0.0,0.0,4.6839275,44.74927,0.9912665,
1.5234374772990125,78,-0.042785645,0.7921753,0.5453491,-0.140625,-0.0087890625,0.06933594,0.0,0.0,0.0,0.0,0.0,0.0,0.0,0.0,0.0,0.0,0.0,-0.5925465,0.04434476,0.80441016,-0.99334717,0.09790039,0.07952881,0.015625,-0.034179688,-0.0048828125,11.062259,-12.2675495,0.918074,16.653786,0.98101807,-0.17547607,-0.16339111,-0.107421875,0.055664062,0.033203125,1.5613501,-9.070343,-55.8144,21.205818,-0.54608154,0.012390137,0.838562,0.0068359375,0.005859375,0.018554688,11.619898,-2.8201113,-127.39692,25.955791,0.0,0.0,0.0,0.0,0.0,0.0,0.0,1.4268751,-127.21342,45.497887,0.0,0.0,0.0,0.0,0.0,0.0,0.0,0.5925465,-0.04434476,-0.80441016,-0.9224243,-0.10473633,-0.24420166,-0.0029296875,0.07421875,0.016601562,8.021646,12.2675495,-0.918074,-16.653786,1.0110474,-0.10357666,-0.19213867,-0.09765625,0.115234375,0.028320312,5.8091693,13.911568,-57.899784,-16.01551,-0.3862915,0.07904053,0.92407227,0.001953125,-0.009765625,-0.015625,6.994174,11.630386,-129.53903,-9.092001,0.0,0.0,0.0,0.0,0.0,0.0,0.0,21.57539,-130.07693,8.251839,0.0,0.0,0.0,0.0,0.0,0.0,0.0,4.7939935,44.734707,1.0652698,
1.5429687270079742,79,-0.07897949,0.7633667,0.54608154,-0.061523438,0.0078125,0.06738281,0.0,0.0,0.0,0.0,0.0,0.0,0.0,0.0,0.0,0.0,0.0,-0.5921814,0.0438238,0.8048192,-0.9637451,0.10546875,0.0647583,0.015625,0.00390625,-0.0048828125,11.141113,-12.259992,0.9072885,16.662252,0.9906616,-0.19055176,-0.17449951,-0.087890625,0.055664062,0.052734375,1.609368,-9.089905,-55.817837,21.304106,-0.56018066,0.010925293,0.8267212,-0.01171875,0.005859375,-0.018554688,11.995278,-2.907556,-127.40399,26.053326,0.0,0.0,0.0,0.0,0.0,0.0,0.0,1.2639494,-127.18886,45.611286,0.0,0.0,0.0,0.0,0.0,0.0,0.0,0.5921814,-0.0438238,-0.8048192,-0.9564209,-0.09173584,-0.27160645,0.053710938,-0.0048828125,-0.0048828125,8.045252,12.259992,-0.9072885,-16.662252,0.987854,-0.07727051,-0.15924072,-9.765625E-4,0.11328125,0.02734375,5.598567,13.891087,-57.88515,-16.041384,-0.3925171,0.05529785,0.9064331,0.0029296875,0.028320312,0.00390625,6.741772,11.890713,-129.54236,-9.224961,0.0,0.0,0.0,0.0,0.0,0.0,0.0,21.751373,-130.05096,8.167598,0.0,0.0,0.0,0.0,0.0,0.0,0.0,4.816085,44.73537,1.1077299,
1.5624999767169359,80,-0.09576416,0.80029297,0.5090332,-0.12109375,-0.029296875,0.032226562,0.0,0.0,0.0,0.0,0.0,0.0,0.0,0.0,0.0,0.0,0.0,-0.5930071,0.04435575,0.80408216,-0.9812622,0.08227539,0.07232666,-0.00390625,0.060546875,0.0146484375,11.180247,-12.277085,0.9183016,16.646994,0.9893799,-0.16802979,-0.1494751,0.025390625,0.03515625,0.037109375,1.6275054,-9.139843,-55.804504,21.316147,-0.5551758,0.0107421875,0.8326416,-0.03125,0.005859375,-0.01953125,12.227596,-2.959396,-127.389824,26.098526,0.0,0.0,0.0,0.0,0.0,0.0,0.0,1.1303844,-127.14492,45.67313,0.0,0.0,0.0,0.0,0.0,0.0,0.0,0.5930071,-0.04435575,-0.80408216,-0.96520996,-0.07696533,-0.30786133,-0.17578125,0.060546875,-0.001953125,8.082912,12.277085,-0.9183016,-16.646994,0.97180176,-0.07208252,-0.16784668,0.15429688,0.055664062,-0.01171875,5.4215174,13.87756,-57.898952,-15.980312,-0.3720703,0.056762695,0.9230957,-0.016601562,0.009765625,0.022460938,6.565218,11.977819,-129.57426,-9.277295,0.0,0.0,0.0,0.0,0.0,0.0,0.0,21.759604,-130.0573,8.160792,0.0,0.0,0.0,0.0,0.0,0.0,0.0,4.8585105,44.726948,1.1158483,
1.5820312264258976,81,-0.07519531,0.7730713,0.52911377,-0.0234375,-0.05078125,0.030273438,0.0,0.0,0.0,0.0,0.0,0.0,0.0,0.0,0.0,0.0,0.0,-0.59301853,0.04437288,0.8041162,-1.0010376,0.036621094,0.083496094,-0.07910156,0.022460938,-0.0234375,11.247767,-12.277323,0.91865635,16.647697,0.98986816,-0.1473999,-0.16833496,0.005859375,0.0546875,0.017578125,1.6119194,-9.104393,-55.80412,21.33146,-0.53430176,-0.0017089844,0.8306885,-0.01171875,0.005859375,0.0,12.449043,-2.928176,-127.393875,26.116476,0.0,0.0,0.0,0.0,0.0,0.0,0.0,1.0732374,-127.11888,45.709183,0.0,0.0,0.0,0.0,0.0,0.0,0.0,0.59301853,-0.04437288,-0.8041162,-0.9307251,-0.1251831,-0.28271484,-0.11816406,-0.078125,-0.0029296875,8.104307,12.277323,-0.91865635,-16.647697,1.0219727,-0.07183838,-0.20733643,-9.765625E-4,0.057617188,0.0087890625,5.249043,13.862813,-57.901237,-15.950265,-0.40686035,0.06549072,0.91729736,-0.016601562,0.009765625,0.00390625,6.296222,12.035234,-129.58965,-9.414024,0.0,0.0,0.0,0.0,0.0,0.0,0.0,21.740612,-130.04286,8.067537,0.0,0.0,0.0,0.0,0.0,0.0,0.0,4.877668,44.726116,1.1290915,
1.6015624761348592,82,-0.07220459,0.743103,0.5178833,-0.0234375,-0.05078125,0.047851562,0.0,0.0,0.0,0.0,0.0,0.0,0.0,0.0,0.0,0.0,0.0,-0.5927972,0.044231623,0.80427814,-0.97528076,0.085876465,0.084350586,0.052734375,0.0234375,-0.0234375,11.287618,-12.272741,0.91573167,16.65105,0.97003174,-0.17016602,-0.15429688,-0.032226562,0.0546875,0.016601562,1.5988764,-9.051909,-55.804367,21.358727,-0.53692627,0.019958496,0.8395386,-0.03125,0.0068359375,0.018554688,12.656381,-2.8802376,-127.39573,26.143078,0.0,0.0,0.0,0.0,0.0,0.0,0.0,1.0412936,-127.08527,45.751183,0.0,0.0,0.0,0.0,0.0,0.0,0.0,0.5927972,-0.044231623,-0.80427814,-0.93640137,-0.09942627,-0.29333496,0.015625,0.07421875,-0.024414062,8.124389,12.272741,-0.91573167,-16.65105,0.9836426,-0.05529785,-0.184021,-0.020507812,0.07714844,-0.009765625,5.1868954,13.914779,-57.89866,-16.030745,-0.3904419,0.062194824,0.91625977,-0.03515625,0.029296875,0.00390625,6.014608,12.221589,-129.60211,-9.639982,0.0,0.0,0.0,0.0,0.0,0.0,0.0,21.84851,-130.02692,7.8865128,0.0,0.0,0.0,0.0,0.0,0.0,0.0,4.8663006,44.727074,1.1269468,
1.621093725843821,83,-0.08557129,0.7772217,0.5095215,-0.08105469,-0.009765625,0.10449219,0.0,0.0,0.0,0.0,0.0,0.0,0.0,0.0,0.0,0.0,0.0,-0.591658,0.044152237,0.8051522,-0.99572754,0.08673096,0.10821533,0.052734375,0.00390625,-0.0048828125,11.407553,-12.249153,0.91408813,16.669146,0.99017334,-0.17797852,-0.12860107,-0.0126953125,0.0546875,0.036132812,1.6376944,-8.974791,-55.794098,21.463596,-0.54693604,0.020324707,0.831604,-0.01171875,0.005859375,0.0,12.815149,-2.7557402,-127.3745,26.281954,0.0,0.0,0.0,0.0,0.0,0.0,0.0,1.0909691,-127.03,45.904907,0.0,0.0,0.0,0.0,0.0,0.0,0.0,0.591658,-0.044152237,-0.8051522,-0.95336914,-0.09210205,-0.2991333,0.016601562,0.1328125,-0.024414062,7.9891047,12.249153,-0.91408813,-16.669146,0.9836426,-0.05529785,-0.184021,-0.020507812,0.07714844,-0.009765625,5.172635,13.751921,-57.896137,-16.151297,-0.3904419,0.07110596,0.9260864,0.0029296875,0.009765625,0.00390625,5.803397,12.058731,-129.5996,-9.760534,0.0,0.0,0.0,0.0,0.0,0.0,0.0,21.610167,-130.00177,7.807596,0.0,0.0,0.0,0.0,0.0,0.0,0.0,4.8847446,44.725952,1.1368624,
1.6406249755527826,84,-0.051086426,0.75445557,0.51641846,-0.061523438,-0.0107421875,0.0859375,0.0,0.0,0.0,0.0,0.0,0.0,0.0,0.0,0.0,0.0,0.0,-0.5913675,0.043258607,0.8053965,-1.0056763,0.07476807,0.076171875,0.015625,0.07910156,0.034179688,11.45382,-12.243141,0.8955874,16.674204,1.0049438,-0.15600586,-0.12963867,-0.013671875,0.0546875,-0.001953125,1.6869043,-8.993784,-55.810127,21.511337,-0.5341797,0.0031738281,0.838562,-0.01171875,0.005859375,-0.018554688,12.976631,-2.7210436,-127.38788,26.365911,0.0,0.0,0.0,0.0,0.0,0.0,0.0,1.0448561,-127.01911,46.00387,0.0,0.0,0.0,0.0,0.0,0.0,0.0,0.5913675,-0.043258607,-0.8053965,-0.93518066,-0.084350586,-0.26763916,-0.041015625,0.056640625,-0.0234375,7.9662204,12.243141,-0.8955874,-16.674204,0.9953003,-0.057434082,-0.20098877,-0.040039062,0.11425781,-0.029296875,4.807053,13.700108,-57.88347,-16.165834,-0.3762207,0.068603516,0.9506836,-0.016601562,0.009765625,-0.015625,5.5070157,12.329668,-129.62035,-10.066876,0.0,0.0,0.0,0.0,0.0,0.0,0.0,21.805294,-129.99825,7.542062,0.0,0.0,0.0,0.0,0.0,0.0,0.0,4.8907514,44.7233,1.1889343,
1.6601562252617443,85,-0.062805176,0.74902344,0.5455322,-0.04296875,-0.05078125,0.01171875,0.0,0.0,0.0,0.0,0.0,0.0,0.0,0.0,0.0,0.0,0.0,-0.59086096,0.042601682,0.80578643,-0.9975586,0.06323242,0.06201172,-0.0029296875,0.00390625,-0.0234375,11.520681,-12.232656,0.881987,16.682278,0.9927368,-0.15539551,-0.15045166,-0.08886719,0.037109375,0.0146484375,1.7091477,-8.952818,-55.81833,21.529572,-0.5404053,-0.0045776367,0.84552,-0.03125,0.0068359375,-9.765625E-4,13.191451,-2.6336222,-127.39026,26.367472,0.0,0.0,0.0,0.0,0.0,0.0,0.0,1.0586405,-126.99978,46.01905,0.0,0.0,0.0,0.0,0.0,0.0,0.0,0.59086096,-0.042601682,-0.80578643,-0.9470215,-0.14172363,-0.27496338,-0.15625,9.765625E-4,-0.001953125,8.01719,12.232656,-0.881987,-16.682278,0.98010254,-0.04119873,-0.1642456,-9.765625E-4,0.09472656,-0.0107421875,4.646249,13.725807,-57.86775,-16.197598,-0.38842773,0.057128906,0.920166,-0.016601562,-0.0087890625,0.00390625,5.267005,12.55002,-129.62206,-10.264084,0.0,0.0,0.0,0.0,0.0,0.0,0.0,21.95377,-129.97284,7.383808,0.0,0.0,0.0,0.0,0.0,0.0,0.0,4.8981447,44.720844,1.2272971,
1.679687474970706,86,-0.063964844,0.76586914,0.5387573,-0.0234375,-0.05078125,0.047851562,0.0,0.0,0.0,0.0,0.0,0.0,0.0,0.0,0.0,0.0,0.0,-0.5883609,0.042369366,0.8076055,-0.96520996,0.07019043,0.084106445,0.053710938,0.041992188,-0.0234375,11.597427,-12.180895,0.8771771,16.719936,0.99194336,-0.1828003,-0.1595459,-0.10839844,0.018554688,0.0146484375,1.7346065,-8.889232,-55.824787,21.574326,-0.53240967,-0.0087890625,0.8464966,-0.01171875,0.005859375,0.0,13.511833,-2.5740147,-127.400955,26.365131,0.0,0.0,0.0,0.0,0.0,0.0,0.0,1.0489683,-126.99105,46.029594,0.0,0.0,0.0,0.0,0.0,0.0,0.0,0.5883609,-0.042369366,-0.8076055,-0.9367676,-0.12683105,-0.25030518,-0.060546875,-0.001953125,-0.0234375,8.118708,12.180895,-0.8771771,-16.719936,1.0222168,-0.08380127,-0.18756104,0.017578125,0.13183594,-0.0107421875,4.5622253,13.729695,-57.863922,-16.28629,-0.40063477,0.06542969,0.9133301,-0.016601562,-0.0087890625,0.00390625,5.063028,12.707997,-129.63574,-10.480825,0.0,0.0,0.0,0.0,0.0,0.0,0.0,22.04606,-129.9675,7.201765,0.0,0.0,0.0,0.0,0.0,0.0,0.0,4.9400835,44.71477,1.253107,
1.6992187246796677,87,-0.041015625,0.76416016,0.5181885,-0.041992188,-0.01171875,0.06738281,0.0,0.0,0.0,0.0,0.0,0.0,0.0,0.0,0.0,0.0,0.0,-0.5880056,0.041754134,0.80799425,-0.9762573,0.07727051,0.07421875,0.034179688,0.060546875,-0.00390625,11.617592,-12.173539,0.86444,16.727985,0.9953003,-0.17218018,-0.15753174,-0.032226562,0.016601562,0.036132812,1.7555773,-8.861431,-55.833557,21.607075,-0.5494385,-0.006225586,0.8376465,0.0068359375,0.0234375,0.0,13.737404,-2.528667,-127.405014,26.388935,0.0,0.0,0.0,0.0,0.0,0.0,0.0,1.025687,-126.97576,46.064705,0.0,0.0,0.0,0.0,0.0,0.0,0.0,0.5880056,-0.041754134,-0.80799425,-0.9337158,-0.12542725,-0.31121826,0.13085938,0.08984375,0.036132812,8.09677,12.173539,-0.86444,-16.727985,1.0115967,-0.055664062,-0.17962646,0.037109375,0.09472656,-0.030273438,4.5247188,13.75731,-57.848755,-16.436806,-0.38433838,0.059020996,0.9241333,-0.016601562,-0.0087890625,0.00390625,4.905884,12.955035,-129.6297,-10.735861,0.0,0.0,0.0,0.0,0.0,0.0,0.0,22.222652,-129.94096,6.984167,0.0,0.0,0.0,0.0,0.0,0.0,0.0,4.9194045,44.720184,1.2690494,
1.7187499743886294,88,-0.04095459,0.7821045,0.5292969,-0.041992188,-0.01171875,0.048828125,0.0,0.0,0.0,0.0,0.0,0.0,0.0,0.0,0.0,0.0,0.0,-0.58765924,0.040602997,0.8082443,-0.9957886,0.032104492,0.058532715,0.034179688,0.041992188,-0.00390625,11.618999,-12.166367,0.84060806,16.733164,1.0128174,-0.15704346,-0.19250488,-0.03125,0.03515625,0.036132812,1.7439455,-8.838475,-55.856445,21.58325,-0.5574951,-0.006958008,0.8376465,-0.01171875,-0.030273438,-0.037109375,13.892394,-2.4955912,-127.431465,26.33677,0.0,0.0,0.0,0.0,0.0,0.0,0.0,0.99524784,-126.98424,46.0234,0.0,0.0,0.0,0.0,0.0,0.0,0.0,0.58765924,-0.040602997,-0.8082443,-0.9417114,-0.11853027,-0.2678833,0.053710938,0.11230469,0.016601562,7.9402556,12.166367,-0.84060806,-16.733164,1.0002441,-0.059448242,-0.13983154,-0.078125,0.078125,-0.009765625,4.3689704,13.640413,-57.82679,-16.573793,-0.3762207,0.04083252,0.92407227,-0.016601562,-0.0087890625,0.00390625,4.77237,13.067536,-129.61777,-11.021277,0.0,0.0,0.0,0.0,0.0,0.0,0.0,22.277283,-129.90994,6.7298403,0.0,0.0,0.0,0.0,0.0,0.0,0.0,4.894161,44.7195,1.3119214,
1.7382812240975911,89,-0.06878662,0.7730713,0.5578003,-0.04296875,-0.03125,0.048828125,0.0,0.0,0.0,0.0,0.0,0.0,0.0,0.0,0.0,0.0,0.0,-0.58724636,0.03974367,0.8085826,-0.99768066,0.054382324,0.06585693,-0.0029296875,-0.0146484375,-0.04296875,11.651308,-12.15782,0.8228172,16.740168,0.9850464,-0.1776123,-0.1574707,-0.0126953125,0.036132812,0.017578125,1.6757302,-8.792559,-55.879158,21.550419,-0.54437256,-0.0043945312,0.8405762,-0.01171875,0.005859375,0.0,14.089739,-2.4686956,-127.45926,26.309675,0.0,0.0,0.0,0.0,0.0,0.0,0.0,0.96006155,-126.99237,46.00761,0.0,0.0,0.0,0.0,0.0,0.0,0.0,0.58724636,-0.03974367,-0.8085826,-0.95062256,-0.11230469,-0.27374268,-0.060546875,0.056640625,-0.0234375,7.957838,12.15782,-0.8228172,-16.740168,0.9998779,-0.053466797,-0.16656494,-0.11621094,0.059570312,0.029296875,4.2325344,13.652891,-57.810726,-16.618671,-0.42425537,0.06774902,0.92523193,0.0029296875,0.009765625,0.00390625,4.560894,13.2163725,-129.61461,-11.24637,0.0,0.0,0.0,0.0,0.0,0.0,0.0,22.380634,-129.89142,6.5299835,0.0,0.0,0.0,0.0,0.0,0.0,0.0,4.8891163,44.71868,1.3527764,
1.7578124738065528,90,-0.0713501,0.80078125,0.5262451,-0.0625,-0.030273438,0.048828125,0.0,0.0,0.0,0.0,0.0,0.0,0.0,0.0,0.0,0.0,0.0,-0.58672786,0.039598264,0.8089112,-0.97021484,0.07421875,0.080200195,0.09082031,0.041992188,-0.0048828125,11.663004,-12.147086,0.8198068,16.74697,0.99316406,-0.17596436,-0.16448975,-0.013671875,0.0546875,-0.001953125,1.678997,-8.792646,-55.88427,21.550928,-0.54833984,-0.0013427734,0.84155273,0.0068359375,-0.0126953125,0.018554688,14.242691,-2.4762115,-127.46305,26.296938,0.0,0.0,0.0,0.0,0.0,0.0,0.0,0.8972161,-126.977684,46.0039,0.0,0.0,0.0,0.0,0.0,0.0,0.0,0.58672786,-0.039598264,-0.8089112,-0.9644165,-0.091430664,-0.27850342,-0.099609375,-0.020507812,-0.0234375,8.037976,12.147086,-0.8198068,-16.74697,0.9682617,-0.044067383,-0.15612793,-0.0390625,0.095703125,0.02734375,4.1064177,13.6989155,-57.805984,-16.609808,-0.37701416,0.0670166,0.9024048,-0.03515625,0.029296875,0.00390625,4.3406363,13.3663,-129.63031,-11.382677,0.0,0.0,0.0,0.0,0.0,0.0,0.0,22.470936,-129.88492,6.4237137,0.0,0.0,0.0,0.0,0.0,0.0,0.0,4.9022923,44.714798,1.366879,
1.7773437235155145,91,-0.04675293,0.7664795,0.5432739,-0.0234375,-0.03125,0.06640625,0.0,0.0,0.0,0.0,0.0,0.0,0.0,0.0,0.0,0.0,0.0,-0.5857473,0.039267004,0.8097434,-0.9915161,0.07165527,0.07611084,0.034179688,0.041992188,0.0146484375,11.715796,-12.126784,0.81294864,16.764198,0.9840698,-0.17559814,-0.16143799,-0.05078125,0.055664062,0.015625,1.692348,-8.758271,-55.88615,21.59031,-0.5455322,-0.011291504,0.84259033,-0.01171875,0.005859375,0.0,14.456099,-2.4383688,-127.46068,26.332079,0.0,0.0,0.0,0.0,0.0,0.0,0.0,0.86903,-126.959496,46.0495,0.0,0.0,0.0,0.0,0.0,0.0,0.0,0.5857473,-0.039267004,-0.8097434,-0.9512329,-0.07946777,-0.25482178,0.015625,-0.00390625,0.016601562,8.117426,12.126784,-0.81294864,-16.764198,1.00354,-0.0446167,-0.19134521,0.038085938,0.057617188,0.02734375,4.032889,13.741074,-57.799824,-16.642097,-0.37713623,0.06286621,0.9211426,-0.017578125,-0.028320312,0.00390625,4.1962867,13.512747,-129.62572,-11.527582,0.0,0.0,0.0,0.0,0.0,0.0,0.0,22.562271,-129.86539,6.3058968,0.0,0.0,0.0,0.0,0.0,0.0,0.0,4.915517,44.71659,1.3873092,
1.7968749732244762,92,-0.04864502,0.76660156,0.5532837,-0.0234375,-0.03125,0.06640625,0.0,0.0,0.0,0.0,0.0,0.0,0.0,0.0,0.0,0.0,0.0,-0.58454466,0.03855907,0.8105767,-1.0046387,0.06335449,0.05999756,0.015625,0.022460938,0.0146484375,11.770766,-12.101887,0.7982924,16.78145,1.0067139,-0.16381836,-0.15264893,-0.0126953125,0.036132812,0.017578125,1.6993872,-8.744035,-55.898888,21.619495,-0.54937744,-0.002319336,0.8494873,0.0068359375,0.005859375,0.0,14.668422,-2.4374447,-127.48119,26.362558,0.0,0.0,0.0,0.0,0.0,0.0,0.0,0.80640364,-126.96954,46.090607,0.0,0.0,0.0,0.0,0.0,0.0,0.0,0.58454466,-0.03855907,-0.8105767,-0.9567871,-0.12072754,-0.28460693,0.034179688,-0.0048828125,0.016601562,8.154588,12.101887,-0.7982924,-16.78145,1.0115967,-0.047668457,-0.18261719,0.038085938,0.09472656,0.0078125,3.9588377,13.724358,-57.779224,-16.711443,-0.380188,0.06488037,0.9250488,0.0029296875,0.009765625,-0.015625,4.018246,13.581284,-129.61281,-11.725945,0.0,0.0,0.0,0.0,0.0,0.0,0.0,22.569088,-129.8358,6.140128,0.0,0.0,0.0,0.0,0.0,0.0,0.0,4.9372087,44.710194,1.4335905,
1.816406222933438,93,-0.05102539,0.79730225,0.53466797,-0.0625,-0.030273438,0.048828125,0.0,0.0,0.0,0.0,0.0,0.0,0.0,0.0,0.0,0.0,0.0,-0.58364123,0.037642375,0.8112803,-0.98236084,0.060058594,0.06097412,-0.059570312,0.00390625,-0.0234375,11.801898,-12.083183,0.77931386,16.796017,0.9859009,-0.18255615,-0.16345215,-0.0126953125,0.036132812,0.017578125,1.6805116,-8.733891,-55.923515,21.601608,-0.55041504,-0.0013427734,0.8494873,-0.01171875,0.005859375,-0.018554688,14.825312,-2.4102707,-127.502495,26.347488,0.0,0.0,0.0,0.0,0.0,0.0,0.0,0.7750249,-126.97539,46.083923,0.0,0.0,0.0,0.0,0.0,0.0,0.0,0.58364123,-0.037642375,-0.8112803,-0.95513916,-0.07318115,-0.2705078,-0.13769531,0.0,-0.001953125,8.220342,12.083183,-0.77931386,-16.796017,0.9921875,-0.0234375,-0.16363525,-0.020507812,0.095703125,0.02734375,3.838288,13.742456,-57.764465,-16.753572,-0.38842773,0.07287598,0.9458008,-0.016601562,0.029296875,0.022460938,3.8809562,13.79466,-129.60822,-11.884504,0.0,0.0,0.0,0.0,0.0,0.0,0.0,22.717487,-129.81567,6.0129566,0.0,0.0,0.0,0.0,0.0,0.0,0.0,4.9531307,44.70699,1.4889729,
1.8359374726423996,94,-0.036621094,0.7940674,0.5551758,-0.0234375,-0.03125,0.047851562,0.0,0.0,0.0,0.0,0.0,0.0,0.0,0.0,0.0,0.0,0.0,-0.58280146,0.036890976,0.8119564,-0.96936035,0.075805664,0.099121094,0.015625,0.041992188,-0.00390625,11.854428,-12.065796,0.7637576,16.810013,0.99017334,-0.17388916,-0.16845703,-0.06933594,0.036132812,0.034179688,1.6840014,-8.693697,-55.937847,21.617916,-0.54437256,-0.0024414062,0.84155273,0.026367188,0.0048828125,-0.018554688,14.989298,-2.3838139,-127.51851,26.332182,0.0,0.0,0.0,0.0,0.0,0.0,0.0,0.75535727,-126.97956,46.075466,0.0,0.0,0.0,0.0,0.0,0.0,0.0,0.58280146,-0.036890976,-0.8119564,-0.92523193,-0.09136963,-0.26867676,-0.041992188,-0.001953125,-0.0029296875,8.290269,12.065796,-0.7637576,-16.810013,1.0155029,-0.07269287,-0.17663574,-0.078125,0.09667969,0.028320312,3.76728,13.776957,-57.745888,-16.758135,-0.36590576,0.049743652,0.9161377,9.765625E-4,-0.047851562,0.00390625,3.7334998,13.893188,-129.59853,-11.982416,0.0,0.0,0.0,0.0,0.0,0.0,0.0,22.773254,-129.79137,5.9382725,0.0,0.0,0.0,0.0,0.0,0.0,0.0,4.957516,44.70661,1.527147,
1.8554687223513613,95,-0.046813965,0.7654419,0.5362549,-0.041015625,0.026367188,0.06738281,0.0,0.0,0.0,0.0,0.0,0.0,0.0,0.0,0.0,0.0,0.0,-0.5824015,0.035799652,0.8122239,-0.98358154,0.07312012,0.098083496,-0.022460938,0.0029296875,0.033203125,11.951704,-12.057518,0.7411636,16.815552,0.9887085,-0.15325928,-0.16241455,-0.033203125,-0.001953125,-0.001953125,1.6960444,-8.626862,-55.955605,21.66998,-0.53656006,-0.017456055,0.83862305,0.0068359375,0.005859375,0.0,15.173056,-2.318069,-127.53376,26.379335,0.0,0.0,0.0,0.0,0.0,0.0,0.0,0.77396464,-126.98607,46.129906,0.0,0.0,0.0,0.0,0.0,0.0,0.0,0.5824015,-0.035799652,-0.8122239,-0.9301758,-0.083618164,-0.30303955,0.053710938,0.09277344,0.037109375,8.266193,12.057518,-0.7411636,-16.815552,1.0239258,-0.047851562,-0.15716553,0.038085938,0.057617188,0.02734375,3.702427,13.759136,-57.72711,-16.820583,-0.38641357,0.053100586,0.91625977,-0.017578125,-0.047851562,0.022460938,3.5797648,13.917387,-129.59273,-12.179268,0.0,0.0,0.0,0.0,0.0,0.0,0.0,22.746664,-129.77448,5.7657776,0.0,0.0,0.0,0.0,0.0,0.0,0.0,4.944602,44.703873,1.5751331,
1.874999972060323,96,-0.07128906,0.8027954,0.5272827,-0.001953125,0.026367188,0.08496094,0.0,0.0,0.0,0.0,0.0,0.0,0.0,0.0,0.0,0.0,0.0,-0.5830294,0.034712397,0.8118702,-0.9956665,0.05340576,0.06488037,-0.060546875,0.022460938,0.0146484375,11.98502,-12.070516,0.71865416,16.808231,0.9985962,-0.16448975,-0.15557861,0.04296875,0.03515625,-0.01953125,1.6703496,-8.630965,-55.975887,21.650085,-0.5536499,-0.016967773,0.8446045,-0.01171875,-0.01171875,0.0,15.276312,-2.3230672,-127.55841,26.372929,0.0,0.0,0.0,0.0,0.0,0.0,0.0,0.72419167,-127.000175,46.130936,0.0,0.0,0.0,0.0,0.0,0.0,0.0,0.5830294,-0.034712397,-0.8118702,-0.94451904,-0.10443115,-0.23931885,0.034179688,0.0146484375,0.037109375,8.298839,12.070516,-0.71865416,-16.808231,1.0119629,-0.040649414,-0.16290283,0.038085938,0.057617188,0.0078125,3.6192563,13.81138,-57.699047,-16.863226,-0.3965454,0.08117676,0.9310303,0.001953125,-0.029296875,0.041015625,3.4798093,14.069244,-129.56468,-12.377864,0.0,0.0,0.0,0.0,0.0,0.0,0.0,22.861385,-129.73154,5.5863733,0.0,0.0,0.0,0.0,0.0,0.0,0.0,4.9354877,44.704628,1.6329329,
1.8945312217692847,97,-0.05078125,0.7984009,0.5515747,-0.061523438,-0.01171875,0.06738281,0.0,0.0,0.0,0.0,0.0,0.0,0.0,0.0,0.0,0.0,0.0,-0.5828495,0.034282625,0.81201154,-0.9987793,0.06286621,0.08294678,-0.00390625,0.00390625,-0.0048828125,11.96825,-12.066792,0.70975655,16.811157,0.972229,-0.16436768,-0.15332031,-0.05078125,0.036132812,0.015625,1.6486512,-8.603289,-55.986675,21.627066,-0.5462036,0.0064697266,0.8425293,0.0068359375,0.005859375,0.0,15.408689,-2.2797704,-127.57002,26.338326,0.0,0.0,0.0,0.0,0.0,0.0,0.0,0.7178583,-126.994896,46.10312,0.0,0.0,0.0,0.0,0.0,0.0,0.0,0.5828495,-0.034282625,-0.81201154,-0.9829712,-0.12463379,-0.22564697,-0.11816406,-0.078125,-0.0234375,8.328834,12.066792,-0.70975655,-16.811157,1.0003052,-0.0095825195,-0.1609497,-0.05859375,0.021484375,0.009765625,3.5194752,13.87649,-57.686237,-16.90341,-0.36383057,0.064575195,0.9289551,9.765625E-4,-0.06640625,0.00390625,3.3431046,14.240662,-129.5658,-12.601987,0.0,0.0,0.0,0.0,0.0,0.0,0.0,22.994452,-129.71391,5.380723,0.0,0.0,0.0,0.0,0.0,0.0,0.0,4.9115767,44.706852,1.6379598,
1.9140624714782464,98,-0.047790527,0.80126953,0.54956055,-0.0234375,-0.03125,0.047851562,0.0,0.0,0.0,0.0,0.0,0.0,0.0,0.0,0.0,0.0,0.0,-0.58250827,0.033508055,0.81224215,-0.98132324,0.08215332,0.078308105,0.015625,-0.015625,0.0146484375,12.014898,-12.059725,0.6937207,16.815931,0.9760742,-0.17236328,-0.15435791,0.0625,0.03515625,0.0,1.6745621,-8.580928,-55.99421,21.67093,-0.5602417,0.005004883,0.8208008,-0.01171875,-0.01171875,0.0,15.507528,-2.283392,-127.57243,26.367985,0.0,0.0,0.0,0.0,0.0,0.0,0.0,0.6775341,-126.98516,46.139084,0.0,0.0,0.0,0.0,0.0,0.0,0.0,0.58250827,-0.033508055,-0.81224215,-0.94921875,-0.1517334,-0.22393799,-0.11816406,-0.078125,-0.0029296875,8.45805,12.059725,-0.6937207,-16.815931,1.0079346,-0.052612305,-0.15881348,-0.15429688,0.041992188,0.06738281,3.4794717,14.012055,-57.66741,-16.926538,-0.3638916,0.05255127,0.92993164,-0.017578125,-0.046875,0.00390625,3.1511347,14.450233,-129.5528,-12.781588,0.0,0.0,0.0,0.0,0.0,0.0,0.0,23.153868,-129.69048,5.224663,0.0,0.0,0.0,0.0,0.0,0.0,0.0,4.8992233,44.70534,1.6692665,
1.933593721187208,99,-0.047668457,0.7894287,0.55444336,-0.022460938,-0.0126953125,0.06640625,0.0,0.0,0.0,0.0,0.0,0.0,0.0,0.0,0.0,0.0,0.0,-0.5819857,0.032696806,0.8127062,-1.0028076,0.05633545,0.07183838,0.034179688,0.0029296875,0.07128906,12.077,-12.048908,0.67692524,16.825537,0.96520996,-0.16210938,-0.15820312,0.041992188,0.016601562,-0.01953125,1.7137216,-8.553021,-56.007484,21.702265,-0.54937744,-0.004211426,0.83270264,-0.01171875,0.024414062,0.0,15.620426,-2.2196937,-127.58567,26.376804,0.0,0.0,0.0,0.0,0.0,0.0,0.0,0.69429517,-126.98849,46.152496,0.0,0.0,0.0,0.0,0.0,0.0,0.0,0.5819857,-0.032696806,-0.8127062,-0.95251465,-0.101501465,-0.27563477,-0.022460938,0.07519531,0.016601562,8.527791,12.048908,-0.67692524,-16.825537,1.0238037,-0.085754395,-0.14807129,-0.11621094,0.041015625,0.06640625,3.4639063,14.066859,-57.644844,-16.983107,-0.3453369,0.0602417,0.9219971,0.001953125,-0.028320312,0.00390625,2.9317129,14.579983,-129.53487,-12.926142,0.0,0.0,0.0,0.0,0.0,0.0,0.0,23.234713,-129.64888,5.104086,0.0,0.0,0.0,0.0,0.0,0.0,0.0,4.9024444,44.705444,1.7120913,
1.9531249708961698,100,-0.068237305,0.81066895,0.5342407,-0.0234375,-0.03125,0.06640625,0.0,0.0,0.0,0.0,0.0,0.0,0.0,0.0,0.0,0.0,0.0,-0.58162314,0.032515988,0.8129565,-1.0090942,0.024353027,0.066345215,-0.041015625,0.041015625,0.052734375,12.055468,-12.041401,0.6731817,16.830719,0.9992676,-0.14001465,-0.15344238,-0.0146484375,-0.001953125,-0.001953125,1.7141783,-8.518934,-56.020218,21.654964,-0.54870605,-0.019104004,0.8465576,0.0068359375,0.005859375,0.0,15.718219,-2.155445,-127.59773,26.260643,0.0,0.0,0.0,0.0,0.0,0.0,0.0,0.7103534,-126.99586,46.04209,0.0,0.0,0.0,0.0,0.0,0.0,0.0,0.58162314,-0.032515988,-0.8129565,-0.96661377,-0.103637695,-0.2972412,0.07324219,0.072265625,0.056640625,8.441595,12.041401,-0.6731817,-16.830719,1.0160522,-0.0736084,-0.13909912,0.078125,9.765625E-4,0.045898438,3.4119687,13.999252,-57.646805,-17.046144,-0.36584473,0.068603516,0.9289551,0.001953125,-0.009765625,0.00390625,2.888663,14.603988,-129.54123,-13.022169,0.0,0.0,0.0,0.0,0.0,0.0,0.0,23.215065,-129.63979,5.030077,0.0,0.0,0.0,0.0,0.0,0.0,0.0,4.891575,44.70605,1.7115202,
1.9726562206051315,101,-0.07489014,0.8100586,0.5632324,-0.0625,-0.049804688,0.06738281,0.0,0.0,0.0,0.0,0.0,0.0,0.0,0.0,0.0,0.0,0.0,-0.581925,0.031851716,0.8127635,-0.97888184,0.023498535,0.095214844,-0.00390625,0.00390625,-0.0048828125,12.06534,-12.047651,0.65942925,16.826725,0.9845581,-0.15698242,-0.16339111,-0.051757812,0.017578125,-0.0029296875,1.6578841,-8.473852,-56.032772,21.58499,-0.54071045,-0.023254395,0.8435669,0.0068359375,0.005859375,0.0,15.83567,-2.1029153,-127.61951,26.158089,0.0,0.0,0.0,0.0,0.0,0.0,0.0,0.7145107,-127.005905,45.945168,0.0,0.0,0.0,0.0,0.0,0.0,0.0,0.581925,-0.031851716,-0.8127635,-0.9576416,-0.10992432,-0.28552246,-0.061523438,-0.099609375,0.057617188,8.474425,12.047651,-0.65942925,-16.826725,1.0161743,-0.028625488,-0.090026855,0.057617188,0.038085938,0.02734375,3.3231335,14.048704,-57.630928,-17.042171,-0.37213135,0.072387695,0.96643066,0.001953125,-0.009765625,0.00390625,2.8423467,14.782118,-129.52756,-13.102652,0.0,0.0,0.0,0.0,0.0,0.0,0.0,23.347641,-129.60591,4.969986,0.0,0.0,0.0,0.0,0.0,0.0,0.0,4.877146,44.706413,1.7399361,
1.9921874703140932,102,-0.044433594,0.8013916,0.57733154,-0.06542969,-0.125,0.103515625,0.0,0.0,0.0,0.0,0.0,0.0,0.0,0.0,0.0,0.0,0.0,-0.58047205,0.030791217,0.8138732,-0.9949341,0.050842285,0.101623535,0.052734375,-0.015625,0.052734375,12.313518,-12.01757,0.63747364,16.849699,0.98602295,-0.14337158,-0.15039062,0.0625,-0.0234375,0.0390625,1.6417521,-8.365861,-56.053032,21.615688,-0.5354614,-0.00970459,0.8514404,0.0068359375,0.005859375,0.0,15.967396,-1.967165,-127.634346,26.186106,0.0,0.0,0.0,0.0,0.0,0.0,0.0,0.78720284,-127.01007,45.98345,0.0,0.0,0.0,0.0,0.0,0.0,0.0,0.58047205,-0.030791217,-0.8138732,-0.9590454,-0.13641357,-0.24145508,-0.19628906,-0.27148438,0.0390625,8.888118,12.01757,-0.63747364,-16.849699,1.0164795,-0.049682617,-0.12445068,-0.038085938,-0.034179688,0.0859375,3.3847182,14.285611,-57.599205,-17.0487,-0.380188,0.060913086,0.9211426,0.001953125,-0.009765625,-0.015625,2.813969,15.142165,-129.49646,-13.147741,0.0,0.0,0.0,0.0,0.0,0.0,0.0,23.668766,-129.55708,4.944578,0.0,0.0,0.0,0.0,0.0,0.0,0.0,4.9690514,44.692863,1.8531728,
2.011718720023055,103,-0.0368042,0.776062,0.53411865,-0.025390625,-0.087890625,0.10253906,0.0,0.0,0.0,0.0,0.0,0.0,0.0,0.0,0.0,0.0,0.0,-0.5785903,0.028386297,0.81526893,-0.99383545,0.045288086,0.083618164,0.052734375,-0.015625,0.052734375,12.472246,-11.978612,0.58768433,16.878593,1.0019531,-0.11462402,-0.15740967,0.005859375,-0.022460938,0.037109375,1.7191943,-8.27527,-56.095417,21.658558,-0.5602417,0.0068969727,0.8366089,0.0068359375,0.005859375,0.0,16.028746,-1.8342652,-127.68355,26.128275,0.0,0.0,0.0,0.0,0.0,0.0,0.0,0.87358713,-127.05075,45.930992,0.0,0.0,0.0,0.0,0.0,0.0,0.0,0.5785903,-0.028386297,-0.81526893,-0.98706055,-0.1272583,-0.19421387,-0.3486328,-0.24707031,0.061523438,9.384373,11.978612,-0.58768433,-16.878593,0.9924927,-0.007446289,-0.1508789,0.07910156,-0.11035156,0.103515625,3.5329125,14.66919,-57.52947,-16.96589,-0.3862915,0.06719971,0.90734863,0.001953125,0.009765625,0.022460938,2.8051202,15.542127,-129.4264,-13.119148,0.0,0.0,0.0,0.0,0.0,0.0,0.0,24.031633,-129.47731,4.990652,0.0,0.0,0.0,0.0,0.0,0.0,0.0,4.9815807,44.684933,1.9795364,
2.0312499697320168,104,-0.018371582,0.7418823,0.54229736,-0.083984375,-0.08691406,0.0859375,0.0,0.0,0.0,0.0,0.0,0.0,0.0,0.0,0.0,0.0,0.0,-0.57698184,0.025235603,0.81652975,-1.0447998,0.008117676,0.07897949,-0.022460938,-0.03515625,0.033203125,12.647041,-11.9453125,0.5224552,16.904697,1.0093994,-0.13946533,-0.14459229,-0.051757812,0.017578125,0.016601562,1.7676861,-8.197823,-56.15783,21.667284,-0.54748535,-0.009216309,0.8366699,0.044921875,0.0048828125,0.01953125,16.045385,-1.6954708,-127.74228,26.051907,0.0,0.0,0.0,0.0,0.0,0.0,0.0,0.9717567,-127.101295,45.85998,0.0,0.0,0.0,0.0,0.0,0.0,0.0,0.57698184,-0.025235603,-0.81652975,-0.9630127,-0.13354492,-0.19525146,-0.31054688,-0.28710938,0.060546875,9.791793,11.9453125,-0.5224552,-16.904697,1.0244751,-0.0018920898,-0.14562988,0.001953125,-0.07128906,0.123046875,3.6581619,14.947878,-57.448906,-16.905361,-0.37597656,0.09667969,0.93585205,0.001953125,-0.009765625,0.00390625,2.7509344,15.820237,-129.35402,-13.133981,0.0,0.0,0.0,0.0,0.0,0.0,0.0,24.277134,-129.38765,4.990756,0.0,0.0,0.0,0.0,0.0,0.0,0.0,4.9993224,44.675655,2.151913,
2.0507812194409785,105,-0.010559082,0.7445679,0.5261841,-0.14355469,-0.10449219,0.08691406,0.0,0.0,0.0,0.0,0.0,0.0,0.0,0.0,0.0,0.0,0.0,-0.57449317,0.02257136,0.81833655,-1.0061035,0.0107421875,0.064086914,0.015625,-0.11035156,-0.043945312,12.998224,-11.893788,0.4672971,16.942104,0.9918213,-0.15039062,-0.17834473,-0.08886719,0.017578125,0.034179688,1.7455158,-8.032213,-56.208553,21.648714,-0.5567627,-0.020812988,0.84265137,0.0068359375,-0.0126953125,0.018554688,16.2447,-1.5334444,-127.79909,25.936853,0.0,0.0,0.0,0.0,0.0,0.0,0.0,1.0942433,-127.15705,45.75004,0.0,0.0,0.0,0.0,0.0,0.0,0.0,0.57449317,-0.02257136,-0.81833655,-0.8991699,-0.16705322,-0.23486328,-0.2734375,-0.3466797,0.12109375,10.442914,11.893788,-0.4672971,-16.942104,1.003479,-0.029541016,-0.13812256,-0.20996094,-0.10546875,0.18261719,3.9198153,15.296934,-57.37313,-16.832191,-0.3659668,0.0446167,0.9260254,0.001953125,-0.009765625,0.022460938,2.6230123,16.110474,-129.27965,-13.111359,0.0,0.0,0.0,0.0,0.0,0.0,0.0,24.532774,-129.30493,5.028984,0.0,0.0,0.0,0.0,0.0,0.0,0.0,5.1241665,44.6498,2.3657646,
2.07031246914994,106,0.01184082,0.74902344,0.5405884,-0.024414062,-0.06933594,0.06640625,0.0,0.0,0.0,0.0,0.0,0.0,0.0,0.0,0.0,0.0,0.0,-0.5734991,0.020635627,0.81915474,-0.9609375,0.07727051,0.064331055,0.052734375,-0.015625,0.033203125,13.248362,-11.873208,0.4272215,16.959042,0.9781494,-0.13018799,-0.17913818,-0.0126953125,0.016601562,0.036132812,1.7753087,-7.947012,-56.244663,21.668839,-0.557312,0.0029296875,0.8326416,0.026367188,-0.0126953125,0.01953125,16.330826,-1.4793067,-127.84335,25.883478,0.0,0.0,0.0,0.0,0.0,0.0,0.0,1.1095653,-127.19935,45.701996,0.0,0.0,0.0,0.0,0.0,0.0,0.0,0.5734991,-0.020635627,-0.81915474,-0.9453125,-0.16082764,-0.21417236,-0.061523438,-0.080078125,0.09863281,10.859606,11.873208,-0.4272215,-16.959042,1.0111084,-0.052734375,-0.21221924,0.0029296875,-0.12695312,0.16210938,4.347534,15.542341,-57.3145,-16.824158,-0.385437,0.059936523,0.9349365,0.040039062,-0.0107421875,-0.015625,2.3929377,16.062014,-129.22797,-13.056473,0.0,0.0,0.0,0.0,0.0,0.0,0.0,24.438625,-129.23705,5.1051273,0.0,0.0,0.0,0.0,0.0,0.0,0.0,5.2018824,44.63512,2.5174744,
2.089843718858902,107,0.011962891,0.76397705,0.5566406,-0.041992188,-0.01171875,0.06738281,0.0,0.0,0.0,0.0,0.0,0.0,0.0,0.0,0.0,0.0,0.0,-0.57201725,0.017715199,0.8202514,-0.9807739,0.060180664,0.11376953,-0.041992188,0.040039062,0.09082031,13.4631605,-11.842529,0.3667594,16.981747,0.98986816,-0.1473999,-0.175354,-0.087890625,-0.021484375,0.07324219,1.932088,-7.933305,-56.301502,21.788822,-0.5526123,-0.013061523,0.84259033,0.044921875,0.0048828125,0.01953125,16.42393,-1.4743214,-127.904785,25.924969,0.0,0.0,0.0,0.0,0.0,0.0,0.0,1.0785959,-127.25276,45.74756,0.0,0.0,0.0,0.0,0.0,0.0,0.0,0.57201725,-0.017715199,-0.8202514,-0.93566895,-0.11767578,-0.22467041,0.034179688,0.07324219,0.057617188,10.985606,11.842529,-0.3667594,-16.981747,1.0105591,-0.032714844,-0.19354248,0.11816406,-0.07324219,0.103515625,4.5782123,15.552843,-57.25001,-16.926281,-0.380188,0.06982422,0.9319458,0.001953125,-0.009765625,0.00390625,2.265463,15.855405,-129.16113,-13.146615,0.0,0.0,0.0,0.0,0.0,0.0,0.0,24.190956,-129.16132,5.0334806,0.0,0.0,0.0,0.0,0.0,0.0,0.0,5.236965,44.62079,2.6884058,
2.1093749685678636,108,0.011474609,0.7926636,0.526001,-0.1015625,-0.029296875,0.068359375,0.0,0.0,0.0,0.0,0.0,0.0,0.0,0.0,0.0,0.0,0.0,-0.5729782,0.015880756,0.8195231,-1.0050659,0.04534912,0.09057617,-0.041992188,0.001953125,0.09082031,13.614366,-11.862424,0.32878083,16.966671,0.99212646,-0.1416626,-0.15240479,-0.049804688,-0.0029296875,0.07324219,2.1119251,-7.9792323,-56.32856,21.887142,-0.5545044,-0.0079956055,0.8336792,0.044921875,0.0048828125,0.01953125,16.485094,-1.4847655,-127.936584,25.951668,0.0,0.0,0.0,0.0,0.0,0.0,0.0,1.0463517,-127.285126,45.777588,0.0,0.0,0.0,0.0,0.0,0.0,0.0,0.5729782,-0.015880756,-0.8195231,-0.9378052,-0.053710938,-0.27923584,-0.061523438,0.017578125,0.099609375,11.008933,11.862424,-0.32878083,-16.966671,0.9918823,-0.017456055,-0.1843872,0.09863281,-0.091796875,0.14160156,4.570504,15.514825,-57.218815,-16.851532,-0.35650635,0.068603516,0.90527344,-0.016601562,0.009765625,0.022460938,2.2192907,15.733084,-129.1291,-13.039013,0.0,0.0,0.0,0.0,0.0,0.0,0.0,24.032948,-129.1114,5.1574574,0.0,0.0,0.0,0.0,0.0,0.0,0.0,5.2454505,44.60921,2.8029728,
