TOTAL_TIME,0m10s
TOTAL_FRAMES,511
SELECTED_FRAMES,511
NO_OF_JOINTS,12
FREQUENCY,51.2
DESCRIPTION,Capture 38
TIME_STAMP,Nov 1, 2010

Time,Frame,Pelvis_accelX_Pelvis,Pelvis_accelY_Pelvis,Pelvis_accelZ_Pelvis,Pelvis_gyroX_Pelvis,Pelvis_gyroY_Pelvis,Pelvis_gyroZ_Pelvis,Pelvis_Joint angle_Pelvis,Pelvis_Relative pos X_Pelvis,Pelvis_Relative pos Y_Pelvis,Pelvis_Relative pos Z_Pelvis,RightPelvis_accelX_RightPelvis,RightPelvis_accelY_RightPelvis,RightPelvis_accelZ_RightPelvis,RightPelvis_gyroX_RightPelvis,RightPelvis_gyroY_RightPelvis,RightPelvis_gyroZ_RightPelvis,RightPelvis_Joint angle_RightPelvis,RightPelvis_Relative pos X_RightPelvis,RightPelvis_Relative pos Y_RightPelvis,RightPelvis_Relative pos Z_RightPelvis,RightUpLeg_accelX_RightUpLeg,RightUpLeg_accelY_RightUpLeg,RightUpLeg_accelZ_RightUpLeg,RightUpLeg_gyroX_RightUpLeg,RightUpLeg_gyroY_RightUpLeg,RightUpLeg_gyroZ_RightUpLeg,RightUpLeg_Joint angle_RightUpLeg,RightUpLeg_Relative pos X_RightUpLeg,RightUpLeg_Relative pos Y_RightUpLeg,RightUpLeg_Relative pos Z_RightUpLeg,RightLeg_accelX_RightLeg,RightLeg_accelY_RightLeg,RightLeg_accelZ_RightLeg,RightLeg_gyroX_RightLeg,RightLeg_gyroY_RightLeg,RightLeg_gyroZ_RightLeg,RightLeg_Joint angle_RightLeg,RightLeg_Relative pos X_RightLeg,RightLeg_Relative pos Y_RightLeg,RightLeg_Relative pos Z_RightLeg,RightFoot_accelX_RightFoot,RightFoot_accelY_RightFoot,RightFoot_accelZ_RightFoot,RightFoot_gyroX_RightFoot,RightFoot_gyroY_RightFoot,RightFoot_gyroZ_RightFoot,RightFoot_Joint angle_RightFoot,RightFoot_Relative pos X_RightFoot,RightFoot_Relative pos Y_RightFoot,RightFoot_Relative pos Z_RightFoot,RightFootEnd_accelX_RightFootEnd,RightFootEnd_accelY_RightFootEnd,RightFootEnd_accelZ_RightFootEnd,RightFootEnd_gyroX_RightFootEnd,RightFootEnd_gyroY_RightFootEnd,RightFootEnd_gyroZ_RightFootEnd,RightFootEnd_Joint angle_RightFootEnd,RightFootEnd_Relative pos X_RightFootEnd,RightFootEnd_Relative pos Y_RightFootEnd,RightFootEnd_Relative pos Z_RightFootEnd,LeftPelvis_accelX_LeftPelvis,LeftPelvis_accelY_LeftPelvis,LeftPelvis_accelZ_LeftPelvis,LeftPelvis_gyroX_LeftPelvis,LeftPelvis_gyroY_LeftPelvis,LeftPelvis_gyroZ_LeftPelvis,LeftPelvis_Joint angle_LeftPelvis,LeftPelvis_Relative pos X_LeftPelvis,LeftPelvis_Relative pos Y_LeftPelvis,LeftPelvis_Relative pos Z_LeftPelvis,LeftUpLeg_accelX_LeftUpLeg,LeftUpLeg_accelY_LeftUpLeg,LeftUpLeg_accelZ_LeftUpLeg,LeftUpLeg_gyroX_LeftUpLeg,LeftUpLeg_gyroY_LeftUpLeg,LeftUpLeg_gyroZ_LeftUpLeg,LeftUpLeg_Joint angle_LeftUpLeg,LeftUpLeg_Relative pos X_LeftUpLeg,LeftUpLeg_Relative pos Y_LeftUpLeg,LeftUpLeg_Relative pos Z_LeftUpLeg,LeftLeg_accelX_LeftLeg,LeftLeg_accelY_LeftLeg,LeftLeg_accelZ_LeftLeg,LeftLeg_gyroX_LeftLeg,LeftLeg_gyroY_LeftLeg,LeftLeg_gyroZ_LeftLeg,LeftLeg_Joint angle_LeftLeg,LeftLeg_Relative pos X_LeftLeg,LeftLeg_Relative pos Y_LeftLeg,LeftLeg_Relative pos Z_LeftLeg,LeftFoot_accelX_LeftFoot,LeftFoot_accelY_LeftFoot,LeftFoot_accelZ_LeftFoot,LeftFoot_gyroX_LeftFoot,LeftFoot_gyroY_LeftFoot,LeftFoot_gyroZ_LeftFoot,LeftFoot_Joint angle_LeftFoot,LeftFoot_Relative pos X_LeftFoot,LeftFoot_Relative pos Y_LeftFoot,LeftFoot_Relative pos Z_LeftFoot,LeftFootEnd_accelX_LeftFootEnd,LeftFootEnd_accelY_LeftFootEnd,LeftFootEnd_accelZ_LeftFootEnd,LeftFootEnd_gyroX_LeftFootEnd,LeftFootEnd_gyroY_LeftFootEnd,LeftFootEnd_gyroZ_LeftFootEnd,LeftFootEnd_Joint angle_LeftFootEnd,LeftFootEnd_Relative pos X_LeftFootEnd,LeftFootEnd_Relative pos Y_LeftFootEnd,LeftFootEnd_Relative pos Z_LeftFootEnd,Spine_accelX_Spine,Spine_accelY_Spine,Spine_accelZ_Spine,Spine_gyroX_Spine,Spine_gyroY_Spine,Spine_gyroZ_Spine,Spine_Joint angle_Spine,Spine_Relative pos X_Spine,Spine_Relative pos Y_Spine,Spine_Relative pos Z_Spine,
0.0,0,-0.019958496,0.53308105,0.5128174,0.25878906,1.3964844,-0.6230469,0.0,0.0,0.0,0.0,0.0,0.0,0.0,0.0,0.0,0.0,0.0,-0.776987,0.07605235,0.62484527,-1.1096802,-0.0368042,-0.092163086,-1.6240234,1.4755859,0.60253906,5.2521033,-16.08604,1.5745194,12.936235,1.2097778,0.34503174,-0.28216553,1.9501953,0.10644531,-0.27148438,15.595521,-19.217434,-54.505722,22.598251,-0.5930786,-0.035339355,0.8189697,-0.14550781,-0.02734375,-0.07714844,54.892086,-31.080109,-119.32741,51.603073,0.0,0.0,0.0,0.0,0.0,0.0,0.0,-22.049667,-129.65662,66.13729,0.0,0.0,0.0,0.0,0.0,0.0,0.0,0.776987,-0.07605235,-0.62484527,-0.9748535,0.17523193,-0.28930664,0.40722656,-2.7675781,-0.13769531,17.7673,16.08604,-1.5745194,-12.936235,0.80163574,-0.53912354,-1.0925903,-2.725586,-1.8828125,0.27246094,50.310123,30.562187,-55.628807,-2.1895714,-0.85705566,0.21020508,0.9060669,-0.52441406,4.0302734,-0.9111328,49.057186,-10.972713,-112.43086,13.037651,0.0,0.0,0.0,0.0,0.0,0.0,0.0,5.546488,-120.38339,20.917547,0.0,0.0,0.0,0.0,0.0,0.0,0.0,1.4308149,44.825012,-3.6766272,
0.0195312497089617,1,-0.019958496,0.53308105,0.5128174,0.25878906,1.3964844,-0.6230469,0.0,0.0,0.0,0.0,0.0,0.0,0.0,0.0,0.0,0.0,0.0,-0.776987,0.07605235,0.62484527,-1.1096802,-0.0368042,-0.092163086,-1.6240234,1.4755859,0.60253906,5.2521033,-16.08604,1.5745194,12.936235,1.2097778,0.34503174,-0.28216553,1.9501953,0.10644531,-0.27148438,15.595521,-19.217434,-54.505722,22.598251,-0.5930786,-0.035339355,0.8189697,-0.14550781,-0.02734375,-0.07714844,54.892086,-31.080109,-119.32741,51.603073,0.0,0.0,0.0,0.0,0.0,0.0,0.0,-22.049667,-129.65662,66.13729,0.0,0.0,0.0,0.0,0.0,0.0,0.0,0.776987,-0.07605235,-0.62484527,-0.9748535,0.17523193,-0.28930664,0.40722656,-2.7675781,-0.13769531,17.7673,16.08604,-1.5745194,-12.936235,0.80163574,-0.53912354,-1.0925903,-2.725586,-1.8828125,0.27246094,50.310123,30.562187,-55.628807,-2.1895714,-0.85705566,0.21020508,0.9060669,-0.52441406,4.0302734,-0.9111328,49.057186,-10.972713,-112.43086,13.037651,0.0,0.0,0.0,0.0,0.0,0.0,0.0,5.546488,-120.38339,20.917547,0.0,0.0,0.0,0.0,0.0,0.0,0.0,1.4308149,44.825012,-3.6766272,
0.0390624994179234,2,-0.019958496,0.53308105,0.5128174,0.25878906,1.3964844,-0.6230469,0.0,0.0,0.0,0.0,0.0,0.0,0.0,0.0,0.0,0.0,0.0,-0.776987,0.07605235,0.62484527,-1.1096802,-0.0368042,-0.092163086,-1.6240234,1.4755859,0.60253906,5.2521033,-16.08604,1.5745194,12.936235,1.2097778,0.34503174,-0.28216553,1.9501953,0.10644531,-0.27148438,15.595521,-19.217434,-54.505722,22.598251,-0.5930786,-0.035339355,0.8189697,-0.14550781,-0.02734375,-0.07714844,54.892086,-31.080109,-119.32741,51.603073,0.0,0.0,0.0,0.0,0.0,0.0,0.0,-22.049667,-129.65662,66.13729,0.0,0.0,0.0,0.0,0.0,0.0,0.0,0.776987,-0.07605235,-0.62484527,-0.9748535,0.17523193,-0.28930664,0.40722656,-2.7675781,-0.13769531,17.7673,16.08604,-1.5745194,-12.936235,0.80163574,-0.53912354,-1.0925903,-2.725586,-1.8828125,0.27246094,50.310123,30.562187,-55.628807,-2.1895714,-0.85705566,0.21020508,0.9060669,-0.52441406,4.0302734,-0.9111328,49.057186,-10.972713,-112.43086,13.037651,0.0,0.0,0.0,0.0,0.0,0.0,0.0,5.546488,-120.38339,20.917547,0.0,0.0,0.0,0.0,0.0,0.0,0.0,1.4308149,44.825012,-3.6766272,
0.0585937491268851,3,-0.051208496,0.79522705,0.51776123,-0.021484375,0.0068359375,0.048828125,0.0,0.0,0.0,0.0,0.0,0.0,0.0,0.0,0.0,0.0,0.0,-0.60387766,0.0033459999,0.79725915,-0.9901123,0.06756592,0.027282715,-0.00390625,1.2138672,0.65625,9.053451,-12.50214,0.06927258,16.505737,0.9855957,-0.14691162,-0.24908447,0.005859375,0.03515625,0.017578125,3.591614,-11.339289,-56.78742,20.407917,-0.602417,0.003479004,0.79907227,-0.05078125,0.09667969,-0.0390625,13.365992,-10.58448,-128.78297,21.625055,0.0,0.0,0.0,0.0,0.0,0.0,0.0,-9.401907,-128.56026,41.58512,0.0,0.0,0.0,0.0,0.0,0.0,0.0,0.60387766,-0.0033459999,-0.79725915,-0.92193604,-0.071777344,-0.35308838,-0.00390625,0.03515625,0.016601562,3.707976,12.50214,-0.06927258,-16.505737,1.0007324,-0.04144287,-0.11828613,-0.018554688,0.021484375,0.06542969,5.765242,10.169231,-57.02584,-16.622524,-0.39855957,0.06048584,0.90148926,-0.048828125,0.6513672,1.0966797,2.1701543,14.85265,-128.852,-14.58619,0.0,0.0,0.0,0.0,0.0,0.0,0.0,21.278347,-128.92003,4.353057,0.0,0.0,0.0,0.0,0.0,0.0,0.0,3.5119257,44.801407,2.472054,
0.0781249988358468,4,-0.05908203,0.79956055,0.53790283,0.018554688,0.043945312,0.06640625,0.0,0.0,0.0,0.0,0.0,0.0,0.0,0.0,0.0,0.0,0.0,-0.6042144,0.0040424876,0.7970214,-0.99920654,0.06585693,0.020263672,-0.00390625,0.8544922,0.48046875,8.145602,-12.50911,0.08369203,16.500814,0.96899414,-0.15997314,-0.2489624,-0.06933594,0.036132812,0.034179688,3.135752,-12.564481,-56.799088,20.174355,-0.6094971,0.0026855469,0.8079834,0.0068359375,-0.0126953125,0.0,13.444887,-11.825789,-128.80222,21.392363,0.0,0.0,0.0,0.0,0.0,0.0,0.0,-10.638771,-128.58188,41.35204,0.0,0.0,0.0,0.0,0.0,0.0,0.0,0.6042144,-0.0040424876,-0.7970214,-0.9182739,-0.09906006,-0.36114502,-0.080078125,0.018554688,-0.0029296875,3.6480315,12.50911,-0.08369203,-16.500814,1.0114136,-0.03466797,-0.1362915,-0.05859375,0.05859375,0.046875,5.7730904,10.159488,-57.039017,-16.67703,-0.39953613,0.064575195,0.8936157,-0.03125,0.5185547,0.9453125,2.50788,14.813133,-128.87354,-14.619568,0.0,0.0,0.0,0.0,0.0,0.0,0.0,20.894571,-128.91632,4.4348793,0.0,0.0,0.0,0.0,0.0,0.0,0.0,3.5360036,44.80128,2.453379,
0.09765624854480849,5,-0.07952881,0.7949829,0.5155029,-0.041015625,0.026367188,0.048828125,0.0,0.0,0.0,0.0,0.0,0.0,0.0,0.0,0.0,0.0,0.0,-0.6045815,0.004960414,0.79671454,-1.0114136,0.026733398,-0.014282227,-0.041015625,0.32421875,0.20800781,7.576368,-12.516711,0.102696,16.494461,0.96954346,-0.14135742,-0.2468872,-0.0126953125,0.036132812,0.017578125,2.9966316,-13.268223,-56.789536,19.963997,-0.5740967,0.016418457,0.80200195,-0.01171875,0.005859375,0.018554688,13.60592,-12.545814,-128.7876,21.185274,0.0,0.0,0.0,0.0,0.0,0.0,0.0,-11.361908,-128.55927,41.145947,0.0,0.0,0.0,0.0,0.0,0.0,0.0,0.6045815,-0.004960414,-0.79671454,-0.9151001,-0.08831787,-0.36401367,-0.041992188,0.017578125,-0.0029296875,3.5879052,12.516711,-0.102696,-16.494461,1.0282593,-0.049865723,-0.13354492,-0.05859375,0.05859375,0.046875,5.7899733,10.157133,-57.060696,-16.708584,-0.4088745,0.06561279,0.9104004,-0.05078125,0.42578125,0.66308594,2.9608808,14.815837,-128.88855,-14.678487,0.0,0.0,0.0,0.0,0.0,0.0,0.0,20.64811,-128.90033,4.453803,0.0,0.0,0.0,0.0,0.0,0.0,0.0,3.5532234,44.80104,2.4174044,
0.11718749825377019,6,-0.08380127,0.8029175,0.4987793,-0.041992188,-0.01171875,0.06738281,0.0,0.0,0.0,0.0,0.0,0.0,0.0,0.0,0.0,0.0,0.0,-0.60551363,0.005288847,0.79602,-0.97558594,0.062194824,-0.0146484375,-0.00390625,0.00390625,-0.0048828125,7.457642,-12.53601,0.10949553,16.480082,0.96984863,-0.12957764,-0.2538452,-0.03125,0.03515625,0.036132812,2.862044,-13.272578,-56.7899,19.817406,-0.5852661,0.007873535,0.8049927,-0.01171875,0.005859375,-0.018554688,13.7507715,-12.537016,-128.79327,21.043062,0.0,0.0,0.0,0.0,0.0,0.0,0.0,-11.35727,-128.56003,41.005116,0.0,0.0,0.0,0.0,0.0,0.0,0.0,0.60551363,-0.005288847,-0.79602,-0.9503174,-0.087402344,-0.33251953,0.015625,0.07421875,0.057617188,3.5806944,12.53601,-0.10949553,-16.480082,1.0050049,-0.027526855,-0.10461426,-0.038085938,0.021484375,0.06640625,5.753944,10.220228,-57.07012,-16.723957,-0.3904419,0.0592041,0.9172363,-0.032226562,0.23730469,0.2109375,3.2176542,14.881552,-128.90488,-14.700636,0.0,0.0,0.0,0.0,0.0,0.0,0.0,20.60801,-128.90686,4.4618664,0.0,0.0,0.0,0.0,0.0,0.0,0.0,3.5546494,44.802094,2.4062676,
0.1367187479627319,7,-0.07293701,0.7970581,0.55511475,-0.020507812,0.044921875,0.06738281,0.0,0.0,0.0,0.0,0.0,0.0,0.0,0.0,0.0,0.0,0.0,-0.6065027,0.00562888,0.7952136,-0.9725952,0.06402588,-0.009643555,-0.07910156,0.060546875,0.0146484375,7.4143386,-12.556485,0.116535276,16.463387,0.9536743,-0.16625977,-0.24188232,-0.032226562,0.036132812,0.016601562,2.8088162,-13.296151,-56.78957,19.758581,-0.6304321,0.007385254,0.7852783,0.0068359375,0.0048828125,-0.018554688,13.9147215,-12.577974,-128.79324,20.99315,0.0,0.0,0.0,0.0,0.0,0.0,0.0,-11.397234,-128.56721,40.954918,0.0,0.0,0.0,0.0,0.0,0.0,0.0,0.6065027,-0.00562888,-0.7952136,-0.9061279,-0.09313965,-0.37286377,-0.041992188,0.017578125,-0.0029296875,3.5475686,12.556485,-0.116535276,-16.463387,1.0222778,-0.04876709,-0.13641357,-0.0390625,0.040039062,0.046875,5.7236843,10.258082,-57.074265,-16.75863,-0.402771,0.05847168,0.91137695,-0.016601562,0.009765625,0.00390625,3.2062564,14.887548,-128.90793,-14.731825,0.0,0.0,0.0,0.0,0.0,0.0,0.0,20.647133,-128.91425,4.421583,0.0,0.0,0.0,0.0,0.0,0.0,0.0,3.5601573,44.800266,2.3981857,
0.1562499976716936,8,-0.08355713,0.8010254,0.5166626,-0.022460938,-0.0126953125,0.048828125,0.0,0.0,0.0,0.0,0.0,0.0,0.0,0.0,0.0,0.0,0.0,-0.6062048,0.0065242574,0.7954852,-0.9730835,0.023864746,0.0076293945,0.015625,0.060546875,0.034179688,7.3557277,-12.550318,0.13507238,16.46901,0.9733887,-0.1463623,-0.25689697,-0.0703125,0.055664062,-0.00390625,2.7420971,-13.271407,-56.772217,19.71176,-0.5944214,0.005065918,0.8237915,-0.01171875,-0.01171875,0.0,14.13484,-12.582496,-128.76648,20.95398,0.0,0.0,0.0,0.0,0.0,0.0,0.0,-11.405925,-128.5463,40.915524,0.0,0.0,0.0,0.0,0.0,0.0,0.0,0.6062048,-0.0065242574,-0.7954852,-0.90515137,-0.09283447,-0.34735107,-0.080078125,0.09667969,0.038085938,3.4756997,12.550318,-0.13507238,-16.46901,1.0202026,-0.047729492,-0.14031982,-0.07714844,0.022460938,0.06640625,5.768913,10.21559,-57.091946,-16.806225,-0.380188,0.064941406,0.91918945,-0.015625,0.029296875,-0.015625,3.162236,14.843097,-128.9256,-14.767998,0.0,0.0,0.0,0.0,0.0,0.0,0.0,20.641129,-128.93816,4.373993,0.0,0.0,0.0,0.0,0.0,0.0,0.0,3.583239,44.80213,2.3631818,
0.1757812473806553,9,-0.07501221,0.8000488,0.55126953,-0.041015625,0.026367188,0.06738281,0.0,0.0,0.0,0.0,0.0,0.0,0.0,0.0,0.0,0.0,0.0,-0.60610926,0.007086046,0.79549605,-0.99823,0.037109375,-0.0071411133,-0.041015625,0.022460938,0.033203125,7.3030715,-12.548342,0.14670315,16.469234,0.98065186,-0.1408081,-0.24798584,-0.013671875,0.036132812,-0.001953125,2.6653557,-13.229793,-56.765163,19.654974,-0.61938477,0.008911133,0.7991333,-0.01171875,0.024414062,0.0,14.271826,-12.557689,-128.76422,20.908861,0.0,0.0,0.0,0.0,0.0,0.0,0.0,-11.375235,-128.5444,40.870667,0.0,0.0,0.0,0.0,0.0,0.0,0.0,0.60610926,-0.007086046,-0.79549605,-0.92529297,-0.09875488,-0.36993408,-0.041992188,0.036132812,0.017578125,3.406398,12.548342,-0.14670315,-16.469234,1.0043335,-0.059509277,-0.13305664,-0.057617188,0.040039062,0.046875,5.78069,10.216888,-57.104725,-16.872484,-0.40063477,0.0625,0.9064331,0.001953125,0.0087890625,0.041015625,3.0818481,14.845705,-128.94188,-14.837643,0.0,0.0,0.0,0.0,0.0,0.0,0.0,20.684963,-128.9541,4.290596,0.0,0.0,0.0,0.0,0.0,0.0,0.0,3.5896373,44.800995,2.3359642,
0.19531249708961698,10,-0.05999756,0.7866211,0.53881836,-0.041992188,0.0068359375,0.030273438,0.0,0.0,0.0,0.0,0.0,0.0,0.0,0.0,0.0,0.0,0.0,-0.606063,0.007606987,0.7955834,-0.9890137,0.048583984,-0.00390625,-0.022460938,0.060546875,-0.00390625,7.2479515,-12.547383,0.15748829,16.471045,0.9814453,-0.1517334,-0.23406982,-0.051757812,0.017578125,0.016601562,2.5618548,-13.188219,-56.75729,19.566416,-0.5964966,-0.0036010742,0.7961426,-0.01171875,0.005859375,0.0,14.386824,-12.494713,-128.76042,20.832085,0.0,0.0,0.0,0.0,0.0,0.0,0.0,-11.316064,-128.54056,40.794636,0.0,0.0,0.0,0.0,0.0,0.0,0.0,0.606063,-0.007606987,-0.7955834,-0.90789795,-0.07183838,-0.36193848,-0.00390625,0.015625,0.016601562,3.4012787,12.547383,-0.15748829,-16.471045,1.0082397,-0.037597656,-0.14904785,-0.057617188,0.05859375,0.06640625,5.734256,10.226398,-57.114037,-16.895693,-0.4234619,0.045654297,0.93707275,-0.016601562,0.009765625,-0.015625,3.0267267,14.8005495,-128.94958,-14.856691,0.0,0.0,0.0,0.0,0.0,0.0,0.0,20.696644,-128.97385,4.2557297,0.0,0.0,0.0,0.0,0.0,0.0,0.0,3.6105185,44.802086,2.3220603,
0.21484374679857868,11,-0.05633545,0.7803955,0.5067749,-0.060546875,0.026367188,0.049804688,0.0,0.0,0.0,0.0,0.0,0.0,0.0,0.0,0.0,0.0,0.0,-0.60574865,0.007975418,0.7957751,-0.99121094,0.049316406,0.013977051,0.015625,0.041992188,0.0146484375,7.2517943,-12.540873,0.16511591,16.475012,0.96398926,-0.15979004,-0.24291992,-0.0126953125,0.03515625,0.036132812,2.4930072,-13.134959,-56.753162,19.526073,-0.6126709,-0.0061035156,0.8060913,0.0068359375,0.0048828125,-0.018554688,14.573338,-12.443351,-128.7457,20.810356,0.0,0.0,0.0,0.0,0.0,0.0,0.0,-11.281675,-128.52328,40.774147,0.0,0.0,0.0,0.0,0.0,0.0,0.0,0.60574865,-0.007975418,-0.7957751,-0.9456787,-0.11968994,-0.37695312,-0.00390625,0.03515625,0.016601562,3.420279,12.540873,-0.16511591,-16.475012,0.980896,-0.03717041,-0.112976074,-0.0390625,0.07714844,0.06542969,5.6889944,10.248181,-57.124218,-16.926416,-0.39849854,0.07543945,0.9034424,0.001953125,-0.009765625,0.00390625,2.9661653,14.793634,-128.96567,-14.8963585,0.0,0.0,0.0,0.0,0.0,0.0,0.0,20.727865,-128.98875,4.203615,0.0,0.0,0.0,0.0,0.0,0.0,0.0,3.6362846,44.798573,2.3189802,
0.23437499650754037,12,-0.06958008,0.7906494,0.50323486,-0.060546875,0.02734375,0.0859375,0.0,0.0,0.0,0.0,0.0,0.0,0.0,0.0,0.0,0.0,0.0,-0.60642403,0.008094534,0.795303,-0.9932251,0.04071045,0.0048828125,0.015625,0.0029296875,0.033203125,7.265822,-12.554859,0.16758193,16.465237,0.9541626,-0.1486206,-0.24078369,-0.049804688,0.03515625,0.0546875,2.460368,-13.106138,-56.75473,19.490406,-0.58184814,0.03137207,0.8088989,-0.01171875,-0.06640625,9.765625E-4,14.672305,-12.4218025,-128.75565,20.772179,0.0,0.0,0.0,0.0,0.0,0.0,0.0,-11.25248,-128.52951,40.73617,0.0,0.0,0.0,0.0,0.0,0.0,0.0,0.60642403,-0.008094534,-0.795303,-0.9215088,-0.111816406,-0.35827637,-0.041992188,0.055664062,0.017578125,3.434161,12.554859,-0.16758193,-16.465237,0.9961548,-0.047424316,-0.15270996,-0.01953125,0.05859375,0.06542969,5.63503,10.306816,-57.126347,-16.95705,-0.4006958,0.07330322,0.927124,0.001953125,0.009765625,0.022460938,2.9045446,14.826345,-128.97133,-14.929112,0.0,0.0,0.0,0.0,0.0,0.0,0.0,20.798883,-128.99461,4.1591196,0.0,0.0,0.0,0.0,0.0,0.0,0.0,3.645576,44.799137,2.3238149,
0.2539062462165021,13,-0.050964355,0.80133057,0.5406494,-0.041992188,0.0068359375,0.048828125,0.0,0.0,0.0,0.0,0.0,0.0,0.0,0.0,0.0,0.0,0.0,-0.60711086,0.008721165,0.7947103,-1.0093994,0.032470703,-0.010192871,-0.041015625,0.040039062,0.072265625,7.2090306,-12.569077,0.18055522,16.452967,0.96539307,-0.1451416,-0.2388916,-0.06933594,0.017578125,0.03515625,2.4059079,-13.098582,-56.744476,19.41852,-0.5853882,-0.0028686523,0.7891846,0.026367188,-0.013671875,9.765625E-4,14.756016,-12.3535,-128.74286,20.699554,0.0,0.0,0.0,0.0,0.0,0.0,0.0,-11.187656,-128.5146,40.663574,0.0,0.0,0.0,0.0,0.0,0.0,0.0,0.60711086,-0.008721165,-0.7947103,-0.9243164,-0.09887695,-0.3237915,-0.00390625,-0.0234375,0.016601562,3.4315944,12.569077,-0.18055522,-16.452967,1.0205078,-0.0357666,-0.12957764,-0.057617188,0.05859375,0.06640625,5.6003523,10.338368,-57.141987,-16.944244,-0.3965454,0.058410645,0.9064331,-0.016601562,0.009765625,0.00390625,2.8614285,14.835297,-128.97963,-14.920229,0.0,0.0,0.0,0.0,0.0,0.0,0.0,20.83397,-129.00366,4.159771,0.0,0.0,0.0,0.0,0.0,0.0,0.0,3.6532674,44.79755,2.299267,
0.2734374959254638,14,-0.05126953,0.77227783,0.5065918,-0.0234375,-0.03125,0.06640625,0.0,0.0,0.0,0.0,0.0,0.0,0.0,0.0,0.0,0.0,0.0,-0.60747284,0.008901641,0.7944526,-0.9788208,0.058166504,-0.0017700195,-0.00390625,-0.015625,0.033203125,7.203804,-12.57657,0.18429159,16.447632,0.9734497,-0.14642334,-0.25091553,-0.03125,0.0546875,0.03515625,2.3430138,-13.057279,-56.746662,19.362354,-0.6085205,-0.0012817383,0.8050537,-0.01171875,0.005859375,0.0,14.891407,-12.3097725,-128.73817,20.64761,0.0,0.0,0.0,0.0,0.0,0.0,0.0,-11.148453,-128.5109,40.612045,0.0,0.0,0.0,0.0,0.0,0.0,0.0,0.60747284,-0.008901641,-0.7944526,-0.9110718,-0.08605957,-0.3394165,-0.022460938,-0.0029296875,0.037109375,3.4229112,12.57657,-0.18429159,-16.447632,1.0205688,-0.04473877,-0.12158203,-0.05859375,0.05859375,0.046875,5.629218,10.342685,-57.14609,-16.962175,-0.40777588,0.07849121,0.91534424,0.0029296875,0.028320312,0.041015625,2.7913394,14.870078,-128.9872,-14.954243,0.0,0.0,0.0,0.0,0.0,0.0,0.0,20.887096,-129.00807,4.1208076,0.0,0.0,0.0,0.0,0.0,0.0,0.0,3.6640303,44.797405,2.2997322,
0.2929687456344255,15,-0.057006836,0.77459717,0.53466797,-0.061523438,-0.01171875,0.048828125,0.0,0.0,0.0,0.0,0.0,0.0,0.0,0.0,0.0,0.0,0.0,-0.6075713,0.0092310645,0.79437894,-0.97998047,0.054992676,0.014099121,-0.00390625,0.022460938,0.033203125,7.164837,-12.57861,0.19111162,16.446106,0.95196533,-0.15240479,-0.25476074,-0.0126953125,0.036132812,0.017578125,2.2671905,-13.053561,-56.73699,19.3082,-0.5864258,-0.0038452148,0.795166,0.0068359375,0.0234375,0.0,14.997971,-12.311472,-128.73012,20.619808,0.0,0.0,0.0,0.0,0.0,0.0,0.0,-11.147428,-128.50977,40.582207,0.0,0.0,0.0,0.0,0.0,0.0,0.0,0.6075713,-0.0092310645,-0.79437894,-0.91522217,-0.09527588,-0.36010742,-0.022460938,0.036132812,0.057617188,3.4280553,12.57861,-0.19111162,-16.446106,1.0475464,-0.042114258,-0.11425781,-0.07714844,0.041015625,0.06640625,5.623924,10.357887,-57.153236,-16.971619,-0.39257812,0.04626465,0.9133301,0.001953125,-0.009765625,0.00390625,2.7475882,14.886025,-128.99539,-14.943142,0.0,0.0,0.0,0.0,0.0,0.0,0.0,20.932514,-129.01546,4.1218033,0.0,0.0,0.0,0.0,0.0,0.0,0.0,3.6763303,44.797028,2.2912345,
0.3124999953433872,16,-0.051086426,0.8131714,0.5317993,-0.061523438,-0.01171875,0.048828125,0.0,0.0,0.0,0.0,0.0,0.0,0.0,0.0,0.0,0.0,0.0,-0.6078143,0.009522617,0.79413307,-0.9923096,0.045288086,0.023864746,0.0146484375,0.021484375,0.052734375,7.1906104,-12.583641,0.19714767,16.441015,0.9751587,-0.15527344,-0.2619629,-0.03125,0.03515625,0.036132812,2.2443714,-13.02212,-56.731976,19.296242,-0.58618164,0.0119018555,0.7852173,0.0068359375,0.005859375,0.0,15.167717,-12.315194,-128.72354,20.614851,0.0,0.0,0.0,0.0,0.0,0.0,0.0,-11.154954,-128.50316,40.577995,0.0,0.0,0.0,0.0,0.0,0.0,0.0,0.6078143,-0.009522617,-0.79413307,-0.9069824,-0.07879639,-0.3187256,-0.060546875,0.017578125,-0.0029296875,3.434446,12.583641,-0.19714767,-16.441015,1.0084839,-0.06451416,-0.119262695,-0.057617188,0.05859375,0.06640625,5.633986,10.3627825,-57.15827,-16.975351,-0.40563965,0.07861328,0.90148926,-0.016601562,0.009765625,-0.015625,2.7147632,14.894673,-128.99243,-14.9241,0.0,0.0,0.0,0.0,0.0,0.0,0.0,20.97433,-129.01297,4.1303225,0.0,0.0,0.0,0.0,0.0,0.0,0.0,3.6921866,44.793816,2.2887971,
0.3320312450523489,17,-0.048339844,0.7722168,0.5015259,-0.021484375,0.025390625,0.048828125,0.0,0.0,0.0,0.0,0.0,0.0,0.0,0.0,0.0,0.0,0.0,-0.60913485,0.009361487,0.7931711,-1.0122681,0.027038574,-0.033203125,-0.07910156,0.059570312,0.034179688,7.179334,-12.610981,0.19381182,16.4211,0.98376465,-0.13696289,-0.26293945,-0.0126953125,0.0546875,0.016601562,2.2136393,-13.027701,-56.73906,19.249191,-0.60150146,-0.0014648438,0.79418945,0.0068359375,-0.03125,-0.018554688,15.219905,-12.289872,-128.7391,20.571949,0.0,0.0,0.0,0.0,0.0,0.0,0.0,-11.135516,-128.51836,40.53482,0.0,0.0,0.0,0.0,0.0,0.0,0.0,0.60913485,-0.009361487,-0.7931711,-0.923645,-0.12548828,-0.3583374,-0.041992188,0.016601562,0.038085938,3.4360416,12.610981,-0.19381182,-16.4211,0.97680664,-0.039123535,-0.11975098,0.0,0.057617188,0.06542969,5.6180315,10.414,-57.155743,-16.970163,-0.43945312,0.0793457,0.8937378,0.0029296875,0.009765625,0.00390625,2.6458228,14.953327,-128.99117,-14.932592,0.0,0.0,0.0,0.0,0.0,0.0,0.0,21.06921,-129.01286,4.1098747,0.0,0.0,0.0,0.0,0.0,0.0,0.0,3.6789227,44.79625,2.296605,
0.3515624947613106,18,-0.07159424,0.7897339,0.50231934,-0.021484375,0.0068359375,0.048828125,0.0,0.0,0.0,0.0,0.0,0.0,0.0,0.0,0.0,0.0,0.0,-0.61015344,0.009486143,0.7924232,-1.0084839,0.04272461,0.0138549805,-0.041015625,0.041992188,-0.00390625,7.109147,-12.632068,0.19639263,16.405617,0.9675293,-0.13934326,-0.2468872,-0.05078125,0.016601562,0.03515625,2.1220021,-13.02795,-56.740295,19.152788,-0.6098633,-0.019958496,0.8120117,0.0068359375,0.005859375,0.018554688,15.262567,-12.282487,-128.73428,20.486677,0.0,0.0,0.0,0.0,0.0,0.0,0.0,-11.11881,-128.51556,40.45151,0.0,0.0,0.0,0.0,0.0,0.0,0.0,0.61015344,-0.009486143,-0.7924232,-0.93444824,-0.103637695,-0.36212158,0.015625,0.015625,0.016601562,3.3859906,12.632068,-0.19639263,-16.405617,1.024292,-0.05279541,-0.13348389,-0.05859375,0.07714844,0.06542969,5.599407,10.461724,-57.158825,-17.02957,-0.3925171,0.06225586,0.9152832,0.001953125,0.009765625,0.022460938,2.6064684,14.985048,-128.99857,-14.996927,0.0,0.0,0.0,0.0,0.0,0.0,0.0,21.141119,-129.02048,4.0326843,0.0,0.0,0.0,0.0,0.0,0.0,0.0,3.6678014,44.79893,2.287859,
0.37109374447027227,19,-0.06762695,0.7955322,0.49829102,-0.021484375,0.025390625,0.048828125,0.0,0.0,0.0,0.0,0.0,0.0,0.0,0.0,0.0,0.0,0.0,-0.61104506,0.009951536,0.79175484,-0.986084,0.061767578,0.022216797,-0.00390625,0.0029296875,0.0146484375,7.1035156,-12.650525,0.2060276,16.39178,0.9633789,-0.14508057,-0.2388916,-0.01171875,0.03515625,0.055664062,2.1177552,-13.011378,-56.731365,19.126984,-0.6047363,-0.011291504,0.8129883,0.026367188,0.0048828125,-0.018554688,15.353557,-12.278761,-128.73059,20.44244,0.0,0.0,0.0,0.0,0.0,0.0,0.0,-11.1106,-128.51044,40.40857,0.0,0.0,0.0,0.0,0.0,0.0,0.0,0.61104506,-0.009951536,-0.79175484,-0.93115234,-0.08569336,-0.33843994,-0.022460938,0.016601562,0.016601562,3.3789868,12.650525,-0.2060276,-16.39178,1.0009766,-0.019470215,-0.113464355,-0.07714844,0.059570312,0.06640625,5.588827,10.517767,-57.17093,-17.047274,-0.41296387,0.06274414,0.904541,0.0029296875,0.009765625,-0.015625,2.542836,15.0643215,-129.00613,-15.021616,0.0,0.0,0.0,0.0,0.0,0.0,0.0,21.249336,-129.0272,3.9992352,0.0,0.0,0.0,0.0,0.0,0.0,0.0,3.6699636,44.800587,2.2692356,
0.39062499417923396,20,-0.06756592,0.7975464,0.5062256,-0.041015625,0.026367188,0.048828125,0.0,0.0,0.0,0.0,0.0,0.0,0.0,0.0,0.0,0.0,0.0,-0.6116695,0.010110579,0.7912033,-0.97888184,0.054138184,0.0041503906,0.015625,0.022460938,-0.0048828125,7.1076293,-12.663454,0.20932037,16.380362,0.9851074,-0.16455078,-0.23913574,0.0068359375,0.03515625,0.037109375,2.1471248,-13.006507,-56.730583,19.122679,-0.5855713,-0.0146484375,0.7774048,0.0068359375,0.005859375,0.0,15.421216,-12.287231,-128.73062,20.403868,0.0,0.0,0.0,0.0,0.0,0.0,0.0,-11.118753,-128.5149,40.37108,0.0,0.0,0.0,0.0,0.0,0.0,0.0,0.6116695,-0.010110579,-0.7912033,-0.9030762,-0.08831787,-0.37384033,-0.061523438,0.017578125,0.038085938,3.35748,12.663454,-0.20932037,-16.380362,1.0285034,-0.049804688,-0.11779785,-0.05859375,0.05859375,0.046875,5.5871086,10.541674,-57.174026,-17.063135,-0.3739624,0.06097412,0.90338135,0.001953125,-0.009765625,-0.015625,2.5441444,15.087813,-129.0144,-15.031153,0.0,0.0,0.0,0.0,0.0,0.0,0.0,21.285616,-129.04057,3.9848843,0.0,0.0,0.0,0.0,0.0,0.0,0.0,3.6648312,44.79903,2.2607603,
0.41015624388819566,21,-0.054992676,0.7835083,0.53466797,0.017578125,0.025390625,0.06640625,0.0,0.0,0.0,0.0,0.0,0.0,0.0,0.0,0.0,0.0,0.0,-0.6123613,0.010379657,0.79064757,-0.993042,0.03717041,-0.014099121,-0.022460938,0.07910156,0.0146484375,7.0785065,-12.677777,0.21489115,16.368856,0.95526123,-0.14672852,-0.23083496,-0.032226562,0.036132812,0.016601562,2.0930283,-13.023806,-56.722305,19.062302,-0.60321045,0.017211914,0.8139038,0.0068359375,-0.0126953125,0.018554688,15.487731,-12.286055,-128.71852,20.350567,0.0,0.0,0.0,0.0,0.0,0.0,0.0,-11.121743,-128.50864,40.31755,0.0,0.0,0.0,0.0,0.0,0.0,0.0,0.6123613,-0.010379657,-0.79064757,-0.9121704,-0.09075928,-0.38659668,-0.060546875,0.037109375,0.017578125,3.3218372,12.677777,-0.21489115,-16.368856,1.0362549,-0.037963867,-0.13873291,0.0,0.0390625,0.046875,5.6237845,10.516241,-57.17728,-17.081074,-0.4058838,0.053466797,0.91729736,0.0029296875,0.009765625,0.00390625,2.529639,15.049166,-129.01962,-15.047223,0.0,0.0,0.0,0.0,0.0,0.0,0.0,21.272388,-129.04504,3.961175,0.0,0.0,0.0,0.0,0.0,0.0,0.0,3.6788101,44.797256,2.2611604,
0.42968749359715736,22,-0.043029785,0.7781372,0.52233887,-0.041992188,0.0068359375,0.048828125,0.0,0.0,0.0,0.0,0.0,0.0,0.0,0.0,0.0,0.0,0.0,-0.61226404,0.010968231,0.7907547,-1.0114136,0.033447266,-0.010192871,-0.060546875,-0.016601562,0.033203125,7.0715747,-12.675763,0.22707635,16.371075,0.9840698,-0.12927246,-0.23901367,-0.049804688,0.016601562,0.0546875,2.0397046,-12.997121,-56.713047,19.014381,-0.6020508,0.024108887,0.8069458,0.0068359375,0.005859375,0.0,15.500988,-12.243426,-128.71118,20.305075,0.0,0.0,0.0,0.0,0.0,0.0,0.0,-11.065651,-128.49478,40.27076,0.0,0.0,0.0,0.0,0.0,0.0,0.0,0.61226404,-0.010968231,-0.7907547,-0.9420166,-0.07092285,-0.3343506,-0.022460938,0.016601562,-0.00390625,3.383214,12.675763,-0.22707635,-16.371075,0.9890747,-0.03729248,-0.101257324,-0.07714844,0.041015625,0.047851562,5.613355,10.555665,-57.19156,-17.07634,-0.41290283,0.05883789,0.8946533,0.0029296875,0.028320312,-0.015625,2.4511225,15.136978,-129.02469,-15.067919,0.0,0.0,0.0,0.0,0.0,0.0,0.0,21.387691,-129.05536,3.932047,0.0,0.0,0.0,0.0,0.0,0.0,0.0,3.7118015,44.796387,2.2526145,
0.44921874330611905,23,-0.078063965,0.79016113,0.5472412,-0.041992188,-0.01171875,0.048828125,0.0,0.0,0.0,0.0,0.0,0.0,0.0,0.0,0.0,0.0,0.0,-0.61205703,0.011002187,0.7909368,-0.98187256,0.052368164,-0.0018920898,0.015625,0.041992188,0.0146484375,7.086733,-12.671478,0.22777936,16.374846,0.9649658,-0.15881348,-0.24694824,-0.05078125,0.036132812,0.015625,2.0116863,-12.972255,-56.71578,18.985428,-0.61053467,-0.005004883,0.7753906,0.0068359375,0.0048828125,-0.037109375,15.628935,-12.208878,-128.70856,20.2664,0.0,0.0,0.0,0.0,0.0,0.0,0.0,-11.029702,-128.49394,40.23105,0.0,0.0,0.0,0.0,0.0,0.0,0.0,0.61205703,-0.011002187,-0.7909368,-0.9161377,-0.08996582,-0.3748169,-0.022460938,0.036132812,0.016601562,3.4178739,12.671478,-0.22777936,-16.374846,1.0084839,-0.048583984,-0.12823486,-0.09667969,0.041015625,0.06640625,5.600772,10.576694,-57.19256,-17.102541,-0.41290283,0.07763672,0.9104004,-0.016601562,0.009765625,0.00390625,2.4239008,15.174158,-129.0318,-15.124871,0.0,0.0,0.0,0.0,0.0,0.0,0.0,21.443888,-129.06093,3.866767,0.0,0.0,0.0,0.0,0.0,0.0,0.0,3.7317636,44.794926,2.2646687,
0.46874999301508075,24,-0.0569458,0.76867676,0.53356934,0.01953125,0.08203125,0.06640625,0.0,0.0,0.0,0.0,0.0,0.0,0.0,0.0,0.0,0.0,0.0,-0.6116212,0.011859033,0.7913006,-0.986145,0.047302246,0.014953613,-0.00390625,0.041015625,0.052734375,7.09033,-12.662454,0.24551874,16.382376,0.96606445,-0.118652344,-0.25378418,-0.01171875,0.053710938,0.0546875,2.0028136,-12.927367,-56.699444,18.986275,-0.604126,0.02319336,0.8109131,0.0068359375,0.005859375,0.0,15.768601,-12.189309,-128.69795,20.262735,0.0,0.0,0.0,0.0,0.0,0.0,0.0,-11.019888,-128.4798,40.2261,0.0,0.0,0.0,0.0,0.0,0.0,0.0,0.6116212,-0.011859033,-0.7913006,-0.9211426,-0.08905029,-0.36889648,0.03515625,0.034179688,0.016601562,3.362724,12.662454,-0.24551874,-16.382376,0.9834595,-0.05218506,-0.13464355,-0.057617188,0.05859375,0.06640625,5.6447945,10.533797,-57.21014,-17.150496,-0.39239502,0.07324219,0.9113159,0.001953125,-0.009765625,0.00390625,2.4131374,15.131142,-129.04459,-15.1733675,0.0,0.0,0.0,0.0,0.0,0.0,0.0,21.42628,-129.07292,3.810588,0.0,0.0,0.0,0.0,0.0,0.0,0.0,3.7553713,44.79602,2.2312975,
0.48828124272404244,25,-0.07305908,0.7770996,0.5420532,-0.043945312,-0.06933594,0.048828125,0.0,0.0,0.0,0.0,0.0,0.0,0.0,0.0,0.0,0.0,0.0,-0.61135703,0.012161955,0.79147387,-1.0083008,0.030639648,-0.020202637,-0.041015625,0.021484375,0.052734375,7.0754294,-12.656987,0.25179023,16.385962,0.96795654,-0.15991211,-0.25091553,-0.05078125,0.036132812,0.015625,1.9779365,-12.924561,-56.69518,18.968725,-0.5864258,-0.001953125,0.79907227,0.0068359375,0.005859375,0.0,15.832855,-12.1819315,-128.69019,20.249046,0.0,0.0,0.0,0.0,0.0,0.0,0.0,-11.007379,-128.4772,40.210667,0.0,0.0,0.0,0.0,0.0,0.0,0.0,0.61135703,-0.012161955,-0.79147387,-0.9154663,-0.111694336,-0.36712646,-0.061523438,-0.001953125,0.017578125,3.3591707,12.656987,-0.25179023,-16.385962,1.0078735,-0.048583984,-0.16479492,0.0,0.057617188,0.06542969,5.6238194,10.532358,-57.21485,-17.177366,-0.4086914,0.097473145,0.9212036,-0.016601562,-0.0087890625,0.00390625,2.3825274,15.100866,-129.05864,-15.206831,0.0,0.0,0.0,0.0,0.0,0.0,0.0,21.42635,-129.09148,3.7665043,0.0,0.0,0.0,0.0,0.0,0.0,0.0,3.7690644,44.794342,2.2230139,
0.5078124924330042,26,-0.07507324,0.79803467,0.54626465,-0.10058594,0.0087890625,0.068359375,0.0,0.0,0.0,0.0,0.0,0.0,0.0,0.0,0.0,0.0,0.0,-0.611461,0.01333401,0.79135334,-0.9980469,0.046020508,-0.015930176,-0.060546875,0.00390625,-0.0048828125,7.027609,-12.659137,0.27605528,16.383469,0.9680176,-0.15692139,-0.26391602,-0.068359375,0.0546875,0.053710938,1.9024862,-12.960899,-56.67207,18.888826,-0.5866089,-0.013671875,0.78826904,0.0068359375,-0.0126953125,-0.018554688,15.959585,-12.25288,-128.66942,20.165804,0.0,0.0,0.0,0.0,0.0,0.0,0.0,-11.088699,-128.45325,40.129265,0.0,0.0,0.0,0.0,0.0,0.0,0.0,0.611461,-0.01333401,-0.79135334,-0.9057617,-0.0647583,-0.37365723,-0.060546875,-0.021484375,-0.0029296875,3.3630736,12.659137,-0.27605528,-16.383469,0.99102783,-0.017333984,-0.11328125,-0.0390625,0.05859375,0.06542969,5.6540227,10.489556,-57.23701,-17.190361,-0.39672852,0.049194336,0.92614746,0.0029296875,0.009765625,0.00390625,2.3575873,15.035446,-129.07355,-15.223707,0.0,0.0,0.0,0.0,0.0,0.0,0.0,21.388405,-129.11159,3.741129,0.0,0.0,0.0,0.0,0.0,0.0,0.0,3.8306766,44.789234,2.205196,
0.5273437421419659,27,-0.055419922,0.8121948,0.5120239,-0.061523438,-0.01171875,0.06738281,0.0,0.0,0.0,0.0,0.0,0.0,0.0,0.0,0.0,0.0,0.0,-0.6118051,0.013908217,0.79105175,-0.9724121,0.086364746,-0.0072631836,0.015625,-0.015625,-0.0048828125,7.091714,-12.666263,0.28794318,16.377224,0.9511719,-0.14453125,-0.25372314,-0.03125,0.03515625,0.0546875,1.8836712,-12.964879,-56.658966,18.879698,-0.58843994,-0.0037841797,0.7892456,-0.01171875,-0.01171875,0.018554688,16.091875,-12.2971115,-128.65741,20.170813,0.0,0.0,0.0,0.0,0.0,0.0,0.0,-11.129843,-128.44228,40.1332,0.0,0.0,0.0,0.0,0.0,0.0,0.0,0.6118051,-0.013908217,-0.79105175,-0.9210205,-0.07696533,-0.38452148,0.034179688,-0.0048828125,0.016601562,3.4147794,12.666263,-0.28794318,-16.377224,0.9998779,-0.07244873,-0.15655518,-0.07714844,0.078125,0.06640625,5.64837,10.488173,-57.244152,-17.20713,-0.42108154,0.08270264,0.9222412,0.001953125,-0.009765625,-0.015625,2.3623147,14.998501,-129.08514,-15.2133045,0.0,0.0,0.0,0.0,0.0,0.0,0.0,21.39277,-129.12656,3.7376328,0.0,0.0,0.0,0.0,0.0,0.0,0.0,3.889344,44.78249,2.220684,
0.5468749918509276,28,-0.06359863,0.8043823,0.50219727,-0.060546875,0.02734375,0.06738281,0.0,0.0,0.0,0.0,0.0,0.0,0.0,0.0,0.0,0.0,0.0,-0.61273605,0.0139288865,0.7903738,-0.98706055,0.056030273,0.014099121,-0.022460938,0.059570312,0.052734375,7.07335,-12.6855345,0.28837112,16.36319,0.96728516,-0.14709473,-0.25787354,0.0068359375,0.03515625,0.037109375,1.9045426,-12.995152,-56.659634,18.892082,-0.5906372,-0.01361084,0.7961426,0.0068359375,0.005859375,0.0,16.181025,-12.345462,-128.65485,20.187714,0.0,0.0,0.0,0.0,0.0,0.0,0.0,-11.183042,-128.44276,40.151237,0.0,0.0,0.0,0.0,0.0,0.0,0.0,0.61273605,-0.0139288865,-0.7903738,-0.9139404,-0.07720947,-0.37963867,-0.041992188,0.037109375,-0.0029296875,3.3019156,12.6855345,-0.28837112,-16.36319,1.0230103,-0.049804688,-0.15222168,-0.07714844,0.041015625,0.06640625,5.728066,10.44384,-57.245346,-17.24114,-0.4130249,0.043884277,0.8907471,0.0029296875,0.009765625,0.00390625,2.3693466,14.956374,-129.08777,-15.232413,0.0,0.0,0.0,0.0,0.0,0.0,0.0,21.374863,-129.1322,3.7106886,0.0,0.0,0.0,0.0,0.0,0.0,0.0,3.8666737,44.786617,2.2083511,
0.5664062415598893,29,-0.05328369,0.78234863,0.5107422,-0.021484375,0.0068359375,0.048828125,0.0,0.0,0.0,0.0,0.0,0.0,0.0,0.0,0.0,0.0,0.0,-0.6138856,0.013792379,0.7894514,-1.0021973,0.04296875,-0.0060424805,0.015625,0.041015625,0.052734375,7.060526,-12.709335,0.285545,16.344091,0.98742676,-0.1519165,-0.25012207,-0.030273438,0.0546875,0.0546875,1.8882371,-13.014271,-56.665043,18.848778,-0.5965576,-0.0036621094,0.8109741,0.044921875,-0.032226562,-0.017578125,16.280052,-12.374467,-128.66438,20.133406,0.0,0.0,0.0,0.0,0.0,0.0,0.0,-11.214197,-128.45534,40.095955,0.0,0.0,0.0,0.0,0.0,0.0,0.0,0.6138856,-0.013792379,-0.7894514,-0.9421387,-0.080566406,-0.3383789,-0.080078125,0.018554688,0.017578125,3.2966344,12.709335,-0.285545,-16.344091,1.0082397,-0.07647705,-0.1270752,-0.05859375,0.07714844,0.06542969,5.736545,10.454551,-57.242207,-17.211058,-0.42126465,0.057739258,0.92126465,0.001953125,-0.009765625,0.00390625,2.3712459,14.959097,-129.08717,-15.180513,0.0,0.0,0.0,0.0,0.0,0.0,0.0,21.40836,-129.13525,3.7521362,0.0,0.0,0.0,0.0,0.0,0.0,0.0,3.858467,44.785694,2.2179403,
0.585937491268851,30,-0.053222656,0.77838135,0.5166626,-0.021484375,0.005859375,0.030273438,0.0,0.0,0.0,0.0,0.0,0.0,0.0,0.0,0.0,0.0,0.0,-0.61361307,0.014325313,0.7896934,-1.0206299,0.018981934,-0.008483887,-0.07910156,0.021484375,0.052734375,7.036145,-12.703694,0.2965784,16.349102,0.96051025,-0.14007568,-0.2368164,-0.030273438,0.03515625,0.07421875,1.8441927,-12.991148,-56.654892,18.801521,-0.60198975,0.030944824,0.81585693,0.0068359375,-0.0126953125,-0.018554688,16.300459,-12.3189535,-128.64911,20.07616,0.0,0.0,0.0,0.0,0.0,0.0,0.0,-11.159687,-128.43285,40.038994,0.0,0.0,0.0,0.0,0.0,0.0,0.0,0.61361307,-0.014325313,-0.7896934,-0.93066406,-0.1204834,-0.31506348,-0.041992188,-0.0029296875,0.037109375,3.332664,12.703694,-0.2965784,-16.349102,1.0197144,-0.047668457,-0.10974121,-0.0390625,0.05859375,0.06542969,5.716523,10.488146,-57.2526,-17.227915,-0.38519287,0.06530762,0.89453125,0.001953125,0.009765625,0.022460938,2.3260787,15.010209,-129.09007,-15.200422,0.0,0.0,0.0,0.0,0.0,0.0,0.0,21.47576,-129.13147,3.7275696,0.0,0.0,0.0,0.0,0.0,0.0,0.0,3.880355,44.78597,2.2027073,
0.6054687409778127,31,-0.08001709,0.77630615,0.5482178,-0.061523438,-0.01171875,0.03125,0.0,0.0,0.0,0.0,0.0,0.0,0.0,0.0,0.0,0.0,0.0,-0.6137792,0.014737474,0.78951794,-0.9821167,0.045166016,0.019897461,0.034179688,0.060546875,0.0146484375,7.0236163,-12.707132,0.30511147,16.345469,0.96673584,-0.13543701,-0.23187256,0.0068359375,0.03515625,0.055664062,1.8082937,-12.952639,-56.64854,18.760933,-0.6043701,0.008361816,0.8218384,-0.01171875,0.005859375,-0.018554688,16.293304,-12.25158,-128.64885,20.03338,0.0,0.0,0.0,0.0,0.0,0.0,0.0,-11.091564,-128.42776,39.998226,0.0,0.0,0.0,0.0,0.0,0.0,0.0,0.6137792,-0.014737474,-0.78951794,-0.9387207,-0.12249756,-0.34753418,-0.041992188,-0.0029296875,0.037109375,3.3637137,12.707132,-0.30511147,-16.345469,1.0132446,-0.021606445,-0.08898926,-0.057617188,0.040039062,0.046875,5.7061934,10.54582,-57.264553,-17.234743,-0.39874268,0.05328369,0.9212036,-0.016601562,0.009765625,0.00390625,2.3296099,15.117813,-129.10587,-15.207029,0.0,0.0,0.0,0.0,0.0,0.0,0.0,21.592505,-129.1537,3.7161674,0.0,0.0,0.0,0.0,0.0,0.0,0.0,3.885325,44.78505,2.1845138,
0.6249999906867744,32,-0.04675293,0.7813721,0.5453491,-0.041015625,0.026367188,0.048828125,0.0,0.0,0.0,0.0,0.0,0.0,0.0,0.0,0.0,0.0,0.0,-0.6136391,0.015008552,0.7895888,-0.9984131,0.044311523,0.026855469,-0.041015625,0.059570312,0.052734375,7.105642,-12.704232,0.31072357,16.346935,0.95635986,-0.1408081,-0.2487793,-0.01171875,0.03515625,0.055664062,1.843556,-12.909744,-56.641865,18.803766,-0.6081543,0.020324707,0.80895996,0.026367188,0.0048828125,0.0,16.337189,-12.176754,-128.63515,20.083658,0.0,0.0,0.0,0.0,0.0,0.0,0.0,-11.016729,-128.40756,40.046707,0.0,0.0,0.0,0.0,0.0,0.0,0.0,0.6136391,-0.015008552,-0.7895888,-0.9395752,-0.11291504,-0.3395996,-0.041992188,0.016601562,0.057617188,3.4242265,12.704232,-0.31072357,-16.346935,1.0168457,-0.040649414,-0.105773926,-0.057617188,0.05859375,0.06640625,5.666142,10.612682,-57.269585,-17.284313,-0.39855957,0.06542969,0.90740967,0.0029296875,0.028320312,0.022460938,2.318662,15.187102,-129.10266,-15.228191,0.0,0.0,0.0,0.0,0.0,0.0,0.0,21.681417,-129.14946,3.6875668,0.0,0.0,0.0,0.0,0.0,0.0,0.0,3.91003,44.781574,2.187519,
0.6445312403957361,33,-0.025756836,0.770813,0.53082275,0.016601562,-0.013671875,0.047851562,0.0,0.0,0.0,0.0,0.0,0.0,0.0,0.0,0.0,0.0,0.0,-0.61331385,0.014872691,0.78990525,-0.9963379,0.04345703,0.019897461,-0.00390625,0.041015625,0.0146484375,7.180618,-12.697498,0.30791083,16.353489,0.98669434,-0.14807129,-0.21118164,-0.06933594,0.016601562,0.053710938,1.8328029,-12.858441,-56.642303,18.805634,-0.6057129,-0.011169434,0.80010986,-0.01171875,0.005859375,-0.018554688,16.357464,-12.081602,-128.63757,20.094044,0.0,0.0,0.0,0.0,0.0,0.0,0.0,-10.927787,-128.41171,40.05754,0.0,0.0,0.0,0.0,0.0,0.0,0.0,0.61331385,-0.014872691,-0.78990525,-0.92944336,-0.10479736,-0.35821533,-0.061523438,-0.001953125,0.038085938,3.5006213,12.697498,-0.30791083,-16.353489,1.0010376,-0.045410156,-0.09649658,0.0,0.020507812,0.06542969,5.6443434,10.643656,-57.272102,-17.296412,-0.42138672,0.055541992,0.9429321,0.0029296875,0.009765625,0.00390625,2.3235528,15.219889,-129.10876,-15.200983,0.0,0.0,0.0,0.0,0.0,0.0,0.0,21.724411,-129.15463,3.7120934,0.0,0.0,0.0,0.0,0.0,0.0,0.0,3.937244,44.780083,2.2138934,
0.6640624901046978,34,-0.07946777,0.7910156,0.5194702,-0.001953125,0.0068359375,0.06640625,0.0,0.0,0.0,0.0,0.0,0.0,0.0,0.0,0.0,0.0,0.0,-0.6137522,0.014626136,0.78959763,-0.998291,0.029296875,-0.0072631836,-0.09765625,0.0029296875,0.033203125,7.163604,-12.7065735,0.3028063,16.347118,0.9847412,-0.13800049,-0.2659912,-0.032226562,-0.0029296875,0.036132812,1.764029,-12.832899,-56.650837,18.728245,-0.6055908,-0.0024414062,0.8179321,0.026367188,0.0048828125,0.0,16.366192,-12.047335,-128.64627,20.012892,0.0,0.0,0.0,0.0,0.0,0.0,0.0,-10.886625,-128.42148,39.97458,0.0,0.0,0.0,0.0,0.0,0.0,0.0,0.6137522,-0.014626136,-0.78959763,-0.93811035,-0.080078125,-0.32263184,-0.041992188,0.036132812,0.017578125,3.5469062,12.7065735,-0.3028063,-16.347118,1.0026855,-0.055419922,-0.11230469,-0.057617188,0.021484375,0.06640625,5.625945,10.677023,-57.264034,-17.255999,-0.39648438,0.06945801,0.897522,-0.016601562,0.009765625,0.00390625,2.323637,15.265884,-129.09138,-15.139076,0.0,0.0,0.0,0.0,0.0,0.0,0.0,21.77997,-129.13568,3.7703514,0.0,0.0,0.0,0.0,0.0,0.0,0.0,3.9346528,44.78058,2.2289014,
0.6835937398136595,35,-0.064331055,0.80651855,0.5241699,-0.041015625,0.02734375,0.0859375,0.0,0.0,0.0,0.0,0.0,0.0,0.0,0.0,0.0,0.0,0.0,-0.6137989,0.01425905,0.78949916,-0.97875977,0.07165527,0.0044555664,-0.041015625,0.041992188,-0.0234375,7.1347637,-12.7075405,0.2952066,16.34508,0.97351074,-0.14245605,-0.25689697,-0.051757812,-0.001953125,-0.0029296875,1.7201047,-12.84124,-56.663334,18.68556,-0.60058594,-0.005493164,0.81591797,0.0068359375,0.0048828125,-0.018554688,16.395544,-12.048988,-128.65747,19.973646,0.0,0.0,0.0,0.0,0.0,0.0,0.0,-10.885842,-128.43788,39.935703,0.0,0.0,0.0,0.0,0.0,0.0,0.0,0.6137989,-0.01425905,-0.78949916,-0.9523926,-0.0960083,-0.33947754,0.015625,0.0546875,0.016601562,3.5689185,12.7075405,-0.2952066,-16.34508,1.0165405,-0.03967285,-0.12451172,-0.018554688,0.021484375,0.08496094,5.615345,10.702596,-57.257214,-17.253393,-0.4048462,0.055480957,0.9133301,0.001953125,-0.009765625,-0.015625,2.324479,15.300932,-129.08754,-15.114896,0.0,0.0,0.0,0.0,0.0,0.0,0.0,21.837105,-129.13965,3.7876997,0.0,0.0,0.0,0.0,0.0,0.0,0.0,3.9258451,44.778168,2.2434292,
0.7031249895226211,36,-0.045043945,0.78515625,0.52545166,-9.765625E-4,0.044921875,0.08496094,0.0,0.0,0.0,0.0,0.0,0.0,0.0,0.0,0.0,0.0,0.0,-0.61423343,0.01371274,0.789113,-0.98498535,0.06866455,0.016357422,-0.060546875,0.0029296875,0.052734375,7.207997,-12.716536,0.28389624,16.337084,0.96313477,-0.15386963,-0.23693848,-0.049804688,0.016601562,0.0546875,1.7680182,-12.84006,-56.669334,18.721958,-0.5964966,3.0517578E-4,0.81292725,-0.01171875,-0.01171875,0.0,16.490652,-12.067979,-128.66942,20.005713,0.0,0.0,0.0,0.0,0.0,0.0,0.0,-10.905191,-128.44496,39.968414,0.0,0.0,0.0,0.0,0.0,0.0,0.0,0.61423343,-0.01371274,-0.789113,-0.9144287,-0.11151123,-0.375,-0.00390625,0.03515625,0.016601562,3.583646,12.716536,-0.28389624,-16.337084,1.0182495,-0.081604004,-0.123291016,-0.0390625,0.040039062,0.046875,5.599162,10.70332,-57.24858,-17.252386,-0.41290283,0.06573486,0.90252686,0.001953125,0.009765625,0.022460938,2.339168,15.256449,-129.08394,-15.085627,0.0,0.0,0.0,0.0,0.0,0.0,0.0,21.796824,-129.13719,3.8151073,0.0,0.0,0.0,0.0,0.0,0.0,0.0,3.9264731,44.77429,2.278245,
0.7226562392315828,37,-0.047058105,0.774292,0.52142334,0.017578125,0.025390625,0.06640625,0.0,0.0,0.0,0.0,0.0,0.0,0.0,0.0,0.0,0.0,0.0,-0.61447346,0.013270622,0.78891987,-0.9836426,0.058654785,-0.029663086,-0.022460938,0.021484375,0.052734375,7.2193646,-12.721505,0.2747429,16.333088,0.9699707,-0.12774658,-0.230896,-0.0126953125,0.016601562,0.036132812,1.7392259,-12.856326,-56.67859,18.689688,-0.583313,0.00579834,0.80596924,0.0068359375,0.0234375,-0.018554688,16.564135,-12.096155,-128.66978,19.972359,0.0,0.0,0.0,0.0,0.0,0.0,0.0,-10.94446,-128.44315,39.93657,0.0,0.0,0.0,0.0,0.0,0.0,0.0,0.61447346,-0.013270622,-0.78891987,-0.91986084,-0.066467285,-0.37365723,-0.060546875,0.017578125,-0.0029296875,3.5885055,12.721505,-0.2747429,-16.333088,0.9967041,-0.045410156,-0.119140625,-0.038085938,0.040039062,0.06640625,5.6455584,10.675678,-57.238106,-17.251959,-0.40997314,0.05456543,0.9163208,0.0029296875,0.009765625,0.00390625,2.3489375,15.243013,-129.06586,-15.071119,0.0,0.0,0.0,0.0,0.0,0.0,0.0,21.805475,-129.12692,3.8227673,0.0,0.0,0.0,0.0,0.0,0.0,0.0,3.9356031,44.77125,2.312252,
0.7421874889405445,38,-0.070129395,0.7680054,0.5319214,0.0390625,0.0625,0.06542969,0.0,0.0,0.0,0.0,0.0,0.0,0.0,0.0,0.0,0.0,0.0,-0.6149494,0.012916645,0.7886804,-1.0083618,0.036315918,-0.009155273,-0.11621094,0.059570312,0.034179688,7.2070713,-12.7313595,0.2674146,16.328129,0.98602295,-0.13024902,-0.24603271,-0.049804688,0.016601562,0.0546875,1.6794631,-12.90825,-56.685043,18.627728,-0.58654785,-0.007873535,0.809021,0.0068359375,-0.0126953125,0.0,16.674011,-12.144966,-128.68594,19.914848,0.0,0.0,0.0,0.0,0.0,0.0,0.0,-11.014379,-128.45882,39.88176,0.0,0.0,0.0,0.0,0.0,0.0,0.0,0.6149494,-0.012916645,-0.7886804,-0.90618896,-0.09777832,-0.38372803,-0.099609375,0.038085938,0.017578125,3.5791633,12.7313595,-0.2674146,-16.328129,0.9984131,-0.057373047,-0.12896729,0.0,0.0390625,0.06542969,5.682893,10.606361,-57.22765,-17.243557,-0.39660645,0.059387207,0.90838623,0.0029296875,0.009765625,0.00390625,2.338666,15.114299,-129.05699,-15.033233,0.0,0.0,0.0,0.0,0.0,0.0,0.0,21.695377,-129.11507,3.85472,0.0,0.0,0.0,0.0,0.0,0.0,0.0,3.9588127,44.771534,2.3535159,
0.7617187386495062,39,-0.07305908,0.7869873,0.5411377,-0.040039062,0.064453125,0.06738281,0.0,0.0,0.0,0.0,0.0,0.0,0.0,0.0,0.0,0.0,0.0,-0.61336607,0.013530461,0.7898114,-0.98883057,0.06427002,-0.011657715,-0.00390625,-0.034179688,-0.0048828125,7.2353535,-12.698579,0.28012255,16.351543,0.9621582,-0.15081787,-0.25585938,-0.01171875,0.03515625,0.055664062,1.6561126,-12.848333,-56.676254,18.637589,-0.578125,0.012634277,0.7941284,-0.01171875,0.024414062,0.0,16.759876,-12.105663,-128.66942,19.933834,0.0,0.0,0.0,0.0,0.0,0.0,0.0,-10.971239,-128.43852,39.901684,0.0,0.0,0.0,0.0,0.0,0.0,0.0,0.61336607,-0.013530461,-0.7898114,-0.8742676,-0.1105957,-0.36517334,-0.041992188,-0.001953125,-0.0029296875,3.5728118,12.698579,-0.28012255,-16.351543,1.012207,-0.03967285,-0.14813232,-0.057617188,-0.015625,0.0859375,5.694779,10.533724,-57.23879,-17.272867,-0.41796875,0.077819824,0.9015503,0.001953125,0.009765625,0.022460938,2.345018,14.999633,-129.07655,-15.049089,0.0,0.0,0.0,0.0,0.0,0.0,0.0,21.584658,-129.138,3.8374481,0.0,0.0,0.0,0.0,0.0,0.0,0.0,3.9979777,44.76563,2.3379307,
0.7812499883584679,40,-0.08294678,0.77545166,0.5552368,-0.020507812,0.044921875,0.06738281,0.0,0.0,0.0,0.0,0.0,0.0,0.0,0.0,0.0,0.0,0.0,-0.6125438,0.0140626,0.79041564,-0.97662354,0.074645996,-0.0014648438,-0.060546875,0.021484375,0.033203125,7.267253,-12.681556,0.2911395,16.364054,0.9750366,-0.15820312,-0.26696777,-0.0126953125,0.015625,0.055664062,1.6959289,-12.840192,-56.664345,18.669617,-0.58013916,0.011657715,0.7970581,-0.01171875,-0.0126953125,-0.018554688,16.823992,-12.129741,-128.66394,19.938124,0.0,0.0,0.0,0.0,0.0,0.0,0.0,-10.995958,-128.4307,39.905617,0.0,0.0,0.0,0.0,0.0,0.0,0.0,0.6125438,-0.0140626,-0.79041564,-0.9404297,-0.10424805,-0.37194824,-0.022460938,0.016601562,0.016601562,3.577029,12.681556,-0.2911395,-16.364054,1.0280762,-0.057861328,-0.14141846,-0.057617188,0.040039062,0.06640625,5.7015553,10.506837,-57.248985,-17.319363,-0.3977661,0.043273926,0.9251709,0.0029296875,0.009765625,0.00390625,2.353183,14.946634,-129.08598,-15.07777,0.0,0.0,0.0,0.0,0.0,0.0,0.0,21.532364,-129.14865,3.808096,0.0,0.0,0.0,0.0,0.0,0.0,0.0,4.0337386,44.761982,2.3296242,
0.8007812380674296,41,-0.06390381,0.76989746,0.5437622,-0.021484375,0.026367188,0.06738281,0.0,0.0,0.0,0.0,0.0,0.0,0.0,0.0,0.0,0.0,0.0,-0.6116956,0.014647264,0.7910693,-0.9888916,0.04107666,-0.021972656,-0.060546875,0.0029296875,0.052734375,7.225938,-12.663993,0.3032438,16.377586,0.97442627,-0.14746094,-0.23797607,-0.05078125,0.036132812,0.03515625,1.6654216,-12.835967,-56.654606,18.661268,-0.5858154,0.03540039,0.8118286,0.026367188,-0.013671875,-0.018554688,16.901917,-12.154371,-128.64961,19.938555,0.0,0.0,0.0,0.0,0.0,0.0,0.0,-11.016424,-128.4105,39.906273,0.0,0.0,0.0,0.0,0.0,0.0,0.0,0.6116956,-0.014647264,-0.7910693,-0.92041016,-0.10852051,-0.37493896,-0.041992188,0.036132812,0.017578125,3.5462437,12.663993,-0.3032438,-16.377586,1.0079956,-0.061584473,-0.15185547,-0.057617188,0.021484375,0.10449219,5.689821,10.472956,-57.256817,-17.350021,-0.40899658,0.043640137,0.9104004,0.001953125,-0.009765625,0.00390625,2.3653781,14.868338,-129.09476,-15.1085415,0.0,0.0,0.0,0.0,0.0,0.0,0.0,21.467808,-129.16354,3.772541,0.0,0.0,0.0,0.0,0.0,0.0,0.0,4.046523,44.762627,2.3001652,
0.8203124877763913,42,-0.06744385,0.8065796,0.5162964,-0.021484375,0.025390625,0.048828125,0.0,0.0,0.0,0.0,0.0,0.0,0.0,0.0,0.0,0.0,0.0,-0.61127424,0.014915513,0.79140633,-0.9869995,0.034179688,-0.016113281,-0.07910156,0.021484375,0.033203125,7.1744137,-12.655272,0.30879742,16.384563,0.96099854,-0.1586914,-0.23492432,-0.049804688,0.03515625,0.0546875,1.5907776,-12.856007,-56.65318,18.600529,-0.5942383,0.009216309,0.78125,0.0068359375,0.0048828125,-0.018554688,16.94699,-12.201158,-128.6452,19.886211,0.0,0.0,0.0,0.0,0.0,0.0,0.0,-11.062851,-128.41098,39.853287,0.0,0.0,0.0,0.0,0.0,0.0,0.0,0.61127424,-0.014915513,-0.79140633,-0.91119385,-0.095458984,-0.39453125,-0.060546875,0.017578125,0.017578125,3.5402205,12.655272,-0.30879742,-16.384563,1.0079956,-0.061584473,-0.15185547,-0.057617188,0.021484375,0.10449219,5.714706,10.447373,-57.26451,-17.382133,-0.43133545,0.07208252,0.90460205,0.0029296875,0.009765625,0.00390625,2.3392518,14.842755,-129.10245,-15.140654,0.0,0.0,0.0,0.0,0.0,0.0,0.0,21.463982,-129.16818,3.7314568,0.0,0.0,0.0,0.0,0.0,0.0,0.0,4.0681334,44.761337,2.2985754,
0.839843737485353,43,-0.056396484,0.7813721,0.50579834,-0.041992188,0.0078125,0.06738281,0.0,0.0,0.0,0.0,0.0,0.0,0.0,0.0,0.0,0.0,0.0,-0.61231214,0.014757877,0.7907063,-0.97998047,0.035827637,-0.0041503906,-0.00390625,0.041015625,0.0146484375,7.134214,-12.67676,0.30553377,16.37007,0.96258545,-0.17041016,-0.26287842,-0.05078125,0.036132812,0.03515625,1.5358235,-12.879059,-56.65481,18.548035,-0.60858154,-0.0032348633,0.8060303,0.0068359375,0.005859375,0.018554688,17.017763,-12.256999,-128.65009,19.85456,0.0,0.0,0.0,0.0,0.0,0.0,0.0,-11.127666,-128.41446,39.82243,0.0,0.0,0.0,0.0,0.0,0.0,0.0,0.61231214,-0.014757877,-0.7907063,-0.89416504,-0.09875488,-0.35327148,-0.00390625,0.03515625,0.016601562,3.4927824,12.67676,-0.30553377,-16.37007,0.98864746,-0.036315918,-0.12890625,0.0,0.057617188,0.083984375,5.6816516,10.454913,-57.259113,-17.404266,-0.38635254,0.059143066,0.9122925,0.0029296875,0.028320312,0.041015625,2.302228,14.771366,-129.10912,-15.164881,0.0,0.0,0.0,0.0,0.0,0.0,0.0,21.392363,-129.1662,3.707426,0.0,0.0,0.0,0.0,0.0,0.0,0.0,4.051771,44.766205,2.302112,
0.8593749871943147,44,-0.07910156,0.8031006,0.5484009,-0.059570312,0.045898438,0.068359375,0.0,0.0,0.0,0.0,0.0,0.0,0.0,0.0,0.0,0.0,0.0,-0.61243844,0.014698336,0.7905044,-1.0054321,0.056152344,0.026062012,0.015625,0.022460938,0.033203125,7.165822,-12.679375,0.3043012,16.36589,0.9717407,-0.16986084,-0.25402832,-0.049804688,0.03515625,0.0546875,1.5783039,-12.847309,-56.657078,18.58223,-0.5946655,-0.010620117,0.81591797,0.026367188,-0.013671875,9.765625E-4,17.104132,-12.254687,-128.655,19.88583,0.0,0.0,0.0,0.0,0.0,0.0,0.0,-11.128149,-128.42006,39.852364,0.0,0.0,0.0,0.0,0.0,0.0,0.0,0.61243844,-0.014698336,-0.7905044,-0.9364624,-0.10668945,-0.3562622,-0.022460938,0.016601562,0.016601562,3.4531505,12.679375,-0.3043012,-16.36589,1.0325317,-0.041870117,-0.11987305,-0.11621094,0.059570312,0.047851562,5.675093,10.44516,-57.254993,-17.4145,-0.38635254,0.059143066,0.9142456,0.0029296875,0.009765625,-0.015625,2.3230474,14.737962,-129.0986,-15.195364,0.0,0.0,0.0,0.0,0.0,0.0,0.0,21.362854,-129.167,3.6762142,0.0,0.0,0.0,0.0,0.0,0.0,0.0,4.036289,44.76422,2.2947612,
0.8789062369032764,45,-0.058776855,0.7747803,0.55059814,-0.041015625,0.026367188,0.06738281,0.0,0.0,0.0,0.0,0.0,0.0,0.0,0.0,0.0,0.0,0.0,-0.6118923,0.014998585,0.79094356,-1.0012817,0.015930176,-0.01940918,-0.022460938,0.022460938,0.033203125,7.1427608,-12.668066,0.31051716,16.374985,0.97302246,-0.15911865,-0.26397705,-0.03125,0.03515625,0.036132812,1.5355686,-12.826134,-56.65332,18.55305,-0.604126,0.02319336,0.80895996,0.0068359375,0.005859375,0.018554688,17.159536,-12.243291,-128.64575,19.861782,0.0,0.0,0.0,0.0,0.0,0.0,0.0,-11.107388,-128.41328,39.828564,0.0,0.0,0.0,0.0,0.0,0.0,0.0,0.6118923,-0.014998585,-0.79094356,-0.9104614,-0.11566162,-0.36810303,-0.09863281,0.057617188,-0.0029296875,3.4275982,12.668066,-0.31051716,-16.374985,1.022644,-0.043762207,-0.11376953,-0.07714844,0.059570312,0.08496094,5.675715,10.4282055,-57.26408,-17.467192,-0.4006958,0.054504395,0.9035034,0.0029296875,0.009765625,-0.015625,2.3594131,14.6724415,-129.1158,-15.200287,0.0,0.0,0.0,0.0,0.0,0.0,0.0,21.294292,-129.18776,3.6722698,0.0,0.0,0.0,0.0,0.0,0.0,0.0,4.0468864,44.764706,2.2818966,
0.8984374866122381,46,-0.077819824,0.7907715,0.4885254,-0.041015625,0.02734375,0.0859375,0.0,0.0,0.0,0.0,0.0,0.0,0.0,0.0,0.0,0.0,0.0,-0.6123926,0.014910802,0.7906136,-0.9949951,0.04888916,-0.01586914,-0.022460938,0.060546875,0.034179688,7.0837703,-12.678425,0.3086998,16.368153,0.9700928,-0.15405273,-0.26586914,-0.06933594,0.036132812,0.053710938,1.4788289,-12.837008,-56.658073,18.48524,-0.6065674,-0.0052490234,0.79815674,-0.01171875,0.005859375,0.0,17.209345,-12.254263,-128.65051,19.787212,0.0,0.0,0.0,0.0,0.0,0.0,0.0,-11.123492,-128.42361,39.754124,0.0,0.0,0.0,0.0,0.0,0.0,0.0,0.6123926,-0.014910802,-0.7906136,-0.92626953,-0.093933105,-0.3256836,-0.041992188,0.016601562,0.017578125,3.417473,12.678425,-0.3086998,-16.368153,1.0166626,-0.0256958,-0.12561035,-0.01953125,0.05859375,0.046875,5.6716733,10.430052,-57.261196,-17.433876,-0.39666748,0.05822754,0.92614746,0.0029296875,0.009765625,0.00390625,2.3762758,14.668364,-129.11192,-15.158848,0.0,0.0,0.0,0.0,0.0,0.0,0.0,21.29273,-129.18614,3.7135925,0.0,0.0,0.0,0.0,0.0,0.0,0.0,4.032946,44.768074,2.2795186,
0.9179687363211998,47,-0.04522705,0.79803467,0.5145874,-0.060546875,0.02734375,0.06738281,0.0,0.0,0.0,0.0,0.0,0.0,0.0,0.0,0.0,0.0,0.0,-0.6130637,0.015314596,0.7900185,-0.97680664,0.06756592,0.014343262,-0.022460938,0.041015625,0.0146484375,7.0839086,-12.69232,0.31705958,16.355831,0.9647827,-0.1303711,-0.24584961,-0.03125,0.03515625,0.036132812,1.5012866,-12.858375,-56.647152,18.486593,-0.61468506,-0.007019043,0.8031006,-0.01171875,0.005859375,0.0,17.240656,-12.296921,-128.64984,19.776873,0.0,0.0,0.0,0.0,0.0,0.0,0.0,-11.155742,-128.42233,39.743645,0.0,0.0,0.0,0.0,0.0,0.0,0.0,0.6130637,-0.015314596,-0.7900185,-0.9060669,-0.08868408,-0.35614014,-0.022460938,0.016601562,-0.00390625,3.3679018,12.69232,-0.31705958,-16.355831,1.0130615,0.002319336,-0.112854004,-0.057617188,0.040039062,0.06640625,5.72875,10.413094,-57.266068,-17.464552,-0.4006958,0.03869629,0.88183594,0.001953125,-0.009765625,0.00390625,2.3415096,14.686832,-129.11546,-15.234874,0.0,0.0,0.0,0.0,0.0,0.0,0.0,21.335236,-129.19403,3.6284761,0.0,0.0,0.0,0.0,0.0,0.0,0.0,4.0400496,44.76566,2.2673392,
0.9374999860301615,48,-0.07623291,0.7880249,0.5342407,-0.041015625,0.026367188,0.048828125,0.0,0.0,0.0,0.0,0.0,0.0,0.0,0.0,0.0,0.0,0.0,-0.6129816,0.016052298,0.7900467,-0.9869995,0.05517578,0.008117676,-0.041015625,0.022460938,0.033203125,7.153135,-12.69062,0.33233234,16.356415,0.9691162,-0.1550293,-0.25494385,0.0068359375,0.03515625,0.037109375,1.5391327,-12.835192,-56.63075,18.531673,-0.6098633,-0.018920898,0.79919434,-0.01171875,0.005859375,0.0,17.269945,-12.268988,-128.63106,19.832653,0.0,0.0,0.0,0.0,0.0,0.0,0.0,-11.1226425,-128.40492,39.799366,0.0,0.0,0.0,0.0,0.0,0.0,0.0,0.6129816,-0.016052298,-0.7900467,-0.93426514,-0.09387207,-0.36206055,-0.041992188,0.017578125,-0.0029296875,3.434674,12.69062,-0.33233234,-16.356415,1.0130615,0.002319336,-0.112854004,-0.057617188,0.040039062,0.06640625,5.695536,10.437616,-57.281406,-17.442432,-0.4130249,0.076416016,0.9350586,0.001953125,-0.009765625,0.022460938,2.3377452,14.711355,-129.1308,-15.212754,0.0,0.0,0.0,0.0,0.0,0.0,0.0,21.360725,-129.20831,3.6494875,0.0,0.0,0.0,0.0,0.0,0.0,0.0,4.0777044,44.762157,2.2543254,
0.9570312357391232,49,-0.06933594,0.7758179,0.5180664,-9.765625E-4,0.044921875,0.06640625,0.0,0.0,0.0,0.0,0.0,0.0,0.0,0.0,0.0,0.0,0.0,-0.6128253,0.016754666,0.7901558,-0.9970093,0.0546875,-0.013793945,-0.022460938,0.060546875,0.034179688,7.1396565,-12.687384,0.3468735,16.358675,0.97229004,-0.15228271,-0.23400879,-0.01171875,0.053710938,0.0546875,1.54383,-12.831184,-56.616085,18.533056,-0.6015625,-0.0064086914,0.8010864,0.0078125,-0.01171875,0.038085938,17.254398,-12.222341,-128.60985,19.823727,0.0,0.0,0.0,0.0,0.0,0.0,0.0,-11.077006,-128.383,39.792515,0.0,0.0,0.0,0.0,0.0,0.0,0.0,0.6128253,-0.016754666,-0.7901558,-0.9151001,-0.08477783,-0.3482666,-0.041992188,0.07519531,0.038085938,3.4483278,12.687384,-0.3468735,-16.358675,1.020752,-0.06567383,-0.09777832,-0.0390625,0.05859375,0.06542969,5.7281003,10.442167,-57.298367,-17.42465,-0.40563965,0.06573486,0.8857422,0.0029296875,0.009765625,0.00390625,2.4358227,14.73633,-129.14078,-15.090078,0.0,0.0,0.0,0.0,0.0,0.0,0.0,21.392607,-129.21886,3.7713623,0.0,0.0,0.0,0.0,0.0,0.0,0.0,4.092304,44.762394,2.2247367,
0.9765624854480849,50,-0.06512451,0.81762695,0.5441284,-0.061523438,0.0078125,0.06738281,0.0,0.0,0.0,0.0,0.0,0.0,0.0,0.0,0.0,0.0,0.0,-0.612316,0.01707245,0.7905544,-1.0136108,0.036987305,0.014770508,-0.022460938,0.0029296875,0.033203125,7.1511874,-12.676841,0.35345262,16.366928,0.9727173,-0.13861084,-0.22998047,-0.0126953125,0.0546875,0.036132812,1.51517,-12.812445,-56.611904,18.526766,-0.59747314,0.0012817383,0.8119507,0.026367188,0.0048828125,-0.018554688,17.222534,-12.167271,-128.61403,19.834602,0.0,0.0,0.0,0.0,0.0,0.0,0.0,-11.0295725,-128.3844,39.801395,0.0,0.0,0.0,0.0,0.0,0.0,0.0,0.612316,-0.01707245,-0.7905544,-0.9472656,-0.087768555,-0.3217163,-0.080078125,-9.765625E-4,0.017578125,3.508499,12.676841,-0.35345262,-16.366928,1.0164185,-0.053649902,-0.12738037,-0.057617188,0.040039062,0.08496094,5.7142944,10.459535,-57.309696,-17.404337,-0.39855957,0.054626465,0.8847656,-0.016601562,0.009765625,0.022460938,2.4672,14.759689,-129.14574,-15.0118065,0.0,0.0,0.0,0.0,0.0,0.0,0.0,21.433262,-129.2261,3.8424778,0.0,0.0,0.0,0.0,0.0,0.0,0.0,4.1144123,44.76097,2.220139,
0.9960937351570466,51,-0.06542969,0.76971436,0.506958,-0.060546875,0.02734375,0.06738281,0.0,0.0,0.0,0.0,0.0,0.0,0.0,0.0,0.0,0.0,0.0,-0.6114726,0.017609138,0.7912287,-1.0020752,0.06048584,-0.004760742,-0.041015625,-0.015625,-0.0048828125,7.216402,-12.659378,0.36456373,16.380888,0.9772339,-0.15539551,-0.25598145,-0.05078125,0.016601562,0.03515625,1.4982857,-12.759283,-56.59551,18.544443,-0.61157227,-0.003112793,0.7971802,0.0068359375,0.005859375,0.0,17.162558,-12.100369,-128.59557,19.879501,0.0,0.0,0.0,0.0,0.0,0.0,0.0,-10.953372,-128.36526,39.844776,0.0,0.0,0.0,0.0,0.0,0.0,0.0,0.6114726,-0.017609138,-0.7912287,-0.95355225,-0.107910156,-0.3326416,-0.080078125,-9.765625E-4,0.017578125,3.5932493,12.659378,-0.36456373,-16.380888,1.0006714,-0.04547119,-0.11920166,-0.07714844,0.059570312,0.06640625,5.7119956,10.467292,-57.318146,-17.383804,-0.40270996,0.057556152,0.9035034,0.0029296875,0.028320312,0.00390625,2.4758322,14.803869,-129.1603,-14.968947,0.0,0.0,0.0,0.0,0.0,0.0,0.0,21.489996,-129.2434,3.8813715,0.0,0.0,0.0,0.0,0.0,0.0,0.0,4.1575947,44.758343,2.2169309,
1.0156249848660084,52,-0.07330322,0.7888794,0.5232544,0.017578125,0.025390625,0.083984375,0.0,0.0,0.0,0.0,0.0,0.0,0.0,0.0,0.0,0.0,0.0,-0.6117065,0.01724201,0.7911168,-0.9788208,0.05718994,-0.0017700195,-0.041015625,0.041015625,0.034179688,7.2503066,-12.664222,0.35696304,16.378569,0.9500122,-0.15136719,-0.24676514,0.0068359375,0.053710938,0.055664062,1.4967175,-12.767937,-56.60729,18.55476,-0.60961914,-0.005126953,0.79815674,-0.01171875,-0.01171875,0.0,17.197002,-12.112425,-128.6079,19.906858,0.0,0.0,0.0,0.0,0.0,0.0,0.0,-10.976879,-128.3813,39.872673,0.0,0.0,0.0,0.0,0.0,0.0,0.0,0.6117065,-0.01724201,-0.7911168,-0.91656494,-0.117248535,-0.33966064,-0.041992188,0.036132812,0.017578125,3.6376038,12.664222,-0.35696304,-16.378569,1.012207,-0.06561279,-0.13513184,-0.057617188,0.040039062,0.06640625,5.6980133,10.522243,-57.31301,-17.424463,-0.41918945,0.057678223,0.9232788,-0.016601562,0.009765625,-0.015625,2.4932427,14.865601,-129.14615,-14.981899,0.0,0.0,0.0,0.0,0.0,0.0,0.0,21.554775,-129.22995,3.8669643,0.0,0.0,0.0,0.0,0.0,0.0,0.0,4.1628284,44.758717,2.2432833,
1.03515623457497,53,-0.05432129,0.79125977,0.50982666,-0.040039062,0.045898438,0.06738281,0.0,0.0,0.0,0.0,0.0,0.0,0.0,0.0,0.0,0.0,0.0,-0.61273086,0.016686317,0.79022974,-0.9918823,0.050842285,-0.017822266,-0.09765625,0.021484375,0.034179688,7.2264547,-12.68543,0.3454584,16.360207,0.97058105,-0.1404419,-0.24194336,-0.03125,0.03515625,0.0546875,1.4899031,-12.806088,-56.616886,18.533318,-0.60461426,-0.0072631836,0.7932129,-0.01171875,0.005859375,-0.018554688,17.166874,-12.141778,-128.61789,19.888416,0.0,0.0,0.0,0.0,0.0,0.0,0.0,-10.997946,-128.38991,39.854794,0.0,0.0,0.0,0.0,0.0,0.0,0.0,0.61273086,-0.016686317,-0.79022974,-0.91589355,-0.06970215,-0.36486816,-0.080078125,0.038085938,0.017578125,3.6172,12.68543,-0.3454584,-16.360207,1.0083008,-0.04559326,-0.14208984,-0.057617188,0.05859375,0.06640625,5.691991,10.552315,-57.303646,-17.423729,-0.43139648,0.07006836,0.90753174,0.0029296875,0.009765625,0.00390625,2.4802556,14.885475,-129.13782,-14.974239,0.0,0.0,0.0,0.0,0.0,0.0,0.0,21.580894,-129.21727,3.8733253,0.0,0.0,0.0,0.0,0.0,0.0,0.0,4.134686,44.756657,2.2608948,
1.0546874842839318,54,-0.08129883,0.79315186,0.5324707,-0.041015625,0.026367188,0.06738281,0.0,0.0,0.0,0.0,0.0,0.0,0.0,0.0,0.0,0.0,0.0,-0.6136402,0.016260095,0.7895531,-0.9848633,0.046691895,-0.0119018555,-0.07910156,0.021484375,0.033203125,7.1826673,-12.704252,0.3366344,16.346197,0.9921875,-0.16485596,-0.23724365,-0.01171875,0.053710938,0.0546875,1.4415722,-12.829712,-56.624386,18.477999,-0.61273193,-0.011047363,0.81103516,0.0068359375,0.005859375,0.0,17.153946,-12.1581,-128.61557,19.841862,0.0,0.0,0.0,0.0,0.0,0.0,0.0,-11.022554,-128.38898,39.807674,0.0,0.0,0.0,0.0,0.0,0.0,0.0,0.6136402,-0.016260095,-0.7895531,-0.91815186,-0.09033203,-0.35906982,-0.041992188,-0.0029296875,0.017578125,3.6111863,12.704252,-0.3366344,-16.346197,1.0282593,-0.052856445,-0.13549805,-0.057617188,0.021484375,0.08496094,5.669254,10.58398,-57.294846,-17.405947,-0.38830566,0.066223145,0.9063721,-0.016601562,0.009765625,0.00390625,2.4616406,14.904167,-129.13249,-14.956288,0.0,0.0,0.0,0.0,0.0,0.0,0.0,21.596848,-129.20529,3.8911448,0.0,0.0,0.0,0.0,0.0,0.0,0.0,4.1105804,44.758995,2.2729712,
1.0742187339928935,55,-0.054870605,0.78552246,0.54260254,-0.001953125,0.005859375,0.047851562,0.0,0.0,0.0,0.0,0.0,0.0,0.0,0.0,0.0,0.0,0.0,-0.61393195,0.015751328,0.7893402,-0.98394775,0.061950684,0.0072631836,-0.07910156,0.041015625,0.052734375,7.218333,-12.710295,0.3261014,16.341791,0.95098877,-0.15435791,-0.23883057,-0.0126953125,0.03515625,0.036132812,1.4365407,-12.833424,-56.64121,18.489065,-0.602478,-0.0014038086,0.79022217,0.0068359375,-0.0126953125,-0.018554688,17.147228,-12.15737,-128.63872,19.878609,0.0,0.0,0.0,0.0,0.0,0.0,0.0,-11.0156145,-128.41042,39.843975,0.0,0.0,0.0,0.0,0.0,0.0,0.0,0.61393195,-0.015751328,-0.7893402,-0.9260864,-0.08148193,-0.3531494,-0.060546875,0.037109375,0.017578125,3.6053803,12.710295,-0.3261014,-16.341791,1.008606,-0.049560547,-0.117370605,-0.01953125,0.040039062,0.046875,5.6789947,10.569131,-57.28372,-17.40829,-0.39050293,0.058166504,0.9182129,0.021484375,-0.009765625,-0.015625,2.4485657,14.8704815,-129.1252,-14.952212,0.0,0.0,0.0,0.0,0.0,0.0,0.0,21.554075,-129.19221,3.8984365,0.0,0.0,0.0,0.0,0.0,0.0,0.0,4.1076765,44.75792,2.3017156,
1.0937499837018552,56,-0.059265137,0.7606201,0.5097046,0.018554688,0.043945312,0.06640625,0.0,0.0,0.0,0.0,0.0,0.0,0.0,0.0,0.0,0.0,0.0,-0.613542,0.016084563,0.78961635,-1.008667,0.015625,0.007446289,-0.00390625,0.0029296875,0.052734375,7.2238746,-12.702222,0.33300024,16.347506,0.9734497,-0.14447021,-0.25091553,0.0068359375,0.03515625,0.037109375,1.4403499,-12.803111,-56.629646,18.501354,-0.6026001,-0.0053710938,0.8031006,0.0068359375,-0.0126953125,0.018554688,17.15192,-12.142426,-128.62952,19.897741,0.0,0.0,0.0,0.0,0.0,0.0,0.0,-10.995821,-128.39815,39.861977,0.0,0.0,0.0,0.0,0.0,0.0,0.0,0.613542,-0.016084563,-0.78961635,-0.9242554,-0.09326172,-0.354187,-0.060546875,0.037109375,0.017578125,3.6099937,12.702222,-0.33300024,-16.347506,0.9810791,-0.03717041,-0.100097656,-0.01953125,0.05859375,0.06542969,5.6414256,10.568753,-57.2887,-17.398777,-0.3965454,0.06933594,0.9113159,-0.016601562,0.009765625,0.00390625,2.4187274,14.847763,-129.1321,-14.965857,0.0,0.0,0.0,0.0,0.0,0.0,0.0,21.521822,-129.1941,3.8877544,0.0,0.0,0.0,0.0,0.0,0.0,0.0,4.110386,44.75795,2.2820988,
1.1132812334108169,57,-0.072143555,0.77697754,0.53204346,-0.021484375,0.026367188,0.08496094,0.0,0.0,0.0,0.0,0.0,0.0,0.0,0.0,0.0,0.0,0.0,-0.61284715,0.016275538,0.79014015,-0.99401855,0.03149414,-0.026123047,-0.041015625,-0.03515625,0.033203125,7.2524433,-12.687835,0.336954,16.358349,0.9824219,-0.1496582,-0.26202393,-0.0126953125,0.016601562,0.036132812,1.4189969,-12.758632,-56.627407,18.49086,-0.6126709,-0.008972168,0.7971802,0.0068359375,0.005859375,0.018554688,17.15361,-12.109262,-128.62209,19.888865,0.0,0.0,0.0,0.0,0.0,0.0,0.0,-10.953719,-128.39594,39.850613,0.0,0.0,0.0,0.0,0.0,0.0,0.0,0.61284715,-0.016275538,-0.79014015,-0.9102783,-0.09954834,-0.34838867,-0.060546875,0.037109375,0.017578125,3.6102648,12.687835,-0.336954,-16.358349,1.0202637,-0.039794922,-0.14337158,0.0,0.0390625,0.06542969,5.634786,10.526503,-57.29075,-17.412342,-0.3968506,0.04309082,0.9428711,0.001953125,-0.028320312,0.00390625,2.4103782,14.777764,-129.13763,-15.018336,0.0,0.0,0.0,0.0,0.0,0.0,0.0,21.458778,-129.20738,3.833562,0.0,0.0,0.0,0.0,0.0,0.0,0.0,4.13284,44.75539,2.2836215,
1.1328124831197786,58,-0.07312012,0.77801514,0.5360718,-0.020507812,0.044921875,0.06738281,0.0,0.0,0.0,0.0,0.0,0.0,0.0,0.0,0.0,0.0,0.0,-0.6125238,0.016719464,0.79041463,-0.99176025,0.048217773,-0.03778076,-0.11621094,0.060546875,-0.00390625,7.1612763,-12.681141,0.34614477,16.364033,0.9633789,-0.14105225,-0.2658081,-0.087890625,0.036132812,0.052734375,1.3552302,-12.816758,-56.618496,18.418112,-0.6048584,0.036987305,0.8059082,0.0068359375,0.0234375,0.0,17.16948,-12.172317,-128.61565,19.791895,0.0,0.0,0.0,0.0,0.0,0.0,0.0,-11.012934,-128.38571,39.754585,0.0,0.0,0.0,0.0,0.0,0.0,0.0,0.6125238,-0.016719464,-0.79041463,-0.9437256,-0.12420654,-0.35443115,-0.041992188,-0.0029296875,0.037109375,3.6192024,12.681141,-0.34614477,-16.364033,1.0202637,-0.049743652,-0.1373291,-0.05859375,0.095703125,0.083984375,5.6296015,10.518524,-57.30183,-17.431381,-0.41497803,0.059814453,0.9015503,0.0029296875,0.009765625,-0.015625,2.4421623,14.75882,-129.14413,-15.05139,0.0,0.0,0.0,0.0,0.0,0.0,0.0,21.446636,-129.22737,3.7971745,0.0,0.0,0.0,0.0,0.0,0.0,0.0,4.1546354,44.7551,2.2728977,
1.1523437328287403,59,-0.049072266,0.7972412,0.5276489,-0.001953125,0.025390625,0.06640625,0.0,0.0,0.0,0.0,0.0,0.0,0.0,0.0,0.0,0.0,0.0,-0.6133646,0.016946761,0.7897855,-0.97595215,0.077819824,0.043395996,-0.022460938,0.0029296875,0.0146484375,7.162372,-12.698548,0.3508506,16.351007,0.96813965,-0.15002441,-0.27783203,-0.05078125,0.036132812,0.03515625,1.3842322,-12.823888,-56.617714,18.428106,-0.60424805,0.015258789,0.8139038,-0.01171875,-0.01171875,0.0,17.22702,-12.196002,-128.61053,19.79678,0.0,0.0,0.0,0.0,0.0,0.0,0.0,-11.0282545,-128.37585,39.76,0.0,0.0,0.0,0.0,0.0,0.0,0.0,0.6133646,-0.016946761,-0.7897855,-0.92633057,-0.09790039,-0.36309814,-0.00390625,0.03515625,0.037109375,3.5756056,12.698548,-0.3508506,-16.351007,1.0202026,-0.06866455,-0.13232422,-0.09667969,0.041015625,0.0859375,5.643301,10.538926,-57.30701,-17.469698,-0.40478516,0.06542969,0.9182739,0.0029296875,0.009765625,-0.015625,2.4948123,14.747775,-129.15257,-15.034847,0.0,0.0,0.0,0.0,0.0,0.0,0.0,21.453526,-129.23874,3.807499,0.0,0.0,0.0,0.0,0.0,0.0,0.0,4.144617,44.757763,2.2584133,
1.171874982537702,60,-0.048828125,0.7953491,0.5455322,-0.001953125,0.025390625,0.06640625,0.0,0.0,0.0,0.0,0.0,0.0,0.0,0.0,0.0,0.0,0.0,-0.61302066,0.016941343,0.7900636,-0.9758911,0.047302246,0.0040283203,-0.041015625,0.0029296875,0.033203125,7.2616625,-12.691429,0.3507383,16.356766,0.96417236,-0.15393066,-0.22998047,0.0048828125,-0.0029296875,0.017578125,1.4200999,-12.777559,-56.611683,18.49126,-0.597229,0.016052246,0.81585693,-0.01171875,0.005859375,-0.018554688,17.24667,-12.147709,-128.60608,19.890242,0.0,0.0,0.0,0.0,0.0,0.0,0.0,-10.975401,-128.36662,39.85473,0.0,0.0,0.0,0.0,0.0,0.0,0.0,0.61302066,-0.016941343,-0.7900636,-0.9232788,-0.094055176,-0.3227539,-0.00390625,0.07421875,0.037109375,3.617254,12.691429,-0.3507383,-16.356766,1.0007324,-0.056396484,-0.10827637,-0.057617188,0.05859375,0.06640625,5.6511097,10.545996,-57.30636,-17.47945,-0.40679932,0.0635376,0.91137695,0.001953125,-0.028320312,0.00390625,2.5326548,14.752062,-129.15022,-14.983025,0.0,0.0,0.0,0.0,0.0,0.0,0.0,21.463358,-129.23508,3.8582134,0.0,0.0,0.0,0.0,0.0,0.0,0.0,4.164983,44.75558,2.2719703,
1.1914062322466636,61,-0.07531738,0.8029175,0.5303955,0.018554688,0.043945312,0.06640625,0.0,0.0,0.0,0.0,0.0,0.0,0.0,0.0,0.0,0.0,0.0,-0.6133435,0.017106717,0.7898457,-1.0040894,0.04711914,-0.018920898,-0.00390625,0.0029296875,0.0146484375,7.2322073,-12.69811,0.35416204,16.352253,0.97875977,-0.13885498,-0.22906494,-0.049804688,0.0546875,0.053710938,1.3881849,-12.788987,-56.610786,18.460463,-0.6054077,0.0045166016,0.8050537,0.026367188,-0.013671875,9.765625E-4,17.231447,-12.1318035,-128.60092,19.862768,0.0,0.0,0.0,0.0,0.0,0.0,0.0,-10.966774,-128.36357,39.824615,0.0,0.0,0.0,0.0,0.0,0.0,0.0,0.6133435,-0.017106717,-0.7898457,-0.92285156,-0.06616211,-0.34222412,-0.061523438,-0.021484375,0.017578125,3.5844111,12.69811,-0.35416204,-16.352253,1.0224609,-0.041748047,-0.12756348,0.0,0.057617188,0.046875,5.6651387,10.5156765,-57.308968,-17.464018,-0.41711426,0.051879883,0.89959717,0.0029296875,0.009765625,0.00390625,2.5362074,14.698586,-129.15738,-14.960441,0.0,0.0,0.0,0.0,0.0,0.0,0.0,21.417782,-129.24467,3.8784323,0.0,0.0,0.0,0.0,0.0,0.0,0.0,4.1642337,44.757328,2.2643085,
1.2109374819556253,62,-0.04498291,0.7921753,0.5324707,0.017578125,0.025390625,0.06640625,0.0,0.0,0.0,0.0,0.0,0.0,0.0,0.0,0.0,0.0,0.0,-0.6137822,0.016987626,0.7894271,-0.9848633,0.047790527,-0.01586914,0.015625,-0.015625,-0.0048828125,7.21458,-12.707193,0.35169655,16.343588,0.9746094,-0.14257812,-0.23297119,-0.068359375,0.0546875,0.053710938,1.3645836,-12.7855215,-56.61089,18.438845,-0.6014404,0.0024414062,0.802063,0.0068359375,0.0048828125,-0.018554688,17.21628,-12.10654,-128.60641,19.852753,0.0,0.0,0.0,0.0,0.0,0.0,0.0,-10.941589,-128.37242,39.814636,0.0,0.0,0.0,0.0,0.0,0.0,0.0,0.6137822,-0.016987626,-0.7894271,-0.8931885,-0.098083496,-0.3414917,-0.080078125,-0.059570312,0.017578125,3.5644722,12.707193,-0.35169655,-16.343588,1.0003662,-0.0793457,-0.11999512,-0.038085938,0.040039062,0.06640625,5.670049,10.50233,-57.307114,-17.416046,-0.39050293,0.056152344,0.9182129,-0.016601562,0.009765625,0.00390625,2.527239,14.691268,-129.15323,-14.922859,0.0,0.0,0.0,0.0,0.0,0.0,0.0,21.422647,-129.2433,3.9101849,0.0,0.0,0.0,0.0,0.0,0.0,0.0,4.1472955,44.75618,2.2614307,
1.230468731664587,63,-0.05822754,0.7984009,0.5239258,0.037109375,0.024414062,0.06542969,0.0,0.0,0.0,0.0,0.0,0.0,0.0,0.0,0.0,0.0,0.0,-0.6138821,0.017008493,0.7893741,-1.0001831,0.06121826,0.008239746,-0.00390625,0.0029296875,0.0146484375,7.2275405,-12.709266,0.35212862,16.342493,0.9613037,-0.1449585,-0.24786377,-0.01171875,0.03515625,0.055664062,1.3655871,-12.760353,-56.611763,18.456604,-0.600647,-0.012329102,0.7971802,-0.01171875,0.0234375,-0.01953125,17.294315,-12.103156,-128.60205,19.896435,0.0,0.0,0.0,0.0,0.0,0.0,0.0,-10.9461775,-128.37387,39.858833,0.0,0.0,0.0,0.0,0.0,0.0,0.0,0.6138821,-0.017008493,-0.7893741,-0.90838623,-0.109436035,-0.34448242,-0.022460938,0.07519531,0.037109375,3.5012367,12.709266,-0.35212862,-16.342493,1.0042114,-0.047546387,-0.14788818,-0.0390625,0.05859375,0.06542969,5.71227,10.473137,-57.306976,-17.447332,-0.39855957,0.082214355,0.9260864,-0.036132812,0.009765625,0.022460938,2.4994369,14.669478,-129.15573,-14.969732,0.0,0.0,0.0,0.0,0.0,0.0,0.0,21.414555,-129.24467,3.8593903,0.0,0.0,0.0,0.0,0.0,0.0,0.0,4.135355,44.758686,2.251585,
1.2499999813735487,64,-0.08557129,0.8010864,0.51672363,-0.041992188,-0.0126953125,0.030273438,0.0,0.0,0.0,0.0,0.0,0.0,0.0,0.0,0.0,0.0,0.0,-0.61397123,0.017540134,0.7892684,-0.9840088,0.072387695,0.02532959,-0.00390625,-0.016601562,0.052734375,7.224309,-12.711109,0.36313525,16.340302,0.96313477,-0.15289307,-0.23693848,-0.01171875,0.03515625,0.055664062,1.4026295,-12.758072,-56.602146,18.496609,-0.5946045,-0.006652832,0.8109741,-0.01171875,0.005859375,-0.018554688,17.32933,-12.135236,-128.59602,19.947165,0.0,0.0,0.0,0.0,0.0,0.0,0.0,-10.9814205,-128.37016,39.910664,0.0,0.0,0.0,0.0,0.0,0.0,0.0,0.61397123,-0.017540134,-0.7892684,-0.9202881,-0.09820557,-0.35424805,-0.041992188,0.09472656,0.017578125,3.4635108,12.711109,-0.36313525,-16.340302,0.99676514,-0.03741455,-0.11920166,-9.765625E-4,0.09472656,0.045898438,5.719334,10.470677,-57.315548,-17.456635,-0.4005127,0.09820557,0.92907715,0.0029296875,0.009765625,-0.015625,2.506631,14.659943,-129.15642,-14.96985,0.0,0.0,0.0,0.0,0.0,0.0,0.0,21.404377,-129.2447,3.8583307,0.0,0.0,0.0,0.0,0.0,0.0,0.0,4.129419,44.760044,2.2175565,
1.2695312310825104,65,-0.0713501,0.78881836,0.5192261,-0.021484375,0.025390625,0.048828125,0.0,0.0,0.0,0.0,0.0,0.0,0.0,0.0,0.0,0.0,0.0,-0.6140801,0.017940277,0.78920317,-0.9937744,0.058776855,-0.026672363,-0.00390625,0.0029296875,0.033203125,7.175316,-12.713363,0.3714194,16.338953,0.98358154,-0.14685059,-0.24005127,-0.0126953125,0.0546875,0.036132812,1.3650138,-12.770123,-56.592438,18.460722,-0.6259155,-0.017456055,0.8031616,0.0068359375,-0.0126953125,0.0,17.297474,-12.122588,-128.58768,19.90999,0.0,0.0,0.0,0.0,0.0,0.0,0.0,-10.971251,-128.36693,39.87323,0.0,0.0,0.0,0.0,0.0,0.0,0.0,0.6140801,-0.017940277,-0.78920317,-0.9188843,-0.068603516,-0.3668213,-0.099609375,-9.765625E-4,0.017578125,3.4016242,12.713363,-0.3714194,-16.338953,1.0323486,-0.06188965,-0.12371826,0.0,0.09472656,0.064453125,5.8023834,10.419016,-57.32064,-17.459652,-0.40179443,0.04156494,0.9005127,-0.016601562,0.009765625,-0.034179688,2.5767105,14.616606,-129.15982,-14.897652,0.0,0.0,0.0,0.0,0.0,0.0,0.0,21.365644,-129.25209,3.9300575,0.0,0.0,0.0,0.0,0.0,0.0,0.0,4.130344,44.762024,2.1962895,
1.2890624807914721,66,-0.060424805,0.7835083,0.5079346,0.017578125,0.005859375,0.06542969,0.0,0.0,0.0,0.0,0.0,0.0,0.0,0.0,0.0,0.0,0.0,-0.6139084,0.017729104,0.7893472,-0.99328613,0.047302246,0.017944336,-0.041015625,0.022460938,-0.0048828125,7.131051,-12.709806,0.36704737,16.341934,0.98553467,-0.1508789,-0.23114014,-0.048828125,0.03515625,0.07324219,1.3317797,-12.748129,-56.599354,18.420938,-0.5940552,0.022888184,0.8049927,0.0068359375,0.0048828125,-0.018554688,17.335602,-12.089907,-128.5965,19.859192,0.0,0.0,0.0,0.0,0.0,0.0,0.0,-10.944487,-128.36844,39.82209,0.0,0.0,0.0,0.0,0.0,0.0,0.0,0.6139084,-0.017729104,-0.7893472,-0.9098511,-0.06921387,-0.34716797,-0.00390625,0.03515625,0.016601562,3.380377,12.709806,-0.36704737,-16.341934,1.0004883,-0.04144287,-0.13305664,-0.07714844,0.059570312,0.06640625,5.8109574,10.425641,-57.320854,-17.462103,-0.42114258,0.07476807,0.9173584,-0.016601562,-0.0087890625,0.00390625,2.5974412,14.644354,-129.16228,-14.891161,0.0,0.0,0.0,0.0,0.0,0.0,0.0,21.395744,-129.25829,3.9352875,0.0,0.0,0.0,0.0,0.0,0.0,0.0,4.1070976,44.764732,2.1888254,
1.3085937305004338,67,-0.07110596,0.782959,0.53808594,-0.001953125,0.025390625,0.047851562,0.0,0.0,0.0,0.0,0.0,0.0,0.0,0.0,0.0,0.0,0.0,-0.61401546,0.0176745,0.7892153,-0.9923096,0.046203613,0.027893066,0.015625,0.0029296875,0.033203125,7.196666,-12.712026,0.36591706,16.339203,0.9569702,-0.15447998,-0.26678467,-0.087890625,0.036132812,0.052734375,1.3988575,-12.676771,-56.59622,18.448238,-0.5921631,0.015991211,0.80200195,-0.01171875,0.005859375,0.0,17.51198,-12.028209,-128.5901,19.85381,0.0,0.0,0.0,0.0,0.0,0.0,0.0,-10.887956,-128.36067,39.816765,0.0,0.0,0.0,0.0,0.0,0.0,0.0,0.61401546,-0.0176745,-0.7892153,-0.9163208,-0.1015625,-0.33953857,0.034179688,0.034179688,0.037109375,3.3969588,12.712026,-0.36591706,-16.339203,1.0125732,-0.064575195,-0.11340332,-0.13574219,0.09765625,0.06640625,5.853639,10.44548,-57.31575,-17.436073,-0.40185547,0.034484863,0.9123535,-0.016601562,0.009765625,0.00390625,2.6322494,14.764818,-129.14548,-14.878576,0.0,0.0,0.0,0.0,0.0,0.0,0.0,21.52995,-129.24756,3.9430199,0.0,0.0,0.0,0.0,0.0,0.0,0.0,4.099106,44.76379,2.1866486,
1.3281249802093955,68,-0.07922363,0.7831421,0.53430176,0.017578125,0.005859375,0.047851562,0.0,0.0,0.0,0.0,0.0,0.0,0.0,0.0,0.0,0.0,0.0,-0.6135572,0.018535247,0.78964895,-1.0001221,0.04888916,-0.010925293,-0.00390625,-0.03515625,0.033203125,7.2350006,-12.702537,0.38373694,16.34818,0.956604,-0.16925049,-0.2468872,-0.0126953125,-0.0029296875,0.055664062,1.403327,-12.647181,-56.579693,18.48552,-0.61273193,-0.010986328,0.802124,0.0068359375,0.005859375,0.0,17.535934,-12.002204,-128.57257,19.925606,0.0,0.0,0.0,0.0,0.0,0.0,0.0,-10.860272,-128.3489,39.89032,0.0,0.0,0.0,0.0,0.0,0.0,0.0,0.6135572,-0.018535247,-0.78964895,-0.95874023,-0.12072754,-0.3661499,-0.0234375,-0.041992188,0.037109375,3.4446352,12.702537,-0.38373694,-16.34818,0.99316406,-0.031311035,-0.09643555,-0.11621094,0.078125,0.06640625,5.9217553,10.467077,-57.338787,-17.437819,-0.39868164,0.055358887,0.9133301,-0.016601562,0.009765625,0.00390625,2.6848922,14.920671,-129.16269,-14.87463,0.0,0.0,0.0,0.0,0.0,0.0,0.0,21.685162,-129.2641,3.946022,0.0,0.0,0.0,0.0,0.0,0.0,0.0,4.1302166,44.76577,2.158402,
1.3476562299183572,69,-0.08325195,0.8051758,0.5395508,-0.041992188,0.0078125,0.06738281,0.0,0.0,0.0,0.0,0.0,0.0,0.0,0.0,0.0,0.0,0.0,-0.6127671,0.0189778,0.7902019,-1.0094604,0.031311035,-0.0012817383,-0.059570312,0.022460938,-0.0048828125,7.193557,-12.686179,0.3928994,16.359629,0.96954346,-0.1394043,-0.24987793,-0.0126953125,0.0546875,0.016601562,1.3595552,-12.61226,-56.575443,18.443098,-0.6102295,0.016479492,0.8049927,0.0068359375,0.005859375,0.0,17.518335,-11.979744,-128.56671,19.877201,0.0,0.0,0.0,0.0,0.0,0.0,0.0,-10.833258,-128.33826,39.843185,0.0,0.0,0.0,0.0,0.0,0.0,0.0,0.6127671,-0.0189778,-0.7902019,-0.9475708,-0.1116333,-0.34643555,-0.041992188,-0.041992188,0.037109375,3.4738965,12.686179,-0.3928994,-16.359629,1.0205688,-0.06964111,-0.105651855,-0.057617188,0.05859375,0.06640625,5.877032,10.511038,-57.347267,-17.47775,-0.40478516,0.047668457,0.8956299,0.0029296875,0.009765625,-0.015625,2.7027676,14.943827,-129.17062,-14.87677,0.0,0.0,0.0,0.0,0.0,0.0,0.0,21.71406,-129.27219,3.9434643,0.0,0.0,0.0,0.0,0.0,0.0,0.0,4.134841,44.76486,2.1312983,
1.367187479627319,70,-0.08343506,0.76727295,0.517395,-0.001953125,0.0068359375,0.06640625,0.0,0.0,0.0,0.0,0.0,0.0,0.0,0.0,0.0,0.0,0.0,-0.61274594,0.01926397,0.79015064,-0.9962158,0.056152344,0.015136719,-0.00390625,0.0029296875,0.0146484375,7.2124324,-12.68574,0.3988239,16.358566,0.95495605,-0.15545654,-0.25482178,-0.06933594,0.036132812,0.034179688,1.3860687,-12.589575,-56.56666,18.4526,-0.6003418,0.0044555664,0.7852783,-0.01171875,0.005859375,0.0,17.53115,-11.95214,-128.56757,19.87067,0.0,0.0,0.0,0.0,0.0,0.0,0.0,-10.812549,-128.33804,39.838463,0.0,0.0,0.0,0.0,0.0,0.0,0.0,0.61274594,-0.01926397,-0.79015064,-0.93634033,-0.09869385,-0.3640747,-0.00390625,0.015625,0.016601562,3.5061543,12.68574,-0.3988239,-16.358566,1.0084229,-0.04156494,-0.13616943,0.0,0.076171875,0.06542969,5.8442554,10.550197,-57.35157,-17.481934,-0.3965454,0.053466797,0.897583,0.0029296875,0.009765625,0.00390625,2.6773725,14.988991,-129.17262,-14.891326,0.0,0.0,0.0,0.0,0.0,0.0,0.0,21.76257,-129.2689,3.92587,0.0,0.0,0.0,0.0,0.0,0.0,0.0,4.1401186,44.762768,2.119257,
1.3867187293362806,71,-0.055114746,0.77648926,0.5216675,-0.041992188,-0.01171875,0.048828125,0.0,0.0,0.0,0.0,0.0,0.0,0.0,0.0,0.0,0.0,0.0,-0.6128037,0.01899537,0.7901616,-0.98687744,0.06213379,3.0517578E-4,-0.060546875,-0.016601562,0.033203125,7.246463,-12.686935,0.39326304,16.358795,0.96343994,-0.1763916,-0.2539673,-0.05078125,0.036132812,0.015625,1.4109757,-12.581476,-56.574142,18.458876,-0.604126,0.020324707,0.79608154,0.0068359375,0.005859375,0.0,17.591547,-11.929993,-128.56628,19.851307,0.0,0.0,0.0,0.0,0.0,0.0,0.0,-10.783791,-128.3296,39.8179,0.0,0.0,0.0,0.0,0.0,0.0,0.0,0.6128037,-0.01899537,-0.7901616,-0.9133301,-0.101989746,-0.32574463,-0.00390625,-0.00390625,0.037109375,3.5119572,12.686935,-0.39326304,-16.358795,1.0084229,-0.048583984,-0.13220215,-0.07714844,0.041015625,0.06640625,5.856485,10.544444,-57.348083,-17.496904,-0.4140625,0.049743652,0.90649414,-0.016601562,0.009765625,-0.015625,2.6531367,14.99061,-129.17178,-14.92181,0.0,0.0,0.0,0.0,0.0,0.0,0.0,21.773224,-129.26666,3.8930588,0.0,0.0,0.0,0.0,0.0,0.0,0.0,4.14637,44.76298,2.1395888,
1.4062499790452423,72,-0.06903076,0.77893066,0.53796387,-0.060546875,0.02734375,0.06738281,0.0,0.0,0.0,0.0,0.0,0.0,0.0,0.0,0.0,0.0,0.0,-0.6128704,0.0184967,0.79010427,-0.98187256,0.058166504,-7.9345703E-4,-0.00390625,0.022460938,-0.0048828125,7.280793,-12.688317,0.38293898,16.357609,0.97924805,-0.15447998,-0.2510376,-0.0126953125,0.03515625,0.036132812,1.3917047,-12.569288,-56.58413,18.46159,-0.60131836,0.009399414,0.795105,-0.01171875,-0.0126953125,-0.018554688,17.608002,-11.948059,-128.5828,19.894672,0.0,0.0,0.0,0.0,0.0,0.0,0.0,-10.80215,-128.34438,39.863667,0.0,0.0,0.0,0.0,0.0,0.0,0.0,0.6128704,-0.0184967,-0.79010427,-0.92022705,-0.093322754,-0.354187,-0.022460938,-0.0029296875,-0.00390625,3.5157459,12.688317,-0.38293898,-16.357609,1.0238647,-0.083740234,-0.144104,-0.09667969,0.059570312,0.08496094,5.850926,10.525643,-57.33818,-17.4784,-0.4293213,0.0670166,0.90356445,0.001953125,-0.009765625,-0.015625,2.694789,14.936874,-129.16663,-14.875876,0.0,0.0,0.0,0.0,0.0,0.0,0.0,21.731611,-129.26799,3.9342794,0.0,0.0,0.0,0.0,0.0,0.0,0.0,4.144429,44.761234,2.1668825,
1.425781228754204,73,-0.05908203,0.7766113,0.5297241,-0.021484375,0.0068359375,0.08496094,0.0,0.0,0.0,0.0,0.0,0.0,0.0,0.0,0.0,0.0,0.0,-0.6127317,0.01787688,0.79024196,-1.0114746,0.036193848,-1.8310547E-4,-0.041015625,0.022460938,0.0146484375,7.3164115,-12.685448,0.37010676,16.360458,0.98291016,-0.13208008,-0.25494385,-0.01171875,0.03515625,0.055664062,1.3939526,-12.563067,-56.59492,18.45619,-0.5894165,-7.9345703E-4,0.7941284,-0.01171875,0.005859375,0.0,17.616016,-11.944113,-128.5904,19.87643,0.0,0.0,0.0,0.0,0.0,0.0,0.0,-10.803145,-128.3492,39.841316,0.0,0.0,0.0,0.0,0.0,0.0,0.0,0.6127317,-0.01787688,-0.79024196,-0.9365845,-0.113342285,-0.36315918,-0.022460938,-0.0029296875,0.016601562,3.5327463,12.685448,-0.37010676,-16.360458,1.0120239,-0.057617188,-0.15093994,-0.0390625,0.05859375,0.046875,5.838585,10.50184,-57.321285,-17.469255,-0.39660645,0.054382324,0.9064331,0.0029296875,0.009765625,0.00390625,2.6863499,14.877459,-129.14937,-14.868017,0.0,0.0,0.0,0.0,0.0,0.0,0.0,21.670767,-129.24962,3.9434547,0.0,0.0,0.0,0.0,0.0,0.0,0.0,4.150287,44.759377,2.2054698,
1.4453124784631657,74,-0.06896973,0.7720337,0.5429077,-0.041992188,-0.01171875,0.06738281,0.0,0.0,0.0,0.0,0.0,0.0,0.0,0.0,0.0,0.0,0.0,-0.6134621,0.01785799,0.7896676,-1.0012207,0.056396484,0.005126953,-0.022460938,-0.015625,0.033203125,7.3479877,-12.700568,0.3697157,16.348568,0.9725342,-0.14245605,-0.24493408,-0.05078125,0.036132812,0.03515625,1.426836,-12.5567875,-56.596767,18.456184,-0.5936279,-0.0076904297,0.8119507,-0.01171875,-0.030273438,0.0,17.609776,-11.9319935,-128.5964,19.85473,0.0,0.0,0.0,0.0,0.0,0.0,0.0,-10.796911,-128.35484,39.81935,0.0,0.0,0.0,0.0,0.0,0.0,0.0,0.6134621,-0.01785799,-0.7896676,-0.93756104,-0.11273193,-0.34747314,-0.022460938,-0.022460938,0.016601562,3.5355716,12.700568,-0.3697157,-16.348568,1.008667,-0.053527832,-0.11340332,-0.057617188,0.05859375,0.06640625,5.8524,10.527172,-57.32249,-17.482756,-0.39666748,0.051330566,0.9152832,0.0029296875,0.009765625,0.00390625,2.661534,14.927408,-129.14888,-14.897934,0.0,0.0,0.0,0.0,0.0,0.0,0.0,21.735836,-129.2491,3.9082794,0.0,0.0,0.0,0.0,0.0,0.0,0.0,4.1515255,44.758602,2.2129626,
1.4648437281721274,75,-0.07507324,0.76519775,0.53601074,-0.041015625,0.026367188,0.06738281,0.0,0.0,0.0,0.0,0.0,0.0,0.0,0.0,0.0,0.0,0.0,-0.61366755,0.017852996,0.7895832,-0.97369385,0.06298828,-0.0036621094,-0.00390625,0.022460938,-0.0048828125,7.386818,-12.704821,0.3696123,16.34682,0.9442749,-0.13739014,-0.2526245,0.005859375,0.03515625,0.017578125,1.4629971,-12.545445,-56.592022,18.477472,-0.61224365,0.011779785,0.78326416,0.0068359375,-0.0126953125,0.0,17.66031,-11.943974,-128.58849,19.867554,0.0,0.0,0.0,0.0,0.0,0.0,0.0,-10.810967,-128.3466,39.83116,0.0,0.0,0.0,0.0,0.0,0.0,0.0,0.61366755,-0.017852996,-0.7895832,-0.9136963,-0.056396484,-0.34802246,-0.022460938,-0.0029296875,-0.00390625,3.5760984,12.704821,-0.3696123,-16.34682,0.99298096,-0.03930664,-0.10333252,-0.11621094,0.041015625,0.06640625,5.826554,10.552796,-57.322956,-17.459044,-0.3965454,0.058410645,0.9064331,0.001953125,-0.009765625,0.00390625,2.6207726,14.981225,-129.1513,-14.925716,0.0,0.0,0.0,0.0,0.0,0.0,0.0,21.787106,-129.24632,3.881075,0.0,0.0,0.0,0.0,0.0,0.0,0.0,4.1580667,44.760353,2.2196066,
1.484374977881089,76,-0.06542969,0.77368164,0.5040283,-0.021484375,0.0068359375,0.048828125,0.0,0.0,0.0,0.0,0.0,0.0,0.0,0.0,0.0,0.0,0.0,-0.6136958,0.017491393,0.78955543,-1.0042114,0.06225586,0.008239746,-0.022460938,0.0029296875,0.033203125,7.410686,-12.705406,0.36212602,16.346245,0.97595215,-0.13092041,-0.23498535,0.005859375,0.03515625,0.017578125,1.4768426,-12.534224,-56.603783,18.475998,-0.588562,-0.010620117,0.77734375,0.026367188,-0.013671875,9.765625E-4,17.647947,-11.929417,-128.59967,19.849016,0.0,0.0,0.0,0.0,0.0,0.0,0.0,-10.792582,-128.36052,39.81536,0.0,0.0,0.0,0.0,0.0,0.0,0.0,0.6136958,-0.017491393,-0.78955543,-0.921875,-0.06652832,-0.36871338,-0.022460938,-0.0029296875,0.037109375,3.5940664,12.705406,-0.36212602,-16.346245,1.0204468,-0.049743652,-0.123535156,-0.057617188,0.040039062,0.06640625,5.792884,10.556821,-57.31545,-17.449911,-0.3885498,0.04309082,0.92315674,0.0029296875,0.009765625,0.00390625,2.6251755,14.945028,-129.14833,-14.908997,0.0,0.0,0.0,0.0,0.0,0.0,0.0,21.761173,-129.2416,3.8934536,0.0,0.0,0.0,0.0,0.0,0.0,0.0,4.1567297,44.758995,2.239324,
1.5039062275900508,77,-0.059631348,0.80029297,0.4951172,-0.041015625,0.026367188,0.06738281,0.0,0.0,0.0,0.0,0.0,0.0,0.0,0.0,0.0,0.0,0.0,-0.6150049,0.017082298,0.7884894,-0.99298096,0.034423828,-0.02508545,-0.060546875,0.041015625,0.0146484375,7.3782597,-12.732509,0.35365662,16.324175,0.9610596,-0.15472412,-0.2508545,-0.06933594,0.036132812,0.034179688,1.4812089,-12.541151,-56.609947,18.437784,-0.5883789,1.2207031E-4,0.7941284,-0.01171875,0.005859375,0.0,17.696478,-11.943314,-128.60706,19.793854,0.0,0.0,0.0,0.0,0.0,0.0,0.0,-10.811297,-128.36716,39.76302,0.0,0.0,0.0,0.0,0.0,0.0,0.0,0.6150049,-0.017082298,-0.7884894,-0.9242554,-0.0949707,-0.36499023,-0.041992188,0.017578125,-0.0029296875,3.542653,12.732509,-0.35365662,-16.324175,1.0083008,-0.06951904,-0.12908936,-0.01953125,0.0029296875,0.028320312,5.7781124,10.572092,-57.308258,-17.422262,-0.38024902,0.046081543,0.9053955,-0.016601562,0.009765625,0.022460938,2.6275606,14.930401,-129.14261,-14.884762,0.0,0.0,0.0,0.0,0.0,0.0,0.0,21.743948,-129.23439,3.9193993,0.0,0.0,0.0,0.0,0.0,0.0,0.0,4.1163254,44.760662,2.2409244,
1.5234374772990125,78,-0.072021484,0.8208618,0.557312,-0.041015625,0.026367188,0.048828125,0.0,0.0,0.0,0.0,0.0,0.0,0.0,0.0,0.0,0.0,0.0,-0.6156802,0.017021453,0.78792423,-0.99017334,0.049316406,0.013977051,-0.022460938,0.022460938,-0.0048828125,7.297428,-12.746489,0.35239685,16.312475,0.96765137,-0.13439941,-0.2508545,-0.030273438,0.0546875,0.0546875,1.4406217,-12.563608,-56.614536,18.374962,-0.60668945,-0.008300781,0.822876,0.0068359375,0.005859375,0.018554688,17.730644,-11.973203,-128.60934,19.71825,0.0,0.0,0.0,0.0,0.0,0.0,0.0,-10.848831,-128.37318,39.68721,0.0,0.0,0.0,0.0,0.0,0.0,0.0,0.6156802,-0.017021453,-0.78792423,-0.9090576,-0.08477783,-0.31188965,-0.022460938,0.016601562,-0.00390625,3.5142977,12.746489,-0.35239685,-16.312475,1.0166626,-0.047668457,-0.113586426,-0.07714844,0.059570312,0.046875,5.782114,10.586055,-57.309986,-17.384623,-0.4006958,0.059448242,0.91137695,-0.016601562,0.009765625,-0.015625,2.6129937,14.967323,-129.14294,-14.852047,0.0,0.0,0.0,0.0,0.0,0.0,0.0,21.79339,-129.23322,3.9485645,0.0,0.0,0.0,0.0,0.0,0.0,0.0,4.0870514,44.762657,2.2265985,
1.5429687270079742,79,-0.04888916,0.7883911,0.5415039,-0.04296875,-0.030273438,0.08496094,0.0,0.0,0.0,0.0,0.0,0.0,0.0,0.0,0.0,0.0,0.0,-0.61600274,0.016451249,0.78776026,-0.97906494,0.06048584,0.032104492,-0.022460938,0.0029296875,0.0146484375,7.42534,-12.753167,0.34059188,16.30908,0.9557495,-0.12713623,-0.23773193,0.0048828125,0.016601562,-9.765625E-4,1.5646054,-12.500232,-56.625355,18.458063,-0.5917969,-0.018554688,0.809021,0.026367188,-0.013671875,9.765625E-4,17.793972,-11.908697,-128.62874,19.775536,0.0,0.0,0.0,0.0,0.0,0.0,0.0,-10.800619,-128.39285,39.74437,0.0,0.0,0.0,0.0,0.0,0.0,0.0,0.61600274,-0.016451249,-0.78776026,-0.9224243,-0.10601807,-0.35528564,-0.0029296875,0.015625,-0.024414062,3.5335774,12.753167,-0.34059188,-16.30908,1.03656,-0.051940918,-0.112976074,-0.05859375,0.05859375,0.046875,5.7890587,10.601526,-57.298958,-17.377756,-0.3965454,0.0703125,0.9113159,0.0029296875,0.009765625,-0.015625,2.5938213,15.002859,-129.12509,-14.839329,0.0,0.0,0.0,0.0,0.0,0.0,0.0,21.839241,-129.2099,3.955799,0.0,0.0,0.0,0.0,0.0,0.0,0.0,4.079554,44.76462,2.2552326,
1.5624999767169359,80,-0.048339844,0.7821655,0.50561523,-0.0029296875,-0.0126953125,0.06640625,0.0,0.0,0.0,0.0,0.0,0.0,0.0,0.0,0.0,0.0,0.0,-0.6167196,0.015753465,0.7871192,-0.9960327,0.05645752,-0.0018310547,-0.022460938,0.0029296875,0.0146484375,7.5053773,-12.768006,0.32614547,16.295807,0.97351074,-0.14544678,-0.2409668,-0.051757812,0.055664062,-0.0029296875,1.6306288,-12.492643,-56.63619,18.499254,-0.6095581,-0.0012207031,0.8031006,0.0078125,-0.030273438,0.0,17.77909,-11.879227,-128.63425,19.799927,0.0,0.0,0.0,0.0,0.0,0.0,0.0,-10.776632,-128.39256,39.76773,0.0,0.0,0.0,0.0,0.0,0.0,0.0,0.6167196,-0.015753465,-0.7871192,-0.95147705,-0.10235596,-0.36212158,-0.041992188,0.016601562,0.017578125,3.5888329,12.768006,-0.32614547,-16.295807,1.0229492,-0.03375244,-0.101989746,-0.0390625,0.05859375,0.046875,5.784554,10.659401,-57.28286,-17.361258,-0.39770508,0.04638672,0.9093628,-0.016601562,-0.0087890625,0.00390625,2.6002278,15.110374,-129.11597,-14.82054,0.0,0.0,0.0,0.0,0.0,0.0,0.0,21.938797,-129.19905,3.9785833,0.0,0.0,0.0,0.0,0.0,0.0,0.0,4.0710773,44.760067,2.2939186,
1.5820312264258976,81,-0.0602417,0.7885132,0.5219116,0.017578125,0.005859375,0.06542969,0.0,0.0,0.0,0.0,0.0,0.0,0.0,0.0,0.0,0.0,0.0,-0.6171771,0.014767675,0.7867938,-1.0166626,0.026428223,0.006591797,-0.060546875,0.0029296875,0.0146484375,7.530278,-12.777478,0.30573663,16.289072,0.96917725,-0.11883545,-0.2368164,-0.03125,0.0546875,0.03515625,1.6161631,-12.46329,-56.658463,18.451582,-0.6022949,0.010375977,0.79907227,0.0068359375,0.0048828125,-0.018554688,17.751032,-11.82193,-128.65738,19.727068,0.0,0.0,0.0,0.0,0.0,0.0,0.0,-10.711395,-128.41368,39.69268,0.0,0.0,0.0,0.0,0.0,0.0,0.0,0.6171771,-0.014767675,-0.7867938,-0.9135132,-0.11529541,-0.34259033,-0.080078125,-9.765625E-4,0.017578125,3.6161172,12.777478,-0.30573663,-16.289072,1.0004272,-0.051452637,-0.1329956,-0.05859375,0.05859375,0.046875,5.7816052,10.694638,-57.263824,-17.368065,-0.40478516,0.06549072,0.9133301,0.0029296875,0.009765625,0.00390625,2.5757227,15.167343,-129.08978,-14.832959,0.0,0.0,0.0,0.0,0.0,0.0,0.0,21.986687,-129.16708,3.9694223,0.0,0.0,0.0,0.0,0.0,0.0,0.0,4.0541754,44.75972,2.340063,
1.6015624761348592,82,-0.035827637,0.7919922,0.53723145,-0.041015625,0.02734375,0.0859375,0.0,0.0,0.0,0.0,0.0,0.0,0.0,0.0,0.0,0.0,0.0,-0.6176064,0.014142962,0.78649676,-0.9881592,0.03289795,0.0017700195,-0.060546875,-0.015625,-0.0048828125,7.5568647,-12.786368,0.29280317,16.28292,0.9672241,-0.15106201,-0.24694824,-0.051757812,0.036132812,-0.0029296875,1.5913926,-12.419587,-56.6725,18.415688,-0.60717773,0.018432617,0.79608154,-0.01171875,0.005859375,-0.018554688,17.69422,-11.775826,-128.67442,19.710781,0.0,0.0,0.0,0.0,0.0,0.0,0.0,-10.655916,-128.42668,39.674843,0.0,0.0,0.0,0.0,0.0,0.0,0.0,0.6176064,-0.014142962,-0.78649676,-0.92022705,-0.09429932,-0.35516357,-0.041992188,-0.001953125,-0.0029296875,3.6221223,12.786368,-0.29280317,-16.28292,1.0144043,-0.057617188,-0.12432861,-0.057617188,0.021484375,0.028320312,5.7981596,10.703815,-57.25202,-17.353048,-0.39031982,0.06732178,0.9005127,0.0029296875,0.009765625,0.00390625,2.53559,15.217062,-129.07816,-14.845236,0.0,0.0,0.0,0.0,0.0,0.0,0.0,22.040634,-129.14859,3.9545956,0.0,0.0,0.0,0.0,0.0,0.0,0.0,4.0386343,44.76075,2.3664906,
1.621093725843821,83,-0.03491211,0.81781006,0.5393677,-0.021484375,0.026367188,0.06738281,0.0,0.0,0.0,0.0,0.0,0.0,0.0,0.0,0.0,0.0,0.0,-0.61825836,0.013663255,0.78603363,-0.9738159,0.0703125,0.022338867,-0.00390625,0.00390625,-0.0048828125,7.603697,-12.799865,0.28287166,16.273335,0.9495239,-0.13470459,-0.23272705,-0.0126953125,0.03515625,0.036132812,1.612405,-12.42361,-56.67962,18.433678,-0.60339355,0.008361816,0.81292725,-0.01171875,0.005859375,0.018554688,17.697489,-11.763809,-128.6721,19.733686,0.0,0.0,0.0,0.0,0.0,0.0,0.0,-10.647627,-128.42097,39.69845,0.0,0.0,0.0,0.0,0.0,0.0,0.0,0.61825836,-0.013663255,-0.78603363,-0.9680786,-0.06628418,-0.34313965,-0.00390625,0.015625,0.016601562,3.6923652,12.799865,-0.28287166,-16.273335,1.0012207,-0.009521484,-0.10168457,-0.057617188,0.021484375,0.08496094,5.767587,10.758973,-57.243927,-17.306498,-0.38433838,0.05505371,0.9211426,0.0029296875,0.009765625,0.00390625,2.5257673,15.302139,-129.06874,-14.795105,0.0,0.0,0.0,0.0,0.0,0.0,0.0,22.118439,-129.13441,4.008522,0.0,0.0,0.0,0.0,0.0,0.0,0.0,4.034259,44.761066,2.3951037,
1.6406249755527826,84,-0.07128906,0.7739258,0.519104,-0.020507812,0.045898438,0.08496094,0.0,0.0,0.0,0.0,0.0,0.0,0.0,0.0,0.0,0.0,0.0,-0.6181313,0.013269618,0.78616846,-0.98931885,0.052856445,0.033996582,-0.041015625,0.0029296875,0.0146484375,7.6861014,-12.797234,0.27472228,16.276125,0.98498535,-0.1694336,-0.24316406,-0.0126953125,0.016601562,0.036132812,1.6484138,-12.393777,-56.683914,18.484562,-0.61621094,0.018676758,0.80596924,0.0078125,-0.030273438,0.0,17.712908,-11.70998,-128.68512,19.802158,0.0,0.0,0.0,0.0,0.0,0.0,0.0,-10.590317,-128.4361,39.766903,0.0,0.0,0.0,0.0,0.0,0.0,0.0,0.6181313,-0.013269618,-0.78616846,-0.91796875,-0.07324219,-0.33636475,-0.080078125,0.018554688,0.017578125,3.7323458,12.797234,-0.27472228,-16.276125,1.0324097,-0.057861328,-0.11975098,-0.0390625,0.05859375,0.06542969,5.7353835,10.774529,-57.23655,-17.310602,-0.4130249,0.057678223,0.9104004,-0.016601562,0.009765625,0.022460938,2.5303354,15.287306,-129.06131,-14.780682,0.0,0.0,0.0,0.0,0.0,0.0,0.0,22.10645,-129.12622,4.020792,0.0,0.0,0.0,0.0,0.0,0.0,0.0,4.040759,44.76006,2.4215813,
1.6601562252617443,85,-0.042114258,0.7720947,0.51330566,-0.021484375,0.026367188,0.103515625,0.0,0.0,0.0,0.0,0.0,0.0,0.0,0.0,0.0,0.0,0.0,-0.6182543,0.012785124,0.7859982,-1.0071411,0.039489746,-0.028015137,-0.11621094,0.022460938,0.0146484375,7.6963086,-12.799782,0.26469177,16.2726,0.9725952,-0.14355469,-0.21502686,-0.032226562,0.036132812,0.016601562,1.613497,-12.403995,-56.694584,18.461834,-0.60821533,0.018432617,0.80596924,-0.01171875,-0.01171875,0.018554688,17.620192,-11.697864,-128.6921,19.789516,0.0,0.0,0.0,0.0,0.0,0.0,0.0,-10.564376,-128.44142,39.752335,0.0,0.0,0.0,0.0,0.0,0.0,0.0,0.6182543,-0.012785124,-0.7859982,-0.93115234,-0.08428955,-0.3157959,-0.041992188,0.056640625,-0.0029296875,3.760673,12.799782,-0.26469177,-16.2726,1.0285645,-0.035888672,-0.1237793,-0.0390625,0.05859375,0.06542969,5.7244034,10.810589,-57.22645,-17.350054,-0.4006958,0.06036377,0.92022705,-0.03515625,0.0107421875,0.00390625,2.541681,15.327992,-129.04523,-14.827139,0.0,0.0,0.0,0.0,0.0,0.0,0.0,22.15105,-129.11716,3.9740562,0.0,0.0,0.0,0.0,0.0,0.0,0.0,4.042753,44.755325,2.4519744,
1.679687474970706,86,-0.04699707,0.7962036,0.53253174,-0.060546875,0.02734375,0.10449219,0.0,0.0,0.0,0.0,0.0,0.0,0.0,0.0,0.0,0.0,0.0,-0.618507,0.012414103,0.78581375,-1.0096436,0.024291992,0.012573242,-0.09765625,0.022460938,-0.0048828125,7.6971245,-12.805012,0.25701043,16.268782,0.967041,-0.15789795,-0.25091553,-0.05078125,0.036132812,0.015625,1.5749525,-12.38167,-56.702366,18.406542,-0.61743164,0.0059814453,0.7921753,0.0068359375,0.005859375,0.018554688,17.603973,-11.675539,-128.69987,19.734224,0.0,0.0,0.0,0.0,0.0,0.0,0.0,-10.536526,-128.45544,39.69635,0.0,0.0,0.0,0.0,0.0,0.0,0.0,0.618507,-0.012414103,-0.78581375,-0.94122314,-0.086120605,-0.35412598,-0.041992188,-0.001953125,-0.0029296875,3.7748091,12.805012,-0.25701043,-16.268782,1.0361328,-0.05493164,-0.13861084,-0.01953125,0.040039062,0.06542969,5.7259097,10.801552,-57.21793,-17.321224,-0.40472412,0.06750488,0.9094238,-0.016601562,-0.0087890625,0.00390625,2.5561945,15.320179,-129.04492,-14.801147,0.0,0.0,0.0,0.0,0.0,0.0,0.0,22.131393,-129.12325,4.004097,0.0,0.0,0.0,0.0,0.0,0.0,0.0,4.0403876,44.754673,2.4731293,
1.6992187246796677,87,-0.05316162,0.7873535,0.51971436,-0.060546875,0.02734375,0.06738281,0.0,0.0,0.0,0.0,0.0,0.0,0.0,0.0,0.0,0.0,0.0,-0.6191692,0.011580359,0.78539056,-0.9803467,0.048583984,0.047851562,-0.041015625,0.0029296875,0.0146484375,7.8010955,-12.818722,0.23974936,16.26002,0.9533081,-0.1416626,-0.24975586,-0.0126953125,0.036132812,0.017578125,1.645562,-12.341429,-56.722195,18.421495,-0.5922241,0.010131836,0.7852173,0.0068359375,-0.0126953125,0.0,17.626812,-11.674316,-128.7172,19.727524,0.0,0.0,0.0,0.0,0.0,0.0,0.0,-10.52559,-128.47585,39.692657,0.0,0.0,0.0,0.0,0.0,0.0,0.0,0.6191692,-0.011580359,-0.78539056,-0.9133911,-0.10546875,-0.3425293,-0.022460938,-0.041992188,-0.00390625,3.8183908,12.818722,-0.23974936,-16.26002,1.0171509,-0.020690918,-0.094055176,-0.07714844,0.059570312,0.046875,5.7123046,10.830555,-57.202797,-17.328178,-0.40570068,0.07055664,0.90448,0.001953125,-0.009765625,0.00390625,2.5320365,15.354313,-129.02643,-14.838998,0.0,0.0,0.0,0.0,0.0,0.0,0.0,22.165527,-129.10475,3.9662466,0.0,0.0,0.0,0.0,0.0,0.0,0.0,4.042016,44.754578,2.5266638,
1.7187499743886294,88,-0.057495117,0.80822754,0.50408936,-0.020507812,0.045898438,0.08496094,0.0,0.0,0.0,0.0,0.0,0.0,0.0,0.0,0.0,0.0,0.0,-0.6208792,0.010254171,0.78401214,-0.9961548,0.046691895,-0.001953125,-0.022460938,0.00390625,-0.0048828125,7.8333845,-12.854123,0.21229315,16.231483,0.97320557,-0.15325928,-0.2539673,-0.05078125,0.036132812,0.03515625,1.6636581,-12.335232,-56.74866,18.388803,-0.5861206,0.01574707,0.8069458,-0.01171875,-0.0126953125,-0.037109375,17.645523,-11.681527,-128.7475,19.694508,0.0,0.0,0.0,0.0,0.0,0.0,0.0,-10.535586,-128.50034,39.656506,0.0,0.0,0.0,0.0,0.0,0.0,0.0,0.6208792,-0.010254171,-0.78401214,-0.90979004,-0.06585693,-0.3657837,-0.00390625,0.03515625,0.016601562,3.7878585,12.854123,-0.21229315,-16.231483,1.0168457,-0.03967285,-0.105773926,-0.038085938,0.0029296875,0.06640625,5.726765,10.867873,-57.173157,-17.339231,-0.39855957,0.06542969,0.9034424,-0.03515625,0.0107421875,0.00390625,2.5165286,15.39921,-128.9962,-14.867813,0.0,0.0,0.0,0.0,0.0,0.0,0.0,22.210869,-129.07373,3.9376793,0.0,0.0,0.0,0.0,0.0,0.0,0.0,3.9963574,44.754047,2.579475,
1.7382812240975911,89,-0.04736328,0.78808594,0.5036621,0.018554688,0.043945312,0.06640625,0.0,0.0,0.0,0.0,0.0,0.0,0.0,0.0,0.0,0.0,0.0,-0.62169623,0.0098764375,0.7833919,-1.0084229,0.022766113,-0.012329102,-0.13574219,-0.015625,-0.0048828125,7.760887,-12.87104,0.20447287,16.218641,0.96655273,-0.13934326,-0.2388916,-0.013671875,0.036132812,-0.001953125,1.5810293,-12.354464,-56.760094,18.294792,-0.5733032,0.0045166016,0.8069458,-0.01171875,0.005859375,0.0,17.664013,-11.687801,-128.75156,19.604996,0.0,0.0,0.0,0.0,0.0,0.0,0.0,-10.559526,-128.49907,39.569584,0.0,0.0,0.0,0.0,0.0,0.0,0.0,0.62169623,-0.0098764375,-0.7833919,-0.9161377,-0.08947754,-0.35614014,-0.080078125,-9.765625E-4,-0.0029296875,3.758277,12.87104,-0.20447287,-16.218641,1.0402832,-0.052001953,-0.12982178,0.0,0.0390625,0.06542969,5.7288184,10.88559,-57.16688,-17.347025,-0.39050293,0.042297363,0.9064331,0.0029296875,0.009765625,-0.015625,2.5358987,15.399321,-128.98962,-14.854974,0.0,0.0,0.0,0.0,0.0,0.0,0.0,22.21682,-129.07079,3.9480333,0.0,0.0,0.0,0.0,0.0,0.0,0.0,3.9725862,44.75645,2.5883698,
1.7578124738065528,90,-0.046142578,0.802063,0.52264404,-0.061523438,0.0078125,0.0859375,0.0,0.0,0.0,0.0,0.0,0.0,0.0,0.0,0.0,0.0,0.0,-0.6224611,0.0091130175,0.7827241,-0.9871216,0.042541504,0.00592041,-0.059570312,-0.0146484375,-0.04296875,7.765387,-12.886874,0.18866768,16.204813,0.97052,-0.14239502,-0.23895264,-0.032226562,0.036132812,0.016601562,1.546363,-12.326928,-56.777836,18.227016,-0.61328125,0.012756348,0.7842407,0.026367188,-0.013671875,9.765625E-4,17.636711,-11.628912,-128.78003,19.530085,0.0,0.0,0.0,0.0,0.0,0.0,0.0,-10.500669,-128.53134,39.49299,0.0,0.0,0.0,0.0,0.0,0.0,0.0,0.6224611,-0.0091130175,-0.7827241,-0.9052124,-0.098083496,-0.33068848,-0.080078125,-9.765625E-4,-0.0234375,3.7662923,12.886874,-0.18866768,-16.204813,1.0146484,-0.03765869,-0.121520996,0.0,0.0390625,0.046875,5.723205,10.88516,-57.148586,-17.303118,-0.39672852,0.04626465,0.9221802,0.001953125,0.0087890625,0.041015625,2.5087385,15.399397,-128.97523,-14.836742,0.0,0.0,0.0,0.0,0.0,0.0,0.0,22.223673,-129.05473,3.9631386,0.0,0.0,0.0,0.0,0.0,0.0,0.0,3.951817,44.75389,2.6216252,
1.7773437235155145,91,-0.047058105,0.80114746,0.52960205,-0.060546875,0.02734375,0.0859375,0.0,0.0,0.0,0.0,0.0,0.0,0.0,0.0,0.0,0.0,0.0,-0.6240609,0.007997911,0.7814631,-0.98602295,0.06274414,0.020202637,-0.11621094,0.022460938,-0.0234375,7.816227,-12.919997,0.16558151,16.178709,0.9682007,-0.15411377,-0.23797607,-0.06933594,0.055664062,0.015625,1.5686028,-12.344594,-56.798004,18.220493,-0.6114502,8.544922E-4,0.7892456,0.0068359375,-0.0126953125,-0.018554688,17.650234,-11.649097,-128.79549,19.52819,0.0,0.0,0.0,0.0,0.0,0.0,0.0,-10.518059,-128.54611,39.492435,0.0,0.0,0.0,0.0,0.0,0.0,0.0,0.6240609,-0.007997911,-0.7814631,-0.93292236,-0.14227295,-0.34472656,-0.0029296875,0.015625,-0.024414062,3.7976162,12.919997,-0.16558151,-16.178709,1.0405273,-0.034057617,-0.12402344,-0.057617188,0.021484375,0.047851562,5.7167287,10.94723,-57.125748,-17.290821,-0.4111328,0.061157227,0.96258545,0.0029296875,0.009765625,0.00390625,2.4980268,15.49984,-128.94669,-14.867035,0.0,0.0,0.0,0.0,0.0,0.0,0.0,22.311287,-129.03067,3.9384575,0.0,0.0,0.0,0.0,0.0,0.0,0.0,3.9261117,44.752926,2.6772897,
1.7968749732244762,92,-0.07116699,0.79785156,0.5352173,-0.059570312,0.046875,0.123046875,0.0,0.0,0.0,0.0,0.0,0.0,0.0,0.0,0.0,0.0,0.0,-0.6252162,0.00662427,0.7806319,-0.99035645,0.0211792,0.008544922,-0.09765625,0.022460938,-0.0048828125,7.9241447,-12.943913,0.13714294,16.161499,0.97631836,-0.15045166,-0.25195312,-0.0126953125,0.03515625,0.036132812,1.6345844,-12.311114,-56.824387,18.237284,-0.6164551,0.0020141602,0.7921753,0.0068359375,-0.0126953125,-0.018554688,17.675728,-11.615302,-128.82558,19.534008,0.0,0.0,0.0,0.0,0.0,0.0,0.0,-10.473213,-128.57793,39.498466,0.0,0.0,0.0,0.0,0.0,0.0,0.0,0.6252162,-0.00662427,-0.7806319,-0.94506836,-0.071899414,-0.37072754,-0.00390625,-0.00390625,-0.00390625,3.8500547,12.943913,-0.13714294,-16.161499,1.0214233,-0.029724121,-0.07232666,-0.13574219,0.041992188,0.06738281,5.729605,10.995754,-57.098076,-17.273014,-0.40478516,0.06744385,0.91430664,0.041015625,0.0087890625,-0.015625,2.527549,15.60582,-128.92226,-14.866741,0.0,0.0,0.0,0.0,0.0,0.0,0.0,22.42826,-129.01654,3.933981,0.0,0.0,0.0,0.0,0.0,0.0,0.0,3.904409,44.7534,2.7473145,
1.816406222933438,93,-0.055236816,0.83117676,0.52905273,-0.041992188,0.0087890625,0.12207031,0.0,0.0,0.0,0.0,0.0,0.0,0.0,0.0,0.0,0.0,0.0,-0.62620366,0.00511875,0.7798541,-1.0003052,0.039855957,0.0038452148,-0.19238281,0.022460938,-0.0048828125,7.9441843,-12.964356,0.10597398,16.145397,0.96484375,-0.16369629,-0.25195312,-0.032226562,0.036132812,0.016601562,1.6000998,-12.330818,-56.85827,18.195156,-0.6054077,0.0026245117,0.7921753,0.026367188,-0.013671875,9.765625E-4,17.659883,-11.628583,-128.85492,19.506254,0.0,0.0,0.0,0.0,0.0,0.0,0.0,-10.488256,-128.61137,39.47078,0.0,0.0,0.0,0.0,0.0,0.0,0.0,0.62620366,-0.00511875,-0.7798541,-0.9501953,-0.08190918,-0.31774902,-0.099609375,-0.07910156,-0.0234375,3.9426794,12.964356,-0.10597398,-16.145397,1.0159912,-0.06958008,-0.08087158,0.0390625,0.020507812,0.045898438,5.7506733,11.070505,-57.069977,-17.222324,-0.39031982,0.06933594,0.897522,0.00390625,0.06640625,0.022460938,2.625623,15.749441,-128.88983,-14.711161,0.0,0.0,0.0,0.0,0.0,0.0,0.0,22.567953,-128.985,4.0905304,0.0,0.0,0.0,0.0,0.0,0.0,0.0,3.8755038,44.751602,2.8181968,
1.8359374726423996,94,-0.047180176,0.80407715,0.5216675,-0.080078125,0.029296875,0.14160156,0.0,0.0,0.0,0.0,0.0,0.0,0.0,0.0,0.0,0.0,0.0,-0.6278778,0.0038905926,0.7785143,-0.99108887,0.06958008,0.022338867,-0.15429688,0.022460938,-0.0048828125,8.023921,-12.999016,0.08054738,16.11766,0.9572754,-0.14477539,-0.2498169,-0.049804688,0.0546875,0.03515625,1.623171,-12.359143,-56.8855,18.200075,-0.6154175,0.0048828125,0.79815674,0.0068359375,-0.0126953125,0.0,17.652,-11.654633,-128.88538,19.524008,0.0,0.0,0.0,0.0,0.0,0.0,0.0,-10.509746,-128.6478,39.488197,0.0,0.0,0.0,0.0,0.0,0.0,0.0,0.6278778,-0.0038905926,-0.7785143,-0.91729736,-0.10015869,-0.31591797,-0.061523438,-0.13867188,-0.0234375,4.152609,12.999016,-0.08054738,-16.11766,0.9844971,-0.029174805,-0.07751465,0.05859375,-0.03515625,0.06542969,5.6500697,11.264156,-57.055485,-17.127285,-0.40460205,0.079589844,0.90252686,0.001953125,-0.009765625,0.00390625,2.6906457,16.02673,-128.86488,-14.580756,0.0,0.0,0.0,0.0,0.0,0.0,0.0,22.863844,-128.95992,4.2144537,0.0,0.0,0.0,0.0,0.0,0.0,0.0,3.8602355,44.748375,2.8896813,
1.8554687223513613,95,-0.031921387,0.7758789,0.52404785,-0.060546875,0.028320312,0.140625,0.0,0.0,0.0,0.0,0.0,0.0,0.0,0.0,0.0,0.0,0.0,-0.62961817,0.0020122677,0.77711827,-0.99835205,0.054016113,0.0289917,-0.19238281,0.059570312,0.0146484375,8.154419,-13.035046,0.041660145,16.088757,0.99035645,-0.15594482,-0.24914551,-0.013671875,0.036132812,-0.001953125,1.665539,-12.361396,-56.91881,18.229301,-0.6084595,7.324219E-4,0.79711914,0.0068359375,0.0048828125,-0.018554688,17.660074,-11.662384,-128.91637,19.59497,0.0,0.0,0.0,0.0,0.0,0.0,0.0,-10.507841,-128.683,39.557003,0.0,0.0,0.0,0.0,0.0,0.0,0.0,0.62961817,-0.0020122677,-0.77711827,-0.9293213,-0.09466553,-0.2913208,-0.099609375,-0.020507812,-0.0234375,4.3205557,13.035046,-0.041660145,-16.088757,1.0193481,-0.045715332,-0.13537598,-0.056640625,-0.034179688,0.10449219,5.5458107,11.405067,-57.016468,-17.044336,-0.41705322,0.06286621,0.89959717,0.001953125,-0.009765625,-0.015625,2.7223954,16.175863,-128.82019,-14.479057,0.0,0.0,0.0,0.0,0.0,0.0,0.0,23.022991,-128.91571,4.3122444,0.0,0.0,0.0,0.0,0.0,0.0,0.0,3.8304586,44.744633,2.987561,
1.874999972060323,96,-0.044799805,0.774292,0.5372925,0.057617188,0.025390625,0.12011719,0.0,0.0,0.0,0.0,0.0,0.0,0.0,0.0,0.0,0.0,0.0,-0.63113225,-1.5002117E-4,0.7757951,-0.9923096,0.04333496,0.024841309,-0.17285156,0.041015625,0.0146484375,8.285436,-13.066397,-0.003105875,16.061363,0.9701538,-0.15515137,-0.24499512,0.060546875,0.016601562,-0.038085938,1.6877161,-12.355045,-56.96339,18.22605,-0.614624,-0.0068969727,0.7803345,-0.01171875,0.005859375,0.0,17.628775,-11.630061,-128.95847,19.604801,0.0,0.0,0.0,0.0,0.0,0.0,0.0,-10.479008,-128.72948,39.56865,0.0,0.0,0.0,0.0,0.0,0.0,0.0,0.63113225,1.5002117E-4,-0.7757951,-0.93395996,-0.0690918,-0.33337402,-0.19433594,0.001953125,-0.021484375,4.51206,13.066397,0.003105875,-16.061363,1.0045166,-0.07141113,-0.113220215,-0.037109375,-0.07128906,0.0859375,5.455856,11.485569,-56.97428,-16.90107,-0.39038086,0.043518066,0.8798218,0.001953125,-0.029296875,0.041015625,2.8036547,16.215088,-128.77814,-14.239927,0.0,0.0,0.0,0.0,0.0,0.0,0.0,23.076836,-128.87813,4.54698,0.0,0.0,0.0,0.0,0.0,0.0,0.0,3.8045607,44.73554,3.1037736,
1.8945312217692847,97,-0.039916992,0.7821045,0.5292969,-0.022460938,-0.01171875,0.103515625,0.0,0.0,0.0,0.0,0.0,0.0,0.0,0.0,0.0,0.0,0.0,-0.63155824,-0.0017996877,0.77545476,-1.010437,0.03717041,-0.001159668,-0.15429688,0.059570312,0.034179688,8.3511305,-13.075215,-0.037259147,16.054317,0.9821167,-0.12823486,-0.22406006,0.043945312,0.015625,0.018554688,1.7007686,-12.342023,-56.998207,18.205536,-0.6135254,-6.1035156E-5,0.7892456,0.026367188,-0.013671875,-0.018554688,17.55568,-11.594364,-128.99283,19.5527,0.0,0.0,0.0,0.0,0.0,0.0,0.0,-10.442594,-128.76283,39.516876,0.0,0.0,0.0,0.0,0.0,0.0,0.0,0.63155824,0.0017996877,-0.77545476,-0.8983154,-0.105773926,-0.34155273,-0.1953125,-0.095703125,-0.022460938,4.625545,13.075215,0.037259147,-16.054317,1.0154419,-0.04168701,-0.12939453,0.0390625,-0.03515625,0.046875,5.374251,11.503216,-56.942482,-16.820915,-0.40075684,0.055358887,0.91729736,-0.017578125,-0.06640625,0.00390625,2.782419,16.169834,-128.74773,-14.156106,0.0,0.0,0.0,0.0,0.0,0.0,0.0,23.035067,-128.84763,4.6295786,0.0,0.0,0.0,0.0,0.0,0.0,0.0,3.7845478,44.731754,3.186086,
1.9140624714782464,98,-0.031433105,0.79351807,0.49035645,-0.05859375,0.08496094,0.10449219,0.0,0.0,0.0,0.0,0.0,0.0,0.0,0.0,0.0,0.0,0.0,-0.63271743,-0.0033974089,0.7745393,-0.99432373,0.0289917,0.009643555,-0.17285156,0.059570312,0.034179688,8.357218,-13.099215,-0.07033685,16.035364,0.97021484,-0.116882324,-0.24182129,0.0234375,0.016601562,-9.765625E-4,1.6827228,-12.352883,-57.030346,18.120098,-0.614563,-0.0029907227,0.7961426,-0.01171875,-0.01171875,0.0,17.504045,-11.587516,-129.02711,19.41147,0.0,0.0,0.0,0.0,0.0,0.0,0.0,-10.433374,-128.79918,39.374252,0.0,0.0,0.0,0.0,0.0,0.0,0.0,0.63271743,0.0033974089,-0.7745393,-0.9147339,-0.13433838,-0.36138916,-0.11816406,-0.0390625,-0.022460938,4.629482,13.099215,0.07033685,-16.035364,1.024353,-0.029846191,-0.14050293,9.765625E-4,-0.03515625,0.06640625,5.3803725,11.479088,-56.90904,-16.810368,-0.4130249,0.06756592,0.9232178,-0.036132812,-0.0087890625,0.00390625,2.732658,16.09757,-128.72319,-14.168614,0.0,0.0,0.0,0.0,0.0,0.0,0.0,22.960255,-128.81789,4.617654,0.0,0.0,0.0,0.0,0.0,0.0,0.0,3.7539263,44.73004,3.2627668,
1.933593721187208,99,-0.025878906,0.7976074,0.526062,-0.020507812,0.045898438,0.08496094,0.0,0.0,0.0,0.0,0.0,0.0,0.0,0.0,0.0,0.0,0.0,-0.6336156,-0.004691746,0.77380174,-0.98724365,0.0413208,0.023803711,-0.11621094,0.1171875,0.053710938,8.337198,-13.117808,-0.097133726,16.020096,0.96691895,-0.12860107,-0.2189331,-0.013671875,0.036132812,-0.001953125,1.6315887,-12.410027,-57.062706,18.04392,-0.6063843,0.0045776367,0.7980957,0.0068359375,0.0234375,0.0,17.43033,-11.619484,-129.06396,19.292324,0.0,0.0,0.0,0.0,0.0,0.0,0.0,-10.459467,-128.84288,39.25717,0.0,0.0,0.0,0.0,0.0,0.0,0.0,0.6336156,0.004691746,-0.77380174,-0.9145508,-0.120666504,-0.3209839,-0.11816406,-0.01953125,-0.022460938,4.6559777,13.117808,0.097133726,-16.020096,1.0032959,-0.04949951,-0.14001465,-0.018554688,-0.052734375,0.047851562,5.3333306,11.499045,-56.8806,-16.827951,-0.41296387,0.07946777,0.934021,0.001953125,-0.028320312,0.00390625,2.6605778,16.06356,-128.699,-14.25199,0.0,0.0,0.0,0.0,0.0,0.0,0.0,22.919716,-128.7931,4.536969,0.0,0.0,0.0,0.0,0.0,0.0,0.0,3.73715,44.726536,3.3312955,
1.9531249708961698,100,-0.052246094,0.8041992,0.5198364,0.0,0.064453125,0.08496094,0.0,0.0,0.0,0.0,0.0,0.0,0.0,0.0,0.0,0.0,0.0,-0.6340327,-0.0053785928,0.773483,-0.9824219,0.022583008,0.032470703,-0.07910156,0.09765625,0.072265625,8.31222,-13.126444,-0.11135353,16.013496,0.98114014,-0.12823486,-0.22106934,0.005859375,0.03515625,0.017578125,1.5679789,-12.445501,-57.07441,17.983042,-0.59851074,-0.0025634766,0.7991333,0.0068359375,0.0234375,0.018554688,17.357822,-11.603671,-129.06744,19.210884,0.0,0.0,0.0,0.0,0.0,0.0,0.0,-10.44402,-128.84799,39.178165,0.0,0.0,0.0,0.0,0.0,0.0,0.0,0.6340327,0.0053785928,-0.773483,-0.9022217,-0.09954834,-0.35327148,-0.17578125,0.001953125,-0.001953125,4.671351,13.126444,0.11135353,-16.013496,1.0032959,-0.045532227,-0.14099121,-0.01953125,0.040039062,0.046875,5.297054,11.479932,-56.862503,-16.819904,-0.4048462,0.053466797,0.91534424,0.0029296875,0.009765625,0.00390625,2.6217434,15.969112,-128.68982,-14.265652,0.0,0.0,0.0,0.0,0.0,0.0,0.0,22.817413,-128.78569,4.525255,0.0,0.0,0.0,0.0,0.0,0.0,0.0,3.732392,44.724953,3.3704891,
1.9726562206051315,101,-0.030761719,0.7838745,0.53601074,0.01953125,0.06347656,0.06640625,0.0,0.0,0.0,0.0,0.0,0.0,0.0,0.0,0.0,0.0,0.0,-0.6339144,-0.0052669644,0.773498,-1.0126953,0.020507812,0.009521484,-0.041015625,0.13574219,0.07324219,8.227456,-13.123992,-0.109042495,16.013807,0.9840088,-0.12915039,-0.25598145,-0.0126953125,0.016601562,0.036132812,1.4779023,-12.476688,-57.076008,17.898232,-0.59020996,0.011962891,0.7980957,0.0068359375,0.0234375,0.0,17.302689,-11.606145,-129.07312,19.11043,0.0,0.0,0.0,0.0,0.0,0.0,0.0,-10.446169,-128.8516,39.076992,0.0,0.0,0.0,0.0,0.0,0.0,0.0,0.6339144,0.0052669644,-0.773498,-0.91760254,-0.12384033,-0.3505249,-0.11816406,0.0390625,0.018554688,4.6362042,13.123992,0.109042495,-16.013807,0.993103,-0.05328369,-0.089416504,0.038085938,0.057617188,0.045898438,5.3545613,11.45276,-56.868217,-16.848015,-0.41497803,0.06774902,0.90844727,0.001953125,0.009765625,0.022460938,2.6613867,15.955314,-128.69014,-14.255288,0.0,0.0,0.0,0.0,0.0,0.0,0.0,22.797283,-128.7869,4.538995,0.0,0.0,0.0,0.0,0.0,0.0,0.0,3.737571,44.721836,3.3676217,
1.9921874703140932,102,-0.011962891,0.7871704,0.508667,-0.020507812,0.045898438,0.08496094,0.0,0.0,0.0,0.0,0.0,0.0,0.0,0.0,0.0,0.0,0.0,-0.6339427,-0.0057827346,0.7734739,-1.0116577,0.02142334,0.0115356445,0.034179688,0.0029296875,0.033203125,8.247693,-13.124578,-0.1197205,16.01331,0.96624756,-0.15106201,-0.24291992,-0.0126953125,0.015625,0.055664062,1.4842445,-12.433634,-57.086464,17.877579,-0.5946045,-0.008605957,0.809021,0.0068359375,0.0048828125,-0.018554688,17.242996,-11.537987,-129.08649,19.071163,0.0,0.0,0.0,0.0,0.0,0.0,0.0,-10.3801565,-128.86148,39.034958,0.0,0.0,0.0,0.0,0.0,0.0,0.0,0.6339427,0.0057827346,-0.7734739,-0.9637451,-0.115356445,-0.26000977,-0.11816406,-0.078125,-0.0234375,4.6986957,13.124578,0.1197205,-16.01331,1.0249023,-0.017822266,-0.10998535,0.23339844,-0.056640625,0.06347656,5.3359385,11.555953,-56.856487,-16.864492,-0.39648438,0.059570312,0.88378906,0.0029296875,0.009765625,-0.015625,2.7760096,16.101328,-128.66956,-14.16872,0.0,0.0,0.0,0.0,0.0,0.0,0.0,22.948162,-128.76013,4.623949,0.0,0.0,0.0,0.0,0.0,0.0,0.0,3.7238593,44.721657,3.3864446,
2.011718720023055,103,-0.044067383,0.80303955,0.52557373,-0.061523438,0.0078125,0.0859375,0.0,0.0,0.0,0.0,0.0,0.0,0.0,0.0,0.0,0.0,0.0,-0.6352161,-0.00675907,0.77249366,-0.9819336,0.042663574,-0.0059814453,0.0146484375,-0.016601562,0.09082031,8.265814,-13.150942,-0.13993374,15.993015,0.9545288,-0.16912842,-0.2578125,-0.06933594,0.016601562,0.053710938,1.5007652,-12.481316,-57.105988,17.877153,-0.59039307,0.0029907227,0.8198242,-0.01171875,0.005859375,-0.018554688,17.29805,-11.598113,-129.10442,19.064745,0.0,0.0,0.0,0.0,0.0,0.0,0.0,-10.46106,-128.87035,39.028725,0.0,0.0,0.0,0.0,0.0,0.0,0.0,0.6352161,0.00675907,-0.77249366,-0.9744873,-0.09222412,-0.27752686,-0.2529297,-0.19140625,-0.021484375,4.950566,13.150942,0.13993374,-15.993015,1.0368042,0.0119018555,-0.12823486,0.078125,-0.036132812,0.083984375,5.0635695,11.807263,-56.848934,-16.731739,-0.39648438,0.059509277,0.8936157,0.001953125,-0.009765625,0.00390625,2.8042128,16.322466,-128.6635,-14.036877,0.0,0.0,0.0,0.0,0.0,0.0,0.0,23.159775,-128.74907,4.75881,0.0,0.0,0.0,0.0,0.0,0.0,0.0,3.6949682,44.723316,3.4296603,
2.0312499697320168,104,-0.0068359375,0.8189087,0.5227051,-0.020507812,0.045898438,0.08496094,0.0,0.0,0.0,0.0,0.0,0.0,0.0,0.0,0.0,0.0,0.0,-0.6367854,-0.008467466,0.7712159,-0.99645996,0.01361084,0.0014648438,-0.15429688,0.078125,0.091796875,8.280386,-13.183434,-0.1753028,15.96656,0.9713135,-0.15124512,-0.2409668,0.024414062,-0.0029296875,0.018554688,1.5019383,-12.589621,-57.14361,17.877201,-0.6094971,7.324219E-4,0.79711914,-0.01171875,0.005859375,-0.018554688,17.266415,-11.718863,-129.14043,19.058792,0.0,0.0,0.0,0.0,0.0,0.0,0.0,-10.572512,-128.90569,39.02126,0.0,0.0,0.0,0.0,0.0,0.0,0.0,0.6367854,0.008467466,-0.7712159,-0.9276123,-0.116882324,-0.30426025,-0.23339844,-0.07519531,-0.021484375,5.1815286,13.183434,0.1753028,-15.96656,1.0320435,-0.027954102,-0.16046143,-0.11425781,-0.033203125,0.12402344,4.8292527,12.032104,-56.816196,-16.622059,-0.38427734,0.053222656,0.8994751,-0.016601562,0.009765625,0.00390625,2.8198755,16.511684,-128.63191,-13.930656,0.0,0.0,0.0,0.0,0.0,0.0,0.0,23.357876,-128.7218,4.8610764,0.0,0.0,0.0,0.0,0.0,0.0,0.0,3.6542249,44.72169,3.508274,
2.0507812194409785,105,-0.010986328,0.80303955,0.5097656,-0.001953125,0.026367188,0.08496094,0.0,0.0,0.0,0.0,0.0,0.0,0.0,0.0,0.0,0.0,0.0,-0.63885635,-0.010859873,0.7693611,-0.97821045,0.021911621,0.010559082,-0.13574219,0.09765625,0.034179688,8.279011,-13.226305,-0.22483313,15.928161,0.9706421,-0.13446045,-0.26385498,0.0625,-0.0234375,0.0390625,1.4771076,-12.634098,-57.197495,17.756111,-0.5960083,0.025878906,0.80596924,0.026367188,-0.0126953125,0.01953125,17.261627,-11.7586,-129.1916,18.866537,0.0,0.0,0.0,0.0,0.0,0.0,0.0,-10.61049,-128.95276,38.828938,0.0,0.0,0.0,0.0,0.0,0.0,0.0,0.63885635,0.010859873,-0.7693611,-0.91711426,-0.08392334,-0.34136963,-0.11816406,0.01953125,0.038085938,5.257175,13.226305,0.22483313,-15.928161,1.0247803,-0.033813477,-0.10992432,-0.056640625,-0.052734375,0.0859375,4.719329,12.1054,-56.76508,-16.586042,-0.40679932,0.082336426,0.934021,-0.016601562,0.009765625,0.00390625,2.7834742,16.435604,-128.59401,-13.833376,0.0,0.0,0.0,0.0,0.0,0.0,0.0,23.276201,-128.67801,4.9604053,0.0,0.0,0.0,0.0,0.0,0.0,0.0,3.597498,44.71368,3.6184165,
2.07031246914994,106,-0.011047363,0.7871094,0.50268555,0.038085938,0.043945312,0.10253906,0.0,0.0,0.0,0.0,0.0,0.0,0.0,0.0,0.0,0.0,0.0,-0.640949,-0.013084441,0.76762056,-0.99017334,0.04827881,0.015991211,-0.15429688,0.11621094,0.07324219,8.24974,-13.269632,-0.2708885,15.892126,0.9735718,-0.14251709,-0.23999023,-0.05078125,-0.0029296875,0.0546875,1.428618,-12.755018,-57.2459,17.666498,-0.6064453,0.0025634766,0.8060303,0.044921875,0.00390625,9.765625E-4,17.208584,-11.887621,-129.24281,18.739088,0.0,0.0,0.0,0.0,0.0,0.0,0.0,-10.737083,-129.00491,38.70526,0.0,0.0,0.0,0.0,0.0,0.0,0.0,0.640949,0.013084441,-0.76762056,-0.923584,-0.11578369,-0.3140869,-0.11816406,0.0,0.017578125,5.3164763,13.269632,0.2708885,-15.892126,1.0321045,-0.053894043,-0.14251709,0.078125,-0.036132812,0.046875,4.678642,12.133613,-56.71915,-16.53329,-0.40795898,0.05834961,0.93603516,0.021484375,-0.009765625,-0.015625,2.809583,16.366215,-128.5494,-13.72139,0.0,0.0,0.0,0.0,0.0,0.0,0.0,23.202637,-128.63655,5.0738087,0.0,0.0,0.0,0.0,0.0,0.0,0.0,3.5442533,44.710747,3.7215014,
2.089843718858902,107,-0.02709961,0.8015137,0.512146,0.01953125,0.08203125,0.047851562,0.0,0.0,0.0,0.0,0.0,0.0,0.0,0.0,0.0,0.0,0.0,-0.6422277,-0.01451866,0.7664871,-1.0048218,0.019958496,0.036376953,-0.13574219,0.11621094,0.111328125,8.243144,-13.296105,-0.3005812,15.86866,0.98565674,-0.14398193,-0.2510376,-0.03125,0.0546875,0.03515625,1.4227155,-12.852093,-57.276066,17.660395,-0.57629395,0.0036621094,0.8000488,0.026367188,-0.06738281,0.01953125,17.177631,-11.997945,-129.27676,18.739424,0.0,0.0,0.0,0.0,0.0,0.0,0.0,-10.844998,-129.03061,38.704094,0.0,0.0,0.0,0.0,0.0,0.0,0.0,0.6422277,0.01451866,-0.7664871,-0.9404907,-0.103637695,-0.31591797,-0.17578125,0.001953125,0.018554688,5.3402333,13.296105,0.3005812,-15.86866,1.0117188,-0.032592773,-0.11853027,0.040039062,-0.072265625,0.123046875,4.6979036,12.136179,-56.69238,-16.48547,-0.40600586,0.03149414,0.9202881,0.001953125,-0.047851562,-0.015625,2.919133,16.335625,-128.52333,-13.587051,0.0,0.0,0.0,0.0,0.0,0.0,0.0,23.167187,-128.61667,5.2097626,0.0,0.0,0.0,0.0,0.0,0.0,0.0,3.4982855,44.7083,3.7780159,
