TOTAL_TIME,0m8s
TOTAL_FRAMES,397
SELECTED_FRAMES,397
NO_OF_JOINTS,12
FREQUENCY,51.2
DESCRIPTION,Capture 44
TIME_STAMP,Nov 1, 2010

Time,Frame,Pelvis_accelX_Pelvis,Pelvis_accelY_Pelvis,Pelvis_accelZ_Pelvis,Pelvis_gyroX_Pelvis,Pelvis_gyroY_Pelvis,Pelvis_gyroZ_Pelvis,Pelvis_Joint angle_Pelvis,Pelvis_Relative pos X_Pelvis,Pelvis_Relative pos Y_Pelvis,Pelvis_Relative pos Z_Pelvis,RightPelvis_accelX_RightPelvis,RightPelvis_accelY_RightPelvis,RightPelvis_accelZ_RightPelvis,RightPelvis_gyroX_RightPelvis,RightPelvis_gyroY_RightPelvis,RightPelvis_gyroZ_RightPelvis,RightPelvis_Joint angle_RightPelvis,RightPelvis_Relative pos X_RightPelvis,RightPelvis_Relative pos Y_RightPelvis,RightPelvis_Relative pos Z_RightPelvis,RightUpLeg_accelX_RightUpLeg,RightUpLeg_accelY_RightUpLeg,RightUpLeg_accelZ_RightUpLeg,RightUpLeg_gyroX_RightUpLeg,RightUpLeg_gyroY_RightUpLeg,RightUpLeg_gyroZ_RightUpLeg,RightUpLeg_Joint angle_RightUpLeg,RightUpLeg_Relative pos X_RightUpLeg,RightUpLeg_Relative pos Y_RightUpLeg,RightUpLeg_Relative pos Z_RightUpLeg,RightLeg_accelX_RightLeg,RightLeg_accelY_RightLeg,RightLeg_accelZ_RightLeg,RightLeg_gyroX_RightLeg,RightLeg_gyroY_RightLeg,RightLeg_gyroZ_RightLeg,RightLeg_Joint angle_RightLeg,RightLeg_Relative pos X_RightLeg,RightLeg_Relative pos Y_RightLeg,RightLeg_Relative pos Z_RightLeg,RightFoot_accelX_RightFoot,RightFoot_accelY_RightFoot,RightFoot_accelZ_RightFoot,RightFoot_gyroX_RightFoot,RightFoot_gyroY_RightFoot,RightFoot_gyroZ_RightFoot,RightFoot_Joint angle_RightFoot,RightFoot_Relative pos X_RightFoot,RightFoot_Relative pos Y_RightFoot,RightFoot_Relative pos Z_RightFoot,RightFootEnd_accelX_RightFootEnd,RightFootEnd_accelY_RightFootEnd,RightFootEnd_accelZ_RightFootEnd,RightFootEnd_gyroX_RightFootEnd,RightFootEnd_gyroY_RightFootEnd,RightFootEnd_gyroZ_RightFootEnd,RightFootEnd_Joint angle_RightFootEnd,RightFootEnd_Relative pos X_RightFootEnd,RightFootEnd_Relative pos Y_RightFootEnd,RightFootEnd_Relative pos Z_RightFootEnd,LeftPelvis_accelX_LeftPelvis,LeftPelvis_accelY_LeftPelvis,LeftPelvis_accelZ_LeftPelvis,LeftPelvis_gyroX_LeftPelvis,LeftPelvis_gyroY_LeftPelvis,LeftPelvis_gyroZ_LeftPelvis,LeftPelvis_Joint angle_LeftPelvis,LeftPelvis_Relative pos X_LeftPelvis,LeftPelvis_Relative pos Y_LeftPelvis,LeftPelvis_Relative pos Z_LeftPelvis,LeftUpLeg_accelX_LeftUpLeg,LeftUpLeg_accelY_LeftUpLeg,LeftUpLeg_accelZ_LeftUpLeg,LeftUpLeg_gyroX_LeftUpLeg,LeftUpLeg_gyroY_LeftUpLeg,LeftUpLeg_gyroZ_LeftUpLeg,LeftUpLeg_Joint angle_LeftUpLeg,LeftUpLeg_Relative pos X_LeftUpLeg,LeftUpLeg_Relative pos Y_LeftUpLeg,LeftUpLeg_Relative pos Z_LeftUpLeg,LeftLeg_accelX_LeftLeg,LeftLeg_accelY_LeftLeg,LeftLeg_accelZ_LeftLeg,LeftLeg_gyroX_LeftLeg,LeftLeg_gyroY_LeftLeg,LeftLeg_gyroZ_LeftLeg,LeftLeg_Joint angle_LeftLeg,LeftLeg_Relative pos X_LeftLeg,LeftLeg_Relative pos Y_LeftLeg,LeftLeg_Relative pos Z_LeftLeg,LeftFoot_accelX_LeftFoot,LeftFoot_accelY_LeftFoot,LeftFoot_accelZ_LeftFoot,LeftFoot_gyroX_LeftFoot,LeftFoot_gyroY_LeftFoot,LeftFoot_gyroZ_LeftFoot,LeftFoot_Joint angle_LeftFoot,LeftFoot_Relative pos X_LeftFoot,LeftFoot_Relative pos Y_LeftFoot,LeftFoot_Relative pos Z_LeftFoot,LeftFootEnd_accelX_LeftFootEnd,LeftFootEnd_accelY_LeftFootEnd,LeftFootEnd_accelZ_LeftFootEnd,LeftFootEnd_gyroX_LeftFootEnd,LeftFootEnd_gyroY_LeftFootEnd,LeftFootEnd_gyroZ_LeftFootEnd,LeftFootEnd_Joint angle_LeftFootEnd,LeftFootEnd_Relative pos X_LeftFootEnd,LeftFootEnd_Relative pos Y_LeftFootEnd,LeftFootEnd_Relative pos Z_LeftFootEnd,Spine_accelX_Spine,Spine_accelY_Spine,Spine_accelZ_Spine,Spine_gyroX_Spine,Spine_gyroY_Spine,Spine_gyroZ_Spine,Spine_Joint angle_Spine,Spine_Relative pos X_Spine,Spine_Relative pos Y_Spine,Spine_Relative pos Z_Spine,
0.0,0,-0.28149414,1.0057983,0.3404541,0.734375,0.32714844,0.65527344,0.0,0.0,0.0,0.0,0.0,0.0,0.0,0.0,0.0,0.0,0.0,-0.25930095,-0.88318205,-0.3900528,-0.60235596,0.5214844,-0.040222168,-2.0234375,-0.95703125,0.08300781,93.76736,-5.368334,-18.284605,-8.075302,0.43792725,-0.26397705,-0.71698,-1.7773438,4.208008,-0.703125,73.78775,-14.8034725,-71.77159,-25.37476,-0.76763916,0.2932129,0.9744873,-0.5625,-4.1376953,-1.4960938,54.72516,10.913033,-115.2375,25.916145,0.0,0.0,0.0,0.0,0.0,0.0,0.0,25.831972,-116.03094,12.621029,0.0,0.0,0.0,0.0,0.0,0.0,0.0,0.25930095,0.88318205,0.3900528,-0.7828369,-0.2501831,0.03857422,-0.82128906,0.97753906,-0.09375,104.961105,5.368334,18.284605,8.075302,0.9191284,-0.0869751,0.036743164,-0.9941406,-0.8154297,0.3701172,41.73639,13.682337,-38.11281,8.682105,-0.43371582,0.023132324,0.9095459,-0.032226562,0.16308594,-0.0146484375,79.3664,39.61975,-88.79262,52.763794,0.0,0.0,0.0,0.0,0.0,0.0,0.0,48.269638,-86.773285,34.84474,0.0,0.0,0.0,0.0,0.0,0.0,0.0,42.021328,-5.7068043,-15.013409,
0.0195312497089617,1,-0.28149414,1.0057983,0.3404541,0.734375,0.32714844,0.65527344,0.0,0.0,0.0,0.0,0.0,0.0,0.0,0.0,0.0,0.0,0.0,-0.25930095,-0.88318205,-0.3900528,-0.60235596,0.5214844,-0.040222168,-2.0234375,-0.95703125,0.08300781,93.76736,-5.368334,-18.284605,-8.075302,0.43792725,-0.26397705,-0.71698,-1.7773438,4.208008,-0.703125,73.78775,-14.8034725,-71.77159,-25.37476,-0.76763916,0.2932129,0.9744873,-0.5625,-4.1376953,-1.4960938,54.72516,10.913033,-115.2375,25.916145,0.0,0.0,0.0,0.0,0.0,0.0,0.0,25.831972,-116.03094,12.621029,0.0,0.0,0.0,0.0,0.0,0.0,0.0,0.25930095,0.88318205,0.3900528,-0.7828369,-0.2501831,0.03857422,-0.82128906,0.97753906,-0.09375,104.961105,5.368334,18.284605,8.075302,0.9191284,-0.0869751,0.036743164,-0.9941406,-0.8154297,0.3701172,41.73639,13.682337,-38.11281,8.682105,-0.43371582,0.023132324,0.9095459,-0.032226562,0.16308594,-0.0146484375,79.3664,39.61975,-88.79262,52.763794,0.0,0.0,0.0,0.0,0.0,0.0,0.0,48.269638,-86.773285,34.84474,0.0,0.0,0.0,0.0,0.0,0.0,0.0,42.021328,-5.7068043,-15.013409,
0.0390624994179234,2,-0.28149414,1.0057983,0.3404541,0.734375,0.32714844,0.65527344,0.0,0.0,0.0,0.0,0.0,0.0,0.0,0.0,0.0,0.0,0.0,-0.25930095,-0.88318205,-0.3900528,-0.60235596,0.5214844,-0.040222168,-2.0234375,-0.95703125,0.08300781,93.76736,-5.368334,-18.284605,-8.075302,0.43792725,-0.26397705,-0.71698,-1.7773438,4.208008,-0.703125,73.78775,-14.8034725,-71.77159,-25.37476,-0.76763916,0.2932129,0.9744873,-0.5625,-4.1376953,-1.4960938,54.72516,10.913033,-115.2375,25.916145,0.0,0.0,0.0,0.0,0.0,0.0,0.0,25.831972,-116.03094,12.621029,0.0,0.0,0.0,0.0,0.0,0.0,0.0,0.25930095,0.88318205,0.3900528,-0.7828369,-0.2501831,0.03857422,-0.82128906,0.97753906,-0.09375,104.961105,5.368334,18.284605,8.075302,0.9191284,-0.0869751,0.036743164,-0.9941406,-0.8154297,0.3701172,41.73639,13.682337,-38.11281,8.682105,-0.43371582,0.023132324,0.9095459,-0.032226562,0.16308594,-0.0146484375,79.3664,39.61975,-88.79262,52.763794,0.0,0.0,0.0,0.0,0.0,0.0,0.0,48.269638,-86.773285,34.84474,0.0,0.0,0.0,0.0,0.0,0.0,0.0,42.021328,-5.7068043,-15.013409,
0.0585937491268851,3,-0.036254883,0.8430786,0.44610596,0.05859375,0.06347656,0.12011719,0.0,0.0,0.0,0.0,0.0,0.0,0.0,0.0,0.0,0.0,0.0,0.23624131,-0.05676573,-0.9702888,-0.9049072,0.18133545,0.37182617,-0.022460938,1.1757812,0.63671875,27.634205,4.890927,-1.1752267,-20.087988,0.888916,-0.24914551,-0.42700195,0.041992188,0.016601562,-0.01953125,32.530273,-18.23096,-52.58325,-28.555197,-0.7504883,0.13482666,0.6624756,-0.0126953125,0.15039062,-0.020507812,20.47365,-8.445377,-122.96573,-40.24187,0.0,0.0,0.0,0.0,0.0,0.0,0.0,-20.785316,-122.90828,-55.980377,0.0,0.0,0.0,0.0,0.0,0.0,0.0,-0.23624131,0.05676573,0.9702888,-0.94000244,-0.068237305,-0.3255005,-0.060546875,0.115234375,-0.0234375,4.490564,-4.890927,1.1752267,20.087988,1.0062866,-0.103393555,-0.11303711,-0.076171875,-0.08886719,0.068359375,4.699905,-5.095091,-55.826504,19.218756,-0.3904419,0.06512451,0.9221802,-0.068359375,0.61328125,1.1152344,9.634862,-12.149178,-127.49039,19.191376,0.0,0.0,0.0,0.0,0.0,0.0,0.0,-31.160908,-127.333534,12.990889,0.0,0.0,0.0,0.0,0.0,0.0,0.0,-0.5611266,44.92259,-2.7647696,
0.0781249988358468,4,-0.019897461,0.8237915,0.45446777,0.099609375,0.12011719,0.12011719,0.0,0.0,0.0,0.0,0.0,0.0,0.0,0.0,0.0,0.0,0.0,0.23980743,-0.058262106,-0.9692031,-0.90234375,0.13439941,0.38500977,-0.07910156,0.8154297,0.5,27.060358,4.9647574,-1.2062063,-20.06551,0.87713623,-0.23590088,-0.43579102,0.08105469,-0.00390625,0.020507812,31.486004,-17.198584,-52.936844,-29.14086,-0.730896,0.10473633,0.6555786,0.0068359375,0.041992188,0.018554688,20.31246,-7.407318,-123.31982,-40.803925,0.0,0.0,0.0,0.0,0.0,0.0,0.0,-19.756824,-123.27268,-56.536327,0.0,0.0,0.0,0.0,0.0,0.0,0.0,-0.23980743,0.058262106,0.9692031,-0.9378662,-0.0602417,-0.33233643,-0.11816406,-0.0390625,-0.0029296875,4.651853,-4.9647574,1.2062063,20.06551,0.9958496,-0.13421631,-0.1303711,-0.07519531,-0.08886719,0.10546875,4.7091484,-5.1744876,-55.794903,19.137598,-0.39672852,0.05419922,0.9300537,-0.03125,0.5371094,0.9453125,10.668079,-12.261274,-127.454254,18.955158,0.0,0.0,0.0,0.0,0.0,0.0,0.0,-31.153608,-127.27728,12.397763,0.0,0.0,0.0,0.0,0.0,0.0,0.0,-0.57821095,44.912178,-2.8428893,
0.09765624854480849,5,-0.019714355,0.81292725,0.4663086,0.09863281,0.08105469,0.08300781,0.0,0.0,0.0,0.0,0.0,0.0,0.0,0.0,0.0,0.0,0.0,0.24607873,-0.059445843,-0.967533,-0.9093628,0.13079834,0.37194824,-0.11621094,0.28710938,0.13183594,26.727795,5.094593,-1.2307134,-20.030933,0.8963623,-0.23669434,-0.4290161,0.0048828125,-0.021484375,0.018554688,30.972544,-16.544617,-53.129513,-29.409803,-0.7620239,0.10461426,0.66748047,0.0068359375,0.060546875,0.037109375,20.173944,-6.691414,-123.51573,-40.99142,0.0,0.0,0.0,0.0,0.0,0.0,0.0,-19.035246,-123.486084,-56.727245,0.0,0.0,0.0,0.0,0.0,0.0,0.0,-0.24607873,0.059445843,0.967533,-0.95214844,-0.077697754,-0.4100952,-0.041992188,-0.001953125,-0.0234375,4.7717543,-5.094593,1.2307134,20.030933,1.0161133,-0.117492676,-0.115112305,-0.037109375,-0.07128906,0.0859375,4.7548923,-5.261869,-55.76522,19.04077,-0.38848877,0.0491333,0.9182129,-0.05078125,0.42578125,0.66308594,11.44706,-12.375658,-127.415924,18.631708,0.0,0.0,0.0,0.0,0.0,0.0,0.0,-31.170416,-127.21265,11.799452,0.0,0.0,0.0,0.0,0.0,0.0,0.0,-0.5557759,44.907684,-2.9005113,
0.11718749825377019,6,-0.0075683594,0.8484497,0.479187,0.01953125,0.06347656,0.06640625,0.0,0.0,0.0,0.0,0.0,0.0,0.0,0.0,0.0,0.0,0.0,0.24850395,-0.06001879,-0.96688527,-0.9154663,0.13470459,0.37902832,-0.15429688,0.040039062,0.052734375,26.722092,5.144802,-1.2425749,-20.01752,0.88287354,-0.21166992,-0.42681885,0.025390625,0.015625,0.037109375,31.029102,-16.49612,-53.14899,-29.35171,-0.756897,0.11047363,0.6526489,-0.01171875,0.060546875,0.017578125,20.10176,-6.57526,-123.53421,-40.878044,0.0,0.0,0.0,0.0,0.0,0.0,0.0,-18.901684,-123.52082,-56.626965,0.0,0.0,0.0,0.0,0.0,0.0,0.0,-0.24850395,0.06001879,0.96688527,-0.9204712,-0.037963867,-0.41766357,-0.099609375,-0.040039062,-0.0029296875,4.9203978,-5.144802,1.2425749,20.01752,1.017456,-0.12158203,-0.15460205,0.020507812,-0.053710938,0.08496094,4.8273053,-5.2031126,-55.751266,18.895681,-0.41296387,0.07550049,0.92614746,-0.0703125,0.23828125,0.2109375,11.756595,-12.273554,-127.41148,18.305567,0.0,0.0,0.0,0.0,0.0,0.0,0.0,-31.018698,-127.21533,11.334881,0.0,0.0,0.0,0.0,0.0,0.0,0.0,-0.5544673,44.906128,-2.9300256,
0.1367187479627319,7,-0.034118652,0.84002686,0.45196533,0.0390625,0.0625,0.06542969,0.0,0.0,0.0,0.0,0.0,0.0,0.0,0.0,0.0,0.0,0.0,0.251666,-0.059419118,-0.9661337,-0.89385986,0.14172363,0.3482666,-0.13574219,0.07910156,0.034179688,26.641178,5.210266,-1.23016,-20.001963,0.87298584,-0.20233154,-0.4446411,0.025390625,-0.00390625,0.056640625,31.105835,-16.411922,-53.154602,-29.268412,-0.7628174,0.11456299,0.6536255,0.026367188,0.0234375,0.056640625,19.945261,-6.3712425,-123.5384,-40.708523,0.0,0.0,0.0,0.0,0.0,0.0,0.0,-18.692007,-123.53932,-56.462074,0.0,0.0,0.0,0.0,0.0,0.0,0.0,-0.251666,0.059419118,0.9661337,-0.89904785,-0.08886719,-0.35321045,-0.17578125,-0.13476562,-0.001953125,4.9670806,-5.210266,1.23016,20.001963,1.0152588,-0.11956787,-0.17034912,-0.037109375,-0.052734375,0.0859375,4.8395452,-5.2131524,-55.76418,18.789955,-0.3770752,0.06201172,0.90734863,-0.015625,0.029296875,-0.015625,11.615777,-12.234407,-127.42528,18.040247,0.0,0.0,0.0,0.0,0.0,0.0,0.0,-30.974638,-127.234886,11.062801,0.0,0.0,0.0,0.0,0.0,0.0,0.0,-0.5451168,44.909218,-2.9040012,
0.1562499976716936,8,-0.05633545,0.8436279,0.45062256,0.11816406,0.080078125,0.064453125,0.0,0.0,0.0,0.0,0.0,0.0,0.0,0.0,0.0,0.0,0.0,0.2541809,-0.060039937,-0.965391,-0.90515137,0.15789795,0.37841797,-0.11621094,0.09765625,0.053710938,26.543137,5.2623334,-1.2430129,-19.986586,0.8829956,-0.20471191,-0.44769287,-0.030273438,0.015625,0.07421875,31.138832,-16.313587,-53.193253,-29.217838,-0.7474365,0.13189697,0.64367676,0.025390625,0.059570312,0.018554688,19.795885,-6.1704645,-123.57744,-40.568398,0.0,0.0,0.0,0.0,0.0,0.0,0.0,-18.487783,-123.5931,-56.32497,0.0,0.0,0.0,0.0,0.0,0.0,0.0,-0.2541809,0.060039937,0.965391,-0.87872314,-0.070251465,-0.3687744,-0.11816406,-0.0390625,-0.022460938,5.039017,-5.2623334,1.2430129,19.986586,0.96362305,-0.114868164,-0.16345215,-0.056640625,-0.052734375,0.06738281,4.7613564,-5.2616296,-55.74913,18.721283,-0.43341064,0.085876465,0.9301758,-0.016601562,0.029296875,0.00390625,11.476996,-12.184725,-127.42129,17.862333,0.0,0.0,0.0,0.0,0.0,0.0,0.0,-30.918695,-127.243126,10.866649,0.0,0.0,0.0,0.0,0.0,0.0,0.0,-0.5019901,44.906372,-2.9250035,
0.1757812473806553,9,-0.032836914,0.8152466,0.4656372,0.07714844,0.04296875,0.064453125,0.0,0.0,0.0,0.0,0.0,0.0,0.0,0.0,0.0,0.0,0.0,0.25557646,-0.06047369,-0.9650189,-0.9213867,0.14282227,0.36218262,-0.07910156,0.041015625,0.034179688,26.431395,5.2912254,-1.2519928,-19.978884,0.87268066,-0.21417236,-0.43566895,-0.087890625,0.017578125,0.053710938,31.21743,-16.290987,-53.208538,-29.14614,-0.75683594,0.117248535,0.6694336,0.026367188,0.0234375,0.037109375,19.707209,-6.0599174,-123.589676,-40.42411,0.0,0.0,0.0,0.0,0.0,0.0,0.0,-18.374058,-123.620926,-56.18337,0.0,0.0,0.0,0.0,0.0,0.0,0.0,-0.25557646,0.06047369,0.9650189,-0.9058838,-0.075805664,-0.40319824,-0.022460938,0.036132812,0.016601562,5.075743,-5.2912254,1.2519928,19.978884,0.9875488,-0.10821533,-0.1619873,-0.076171875,-0.033203125,0.10449219,4.844401,-5.17078,-55.739834,18.656189,-0.39245605,0.061340332,0.9064331,-0.016601562,0.029296875,0.00390625,11.308536,-12.063452,-127.40852,17.583414,0.0,0.0,0.0,0.0,0.0,0.0,0.0,-30.794634,-127.23269,10.582116,0.0,0.0,0.0,0.0,0.0,0.0,0.0,-0.4252494,44.90807,-2.9268239,
0.19531249708961698,10,-0.01574707,0.8267212,0.46429443,0.07714844,0.041992188,0.046875,0.0,0.0,0.0,0.0,0.0,0.0,0.0,0.0,0.0,0.0,0.0,0.2565713,-0.060488403,-0.96473473,-0.9172363,0.14483643,0.3562622,-0.059570312,0.07910156,0.0146484375,26.350199,5.311821,-1.2522974,-19.973001,0.89575195,-0.25726318,-0.43603516,-0.068359375,-0.0029296875,0.07324219,31.213886,-16.221012,-53.235836,-29.108295,-0.7509155,0.11010742,0.6783447,0.026367188,0.0234375,0.056640625,19.59814,-5.926071,-123.61629,-40.36283,0.0,0.0,0.0,0.0,0.0,0.0,0.0,-18.247889,-123.65535,-56.11473,0.0,0.0,0.0,0.0,0.0,0.0,0.0,-0.2565713,0.060488403,0.96473473,-0.9118042,-0.0635376,-0.3795166,-0.00390625,0.015625,0.037109375,5.181718,-5.311821,1.2522974,19.973001,1.0233765,-0.113708496,-0.16363525,-0.07714844,0.00390625,0.0859375,4.927003,-5.0603857,-55.737934,18.532473,-0.38537598,0.054016113,0.92315674,0.0029296875,0.028320312,0.00390625,11.181656,-11.894816,-127.40808,17.279219,0.0,0.0,0.0,0.0,0.0,0.0,0.0,-30.626362,-127.24236,10.275984,0.0,0.0,0.0,0.0,0.0,0.0,0.0,-0.41156864,44.90747,-2.9251335,
0.21484374679857868,11,-0.04071045,0.8175659,0.4788208,0.038085938,0.04296875,0.029296875,0.0,0.0,0.0,0.0,0.0,0.0,0.0,0.0,0.0,0.0,0.0,0.2588374,-0.059971854,-0.96415925,-0.9052124,0.14819336,0.3772583,-0.00390625,0.041015625,0.0146484375,26.307632,5.3587365,-1.2416034,-19.961082,0.8791504,-0.23693848,-0.43286133,-0.048828125,0.03515625,0.07324219,31.18526,-16.140205,-53.251106,-29.03138,-0.75476074,0.11730957,0.6466675,0.0068359375,0.024414062,0.055664062,19.557608,-5.8323803,-123.62247,-40.3175,0.0,0.0,0.0,0.0,0.0,0.0,0.0,-18.147999,-123.67404,-56.076538,0.0,0.0,0.0,0.0,0.0,0.0,0.0,-0.2588374,0.059971854,0.96415925,-0.9109497,-0.076660156,-0.36193848,-0.11816406,-0.0390625,0.017578125,5.272843,-5.3587365,1.2416034,19.961082,1.0013428,-0.121398926,-0.16809082,-0.095703125,-0.0146484375,0.10449219,4.9334407,-5.029471,-55.74554,18.411182,-0.41296387,0.054748535,0.89959717,0.0029296875,0.028320312,0.041015625,11.088375,-11.775478,-127.418915,16.997719,0.0,0.0,0.0,0.0,0.0,0.0,0.0,-30.499147,-127.26512,9.973635,0.0,0.0,0.0,0.0,0.0,0.0,0.0,-0.44193256,44.907936,-2.9119682,
0.23437499650754037,12,-0.01977539,0.8278198,0.4654541,0.018554688,0.043945312,0.047851562,0.0,0.0,0.0,0.0,0.0,0.0,0.0,0.0,0.0,0.0,0.0,0.2604971,-0.05982314,-0.9637629,-0.90075684,0.17285156,0.3527832,-0.022460938,0.022460938,0.033203125,26.342773,5.393098,-1.2385246,-19.952879,0.8586426,-0.24395752,-0.43963623,-0.03125,0.016601562,0.0546875,31.275354,-16.117092,-53.24651,-29.010063,-0.75878906,0.11743164,0.64868164,-0.01171875,0.024414062,0.037109375,19.419025,-5.7120514,-123.60524,-40.281334,0.0,0.0,0.0,0.0,0.0,0.0,0.0,-18.019264,-123.66914,-56.04535,0.0,0.0,0.0,0.0,0.0,0.0,0.0,-0.2604971,0.05982314,0.9637629,-0.9100952,-0.08746338,-0.3630371,-0.061523438,-0.001953125,0.038085938,5.3171396,-5.393098,1.2385246,19.952879,1.0062866,-0.12542725,-0.16815186,-0.115234375,0.00390625,0.12402344,4.907281,-5.019944,-55.744087,18.361593,-0.39642334,0.07354736,0.88671875,-0.016601562,0.009765625,0.00390625,11.060016,-11.68554,-127.421814,16.801582,0.0,0.0,0.0,0.0,0.0,0.0,0.0,-30.413063,-127.272224,9.789642,0.0,0.0,0.0,0.0,0.0,0.0,0.0,-0.46926385,44.9093,-2.9144695,
0.2539062462165021,13,-0.024841309,0.8140259,0.4584961,0.038085938,0.04296875,0.047851562,0.0,0.0,0.0,0.0,0.0,0.0,0.0,0.0,0.0,0.0,0.0,0.26402444,-0.05905937,-0.9628927,-0.8948364,0.15814209,0.35650635,-0.060546875,0.059570312,0.034179688,26.348667,5.466123,-1.222712,-19.934864,0.8688965,-0.24243164,-0.4267578,-0.048828125,0.07324219,0.07324219,31.30423,-16.043333,-53.23593,-28.970198,-0.75177,0.11621094,0.64868164,0.044921875,0.022460938,0.038085938,19.340261,-5.59906,-123.58787,-40.275974,0.0,0.0,0.0,0.0,0.0,0.0,0.0,-17.91187,-123.65941,-56.036156,0.0,0.0,0.0,0.0,0.0,0.0,0.0,-0.26402444,0.05905937,0.9628927,-0.9401245,-0.08166504,-0.37768555,0.03515625,0.034179688,0.016601562,5.333698,-5.466123,1.222712,19.934864,1.0152588,-0.12554932,-0.16638184,-0.07714844,0.022460938,0.10449219,4.970511,-5.0170264,-55.757904,18.296476,-0.40161133,0.0892334,0.92907715,0.021484375,0.02734375,0.041015625,11.033031,-11.674149,-127.44098,16.574219,0.0,0.0,0.0,0.0,0.0,0.0,0.0,-30.4079,-127.295616,9.57465,0.0,0.0,0.0,0.0,0.0,0.0,0.0,-0.49917585,44.912327,-2.8915873,
0.2734374959254638,14,-0.031311035,0.8239746,0.43286133,0.018554688,0.043945312,0.047851562,0.0,0.0,0.0,0.0,0.0,0.0,0.0,0.0,0.0,0.0,0.0,0.26654425,-0.059068844,-0.96217906,-0.92248535,0.16174316,0.39538574,-0.060546875,0.021484375,0.033203125,26.38178,5.5182934,-1.2229081,-19.92009,0.8811035,-0.23999023,-0.43084717,-0.01171875,0.03515625,0.055664062,31.365065,-16.005804,-53.23073,-28.936535,-0.7457886,0.11395264,0.6664429,0.026367188,0.0234375,0.037109375,19.26094,-5.506548,-123.56895,-40.25759,0.0,0.0,0.0,0.0,0.0,0.0,0.0,-17.81873,-123.64819,-56.01658,0.0,0.0,0.0,0.0,0.0,0.0,0.0,-0.26654425,0.059068844,0.96217906,-0.923645,-0.047912598,-0.3685913,0.034179688,0.0146484375,0.037109375,5.368596,-5.5182934,1.2229081,19.92009,0.9937744,-0.105285645,-0.14929199,-0.07714844,-0.0146484375,0.06738281,4.948864,-5.033072,-55.75788,18.25857,-0.39056396,0.04119873,0.9182129,0.0029296875,0.028320312,0.00390625,11.03849,-11.618593,-127.4413,16.483463,0.0,0.0,0.0,0.0,0.0,0.0,0.0,-30.353918,-127.30304,9.487677,0.0,0.0,0.0,0.0,0.0,0.0,0.0,-0.5192252,44.910694,-2.9009352,
0.2929687456344255,15,-0.041870117,0.80859375,0.4668579,0.017578125,0.005859375,0.06542969,0.0,0.0,0.0,0.0,0.0,0.0,0.0,0.0,0.0,0.0,0.0,0.26841536,-0.058486428,-0.9616513,-0.8967285,0.17749023,0.3618164,-0.022460938,-0.015625,0.0146484375,26.45099,5.55703,-1.2108504,-19.909163,0.8720093,-0.23461914,-0.45568848,-0.0107421875,0.053710938,0.07421875,31.511692,-16.017166,-53.200737,-28.927147,-0.74261475,0.117004395,0.62890625,0.026367188,0.0048828125,0.01953125,19.168608,-5.4027357,-123.519844,-40.23488,0.0,0.0,0.0,0.0,0.0,0.0,0.0,-17.697584,-123.60291,-56.008118,0.0,0.0,0.0,0.0,0.0,0.0,0.0,-0.26841536,0.058486428,0.9616513,-0.9144287,-0.0368042,-0.38916016,-0.041992188,-0.0029296875,0.017578125,5.445033,-5.55703,1.2108504,19.909163,1.0031738,-0.113464355,-0.18200684,-0.057617188,0.021484375,0.06640625,4.9852695,-5.017648,-55.765717,18.149956,-0.39050293,0.05810547,0.9260864,0.0029296875,0.028320312,0.00390625,10.973592,-11.585543,-127.45081,16.165146,0.0,0.0,0.0,0.0,0.0,0.0,0.0,-30.317822,-127.32017,9.165079,0.0,0.0,0.0,0.0,0.0,0.0,0.0,-0.54776794,44.90956,-2.8842359,
0.3124999953433872,16,-0.028808594,0.8171387,0.46655273,0.018554688,0.044921875,0.083984375,0.0,0.0,0.0,0.0,0.0,0.0,0.0,0.0,0.0,0.0,0.0,0.27127445,-0.05984232,-0.96072215,-0.9006958,0.15093994,0.3255005,-0.041015625,0.041015625,0.052734375,26.47143,5.6162224,-1.2389215,-19.889929,0.8722534,-0.2288208,-0.4317627,-0.049804688,0.03515625,0.0546875,31.538368,-15.914196,-53.239693,-28.940845,-0.74334717,0.13574219,0.6376953,0.026367188,0.0234375,0.037109375,18.96726,-5.2098856,-123.54852,-40.22255,0.0,0.0,0.0,0.0,0.0,0.0,0.0,-17.520649,-123.62964,-55.984463,0.0,0.0,0.0,0.0,0.0,0.0,0.0,-0.27127445,0.05984232,0.96072215,-0.9645996,-0.03186035,-0.35272217,-0.041992188,-0.0029296875,0.017578125,5.601297,-5.6162224,1.2389215,19.889929,1.0108643,-0.13952637,-0.18695068,-0.07714844,0.022460938,0.06640625,4.9799223,-5.0755167,-55.73328,18.061634,-0.40893555,0.059509277,0.9222412,-0.016601562,0.029296875,0.00390625,10.977018,-11.637483,-127.40575,15.905198,0.0,0.0,0.0,0.0,0.0,0.0,0.0,-30.365185,-127.28534,8.890097,0.0,0.0,0.0,0.0,0.0,0.0,0.0,-0.5494207,44.903267,-2.9521117,
0.3320312450523489,17,-0.05029297,0.81658936,0.4432373,0.057617188,0.024414062,0.06542969,0.0,0.0,0.0,0.0,0.0,0.0,0.0,0.0,0.0,0.0,0.0,0.2736674,-0.06063009,-0.96008086,-0.914978,0.17114258,0.35076904,-0.07910156,0.059570312,0.034179688,26.370142,5.665763,-1.2552309,-19.87665,0.87945557,-0.2593994,-0.4588623,-0.049804688,0.0546875,0.053710938,31.505976,-15.778228,-53.293865,-28.907871,-0.7472534,0.14465332,0.647583,0.026367188,0.0234375,0.018554688,18.834486,-4.9971876,-123.59169,-40.197487,0.0,0.0,0.0,0.0,0.0,0.0,0.0,-17.302395,-123.674805,-55.963318,0.0,0.0,0.0,0.0,0.0,0.0,0.0,-0.2736674,0.06063009,0.96008086,-0.93878174,-0.053771973,-0.35687256,-0.041992188,0.016601562,0.017578125,5.694469,-5.665763,1.2552309,19.87665,0.9876709,-0.107177734,-0.15704346,-0.07714844,0.022460938,0.10449219,4.994575,-5.095942,-55.717358,17.995659,-0.41400146,0.07556152,0.92419434,0.0029296875,0.047851562,0.00390625,10.8944435,-11.642141,-127.39296,15.690899,0.0,0.0,0.0,0.0,0.0,0.0,0.0,-30.368734,-127.27685,8.674812,0.0,0.0,0.0,0.0,0.0,0.0,0.0,-0.523491,44.905163,-2.9850266,
0.3515624947613106,18,-0.028381348,0.8407593,0.42791748,0.037109375,0.024414062,0.046875,0.0,0.0,0.0,0.0,0.0,0.0,0.0,0.0,0.0,0.0,0.0,0.27453572,-0.061164305,-0.9597299,-0.92822266,0.17407227,0.36273193,-0.00390625,0.041015625,0.034179688,26.277626,5.68374,-1.2662905,-19.869383,0.8743286,-0.26123047,-0.44885254,-0.0126953125,0.015625,0.055664062,31.514448,-15.736738,-53.316288,-28.915503,-0.7505493,0.12896729,0.64764404,0.026367188,0.0234375,0.018554688,18.780144,-4.9108505,-123.608185,-40.22785,0.0,0.0,0.0,0.0,0.0,0.0,0.0,-17.207994,-123.695076,-56.00018,0.0,0.0,0.0,0.0,0.0,0.0,0.0,-0.27453572,0.061164305,0.9597299,-0.9347534,-0.05291748,-0.35583496,-0.022460938,0.036132812,0.057617188,5.7450128,-5.68374,1.2662905,19.869383,1.0271606,-0.12774658,-0.16955566,-0.018554688,-0.015625,0.10449219,4.993398,-5.096403,-55.706078,17.944813,-0.3965454,0.057434082,0.90545654,-0.016601562,-0.009765625,0.022460938,10.82911,-11.62033,-127.38047,15.491585,0.0,0.0,0.0,0.0,0.0,0.0,0.0,-30.347542,-127.26186,8.47872,0.0,0.0,0.0,0.0,0.0,0.0,0.0,-0.45113415,44.90258,-2.9907243,
0.37109374447027227,19,-0.010070801,0.85028076,0.44244385,-0.020507812,0.044921875,0.048828125,0.0,0.0,0.0,0.0,0.0,0.0,0.0,0.0,0.0,0.0,0.0,0.27579856,-0.061276022,-0.959333,-0.9038696,0.1765747,0.36480713,-0.060546875,0.059570312,0.034179688,26.28942,5.7098837,-1.2686037,-19.861168,0.86413574,-0.22949219,-0.4296875,-0.06933594,0.016601562,0.053710938,31.546434,-15.707404,-53.319237,-28.910643,-0.7404785,0.12768555,0.6516113,0.0068359375,0.005859375,0.018554688,18.713762,-4.837719,-123.606415,-40.215393,0.0,0.0,0.0,0.0,0.0,0.0,0.0,-17.123959,-123.70425,-55.996502,0.0,0.0,0.0,0.0,0.0,0.0,0.0,-0.27579856,0.061276022,0.959333,-0.92022705,-0.09289551,-0.37286377,-0.041992188,-0.041015625,0.016601562,5.7527514,-5.7098837,1.2686037,19.861168,1.0269165,-0.11376953,-0.19036865,-0.076171875,-0.033203125,0.10449219,5.0335712,-5.053695,-55.703827,17.940712,-0.41296387,0.053833008,0.8946533,0.001953125,-0.009765625,0.041015625,10.799351,-11.540865,-127.381096,15.3846445,0.0,0.0,0.0,0.0,0.0,0.0,0.0,-30.261324,-127.270164,8.351942,0.0,0.0,0.0,0.0,0.0,0.0,0.0,-0.457752,44.90073,-2.999569,
0.39062499417923396,20,-0.019958496,0.8198242,0.45043945,-0.020507812,0.044921875,0.048828125,0.0,0.0,0.0,0.0,0.0,0.0,0.0,0.0,0.0,0.0,0.0,0.27927727,-0.061330546,-0.9583631,-0.90478516,0.1796875,0.35388184,-0.060546875,0.059570312,0.052734375,26.294283,5.7819057,-1.2697325,-19.841087,0.8755493,-0.25439453,-0.4487915,-0.01171875,0.03515625,0.055664062,31.541298,-15.615732,-53.328285,-28.891403,-0.74243164,0.1326294,0.6555176,-0.01171875,-0.01171875,0.037109375,18.64741,-4.7267256,-123.60208,-40.215065,0.0,0.0,0.0,0.0,0.0,0.0,0.0,-17.01236,-123.70444,-55.99623,0.0,0.0,0.0,0.0,0.0,0.0,0.0,-0.27927727,0.061330546,0.9583631,-0.9057617,-0.06359863,-0.3805542,-0.060546875,-0.001953125,-0.0029296875,5.836167,-5.7819057,1.2697325,19.841087,1.0152588,-0.13256836,-0.16339111,-0.09667969,0.041015625,0.0859375,5.0627956,-5.075443,-55.697075,17.852703,-0.40881348,0.06665039,0.90545654,-0.016601562,-0.009765625,0.022460938,10.7789545,-11.5358515,-127.37255,15.235755,0.0,0.0,0.0,0.0,0.0,0.0,0.0,-30.26081,-127.2589,8.216738,0.0,0.0,0.0,0.0,0.0,0.0,0.0,-0.47220302,44.90156,-3.0110848,
0.41015624388819566,21,-0.04058838,0.8240967,0.41815186,0.0390625,0.0625,0.047851562,0.0,0.0,0.0,0.0,0.0,0.0,0.0,0.0,0.0,0.0,0.0,0.281076,-0.060950283,-0.95786,-0.9069824,0.16308594,0.36254883,-0.041015625,0.041015625,0.052734375,26.330078,5.819145,-1.2618598,-19.83067,0.87054443,-0.25427246,-0.4328003,-0.0107421875,0.091796875,0.0546875,31.557308,-15.59164,-53.306023,-28.895632,-0.7406006,0.11981201,0.64367676,0.0078125,-0.01171875,0.038085938,18.624538,-4.703125,-123.57348,-40.25994,0.0,0.0,0.0,0.0,0.0,0.0,0.0,-16.990936,-123.679306,-56.040142,0.0,0.0,0.0,0.0,0.0,0.0,0.0,-0.281076,0.060950283,0.95786,-0.916687,-0.05279541,-0.33325195,-0.00390625,0.03515625,0.016601562,5.863241,-5.819145,1.2618598,19.83067,1.0064087,-0.09552002,-0.17529297,-0.057617188,0.0029296875,0.0859375,5.0986204,-5.078374,-55.702248,17.802656,-0.40270996,0.055541992,0.9005127,-0.016601562,0.009765625,0.00390625,10.778242,-11.5383835,-127.36518,15.048672,0.0,0.0,0.0,0.0,0.0,0.0,0.0,-30.26187,-127.253815,8.021617,0.0,0.0,0.0,0.0,0.0,0.0,0.0,-0.48948187,44.902,-3.000826,
0.42968749359715736,22,-0.05444336,0.84051514,0.44055176,-0.020507812,0.044921875,0.048828125,0.0,0.0,0.0,0.0,0.0,0.0,0.0,0.0,0.0,0.0,0.0,0.28144974,-0.06031275,-0.95779467,-0.90911865,0.16479492,0.37750244,-0.022460938,0.0029296875,0.052734375,26.355099,5.8268814,-1.2486609,-19.829317,0.878479,-0.26245117,-0.42492676,0.0068359375,0.03515625,0.055664062,31.628761,-15.645521,-53.274677,-28.86113,-0.7515869,0.12609863,0.6427002,0.0068359375,0.005859375,0.037109375,18.673698,-4.7486553,-123.53717,-40.266808,0.0,0.0,0.0,0.0,0.0,0.0,0.0,-17.020687,-123.64211,-56.059624,0.0,0.0,0.0,0.0,0.0,0.0,0.0,-0.28144974,0.06031275,0.95779467,-0.91864014,-0.053100586,-0.3607788,0.015625,0.015625,0.037109375,5.8863635,-5.8268814,1.2486609,19.829317,1.0180664,-0.118652344,-0.18231201,-0.057617188,0.021484375,0.10449219,5.105303,-5.0706143,-55.716145,17.742085,-0.41497803,0.07165527,0.91534424,-0.017578125,-0.009765625,0.041015625,10.768121,-11.518944,-127.38068,14.87401,0.0,0.0,0.0,0.0,0.0,0.0,0.0,-30.243734,-127.27127,7.8467245,0.0,0.0,0.0,0.0,0.0,0.0,0.0,-0.4919718,44.904057,-2.972195,
0.44921874330611905,23,-0.050231934,0.8444824,0.45544434,-0.040039062,0.045898438,0.06738281,0.0,0.0,0.0,0.0,0.0,0.0,0.0,0.0,0.0,0.0,0.0,0.2819906,-0.06066124,-0.957621,-0.9118042,0.18475342,0.35095215,-0.041992188,-0.036132812,0.07128906,26.389595,5.8380795,-1.2558758,-19.825724,0.8735962,-0.25335693,-0.43780518,0.005859375,0.03515625,0.017578125,31.665777,-15.658648,-53.26338,-28.89991,-0.7632446,0.14807129,0.654541,-0.01171875,-0.01171875,0.037109375,18.601759,-4.7504864,-123.51976,-40.31492,0.0,0.0,0.0,0.0,0.0,0.0,0.0,-17.022247,-123.62385,-56.108067,0.0,0.0,0.0,0.0,0.0,0.0,0.0,-0.2819906,0.06066124,0.957621,-0.9219971,-0.07531738,-0.37078857,-0.060546875,-0.001953125,-0.0029296875,5.9664726,-5.8380795,1.2558758,19.825724,1.0070801,-0.14538574,-0.17004395,-0.057617188,0.040039062,0.06640625,5.0998883,-5.0560236,-55.70605,17.67519,-0.40081787,0.04534912,0.9232178,0.001953125,0.009765625,0.022460938,10.786439,-11.4634075,-127.367645,14.680308,0.0,0.0,0.0,0.0,0.0,0.0,0.0,-30.186438,-127.2658,7.6463213,0.0,0.0,0.0,0.0,0.0,0.0,0.0,-0.47421396,44.903778,-2.984106,
0.46874999301508075,24,-0.011962891,0.80859375,0.4411621,0.057617188,0.024414062,0.08300781,0.0,0.0,0.0,0.0,0.0,0.0,0.0,0.0,0.0,0.0,0.0,0.28464487,-0.061387118,-0.95678574,-0.90686035,0.16619873,0.3496704,-0.07910156,0.041015625,0.052734375,26.44224,5.893032,-1.2709036,-19.808432,0.88897705,-0.24517822,-0.44592285,0.005859375,0.03515625,0.017578125,31.711155,-15.613794,-53.27254,-28.89195,-0.7473755,0.13867188,0.6654053,0.0078125,-0.01171875,0.038085938,18.499449,-4.6622524,-123.529785,-40.30632,0.0,0.0,0.0,0.0,0.0,0.0,0.0,-16.942991,-123.63618,-56.09081,0.0,0.0,0.0,0.0,0.0,0.0,0.0,-0.28464487,0.061387118,0.95678574,-0.89642334,-0.044555664,-0.36663818,-0.041992188,0.017578125,-0.0029296875,6.0593867,-5.893032,1.2709036,19.808432,1.0108643,-0.11755371,-0.19598389,0.0,0.057617188,0.083984375,5.0921993,-5.0917587,-55.68861,17.617744,-0.3883667,0.07006836,0.92211914,-0.017578125,-0.046875,0.00390625,10.698384,-11.463799,-127.35239,14.527189,0.0,0.0,0.0,0.0,0.0,0.0,0.0,-30.185844,-127.25813,7.499155,0.0,0.0,0.0,0.0,0.0,0.0,0.0,-0.48506975,44.900772,-3.0251303,
0.48828124272404244,25,-0.031188965,0.8389282,0.4449463,0.018554688,0.043945312,0.06640625,0.0,0.0,0.0,0.0,0.0,0.0,0.0,0.0,0.0,0.0,0.0,0.28660908,-0.06264112,-0.9561153,-0.9090576,0.17834473,0.38275146,-0.060546875,0.059570312,0.034179688,26.495905,5.933697,-1.2968655,-19.794552,0.88378906,-0.24884033,-0.44885254,-0.0107421875,0.111328125,0.0546875,31.73181,-15.606358,-53.293587,-28.847237,-0.7474365,0.13372803,0.65948486,0.0068359375,0.005859375,0.018554688,18.493895,-4.6722584,-123.55017,-40.25952,0.0,0.0,0.0,0.0,0.0,0.0,0.0,-16.954868,-123.66224,-56.04401,0.0,0.0,0.0,0.0,0.0,0.0,0.0,-0.28660908,0.06264112,0.9561153,-0.91656494,-0.044128418,-0.3685913,-0.041992188,-0.0029296875,0.017578125,6.19508,-5.933697,1.2968655,19.794552,0.99328613,-0.123291016,-0.17089844,-0.057617188,0.05859375,0.06640625,5.069216,-5.1153345,-55.66118,17.548016,-0.39233398,0.07336426,0.9005127,-0.016601562,0.009765625,0.00390625,10.645013,-11.437307,-127.31803,14.413,0.0,0.0,0.0,0.0,0.0,0.0,0.0,-30.157988,-127.22496,7.382168,0.0,0.0,0.0,0.0,0.0,0.0,0.0,-0.48594505,44.896435,-3.0871162,
0.5078124924330042,26,-0.019897461,0.8128662,0.45239258,-0.040039062,0.045898438,0.06738281,0.0,0.0,0.0,0.0,0.0,0.0,0.0,0.0,0.0,0.0,0.0,0.28812477,-0.06263232,-0.95563036,-0.8907471,0.17633057,0.36975098,-0.060546875,0.021484375,0.052734375,26.516687,5.965076,-1.2966833,-19.784512,0.8903198,-0.23651123,-0.41796875,-0.0126953125,0.0546875,0.036132812,31.777449,-15.614777,-53.27873,-28.821945,-0.74645996,0.1317749,0.65356445,-0.01171875,0.005859375,0.018554688,18.469547,-4.6775646,-123.534164,-40.240868,0.0,0.0,0.0,0.0,0.0,0.0,0.0,-16.95549,-123.64466,-56.027016,0.0,0.0,0.0,0.0,0.0,0.0,0.0,-0.28812477,0.06263232,0.95563036,-0.91571045,-0.057373047,-0.3470459,-0.00390625,0.0546875,0.037109375,6.218233,-5.965076,1.2966833,19.784512,1.0026855,-0.15734863,-0.1906128,-0.115234375,0.041015625,0.10449219,5.103806,-5.1396437,-55.65806,17.514997,-0.40057373,0.06951904,0.89953613,0.001953125,0.009765625,0.022460938,10.730419,-11.494116,-127.32009,14.282584,0.0,0.0,0.0,0.0,0.0,0.0,0.0,-30.216703,-127.22886,7.2542205,0.0,0.0,0.0,0.0,0.0,0.0,0.0,-0.4778402,44.89527,-3.0865204,
0.5273437421419659,27,-0.033813477,0.8043823,0.46362305,-0.040039062,0.064453125,0.06738281,0.0,0.0,0.0,0.0,0.0,0.0,0.0,0.0,0.0,0.0,0.0,0.2917504,-0.06264308,-0.95457387,-0.91412354,0.17077637,0.37164307,-0.041015625,0.059570312,0.052734375,26.547592,6.040137,-1.296906,-19.762638,0.86779785,-0.24334717,-0.4397583,-0.01171875,0.053710938,0.0546875,31.800104,-15.545551,-53.277107,-28.80982,-0.73431396,0.13739014,0.64660645,0.0068359375,-0.0126953125,0.0,18.44056,-4.587798,-123.534256,-40.19812,0.0,0.0,0.0,0.0,0.0,0.0,0.0,-16.859226,-123.64384,-55.98913,0.0,0.0,0.0,0.0,0.0,0.0,0.0,-0.2917504,0.06264308,0.95457387,-0.9066162,-0.05432129,-0.35980225,-0.00390625,0.015625,0.037109375,6.2620625,-6.040137,1.296906,19.762638,0.99328613,-0.12030029,-0.17486572,-0.07714844,0.059570312,0.06640625,5.055825,-5.2268353,-55.65921,17.460783,-0.40966797,0.109375,0.92907715,0.001953125,-0.009765625,0.00390625,10.646418,-11.536364,-127.31879,14.197048,0.0,0.0,0.0,0.0,0.0,0.0,0.0,-30.26183,-127.22449,7.1797314,0.0,0.0,0.0,0.0,0.0,0.0,0.0,-0.4912067,44.896374,-3.0964153,
0.5468749918509276,28,-0.03326416,0.8330078,0.43695068,0.0,0.064453125,0.08496094,0.0,0.0,0.0,0.0,0.0,0.0,0.0,0.0,0.0,0.0,0.0,0.2939467,-0.062888384,-0.95382905,-0.9008179,0.17279053,0.35876465,-0.060546875,0.022460938,0.0146484375,26.58951,6.0856075,-1.3019845,-19.74722,0.888855,-0.2510376,-0.4399414,-0.068359375,0.0546875,0.053710938,31.845263,-15.51619,-53.276295,-28.778038,-0.7341919,0.14233398,0.63964844,-0.01171875,-0.01171875,0.0,18.398148,-4.525139,-123.531876,-40.141502,0.0,0.0,0.0,0.0,0.0,0.0,0.0,-16.796059,-123.63658,-55.934418,0.0,0.0,0.0,0.0,0.0,0.0,0.0,-0.2939467,0.062888384,0.95382905,-0.92974854,-0.053222656,-0.3470459,-0.11816406,0.0,0.017578125,6.2969074,-6.0856075,1.3019845,19.74722,0.97766113,-0.117004395,-0.15386963,-0.057617188,0.0029296875,0.10449219,5.0277686,-5.279388,-55.654274,17.436417,-0.3965454,0.06738281,0.9093628,0.001953125,-0.028320312,0.00390625,10.611258,-11.560015,-127.31435,14.10816,0.0,0.0,0.0,0.0,0.0,0.0,0.0,-30.287683,-127.22261,7.09565,0.0,0.0,0.0,0.0,0.0,0.0,0.0,-0.51051176,44.892376,-3.1171958,
0.5664062415598893,29,-0.044433594,0.8392334,0.43432617,-0.020507812,0.045898438,0.103515625,0.0,0.0,0.0,0.0,0.0,0.0,0.0,0.0,0.0,0.0,0.0,0.29575586,-0.063528694,-0.9532673,-0.9008789,0.16497803,0.35760498,-0.041015625,0.041015625,0.052734375,26.610249,6.123063,-1.3152409,-19.735588,0.86608887,-0.270813,-0.41888428,-0.0126953125,0.0546875,0.036132812,31.834963,-15.474183,-53.289986,-28.781033,-0.74957275,0.12701416,0.6446533,-0.01171875,-0.01171875,0.037109375,18.397032,-4.4889946,-123.53888,-40.190407,0.0,0.0,0.0,0.0,0.0,0.0,0.0,-16.746582,-123.64712,-55.992767,0.0,0.0,0.0,0.0,0.0,0.0,0.0,-0.29575586,0.063528694,0.9532673,-0.9036865,-0.057922363,-0.3352661,-0.060546875,0.037109375,0.017578125,6.3723063,-6.123063,1.3152409,19.735588,0.99957275,-0.1293335,-0.1482544,-0.057617188,0.05859375,0.103515625,5.0688677,-5.2948046,-55.637375,17.391222,-0.43450928,0.067993164,0.9213257,-0.016601562,0.009765625,0.00390625,10.611015,-11.595395,-127.2891,13.961138,0.0,0.0,0.0,0.0,0.0,0.0,0.0,-30.32418,-127.197464,6.951296,0.0,0.0,0.0,0.0,0.0,0.0,0.0,-0.50807315,44.89188,-3.1493666,
0.585937491268851,30,-0.030090332,0.81604004,0.4437256,-0.021484375,0.026367188,0.06738281,0.0,0.0,0.0,0.0,0.0,0.0,0.0,0.0,0.0,0.0,0.0,0.29747447,-0.06348633,-0.95275533,-0.89886475,0.17254639,0.37072754,-0.07910156,0.041015625,0.052734375,26.655273,6.1586437,-1.3143638,-19.724989,0.8831177,-0.27435303,-0.44299316,0.043945312,0.03515625,0.018554688,31.843565,-15.457827,-53.28167,-28.772629,-0.7362671,0.14038086,0.6436157,-0.01171875,-0.047851562,0.01953125,18.394403,-4.4873962,-123.52006,-40.23407,0.0,0.0,0.0,0.0,0.0,0.0,0.0,-16.743816,-123.62149,-56.03707,0.0,0.0,0.0,0.0,0.0,0.0,0.0,-0.29747447,0.06348633,0.95275533,-0.90252686,-0.046691895,-0.3548584,-0.041992188,0.036132812,0.017578125,6.428217,-6.1586437,1.3143638,19.724989,1.0073242,-0.12145996,-0.1652832,-0.057617188,0.05859375,0.08496094,5.0704136,-5.309661,-55.635136,17.333399,-0.38928223,0.07434082,0.8965454,0.001953125,-0.009765625,0.022460938,10.622193,-11.586064,-127.289795,13.838582,0.0,0.0,0.0,0.0,0.0,0.0,0.0,-30.312119,-127.19613,6.82145,0.0,0.0,0.0,0.0,0.0,0.0,0.0,-0.5276269,44.892048,-3.1560953,
0.6054687409778127,31,-0.034057617,0.83709717,0.45593262,-0.021484375,0.026367188,0.06738281,0.0,0.0,0.0,0.0,0.0,0.0,0.0,0.0,0.0,0.0,0.0,0.29982007,-0.06398512,-0.9519837,-0.89508057,0.14520264,0.37322998,-0.060546875,0.040039062,0.072265625,26.734478,6.2072053,-1.3246901,-19.709015,0.87524414,-0.230896,-0.43676758,0.005859375,0.0546875,0.017578125,31.90766,-15.4573555,-53.271572,-28.748354,-0.7474365,0.13378906,0.6555176,-0.01171875,0.005859375,0.018554688,18.428139,-4.4725075,-123.514145,-40.198357,0.0,0.0,0.0,0.0,0.0,0.0,0.0,-16.718712,-123.612686,-56.010036,0.0,0.0,0.0,0.0,0.0,0.0,0.0,-0.29982007,0.06398512,0.9519837,-0.9529419,-0.0602417,-0.36279297,-0.041992188,0.016601562,0.017578125,6.495009,-6.2072053,1.3246901,19.709015,0.99542236,-0.12927246,-0.15808105,-0.038085938,0.05859375,0.08496094,5.037734,-5.3754826,-55.624363,17.290693,-0.40270996,0.07336426,0.92315674,-0.016601562,-0.0087890625,0.00390625,10.592714,-11.633545,-127.27583,13.781156,0.0,0.0,0.0,0.0,0.0,0.0,0.0,-30.362259,-127.18971,6.7677717,0.0,0.0,0.0,0.0,0.0,0.0,0.0,-0.54279757,44.88949,-3.1880803,
0.6249999906867744,32,-0.036193848,0.8161621,0.43988037,-0.020507812,0.044921875,0.06738281,0.0,0.0,0.0,0.0,0.0,0.0,0.0,0.0,0.0,0.0,0.0,0.29990366,-0.063212454,-0.95196414,-0.8999634,0.16473389,0.37158203,-0.060546875,0.0029296875,0.052734375,26.708685,6.208935,-1.3086939,-19.708609,0.8734741,-0.22302246,-0.4267578,-0.0126953125,0.036132812,0.017578125,31.960331,-15.478085,-53.24825,-28.73313,-0.7284546,0.12921143,0.65948486,-0.01171875,0.005859375,0.018554688,18.29229,-4.4589996,-123.488205,-40.149864,0.0,0.0,0.0,0.0,0.0,0.0,0.0,-16.727207,-123.58773,-55.944412,0.0,0.0,0.0,0.0,0.0,0.0,0.0,-0.29990366,0.063212454,0.95196414,-0.94525146,-0.0859375,-0.35705566,-0.080078125,-9.765625E-4,0.017578125,6.415087,-6.208935,1.3086939,19.708609,1.0111694,-0.14349365,-0.16320801,-0.07714844,0.059570312,0.08496094,5.0741606,-5.377811,-55.640194,17.31918,-0.40490723,0.058288574,0.93499756,0.0029296875,0.009765625,0.00390625,10.620934,-11.675238,-127.284805,13.747197,0.0,0.0,0.0,0.0,0.0,0.0,0.0,-30.401995,-127.2,6.7283196,0.0,0.0,0.0,0.0,0.0,0.0,0.0,-0.53002775,44.89056,-3.1478071,
0.6445312403957361,33,-0.04144287,0.8371582,0.43023682,-0.001953125,0.025390625,0.06640625,0.0,0.0,0.0,0.0,0.0,0.0,0.0,0.0,0.0,0.0,0.0,0.3016119,-0.06347792,-0.9514492,-0.8928833,0.15789795,0.36846924,-0.060546875,0.021484375,0.033203125,26.701715,6.2443013,-1.3141898,-19.697948,0.8765259,-0.25646973,-0.4378662,-0.0126953125,0.036132812,0.017578125,32.00198,-15.472017,-53.245396,-28.700924,-0.74346924,0.1326294,0.6604614,-0.030273438,0.0068359375,0.055664062,18.32697,-4.439848,-123.48657,-40.115925,0.0,0.0,0.0,0.0,0.0,0.0,0.0,-16.69097,-123.59072,-55.924377,0.0,0.0,0.0,0.0,0.0,0.0,0.0,-0.3016119,0.06347792,0.9514492,-0.9126587,-0.055725098,-0.37652588,-0.022460938,0.055664062,0.016601562,6.4404984,-6.2443013,1.3141898,19.697948,1.0209961,-0.14361572,-0.17034912,-0.057617188,0.07714844,0.103515625,5.1098676,-5.3841968,-55.632523,17.2943,-0.3894043,0.05230713,0.89953613,0.0029296875,0.009765625,0.00390625,10.702853,-11.687811,-127.27641,13.674835,0.0,0.0,0.0,0.0,0.0,0.0,0.0,-30.408506,-127.19969,6.646066,0.0,0.0,0.0,0.0,0.0,0.0,0.0,-0.50497067,44.892162,-3.1551514,
0.6640624901046978,34,-0.025146484,0.84973145,0.44586182,0.017578125,0.024414062,0.047851562,0.0,0.0,0.0,0.0,0.0,0.0,0.0,0.0,0.0,0.0,0.0,0.3016151,-0.06432143,-0.951377,-0.9152832,0.1638794,0.3795166,-0.041015625,0.021484375,0.052734375,26.709816,6.2443686,-1.3316528,-19.696453,0.880188,-0.27130127,-0.44293213,-0.0126953125,0.0546875,0.036132812,32.021435,-15.510285,-53.252777,-28.670572,-0.76342773,0.13720703,0.65356445,-0.01171875,-0.01171875,0.018554688,18.374685,-4.5039215,-123.49383,-40.120857,0.0,0.0,0.0,0.0,0.0,0.0,0.0,-16.751328,-123.59612,-55.931267,0.0,0.0,0.0,0.0,0.0,0.0,0.0,-0.3016151,0.06432143,0.951377,-0.9364624,-0.030273438,-0.35864258,0.03515625,0.053710938,0.016601562,6.5298476,-6.2443686,1.3316528,19.696453,0.9932251,-0.13226318,-0.16986084,0.01953125,0.057617188,0.045898438,5.070182,-5.382941,-55.61324,17.244387,-0.40478516,0.055541992,0.9104004,-0.016601562,-0.0087890625,0.00390625,10.613723,-11.641264,-127.26666,13.638685,0.0,0.0,0.0,0.0,0.0,0.0,0.0,-30.369432,-127.18269,6.624816,0.0,0.0,0.0,0.0,0.0,0.0,0.0,-0.476178,44.88968,-3.185898,
0.6835937398136595,35,-0.04248047,0.8262329,0.4262085,-0.021484375,0.026367188,0.06738281,0.0,0.0,0.0,0.0,0.0,0.0,0.0,0.0,0.0,0.0,0.0,0.30176607,-0.063931316,-0.9514107,-0.8970337,0.15301514,0.3723755,-0.041015625,0.0029296875,0.033203125,26.71872,6.2474937,-1.3235765,-19.697153,0.8997803,-0.2593994,-0.42913818,0.0068359375,0.053710938,0.055664062,32.033405,-15.530071,-53.23187,-28.686653,-0.74523926,0.14263916,0.64068604,0.0068359375,-0.0126953125,0.018554688,18.376507,-4.5413475,-123.4702,-40.135548,0.0,0.0,0.0,0.0,0.0,0.0,0.0,-16.785378,-123.56526,-55.948185,0.0,0.0,0.0,0.0,0.0,0.0,0.0,-0.30176607,0.063931316,0.9514107,-0.93078613,-0.0579834,-0.35101318,-0.080078125,-9.765625E-4,0.017578125,6.53702,-6.2474937,1.3235765,19.697153,1.0151367,-0.11260986,-0.17932129,-0.11621094,0.078125,0.08496094,5.0815687,-5.3605266,-55.622963,17.212942,-0.3977661,0.04724121,0.9241333,0.0029296875,0.009765625,-0.015625,10.524502,-11.600609,-127.27114,13.566259,0.0,0.0,0.0,0.0,0.0,0.0,0.0,-30.331825,-127.188324,6.5600295,0.0,0.0,0.0,0.0,0.0,0.0,0.0,-0.468468,44.893593,-3.1652722,
0.7031249895226211,36,-0.058532715,0.8446045,0.44073486,-0.021484375,0.026367188,0.08496094,0.0,0.0,0.0,0.0,0.0,0.0,0.0,0.0,0.0,0.0,0.0,0.3016408,-0.063939646,-0.95142037,-0.91308594,0.16693115,0.36761475,-0.060546875,0.041015625,0.052734375,26.752174,6.244901,-1.323749,-19.697351,0.8522339,-0.2574463,-0.42669678,0.0068359375,0.053710938,0.036132812,32.067074,-15.562698,-53.216785,-28.714394,-0.75653076,0.13012695,0.6486206,-0.01171875,-0.01171875,0.018554688,18.363436,-4.571739,-123.4552,-40.17831,0.0,0.0,0.0,0.0,0.0,0.0,0.0,-16.812382,-123.54292,-55.99504,0.0,0.0,0.0,0.0,0.0,0.0,0.0,-0.3016408,0.063939646,0.95142037,-0.90740967,-0.03869629,-0.3587036,-0.061523438,-0.001953125,0.017578125,6.5490384,-6.244901,1.323749,19.697351,1.0072021,-0.16534424,-0.15112305,-0.07714844,0.059570312,0.123046875,5.100926,-5.3512535,-55.61995,17.199389,-0.39868164,0.05340576,0.9133301,0.020507812,-0.06738281,0.022460938,10.660051,-11.602715,-127.25761,13.482852,0.0,0.0,0.0,0.0,0.0,0.0,0.0,-30.331749,-127.17662,6.473506,0.0,0.0,0.0,0.0,0.0,0.0,0.0,-0.46107572,44.89255,-3.1631584,
0.7226562392315828,37,-0.044189453,0.8164673,0.44708252,-0.021484375,0.026367188,0.08496094,0.0,0.0,0.0,0.0,0.0,0.0,0.0,0.0,0.0,0.0,0.0,0.30249482,-0.06504354,-0.9510807,-0.9102173,0.16278076,0.38146973,-0.022460938,0.0029296875,0.052734375,26.837765,6.262582,-1.346603,-19.690317,0.87683105,-0.24768066,-0.42687988,-0.0126953125,0.0546875,0.036132812,32.130062,-15.611707,-53.211067,-28.701061,-0.7474365,0.13195801,0.63079834,-0.030273438,-0.01171875,0.018554688,18.376095,-4.6339197,-123.44873,-40.160526,0.0,0.0,0.0,0.0,0.0,0.0,0.0,-16.862099,-123.536316,-55.98629,0.0,0.0,0.0,0.0,0.0,0.0,0.0,-0.30249482,0.06504354,0.9510807,-0.9083252,-0.030883789,-0.3557129,-0.022460938,0.036132812,0.037109375,6.6245995,-6.262582,1.346603,19.690317,0.9814453,-0.12109375,-0.16772461,0.0390625,0.057617188,0.064453125,5.160917,-5.360921,-55.595997,17.18294,-0.42529297,0.06585693,0.9154053,0.001953125,-0.028320312,0.00390625,10.680322,-11.671885,-127.225266,13.38612,0.0,0.0,0.0,0.0,0.0,0.0,0.0,-30.399828,-127.148575,6.375809,0.0,0.0,0.0,0.0,0.0,0.0,0.0,-0.45405596,44.889256,-3.2143495,
0.7421874889405445,38,-0.009460449,0.82714844,0.40344238,-0.020507812,0.045898438,0.08496094,0.0,0.0,0.0,0.0,0.0,0.0,0.0,0.0,0.0,0.0,0.0,0.3017711,-0.066912465,-0.9511559,-0.901001,0.16473389,0.3725586,0.0146484375,0.0029296875,0.052734375,26.889965,6.247597,-1.3852954,-19.691877,0.85931396,-0.25769043,-0.43969727,0.043945312,0.034179688,0.038085938,32.17513,-15.676952,-53.228504,-28.693737,-0.74975586,0.115234375,0.6397705,-0.01171875,-0.01171875,0.018554688,18.441607,-4.710758,-123.46814,-40.177692,0.0,0.0,0.0,0.0,0.0,0.0,0.0,-16.924622,-123.55941,-56.01445,0.0,0.0,0.0,0.0,0.0,0.0,0.0,-0.3017711,0.066912465,0.9511559,-0.91174316,-0.062438965,-0.34320068,-0.060546875,0.017578125,0.017578125,6.7477627,-6.247597,1.3852954,19.691877,1.003418,-0.12536621,-0.15826416,0.0,0.076171875,0.06542969,5.14902,-5.327666,-55.554813,17.161682,-0.38006592,0.070129395,0.8994751,0.001953125,-0.009765625,0.00390625,10.558998,-11.603611,-127.19292,13.363205,0.0,0.0,0.0,0.0,0.0,0.0,0.0,-30.338566,-127.10399,6.368851,0.0,0.0,0.0,0.0,0.0,0.0,0.0,-0.41825837,44.883038,-3.2901578,
0.7617187386495062,39,-0.038513184,0.83599854,0.42218018,-0.022460938,-0.01171875,0.08496094,0.0,0.0,0.0,0.0,0.0,0.0,0.0,0.0,0.0,0.0,0.0,0.3028218,-0.06928991,-0.9506385,-0.8999634,0.15515137,0.36346436,0.0146484375,-0.03515625,0.051757812,26.97265,6.26935,-1.434516,-19.681164,0.87615967,-0.23382568,-0.44573975,0.0068359375,0.053710938,0.055664062,32.2275,-15.68722,-53.264015,-28.677523,-0.7383423,0.13653564,0.64367676,-0.030273438,-0.029296875,0.0,18.444824,-4.699482,-123.50218,-40.161755,0.0,0.0,0.0,0.0,0.0,0.0,0.0,-16.899666,-123.58956,-56.00879,0.0,0.0,0.0,0.0,0.0,0.0,0.0,-0.3028218,0.06928991,0.9506385,-0.91937256,-0.030456543,-0.364563,-0.00390625,0.03515625,0.016601562,6.9040456,-6.26935,1.434516,19.681164,1.0028076,-0.13244629,-0.19470215,-0.09667969,0.059570312,0.06640625,5.112551,-5.3515835,-55.50639,17.135225,-0.38226318,0.06500244,0.920166,0.001953125,-0.009765625,0.00390625,10.48526,-11.58407,-127.143814,13.315916,0.0,0.0,0.0,0.0,0.0,0.0,0.0,-30.31983,-127.05661,6.321365,0.0,0.0,0.0,0.0,0.0,0.0,0.0,-0.4047473,44.874435,-3.3997273,
0.7812499883584679,40,-0.04321289,0.8482666,0.45324707,-0.021484375,0.025390625,0.048828125,0.0,0.0,0.0,0.0,0.0,0.0,0.0,0.0,0.0,0.0,0.0,0.3028171,-0.070267476,-0.9505324,-0.901062,0.1694336,0.38458252,-0.00390625,0.0029296875,0.033203125,27.043928,6.2692537,-1.4547546,-19.678967,0.8688965,-0.24145508,-0.4248047,0.0068359375,0.053710938,0.055664062,32.325245,-15.76789,-53.257137,-28.649391,-0.7296753,0.113586426,0.6456909,0.0078125,-0.048828125,0.038085938,18.410252,-4.7663183,-123.49344,-40.124146,0.0,0.0,0.0,0.0,0.0,0.0,0.0,-16.962746,-123.58202,-55.97377,0.0,0.0,0.0,0.0,0.0,0.0,0.0,-0.3028171,0.070267476,0.9505324,-0.90844727,-0.039489746,-0.36364746,0.015625,0.07421875,0.016601562,6.972714,-6.2692537,1.4547546,19.678967,0.9992676,-0.13330078,-0.16601562,-0.05859375,0.07714844,0.06542969,5.119253,-5.338024,-55.48785,17.11914,-0.3988037,0.07281494,0.970459,0.021484375,0.0087890625,0.041015625,10.470536,-11.56264,-127.129135,13.285107,0.0,0.0,0.0,0.0,0.0,0.0,0.0,-30.295586,-127.04704,6.281721,0.0,0.0,0.0,0.0,0.0,0.0,0.0,-0.38953686,44.869877,-3.4410734,
0.8007812380674296,41,-0.020385742,0.8335571,0.41973877,-0.001953125,0.025390625,0.06640625,0.0,0.0,0.0,0.0,0.0,0.0,0.0,0.0,0.0,0.0,0.0,0.30318305,-0.07090404,-0.9504035,-0.9182739,0.16967773,0.38458252,-0.00390625,-0.053710938,0.013671875,27.102463,6.276829,-1.4679334,-19.676298,0.8798218,-0.2477417,-0.44781494,-0.03125,0.03515625,0.0546875,32.421726,-15.834257,-53.240997,-28.625278,-0.77075195,0.1227417,0.6477051,-0.01171875,-0.047851562,0.0,18.402714,-4.8146286,-123.47707,-40.054985,0.0,0.0,0.0,0.0,0.0,0.0,0.0,-17.002968,-123.56941,-55.91108,0.0,0.0,0.0,0.0,0.0,0.0,0.0,-0.30318305,0.07090404,0.9504035,-0.9338379,-0.058776855,-0.355896,-0.041992188,-0.0029296875,0.017578125,7.049598,-6.276829,1.4679334,19.676298,1.0055542,-0.10845947,-0.1564331,-0.05859375,0.11425781,0.06542969,5.1309133,-5.3536363,-55.472126,17.07312,-0.41503906,0.050842285,0.8956909,-0.017578125,-0.046875,0.00390625,10.531847,-11.601793,-127.09926,13.180246,0.0,0.0,0.0,0.0,0.0,0.0,0.0,-30.325472,-127.02398,6.1493793,0.0,0.0,0.0,0.0,0.0,0.0,0.0,-0.3738879,44.86954,-3.4667256,
0.8203124877763913,42,-0.026306152,0.8586426,0.43798828,-0.060546875,0.02734375,0.10449219,0.0,0.0,0.0,0.0,0.0,0.0,0.0,0.0,0.0,0.0,0.0,0.30212018,-0.07256268,-0.95066744,-0.89056396,0.17559814,0.3538208,-0.00390625,-0.03515625,0.051757812,27.110947,6.254825,-1.5022725,-19.681765,0.8724365,-0.25720215,-0.45281982,-0.048828125,0.03515625,0.07324219,32.46324,-15.863951,-53.268284,-28.659555,-0.7505493,0.12799072,0.65063477,-0.01171875,-0.01171875,0.018554688,18.379396,-4.8022747,-123.500046,-40.104992,0.0,0.0,0.0,0.0,0.0,0.0,0.0,-16.985344,-123.59203,-55.965897,0.0,0.0,0.0,0.0,0.0,0.0,0.0,-0.30212018,0.07256268,0.95066744,-0.9179077,-0.068725586,-0.36187744,-0.041992188,0.036132812,0.017578125,7.1401234,-6.254825,1.5022725,19.681765,1.0287476,-0.14172363,-0.18725586,0.0,0.057617188,0.06542969,5.168163,-5.311884,-55.43971,17.071627,-0.3925171,0.05328369,0.90838623,0.020507812,-0.029296875,0.0029296875,10.544116,-11.576061,-127.063156,13.102507,0.0,0.0,0.0,0.0,0.0,0.0,0.0,-30.30064,-126.98849,6.076678,0.0,0.0,0.0,0.0,0.0,0.0,0.0,-0.32563448,44.867302,-3.5281243,
0.839843737485353,43,-0.040649414,0.84002686,0.41833496,-0.020507812,0.064453125,0.0859375,0.0,0.0,0.0,0.0,0.0,0.0,0.0,0.0,0.0,0.0,0.0,0.30200762,-0.07394782,-0.95052564,-0.8828125,0.16046143,0.37945557,-0.041015625,0.022460938,0.033203125,27.160126,6.2524943,-1.5309491,-19.678827,0.8965454,-0.26507568,-0.44207764,0.0068359375,0.053710938,0.036132812,32.48121,-15.889553,-53.283512,-28.677397,-0.7367554,0.10986328,0.64276123,-0.01171875,-0.01171875,0.037109375,18.314386,-4.8376865,-123.51564,-40.124344,0.0,0.0,0.0,0.0,0.0,0.0,0.0,-17.02254,-123.61005,-55.98268,0.0,0.0,0.0,0.0,0.0,0.0,0.0,-0.30200762,0.07394782,0.95052564,-0.9337158,-0.053344727,-0.378479,-0.0029296875,0.07421875,0.016601562,7.206227,-6.2524943,1.5309491,19.678827,1.0070801,-0.1484375,-0.16802979,0.01953125,0.076171875,0.064453125,5.145175,-5.285608,-55.408688,17.08173,-0.40893555,0.06549072,0.92419434,0.021484375,-0.009765625,0.0029296875,10.48479,-11.487875,-127.04173,13.094543,0.0,0.0,0.0,0.0,0.0,0.0,0.0,-30.209667,-126.969795,6.0603976,0.0,0.0,0.0,0.0,0.0,0.0,0.0,-0.3052702,44.85975,-3.586936,
0.8593749871943147,44,-0.032348633,0.8279419,0.4319458,-0.041015625,0.026367188,0.06738281,0.0,0.0,0.0,0.0,0.0,0.0,0.0,0.0,0.0,0.0,0.0,0.3022796,-0.0742321,-0.95040053,-0.90844727,0.16705322,0.41540527,-0.022460938,-0.07324219,0.013671875,27.237635,6.2581244,-1.5368347,-19.676237,0.88031006,-0.26940918,-0.41601562,0.04296875,0.053710938,-9.765625E-4,32.619625,-16.008472,-53.24407,-28.611027,-0.7406006,0.12365723,0.661499,-0.01171875,-0.030273438,0.0,18.262083,-4.953416,-123.475266,-40.06459,0.0,0.0,0.0,0.0,0.0,0.0,0.0,-17.142292,-123.569336,-55.920013,0.0,0.0,0.0,0.0,0.0,0.0,0.0,-0.3022796,0.0742321,0.95040053,-0.9026489,-0.056762695,-0.34118652,-0.080078125,0.018554688,0.038085938,7.2254496,-6.2581244,1.5368347,19.676237,1.0056763,-0.11340332,-0.14849854,-9.765625E-4,0.09472656,0.045898438,5.1745663,-5.29716,-55.403706,17.073391,-0.39868164,0.062316895,0.9182739,0.021484375,-0.009765625,0.0029296875,10.476887,-11.553394,-127.04071,13.176815,0.0,0.0,0.0,0.0,0.0,0.0,0.0,-30.276052,-126.96576,6.1434975,0.0,0.0,0.0,0.0,0.0,0.0,0.0,-0.29286152,44.85833,-3.5968566,
0.8789062369032764,45,-0.026184082,0.86065674,0.44696045,-0.060546875,0.02734375,0.0859375,0.0,0.0,0.0,0.0,0.0,0.0,0.0,0.0,0.0,0.0,0.0,0.30191216,-0.07538079,-0.95043993,-0.8782959,0.18328857,0.34899902,0.034179688,-0.07324219,0.032226562,27.364094,6.250518,-1.5606158,-19.677052,0.883728,-0.2498169,-0.45983887,-0.0126953125,0.03515625,0.036132812,32.715317,-16.126274,-53.22145,-28.619465,-0.74072266,0.116760254,0.6694336,-0.01171875,-0.01171875,0.0,18.217512,-5.101177,-123.45995,-40.05779,0.0,0.0,0.0,0.0,0.0,0.0,0.0,-17.294682,-123.54917,-55.910225,0.0,0.0,0.0,0.0,0.0,0.0,0.0,-0.30191216,0.07538079,0.95043993,-0.9370117,-0.07116699,-0.3668213,-0.060546875,0.095703125,0.017578125,7.308202,-6.250518,1.5606158,19.677052,1.0153198,-0.14154053,-0.15539551,0.018554688,0.09472656,0.064453125,5.2194695,-5.269292,-55.37863,17.057716,-0.39868164,0.06518555,0.93200684,0.001953125,0.009765625,0.022460938,10.445929,-11.560041,-127.00775,13.19369,0.0,0.0,0.0,0.0,0.0,0.0,0.0,-30.28809,-126.92624,6.1773834,0.0,0.0,0.0,0.0,0.0,0.0,0.0,-0.28026116,44.854954,-3.6465385,
0.8984374866122381,46,-0.030456543,0.83081055,0.4229126,-0.041992188,0.0078125,0.103515625,0.0,0.0,0.0,0.0,0.0,0.0,0.0,0.0,0.0,0.0,0.0,0.3026621,-0.07556348,-0.95026934,-0.894104,0.14990234,0.38226318,-0.060546875,0.021484375,0.052734375,27.361591,6.266044,-1.5643983,-19.673523,0.8937988,-0.25317383,-0.45892334,-0.03125,0.03515625,0.0546875,32.697258,-16.079367,-53.22941,-28.663261,-0.7426758,0.11975098,0.67041016,0.0068359375,-0.0126953125,0.0,18.138124,-5.0364647,-123.461525,-40.097157,0.0,0.0,0.0,0.0,0.0,0.0,0.0,-17.238289,-123.55092,-55.943428,0.0,0.0,0.0,0.0,0.0,0.0,0.0,-0.3026621,0.07556348,0.95026934,-0.9112549,-0.027038574,-0.3920288,-0.0029296875,0.07421875,0.016601562,7.388279,-6.266044,1.5643983,19.673523,1.0132446,-0.14746094,-0.1583252,0.115234375,0.09375,0.06347656,5.316624,-5.2243986,-55.36798,16.990705,-0.40270996,0.06744385,0.91625977,0.001953125,-0.028320312,-0.015625,10.509047,-11.568724,-126.99573,13.159662,0.0,0.0,0.0,0.0,0.0,0.0,0.0,-30.296421,-126.912224,6.13629,0.0,0.0,0.0,0.0,0.0,0.0,0.0,-0.2762105,44.857834,-3.6549768,
0.9179687363211998,47,-0.024414062,0.81970215,0.4177246,-0.021484375,0.0068359375,0.06640625,0.0,0.0,0.0,0.0,0.0,0.0,0.0,0.0,0.0,0.0,0.0,0.3026831,-0.075667545,-0.9501815,-0.90319824,0.14715576,0.37921143,-0.041015625,0.0029296875,0.052734375,27.410776,6.2664795,-1.5665528,-19.671703,0.8792114,-0.2703247,-0.43395996,-0.01171875,0.03515625,0.055664062,32.78249,-16.168243,-53.209835,-28.579443,-0.74676514,0.1159668,0.6625366,0.0068359375,0.005859375,0.0,18.15057,-5.1369314,-123.44458,-40.031685,0.0,0.0,0.0,0.0,0.0,0.0,0.0,-17.323795,-123.53258,-55.888893,0.0,0.0,0.0,0.0,0.0,0.0,0.0,-0.3026831,0.075667545,0.9501815,-0.9107666,-0.06213379,-0.3569336,-0.11816406,0.05859375,0.0390625,7.429276,-6.2664795,1.5665528,19.671703,1.0144653,-0.1295166,-0.15252686,0.09667969,0.056640625,0.064453125,5.354415,-5.213458,-55.363567,16.957188,-0.40985107,0.0814209,0.9320679,0.020507812,-0.029296875,0.0029296875,10.37168,-11.59575,-126.995316,13.171804,0.0,0.0,0.0,0.0,0.0,0.0,0.0,-30.327164,-126.9013,6.1585984,0.0,0.0,0.0,0.0,0.0,0.0,0.0,-0.28155804,44.85413,-3.6616423,
0.9374999860301615,48,-0.009399414,0.8302002,0.411438,-0.08105469,0.0087890625,0.068359375,0.0,0.0,0.0,0.0,0.0,0.0,0.0,0.0,0.0,0.0,0.0,0.29648387,-0.08254731,-0.94866407,-0.9030762,0.1560669,0.37042236,-0.041015625,0.0029296875,0.052734375,26.600151,6.1381354,-1.7089851,-19.640287,0.8847656,-0.21661377,-0.4258423,-0.049804688,0.0546875,0.053710938,32.796738,-16.344603,-53.332344,-28.526236,-0.73809814,0.15509033,0.6722412,0.044921875,0.00390625,9.765625E-4,18.19493,-5.362458,-123.579506,-39.94426,0.0,0.0,0.0,0.0,0.0,0.0,0.0,-17.548958,-123.66328,-55.8011,0.0,0.0,0.0,0.0,0.0,0.0,0.0,-0.29648387,0.08254731,0.94866407,-0.91381836,-0.06518555,-0.39038086,-0.13671875,0.09765625,0.018554688,7.8422995,-6.1381354,1.7089851,19.640287,0.9840088,-0.10913086,-0.13427734,0.15429688,0.055664062,0.06347656,5.4567533,-5.006212,-55.21731,16.788727,-0.3988037,0.05908203,0.9468384,0.001953125,-0.009765625,0.041015625,10.292182,-11.423374,-126.84819,13.042833,0.0,0.0,0.0,0.0,0.0,0.0,0.0,-30.15364,-126.75723,6.02394,0.0,0.0,0.0,0.0,0.0,0.0,0.0,0.53091794,44.722095,-3.725534,
0.9570312357391232,49,-0.03643799,0.8369751,0.42712402,-0.08105469,0.0078125,0.03125,0.0,0.0,0.0,0.0,0.0,0.0,0.0,0.0,0.0,0.0,0.0,0.29597786,-0.083419204,-0.9512526,-0.90509033,0.15124512,0.36834717,-0.022460938,0.0029296875,0.033203125,26.57661,6.12766,-1.7270361,-19.693876,0.88812256,-0.24224854,-0.43493652,-0.06738281,0.0546875,0.091796875,32.785034,-16.373753,-53.347343,-28.565712,-0.74993896,0.1081543,0.6704712,0.044921875,0.0048828125,0.01953125,18.150745,-5.429846,-123.606445,-39.965874,0.0,0.0,0.0,0.0,0.0,0.0,0.0,-17.629671,-123.68986,-55.812073,0.0,0.0,0.0,0.0,0.0,0.0,0.0,-0.29597786,0.083419204,0.9512526,-0.90301514,-0.08618164,-0.3796997,-0.060546875,0.095703125,0.05859375,7.962375,-6.12766,1.7270361,19.693876,0.9990845,-0.1293335,-0.17889404,0.13476562,0.07421875,0.044921875,5.596711,-4.8597136,-55.193996,16.789461,-0.40264893,0.08630371,0.9300537,0.0029296875,0.009765625,0.00390625,10.083483,-11.280394,-126.81528,13.038338,0.0,0.0,0.0,0.0,0.0,0.0,0.0,-30.011337,-126.72543,6.026852,0.0,0.0,0.0,0.0,0.0,0.0,0.0,0.5726843,44.827003,-3.7528741,
0.9765624854480849,50,-0.028503418,0.8386841,0.4199829,-0.041992188,-0.0126953125,0.030273438,0.0,0.0,0.0,0.0,0.0,0.0,0.0,0.0,0.0,0.0,0.0,0.29502228,-0.08307867,-0.95192295,-0.9173584,0.15228271,0.37628174,0.015625,0.022460938,0.033203125,26.508894,6.107876,-1.719986,-19.707756,0.89190674,-0.25024414,-0.43499756,-0.068359375,0.0546875,0.072265625,32.80294,-16.380535,-53.35379,-28.530304,-0.73223877,0.14697266,0.6801758,0.026367188,0.0234375,0.056640625,18.071758,-5.397231,-123.608795,-39.892467,0.0,0.0,0.0,0.0,0.0,0.0,0.0,-17.609459,-123.68578,-55.73019,0.0,0.0,0.0,0.0,0.0,0.0,0.0,-0.29502228,0.08307867,0.95192295,-0.8986206,-0.056030273,-0.37652588,-0.11816406,0.078125,0.0390625,8.021449,-6.107876,1.719986,19.707756,0.9991455,-0.1293335,-0.17590332,0.15429688,0.111328125,0.025390625,5.723993,-4.7515373,-55.19351,16.742807,-0.4086914,0.10040283,0.927124,0.021484375,0.02734375,0.041015625,9.811314,-11.220055,-126.81833,13.030548,0.0,0.0,0.0,0.0,0.0,0.0,0.0,-29.951813,-126.73021,6.018865,0.0,0.0,0.0,0.0,0.0,0.0,0.0,0.5849936,44.843334,-3.7323802,
0.9960937351570466,51,-0.009155273,0.85821533,0.43951416,-0.059570312,0.043945312,-0.0048828125,0.0,0.0,0.0,0.0,0.0,0.0,0.0,0.0,0.0,0.0,0.0,0.29519603,-0.08254326,-0.9520319,-0.92077637,0.14581299,0.41601562,0.015625,0.080078125,0.0146484375,26.509375,6.111474,-1.7089013,-19.710012,0.9388428,-0.23742676,-0.4343872,0.06640625,0.051757812,0.11425781,32.78881,-16.393795,-53.341557,-28.488123,-0.74591064,0.11090088,0.69018555,0.064453125,0.022460938,0.038085938,18.03867,-5.450076,-123.59866,-39.88895,0.0,0.0,0.0,0.0,0.0,0.0,0.0,-17.679668,-123.67175,-55.714344,0.0,0.0,0.0,0.0,0.0,0.0,0.0,-0.29519603,0.08254326,0.9520319,-0.8725586,-0.06237793,-0.37561035,-0.09863281,0.13574219,0.018554688,8.152373,-6.111474,1.7089013,19.710012,0.9837036,-0.105163574,-0.15600586,0.13378906,0.16699219,0.024414062,5.9410553,-4.6361136,-55.195705,16.611347,-0.40985107,0.09729004,0.94189453,0.060546875,0.06542969,0.041015625,9.560942,-11.217333,-126.81204,13.004444,0.0,0.0,0.0,0.0,0.0,0.0,0.0,-29.9498,-126.72266,6.0006843,0.0,0.0,0.0,0.0,0.0,0.0,0.0,0.565029,44.85016,-3.7134092,
1.0156249848660084,52,-0.0146484375,0.86505127,0.40386963,-0.11621094,0.12109375,-0.05859375,0.0,0.0,0.0,0.0,0.0,0.0,0.0,0.0,0.0,0.0,0.0,0.29467714,-0.08156307,-0.9522133,-1.0231323,0.1282959,0.50720215,-0.022460938,0.09863281,0.034179688,26.491274,6.1007304,-1.6886084,-19.713766,1.0552979,-0.20501709,-0.411438,0.10449219,0.032226562,0.15429688,33.47483,-16.409245,-53.33541,-28.415901,-0.77130127,0.10736084,0.7575073,0.1015625,0.09375,0.056640625,18.4157,-4.657626,-123.317375,-39.35483,0.0,0.0,0.0,0.0,0.0,0.0,0.0,-16.94681,-123.38623,-55.13246,0.0,0.0,0.0,0.0,0.0,0.0,0.0,-0.29467714,0.08156307,0.9522133,-0.8737793,-0.07873535,-0.38653564,-0.11816406,0.17578125,0.018554688,8.283492,-6.1007304,1.6886084,19.713766,0.9918213,-0.13616943,-0.13128662,0.3076172,0.20117188,0.022460938,6.3316226,-4.424063,-55.19921,16.480253,-0.45892334,0.10046387,0.9165039,0.099609375,0.08300781,0.021484375,9.431818,-11.221846,-126.80607,13.001395,0.0,0.0,0.0,0.0,0.0,0.0,0.0,-29.952671,-126.721054,5.995921,0.0,0.0,0.0,0.0,0.0,0.0,0.0,0.5250164,44.85072,-3.6792722,
1.03515623457497,53,0.030151367,0.8651123,0.43756104,-0.08886719,0.34765625,-0.111328125,0.0,0.0,0.0,0.0,0.0,0.0,0.0,0.0,0.0,0.0,0.0,0.29641291,-0.07969563,-0.9519329,-1.1622925,0.103149414,0.73760986,-0.041015625,0.07910156,0.053710938,26.446535,6.1366663,-1.6499463,-19.707962,1.3009033,-0.19573975,-0.32092285,0.0859375,-0.025390625,0.19238281,34.678696,-16.31876,-53.314533,-28.436634,-0.8088989,0.041931152,0.8704834,0.19628906,0.2734375,0.14941406,21.434084,-3.021041,-123.13922,-38.7126,0.0,0.0,0.0,0.0,0.0,0.0,0.0,-14.64718,-123.06177,-54.73699,0.0,0.0,0.0,0.0,0.0,0.0,0.0,-0.29641291,0.07969563,0.9519329,-0.8679199,-0.08862305,-0.3463745,-0.5576172,0.07128906,-0.017578125,8.302103,-6.1366663,1.6499463,19.707962,0.96917725,-0.064941406,-0.0848999,0.48046875,0.25390625,-0.037109375,6.7082057,-4.3854065,-55.232334,16.367115,-0.46240234,0.07598877,0.9805298,0.13574219,-0.0126953125,0.059570312,9.216419,-11.521341,-126.81186,13.130359,0.0,0.0,0.0,0.0,0.0,0.0,0.0,-30.241337,-126.68977,6.0987725,0.0,0.0,0.0,0.0,0.0,0.0,0.0,0.48795044,44.861572,-3.6038632,
1.0546874842839318,54,0.07647705,0.930542,0.44976807,-0.18066406,0.5605469,-0.08984375,0.0,0.0,0.0,0.0,0.0,0.0,0.0,0.0,0.0,0.0,0.0,0.30371895,-0.07658969,-0.9498119,-1.3206787,-0.04815674,1.0813599,0.16601562,-0.22460938,-0.0068359375,26.41471,6.287924,-1.5856441,-19.664051,1.1783447,-0.2571411,-0.13360596,-0.3095703,0.09472656,0.19921875,35.906155,-16.165106,-53.245003,-28.422928,-0.8234863,0.0032348633,0.8231201,0.0625,0.45996094,0.31347656,25.824951,-1.3784895,-122.888725,-37.99345,0.0,0.0,0.0,0.0,0.0,0.0,0.0,-12.148351,-122.579185,-54.628197,0.0,0.0,0.0,0.0,0.0,0.0,0.0,-0.30371895,0.07658969,0.9498119,-0.9637451,0.026916504,-0.43780518,-0.40234375,0.57421875,-0.16113281,8.6024065,-6.287924,1.5856441,19.664051,1.0830688,-0.12615967,0.09887695,0.018554688,0.11328125,0.026367188,7.6931205,-4.140849,-55.25765,15.957109,-0.3720703,0.053710938,0.92700195,0.15332031,-0.08984375,0.040039062,9.382509,-11.819061,-126.81389,13.404353,0.0,0.0,0.0,0.0,0.0,0.0,0.0,-30.55767,-126.60716,6.4228573,0.0,0.0,0.0,0.0,0.0,0.0,0.0,0.4540931,44.86922,-3.472901,
1.0742187339928935,55,0.16540527,0.9113159,0.45025635,-0.11621094,0.7324219,-0.016601562,0.0,0.0,0.0,0.0,0.0,0.0,0.0,0.0,0.0,0.0,0.0,0.31515965,-0.07575028,-0.9460271,-1.0300903,0.119140625,0.59765625,2.2382812,-1.1474609,-0.265625,27.092875,6.524783,-1.5682656,-19.585695,1.1004639,-0.46954346,-0.15063477,-0.39648438,-0.16796875,-0.0107421875,38.166214,-16.71605,-52.92177,-28.07674,-0.81591797,0.08691406,0.7932129,-0.22167969,0.65234375,0.5878906,30.710081,-0.23428345,-122.32373,-36.789886,0.0,0.0,0.0,0.0,0.0,0.0,0.0,-10.074157,-121.77546,-54.015854,0.0,0.0,0.0,0.0,0.0,0.0,0.0,-0.31515965,0.07575028,0.9460271,-1.15094,0.30194092,-0.33636475,-0.07714844,0.46777344,-0.125,9.05382,-6.524783,1.5682656,19.585695,1.0737915,-0.302063,-0.15551758,0.52734375,-0.28320312,0.19433594,7.631212,-3.7535706,-55.22893,15.5869465,-0.37994385,0.10394287,0.9171753,0.20996094,-0.11035156,0.09667969,9.299736,-10.359925,-126.76112,13.359549,0.0,0.0,0.0,0.0,0.0,0.0,0.0,-29.108551,-126.459465,6.4098086,0.0,0.0,0.0,0.0,0.0,0.0,0.0,0.39201713,44.865627,-3.4618838,
1.0937499837018552,56,0.13293457,0.76275635,0.39318848,0.20605469,0.99121094,-0.05859375,0.0,0.0,0.0,0.0,0.0,0.0,0.0,0.0,0.0,0.0,0.0,0.32584208,-0.0778558,-0.93053323,-0.7633667,0.39691162,0.39855957,1.7861328,-0.7705078,-0.08984375,27.452942,6.7459416,-1.6118565,-19.264921,1.046936,-0.45629883,-0.22784424,0.6191406,-0.21679688,-0.26757812,40.704727,-17.511953,-52.502403,-27.66856,-0.7839966,0.018005371,0.7894287,-0.6201172,0.7939453,0.86035156,35.078823,0.65859795,-121.58835,-35.520523,0.0,0.0,0.0,0.0,0.0,0.0,0.0,-8.1040325,-120.78601,-53.333374,0.0,0.0,0.0,0.0,0.0,0.0,0.0,-0.32584208,0.0778558,0.93053323,-1.0697632,0.36090088,-0.4086914,-2.071289,-0.64453125,-0.041015625,9.42988,-6.7459416,1.6118565,19.264921,1.060669,-0.29400635,-0.23529053,1.3916016,0.14746094,0.009765625,6.734787,-4.254598,-55.1784,14.981905,-0.39648438,0.090148926,0.92907715,0.115234375,-0.0703125,0.059570312,8.36863,-9.687897,-126.82003,13.165016,0.0,0.0,0.0,0.0,0.0,0.0,0.0,-28.464766,-126.40741,6.2976985,0.0,0.0,0.0,0.0,0.0,0.0,0.0,0.8996,44.366177,-3.3970163,
1.1132812334108169,57,-0.016418457,0.65722656,0.36242676,0.049804688,0.9941406,-0.11035156,0.0,0.0,0.0,0.0,0.0,0.0,0.0,0.0,0.0,0.0,0.0,0.3134486,-0.10225369,-0.912211,-0.7614746,0.44647217,0.45916748,0.9169922,-1.1005859,0.13671875,24.03776,6.489358,-2.1169684,-18.885595,1.0386353,-0.40734863,-0.3781128,1.1035156,-0.27734375,-0.50097656,43.486664,-19.028233,-52.37303,-27.316137,-0.7839966,0.018005371,0.7894287,-0.6201172,0.7939453,0.86035156,35.01894,0.7554512,-121.1139,-34.363846,0.0,0.0,0.0,0.0,0.0,0.0,0.0,-8.007179,-120.31156,-52.176697,0.0,0.0,0.0,0.0,0.0,0.0,0.0,-0.3134486,0.10225369,0.912211,-0.9981079,-0.051086426,-0.1395874,-2.6484375,-1.1943359,0.25097656,11.298727,-6.489358,2.1169684,18.885595,1.008667,-0.1293335,-0.07342529,1.4853516,0.25683594,-0.27539062,5.6676636,-5.7551165,-54.70271,14.349268,-0.37664795,0.13092041,0.9112549,0.057617188,-0.068359375,0.041015625,6.938422,-11.50234,-126.47073,12.735691,0.0,0.0,0.0,0.0,0.0,0.0,0.0,-30.286741,-125.99698,5.8927965,0.0,0.0,0.0,0.0,0.0,0.0,0.0,4.8808417,43.258602,-3.1719182,
1.1328124831197786,58,-0.21661377,0.71606445,0.35229492,-0.36621094,0.9111328,0.0087890625,0.0,0.0,0.0,0.0,0.0,0.0,0.0,0.0,0.0,0.0,0.0,0.30198812,-0.1340242,-0.9148982,-0.70202637,0.5675049,0.38659668,0.5019531,-1.1025391,0.17480469,20.484241,6.2520905,-2.7747164,-18.94123,1.0386353,-0.40734863,-0.3781128,1.1035156,-0.27734375,-0.50097656,44.987457,-20.56933,-52.29775,-27.655766,-0.28253174,-0.7214966,1.2003174,-0.6425781,0.034179688,-0.703125,41.08751,-0.78564644,-121.03862,-34.703476,0.0,0.0,0.0,0.0,0.0,0.0,0.0,-7.5728083,-119.923874,-53.377506,0.0,0.0,0.0,0.0,0.0,0.0,0.0,-0.30198812,0.1340242,0.9148982,-0.7729492,-0.635376,-0.10675049,-1.5732422,-0.5625,-0.026367188,14.569917,-6.2520905,2.7747164,18.94123,0.8712158,0.09222412,-0.059265137,0.71484375,-0.045898438,-0.1875,4.562011,-6.5675073,-54.080196,15.026428,-0.37231445,0.024597168,0.9467163,0.05859375,-0.030273438,0.059570312,6.113273,-11.870601,-125.74121,14.050191,0.0,0.0,0.0,0.0,0.0,0.0,0.0,-30.648422,-125.26834,7.1889734,0.0,0.0,0.0,0.0,0.0,0.0,0.0,9.43369,42.629265,-3.1309388,
1.1523437328287403,59,-0.31896973,0.83154297,0.430542,-0.6328125,0.5410156,0.23046875,0.0,0.0,0.0,0.0,0.0,0.0,0.0,0.0,0.0,0.0,0.0,0.3059512,-0.13942161,-0.9377687,-0.8175659,0.48309326,0.5303955,-0.8183594,-0.9404297,0.5019531,20.055275,6.3341393,-2.8864596,-19.41472,0.9970703,0.043640137,-0.21557617,-0.5390625,0.5205078,-1.2421875,47.99178,-21.821337,-51.594437,-28.533812,-0.22277832,-0.397583,1.2477417,-0.5498047,-0.23144531,-1.4472656,41.568016,-0.73042107,-120.36967,-31.721172,0.0,0.0,0.0,0.0,0.0,0.0,0.0,-6.913089,-119.41121,-50.61799,0.0,0.0,0.0,0.0,0.0,0.0,0.0,-0.3059512,0.13942161,0.9377687,-0.6933594,-0.54907227,-0.4206543,-0.51953125,-0.22167969,-0.22265625,15.767282,-6.3341393,2.8864596,19.41472,1.0726929,0.058288574,-0.14703369,0.2578125,-0.42773438,0.27539062,3.8807542,-6.3718476,-54.03653,16.713898,-0.38232422,0.04901123,0.92211914,0.13574219,-0.0126953125,0.059570312,5.227272,-11.352591,-125.87051,15.907246,0.0,0.0,0.0,0.0,0.0,0.0,0.0,-30.119455,-125.38035,9.016172,0.0,0.0,0.0,0.0,0.0,0.0,0.0,11.210798,43.316246,-2.7824166,
1.171874982537702,60,-0.2670288,0.9065552,0.41290283,-0.48535156,0.2548828,0.40820312,0.0,0.0,0.0,0.0,0.0,0.0,0.0,0.0,0.0,0.0,0.0,0.30644274,-0.13023378,-0.9422807,-0.81018066,0.10498047,0.37664795,-1.6113281,-1.1523438,0.50097656,21.705143,6.3443136,-2.696243,-19.508131,0.99224854,-0.1951294,-0.2732544,-0.72558594,0.82910156,-1.2880859,48.985172,-22.991852,-50.635147,-29.039028,-0.26843262,0.2086792,1.2094116,-0.49023438,-0.6123047,-1.4423828,43.90295,-2.868801,-119.76422,-29.966015,0.0,0.0,0.0,0.0,0.0,0.0,0.0,-8.5823,-118.97565,-49.022495,0.0,0.0,0.0,0.0,0.0,0.0,0.0,-0.30644274,0.13023378,0.9422807,-0.8746338,-0.06756592,-0.40222168,3.4609375,1.5517578,0.42773438,16.317984,-6.3443136,2.696243,19.508131,0.9468994,-0.1126709,-0.21643066,-0.71484375,0.19921875,0.3544922,4.5755157,-4.9053698,-54.245,17.155247,-0.39245605,0.06719971,0.91918945,0.09765625,0.025390625,0.059570312,5.0474477,-9.437683,-126.10057,16.0115,0.0,0.0,0.0,0.0,0.0,0.0,0.0,-28.20324,-125.58111,9.121767,0.0,0.0,0.0,0.0,0.0,0.0,0.0,10.78292,43.587627,-2.5175452,
1.1914062322466636,61,-0.15222168,0.939209,0.40612793,-0.27734375,-0.001953125,0.23730469,0.0,0.0,0.0,0.0,0.0,0.0,0.0,0.0,0.0,0.0,0.0,0.30295265,-0.12542129,-0.9445576,-0.807251,-0.1932373,0.46124268,-1.4404297,-0.99609375,0.2919922,23.223492,6.272059,-2.5966098,-19.555271,0.89367676,-0.093933105,-0.31280518,0.4609375,1.1699219,-1.0869141,49.193443,-24.05226,-49.894253,-29.140316,-0.35717773,0.58306885,1.1392212,-0.7314453,-0.9765625,-0.71191406,45.393402,-5.546711,-119.47919,-28.194458,0.0,0.0,0.0,0.0,0.0,0.0,0.0,-10.697177,-118.662155,-47.413815,0.0,0.0,0.0,0.0,0.0,0.0,0.0,-0.30295265,0.12542129,0.9445576,-1.0847778,0.28875732,-0.4072876,2.1982422,1.2382812,0.36035156,17.32666,-6.272059,2.5966098,19.555271,0.9788208,-0.18884277,-0.10797119,-0.42285156,-0.08300781,0.2607422,6.3417096,-3.2375953,-54.267124,16.90197,-0.36853027,0.10986328,0.8973999,0.07910156,0.026367188,0.021484375,5.647155,-8.088431,-126.09885,15.459571,0.0,0.0,0.0,0.0,0.0,0.0,0.0,-26.85727,-125.53093,8.5809,0.0,0.0,0.0,0.0,0.0,0.0,0.0,10.304412,43.725918,-2.5010781,
1.2109374819556253,62,-0.11431885,0.8862915,0.3569336,-0.21777344,0.032226562,0.14453125,0.0,0.0,0.0,0.0,0.0,0.0,0.0,0.0,0.0,0.0,0.0,0.29597783,-0.122283995,-0.9471114,-0.83306885,-0.3048706,0.5250244,-0.9111328,-1.1611328,-0.053710938,24.254288,6.127659,-2.5316577,-19.60814,0.93463135,0.004699707,-0.38360596,0.6855469,1.3125,-0.6425781,49.0432,-25.229889,-49.30874,-28.379217,-0.47296143,0.5516968,1.041565,-1.0273438,-1.3369141,0.18652344,46.89541,-8.543165,-119.312416,-25.85131,0.0,0.0,0.0,0.0,0.0,0.0,0.0,-12.909479,-118.1697,-45.25468,0.0,0.0,0.0,0.0,0.0,0.0,0.0,-0.29597783,0.122283995,0.9471114,-0.9140625,0.21234131,-0.41485596,-1.4609375,-1.1708984,-0.0703125,16.495487,-6.127659,2.5316577,19.60814,1.0169067,-0.21557617,-0.27441406,-0.11328125,-0.18164062,0.06933594,5.528787,-3.5969281,-54.334427,16.711058,-0.3963623,0.109191895,0.9260864,0.059570312,0.02734375,0.041015625,5.4765415,-8.148497,-126.15926,14.500507,0.0,0.0,0.0,0.0,0.0,0.0,0.0,-26.914898,-125.569084,7.619024,0.0,0.0,0.0,0.0,0.0,0.0,0.0,9.918486,43.809002,-2.5567086,
1.230468731664587,63,-0.1463623,0.8673096,0.36761475,-0.2783203,-0.043945312,0.072265625,0.0,0.0,0.0,0.0,0.0,0.0,0.0,0.0,0.0,0.0,0.0,0.2890471,-0.117698684,-0.9497704,-0.85076904,-0.19616699,0.44018555,0.08886719,-1.2685547,-0.32226562,25.264145,5.984171,-2.4367275,-19.66319,0.9163208,4.8828125E-4,-0.3774414,0.8876953,1.4560547,-0.29492188,48.525425,-26.42282,-48.68564,-27.39864,-0.5848999,0.27612305,0.914978,-1.1171875,-1.6347656,0.6933594,48.670097,-11.853413,-119.1179,-23.785717,0.0,0.0,0.0,0.0,0.0,0.0,0.0,-15.283539,-117.41412,-43.345066,0.0,0.0,0.0,0.0,0.0,0.0,0.0,-0.2890471,0.117698684,0.9497704,-0.73095703,-0.0680542,-0.45440674,-0.76953125,-0.2734375,-0.036132812,15.059896,-5.984171,2.4367275,19.66319,0.99591064,-0.12023926,-0.13342285,-0.34960938,0.17480469,0.048828125,4.441708,-4.4886637,-54.476433,16.749561,-0.3881836,0.108947754,0.9319458,0.041015625,0.0087890625,0.0029296875,5.277226,-8.96431,-126.31055,14.385209,0.0,0.0,0.0,0.0,0.0,0.0,0.0,-27.731174,-125.71456,7.500043,0.0,0.0,0.0,0.0,0.0,0.0,0.0,9.522726,43.895042,-2.5415323,
1.2499999813735487,64,-0.1427002,0.8256836,0.40197754,-0.1484375,-0.25878906,-0.005859375,0.0,0.0,0.0,0.0,0.0,0.0,0.0,0.0,0.0,0.0,0.0,0.28255713,-0.11100101,-0.95272833,-0.8130493,-0.075683594,0.5358887,0.3154297,-1.2480469,-0.34179688,26.433834,5.8498087,-2.298065,-19.72443,0.8959961,0.064819336,-0.3251953,0.6298828,1.5527344,-0.11328125,47.791443,-27.572147,-47.959854,-26.583252,-0.65045166,-0.0423584,0.8062134,-0.87109375,-1.7158203,0.5859375,47.141808,-15.364639,-118.78903,-22.156303,0.0,0.0,0.0,0.0,0.0,0.0,0.0,-18.990435,-116.75943,-41.714046,0.0,0.0,0.0,0.0,0.0,0.0,0.0,-0.28255713,0.11100101,0.95272833,-0.8987427,-0.13568115,-0.27886963,0.89941406,1.2382812,0.08984375,15.469176,-5.8498087,2.298065,19.72443,0.9977417,-0.19610596,-0.10437012,-0.5205078,-0.044921875,0.1484375,5.613041,-3.4480672,-54.564686,16.471264,-0.3922119,0.105163574,0.9172363,0.0029296875,0.028320312,-0.015625,6.1215096,-8.213755,-126.375015,14.014274,0.0,0.0,0.0,0.0,0.0,0.0,0.0,-26.978928,-125.77506,7.1222963,0.0,0.0,0.0,0.0,0.0,0.0,0.0,9.102751,43.999428,-2.426645,
1.2695312310825104,65,-0.18249512,0.8444824,0.3782959,-0.06933594,-0.2626953,-0.09863281,0.0,0.0,0.0,0.0,0.0,0.0,0.0,0.0,0.0,0.0,0.0,0.27009156,-0.10657936,-0.95668274,-0.6973877,0.021362305,0.6312866,0.7314453,-1.2060547,-0.47558594,27.64919,5.591733,-2.2065234,-19.8063,0.91973877,0.035217285,-0.25775146,-0.18066406,1.6386719,-0.0029296875,47.154247,-28.999924,-47.12616,-25.681665,-0.7324829,-0.21929932,0.661499,-0.4560547,-1.6621094,0.068359375,46.379658,-19.24841,-118.28642,-20.516968,0.0,0.0,0.0,0.0,0.0,0.0,0.0,-22.963598,-116.17831,-40.051857,0.0,0.0,0.0,0.0,0.0,0.0,0.0,-0.27009156,0.10657936,0.95668274,-1.0311279,-0.04699707,-0.28399658,0.45507812,0.041015625,0.072265625,15.505919,-5.591733,2.2065234,19.8063,1.0119629,-0.15338135,-0.10687256,-0.036132812,-0.1640625,0.049804688,5.9426055,-2.8576074,-54.639877,16.552248,-0.38812256,0.09326172,0.9014282,0.0029296875,0.047851562,0.00390625,6.577453,-7.68563,-126.44334,13.8982,0.0,0.0,0.0,0.0,0.0,0.0,0.0,-26.450504,-125.837875,7.0049157,0.0,0.0,0.0,0.0,0.0,0.0,0.0,8.887854,44.03806,-2.3968391,
1.2890624807914721,66,-0.16864014,0.8380127,0.35198975,-0.25097656,-0.41601562,-0.296875,0.0,0.0,0.0,0.0,0.0,0.0,0.0,0.0,0.0,0.0,0.0,0.25437033,-0.09784289,-0.961948,-0.60131836,0.15270996,0.66851807,0.92089844,-1.0507812,-0.6455078,29.04153,5.2662544,-2.025651,-19.915306,0.9463501,-0.10626221,-0.20269775,-0.9765625,1.5166016,0.051757812,46.704052,-30.574867,-46.096893,-24.61157,-0.9057617,-0.20263672,0.5687256,-0.061523438,-1.5185547,-0.5449219,46.372925,-23.141602,-117.47757,-18.709883,0.0,0.0,0.0,0.0,0.0,0.0,0.0,-27.009274,-115.48586,-38.228874,0.0,0.0,0.0,0.0,0.0,0.0,0.0,-0.25437033,0.09784289,0.961948,-0.9194336,-0.10797119,-0.315979,-0.043945312,-0.35351562,0.09863281,14.507405,-5.2662544,2.025651,19.915306,1.0222778,-0.07269287,-0.12542725,-0.44433594,-0.02734375,0.052734375,5.313232,-3.0263624,-54.860172,16.948505,-0.38189697,0.11706543,0.90734863,-0.015625,0.047851562,-0.015625,6.57283,-7.7415857,-126.66342,14.32372,0.0,0.0,0.0,0.0,0.0,0.0,0.0,-26.511612,-126.05252,7.442201,0.0,0.0,0.0,0.0,0.0,0.0,0.0,8.612754,44.104156,-2.2084856,
1.3085937305004338,67,-0.17071533,0.8121338,0.3428955,-0.21679688,-0.56933594,-0.28027344,0.0,0.0,0.0,0.0,0.0,0.0,0.0,0.0,0.0,0.0,0.0,0.2309089,-0.090606615,-0.9585704,-0.5704956,0.28320312,0.75341797,1.0341797,-0.8984375,-0.6064453,30.176407,4.7805305,-1.8758377,-19.84538,0.95874023,-0.21783447,-0.12347412,-1.1113281,1.3662109,0.049804688,46.274677,-32.23902,-45.06653,-23.25641,-1.0080566,-0.09448242,0.4508667,0.18066406,-1.2412109,-0.9375,47.954662,-26.974937,-116.594795,-16.855875,0.0,0.0,0.0,0.0,0.0,0.0,0.0,-30.696684,-114.53547,-36.315277,0.0,0.0,0.0,0.0,0.0,0.0,0.0,-0.2309089,0.090606615,0.9585704,-0.91082764,-0.14038086,-0.27789307,1.2402344,0.6425781,0.2890625,14.544671,-4.7805305,1.8758377,19.84538,0.97772217,-0.09692383,-0.031555176,-1.1386719,-0.09082031,0.21289062,5.5382433,-2.3726475,-55.00964,17.001677,-0.39227295,0.099243164,0.9113159,-0.034179688,0.08691406,0.00390625,7.5775595,-7.153487,-126.821396,14.606694,0.0,0.0,0.0,0.0,0.0,0.0,0.0,-25.926498,-126.20965,7.7306747,0.0,0.0,0.0,0.0,0.0,0.0,0.0,8.517819,43.68538,-2.0774097,
1.3281249802093955,68,-0.13793945,0.81604004,0.30426025,0.037109375,-0.5917969,-0.15820312,0.0,0.0,0.0,0.0,0.0,0.0,0.0,0.0,0.0,0.0,0.0,0.19824219,-0.09967494,-0.9574723,-0.65148926,0.30480957,0.8731079,1.1835938,-0.9785156,-0.33984375,28.744015,4.104228,-2.0635805,-19.822645,0.94647217,-0.26361084,-0.08068848,-1.1953125,1.0068359,-0.044921875,45.778103,-33.78923,-44.5673,-22.386894,-1.0818481,0.10211182,0.39404297,0.29101562,-0.81152344,-1.0712891,50.506756,-30.420296,-116.17049,-15.549601,0.0,0.0,0.0,0.0,0.0,0.0,0.0,-33.860367,-113.90552,-35.03875,0.0,0.0,0.0,0.0,0.0,0.0,0.0,-0.19824219,0.09967494,0.9574723,-0.99121094,0.009216309,-0.2512207,1.9287109,0.89453125,0.40429688,17.582777,-4.104228,2.0635805,19.822645,1.0170898,-0.18927002,-0.0178833,-1.15625,-0.23925781,0.21484375,6.2131233,-1.1118102,-54.783585,16.842188,-0.3798828,0.09320068,0.8925781,-0.072265625,0.087890625,-0.033203125,9.355384,-6.002578,-126.582954,14.411875,0.0,0.0,0.0,0.0,0.0,0.0,0.0,-24.777168,-125.9743,7.5503674,0.0,0.0,0.0,0.0,0.0,0.0,0.0,10.320871,42.943687,-2.3336213,
1.3476562299183572,69,-0.09631348,0.8438721,0.33026123,-0.044921875,-0.7050781,-0.19433594,0.0,0.0,0.0,0.0,0.0,0.0,0.0,0.0,0.0,0.0,0.0,0.16163427,-0.11308156,-0.9691472,-0.7098999,0.2767334,0.91241455,1.3144531,-0.9423828,-0.12890625,26.585724,3.3463304,-2.3411388,-20.06435,0.97076416,-0.29888916,-0.090026855,-0.8076172,0.6220703,-0.18261719,45.634724,-35.254932,-44.23523,-22.178843,-1.0354614,0.22479248,0.38568115,0.23242188,-0.42773438,-0.88964844,53.07895,-33.188812,-115.85302,-14.957559,0.0,0.0,0.0,0.0,0.0,0.0,0.0,-36.317543,-113.45476,-34.485252,0.0,0.0,0.0,0.0,0.0,0.0,0.0,-0.16163427,0.11308156,0.9691472,-1.0021973,0.08605957,-0.2644043,0.8183594,0.20605469,0.2734375,20.816288,-3.3463304,2.3411388,20.06435,1.0028687,-0.21502686,-0.021362305,-0.828125,-0.28125,0.13574219,6.2549825,-0.4209168,-54.492805,16.805788,-0.3798828,0.09320068,0.8925781,-0.072265625,0.087890625,-0.033203125,11.104078,-5.4124565,-126.28617,14.269822,0.0,0.0,0.0,0.0,0.0,0.0,0.0,-24.187046,-125.67751,7.4083147,0.0,0.0,0.0,0.0,0.0,0.0,0.0,12.758894,42.543392,-2.8360994,
1.367187479627319,70,-0.06604004,0.9107666,0.34887695,-0.22363281,-0.7783203,-0.26367188,0.0,0.0,0.0,0.0,0.0,0.0,0.0,0.0,0.0,0.0,0.0,0.13317019,-0.11531343,-0.98295265,-0.66607666,0.24395752,0.73864746,1.2587891,-0.8466797,-0.22363281,26.729557,2.7570362,-2.3873456,-20.350166,0.9222412,-0.22039795,-0.10424805,-0.41601562,0.2548828,-0.22558594,45.987278,-36.655777,-43.538303,-21.885614,-0.9633179,0.2232666,0.44891357,0.09863281,-0.05859375,-0.6152344,55.06445,-35.415062,-115.15248,-14.459702,0.0,0.0,0.0,0.0,0.0,0.0,0.0,-38.15213,-112.80824,-34.124325,0.0,0.0,0.0,0.0,0.0,0.0,0.0,-0.13317019,0.11531343,0.98295265,-0.9503784,0.05718994,-0.2822876,0.4345703,-0.21191406,0.1953125,21.216915,-2.7570362,2.3873456,20.350166,0.9770508,-0.13085938,-0.059936523,-0.7685547,-0.41210938,0.13671875,5.53187,-0.44109488,-54.475323,17.137995,-0.4055786,0.109375,0.92315674,-0.12890625,0.12695312,-0.051757812,12.455379,-5.310056,-126.27667,14.521924,0.0,0.0,0.0,0.0,0.0,0.0,0.0,-24.083078,-125.761765,7.649207,0.0,0.0,0.0,0.0,0.0,0.0,0.0,13.561127,42.724712,-3.17492,
1.3867187293362806,71,-0.038085938,0.9108887,0.32824707,-0.043945312,-0.6875,-0.24902344,0.0,0.0,0.0,0.0,0.0,0.0,0.0,0.0,0.0,0.0,0.0,0.114010096,-0.11140568,-0.98712647,-0.63635254,0.31695557,0.6522827,1.1464844,-0.6933594,-0.2607422,28.164715,2.3603632,-2.306443,-20.436579,0.9125366,-0.12866211,-0.14068604,-0.32226562,-0.033203125,-0.14355469,46.545143,-37.71155,-42.83397,-21.298653,-0.8085327,0.12261963,0.5172119,0.09863281,0.19628906,-0.4501953,56.0984,-36.76222,-114.440834,-13.798464,0.0,0.0,0.0,0.0,0.0,0.0,0.0,-39.216877,-112.39996,-33.53943,0.0,0.0,0.0,0.0,0.0,0.0,0.0,-0.114010096,0.11140568,0.98712647,-0.91522217,-0.019470215,-0.2956543,0.95214844,0.2607422,0.23046875,20.418533,-2.3603632,2.306443,20.436579,0.98101807,-0.15283203,-0.048034668,-0.9609375,-0.46484375,0.15820312,5.0329094,-0.27890682,-54.574417,17.324974,-0.4005127,0.09326172,0.9241333,-0.16601562,0.12792969,-0.0703125,13.731061,-4.880377,-126.3843,14.476362,0.0,0.0,0.0,0.0,0.0,0.0,0.0,-23.657846,-125.931496,7.602632,0.0,0.0,0.0,0.0,0.0,0.0,0.0,13.088011,42.921455,-3.332428,
1.4062499790452423,72,-0.034240723,0.9017334,0.31018066,0.23730469,-0.48535156,-0.29003906,0.0,0.0,0.0,0.0,0.0,0.0,0.0,0.0,0.0,0.0,0.0,0.09471503,-0.10929224,-0.98944914,-0.60650635,0.27423096,0.5629883,0.76953125,-0.65625,-0.3173828,29.10579,1.9608964,-2.2626884,-20.484665,0.8377075,-0.119628906,-0.17584229,-0.6074219,-0.125,-0.13183594,47.768497,-38.602283,-42.31207,-20.799728,-0.64733887,0.048217773,0.6121216,0.13476562,0.33984375,-0.46972656,57.415512,-36.911606,-113.69736,-12.804701,0.0,0.0,0.0,0.0,0.0,0.0,0.0,-39.169308,-111.82975,-32.51881,0.0,0.0,0.0,0.0,0.0,0.0,0.0,-0.09471503,0.10929224,0.98944914,-0.930603,-0.04107666,-0.24078369,0.76171875,0.36328125,0.23339844,20.2649,-1.9608964,2.2626884,20.484665,0.9840088,-0.171875,-0.038085938,-0.9033203,-0.5029297,0.13964844,4.8589773,0.15154326,-54.613148,17.280666,-0.4024048,0.1015625,0.8945923,-0.14746094,0.12792969,-0.08984375,15.263178,-4.21331,-126.42438,14.190741,0.0,0.0,0.0,0.0,0.0,0.0,0.0,-22.988667,-126.04956,7.3118405,0.0,0.0,0.0,0.0,0.0,0.0,0.0,12.838887,42.98406,-3.5189147,
1.425781228754204,73,-0.08660889,0.86834717,0.31030273,0.12109375,-0.44140625,-0.15917969,0.0,0.0,0.0,0.0,0.0,0.0,0.0,0.0,0.0,0.0,0.0,0.076110095,-0.108148746,-0.9912169,-0.5671387,0.26849365,0.46240234,0.52441406,-0.54296875,-0.27734375,29.816204,1.5757134,-2.2390144,-20.521261,0.8128662,-0.17340088,-0.19476318,-0.74121094,-0.19921875,-0.115234375,49.980614,-39.36379,-41.90348,-20.305948,-0.5043335,0.026550293,0.7098999,0.23046875,0.2998047,-0.54296875,60.64186,-35.573696,-113.07455,-11.122799,0.0,0.0,0.0,0.0,0.0,0.0,0.0,-37.381992,-111.177986,-30.884785,0.0,0.0,0.0,0.0,0.0,0.0,0.0,-0.076110095,0.108148746,0.9912169,-0.96313477,-0.0680542,-0.19281006,0.7216797,0.033203125,0.27441406,19.843155,-1.5757134,2.2390144,20.521261,0.9710083,-0.12860107,0.06359863,-0.61328125,-0.61816406,-0.013671875,4.367312,0.2909758,-54.65932,17.521475,-0.4024048,0.09869385,0.8857422,-0.18554688,0.12890625,-0.0703125,16.607313,-3.8164036,-126.47563,14.251655,0.0,0.0,0.0,0.0,0.0,0.0,0.0,-22.588556,-126.17287,7.3563495,0.0,0.0,0.0,0.0,0.0,0.0,0.0,12.661693,43.021275,-3.7217028,
1.4453124784631657,74,-0.11010742,0.83447266,0.352417,-0.13867188,-0.5878906,-0.17285156,0.0,0.0,0.0,0.0,0.0,0.0,0.0,0.0,0.0,0.0,0.0,0.05842194,-0.10300266,-0.9928955,-0.5593872,0.22265625,0.45965576,0.5058594,-0.39160156,-0.20019531,30.682467,1.2095155,-2.1324742,-20.556015,0.80096436,-0.19934082,-0.20965576,-0.7207031,-0.14257812,-0.115234375,51.989216,-40.011616,-41.50018,-19.935078,-0.42749023,0.06518555,0.78582764,0.2109375,0.28125,-0.5986328,63.680122,-34.22974,-112.410706,-9.649637,0.0,0.0,0.0,0.0,0.0,0.0,0.0,-35.634773,-110.489365,-29.44676,0.0,0.0,0.0,0.0,0.0,0.0,0.0,-0.05842194,0.10300266,0.9928955,-0.9862671,0.00592041,-0.11755371,0.8378906,0.20507812,0.21191406,18.993383,-1.2095155,2.1324742,20.556015,0.95947266,0.016296387,0.08459473,-0.6113281,-0.80371094,0.0078125,3.63157,0.3811468,-54.788467,17.882895,-0.39642334,0.09326172,0.9152832,-0.20507812,0.12890625,-0.0703125,17.504784,-3.1679478,-126.63958,14.676017,0.0,0.0,0.0,0.0,0.0,0.0,0.0,-21.933365,-126.426834,7.7575717,0.0,0.0,0.0,0.0,0.0,0.0,0.0,12.266934,43.129646,-3.7524693,
1.4648437281721274,75,-0.053955078,0.79797363,0.31481934,-0.080078125,-0.5878906,-0.10058594,0.0,0.0,0.0,0.0,0.0,0.0,0.0,0.0,0.0,0.0,0.0,0.024944782,-0.106576964,-0.9773776,-0.5787964,0.23413086,0.49066162,0.54296875,-0.43066406,-0.16210938,28.835669,0.51643324,-2.2064734,-20.234745,0.82855225,-0.22796631,-0.19110107,-0.58691406,-0.068359375,-0.11230469,53.797604,-40.949585,-41.312412,-19.302265,-0.3659668,0.0847168,0.8262329,0.13574219,0.21289062,-0.5058594,64.30473,-33.375603,-111.91742,-8.000938,0.0,0.0,0.0,0.0,0.0,0.0,0.0,-35.160328,-110.11538,-27.82503,0.0,0.0,0.0,0.0,0.0,0.0,0.0,-0.024944782,0.106576964,0.9773776,-1.0032959,0.008911133,-0.10675049,0.703125,0.034179688,0.15136719,20.952276,-0.51643324,2.2064734,20.234745,0.93573,-0.04425049,0.060791016,-1.2070312,-0.90527344,0.28027344,2.8568413,0.78652513,-54.72609,17.885824,-0.39666748,0.04144287,0.90448,-0.20507812,0.09082031,-0.0703125,18.819036,-2.1056209,-126.59663,14.461049,0.0,0.0,0.0,0.0,0.0,0.0,0.0,-20.867462,-126.465065,7.5269165,0.0,0.0,0.0,0.0,0.0,0.0,0.0,13.721317,41.864513,-4.2148676,
1.484374977881089,76,0.0043945312,0.79833984,0.30133057,-0.13574219,-0.48632812,0.083984375,0.0,0.0,0.0,0.0,0.0,0.0,0.0,0.0,0.0,0.0,0.0,-0.01871267,-0.11719477,-0.97726655,-0.5632324,0.2979126,0.50567627,0.52441406,-0.3173828,-0.08496094,25.461447,-0.38741174,-2.4262948,-20.232447,0.8586426,-0.20178223,-0.19525146,-0.26367188,0.041992188,-0.123046875,54.722916,-42.0685,-41.290134,-19.009655,-0.347229,0.02166748,0.9074707,0.04296875,0.053710938,-0.37402344,62.64084,-33.697594,-111.83342,-7.275589,0.0,0.0,0.0,0.0,0.0,0.0,0.0,-36.34215,-110.2489,-27.021093,0.0,0.0,0.0,0.0,0.0,0.0,0.0,0.01871267,0.11719477,0.97726655,-0.94195557,0.015258789,-0.13330078,0.41503906,-0.25,0.11328125,24.383373,0.38741174,2.4262948,20.232447,0.92333984,-0.2098999,-0.01586914,-1.1650391,-1.109375,0.4892578,2.6478934,1.1634778,-54.53867,18.383528,-0.40576172,0.058654785,0.897583,-0.2626953,0.111328125,-0.0703125,21.075397,-1.4808189,-126.36528,14.14769,0.0,0.0,0.0,0.0,0.0,0.0,0.0,-20.23252,-126.328606,7.186605,0.0,0.0,0.0,0.0,0.0,0.0,0.0,16.53423,40.767876,-5.2055216,
1.5039062275900508,77,0.09118652,0.79504395,0.2970581,-0.16992188,-0.3310547,0.17675781,0.0,0.0,0.0,0.0,0.0,0.0,0.0,0.0,0.0,0.0,0.0,-0.058097035,-0.12579429,-0.9768619,-0.5777588,0.3577881,0.6043091,0.203125,-0.24316406,-0.045898438,22.529793,-1.2027875,-2.6043315,-20.22407,0.9164429,-0.17108154,-0.122924805,-0.016601562,0.20996094,-0.15625,54.77309,-43.065296,-41.263958,-18.861904,-0.3065796,-0.066345215,0.9244995,-0.05078125,-0.14160156,-0.29882812,60.547733,-34.93398,-111.842545,-7.110508,0.0,0.0,0.0,0.0,0.0,0.0,0.0,-38.33942,-110.47605,-26.753166,0.0,0.0,0.0,0.0,0.0,0.0,0.0,0.058097035,0.12579429,0.9768619,-0.8157959,0.05218506,-0.3001709,0.5888672,-0.001953125,0.13183594,27.929535,1.2027875,2.6043315,20.22407,0.90130615,-0.24584961,-0.26306152,0.28710938,-1.4658203,0.19335938,3.535738,1.7801753,-54.378384,18.596832,-0.44976807,0.082336426,0.911499,-0.28125,0.13085938,-0.05078125,22.171537,-0.34803784,-126.111664,12.659729,0.0,0.0,0.0,0.0,0.0,0.0,0.0,-19.095375,-126.19034,5.6833463,0.0,0.0,0.0,0.0,0.0,0.0,0.0,19.050388,39.616497,-6.2345543,
1.5234374772990125,78,0.12670898,0.8230591,0.32318115,-0.14648438,-0.19726562,0.19628906,0.0,0.0,0.0,0.0,0.0,0.0,0.0,0.0,0.0,0.0,0.0,-0.09358737,-0.13237002,-0.97508776,-0.5918579,0.34576416,0.57714844,-0.24902344,-0.22460938,-0.08300781,20.16618,-1.9375491,-2.7404695,-20.18734,0.9142456,-0.10424805,-0.13458252,0.022460938,0.40039062,-0.21386719,54.376953,-44.01307,-41.17359,-18.753128,-0.25604248,-0.1529541,0.9899292,-0.10644531,-0.26660156,-0.31640625,58.325096,-36.75853,-111.825714,-6.882371,0.0,0.0,0.0,0.0,0.0,0.0,0.0,-40.85328,-110.67435,-26.407051,0.0,0.0,0.0,0.0,0.0,0.0,0.0,0.09358737,0.13237002,0.97508776,-0.7661743,0.07733154,-0.40808105,0.68652344,0.52246094,0.030273438,31.762648,1.9375491,2.7404695,20.18734,0.94104004,-0.08703613,-0.479187,0.49609375,-1.2841797,-0.038085938,4.655052,2.8366418,-54.23528,18.435133,-0.3768921,0.08105469,0.8984375,-0.22460938,0.11035156,-0.051757812,20.559088,2.1943514,-125.81117,10.596495,0.0,0.0,0.0,0.0,0.0,0.0,0.0,-16.552095,-125.978035,3.628789,0.0,0.0,0.0,0.0,0.0,0.0,0.0,21.246033,38.400433,-7.2520924,
1.5429687270079742,79,0.07092285,0.86724854,0.31506348,-0.10058594,0.009765625,0.10546875,0.0,0.0,0.0,0.0,0.0,0.0,0.0,0.0,0.0,0.0,0.0,-0.096696675,-0.14121659,-0.9848373,-0.5997925,0.3232422,0.6534424,-0.66308594,-0.036132812,-0.0234375,21.153515,-2.0019195,-2.923622,-20.389185,0.9260864,-0.12060547,-0.09289551,-0.29882812,0.5966797,-0.26367188,53.757797,-44.21772,-41.196846,-18.953455,-0.21588135,-0.20373535,1.0543213,-0.125,-0.484375,-0.4453125,56.445118,-38.04689,-111.881714,-6.675647,0.0,0.0,0.0,0.0,0.0,0.0,0.0,-42.801815,-110.953575,-26.05886,0.0,0.0,0.0,0.0,0.0,0.0,0.0,0.096696675,0.14121659,0.9848373,-0.80841064,0.0017700195,-0.48919678,0.20996094,0.6542969,-0.16894531,32.080807,2.0019195,2.923622,20.389185,0.97979736,-0.08947754,-0.41870117,-0.49121094,-1.0097656,0.12207031,4.927122,3.4890497,-54.01054,17.922508,-0.41400146,0.060668945,0.9143677,-0.16796875,0.08984375,-0.0146484375,19.626223,4.471922,-125.4328,8.803169,0.0,0.0,0.0,0.0,0.0,0.0,0.0,-14.264881,-125.68578,1.8012476,0.0,0.0,0.0,0.0,0.0,0.0,0.0,20.986767,39.041916,-7.6588454,
1.5624999767169359,80,-0.02142334,0.86590576,0.35430908,-0.018554688,0.10449219,0.17675781,0.0,0.0,0.0,0.0,0.0,0.0,0.0,0.0,0.0,0.0,0.0,-0.09474391,-0.14500405,-0.9847859,-0.5772705,0.23608398,0.54748535,-0.9277344,-0.076171875,0.033203125,22.163979,-1.9614909,-3.0020332,-20.38812,0.9011841,-0.1340332,-0.16253662,-0.125,0.9580078,-0.33789062,52.876804,-44.239124,-41.215855,-18.968472,-0.11138916,-0.19348145,1.1115112,-0.08691406,-0.72265625,-0.61035156,57.41119,-39.35468,-111.90721,-6.146537,0.0,0.0,0.0,0.0,0.0,0.0,0.0,-43.78233,-110.879105,-25.523918,0.0,0.0,0.0,0.0,0.0,0.0,0.0,0.09474391,0.14500405,0.9847859,-0.8764038,0.022155762,-0.47131348,0.0,0.484375,-0.2685547,32.039852,1.9614909,3.0020332,20.38812,0.91815186,-0.27630615,-0.4498291,-0.453125,-1.046875,0.083984375,5.416346,4.0013123,-53.878845,17.221548,-0.43988037,0.049804688,0.95288086,-0.15039062,0.0126953125,-0.0146484375,20.0349,6.08305,-125.08316,6.6352615,0.0,0.0,0.0,0.0,0.0,0.0,0.0,-12.639523,-125.396095,-0.40032148,0.0,0.0,0.0,0.0,0.0,0.0,0.0,20.327374,39.386093,-7.7550225,
1.5820312264258976,81,-0.089782715,0.87280273,0.37609863,0.041015625,0.14160156,0.19433594,0.0,0.0,0.0,0.0,0.0,0.0,0.0,0.0,0.0,0.0,0.0,-0.093589544,-0.14699842,-0.9845141,-0.56903076,0.1317749,0.5516968,-1.1162109,0.15039062,0.13085938,23.013489,-1.9375932,-3.043323,-20.382496,0.8656006,-0.070007324,-0.11907959,-0.12207031,1.2246094,-0.37890625,53.185116,-44.199387,-41.277954,-19.094854,-0.11779785,-0.097839355,1.1240845,-0.083984375,-1.1035156,-0.6816406,60.02733,-39.180634,-111.49595,-4.4435444,0.0,0.0,0.0,0.0,0.0,0.0,0.0,-43.068047,-110.2398,-23.928892,0.0,0.0,0.0,0.0,0.0,0.0,0.0,0.093589544,0.14699842,0.9845141,-0.82910156,-0.04547119,-0.46099854,-0.115234375,0.46875,-0.24707031,31.939932,1.9375932,3.043323,20.382496,0.9046631,-0.215271,-0.45092773,0.7441406,-1.0654297,-0.21289062,6.2344184,4.47946,-53.78874,16.731686,-0.41827393,0.027893066,0.89764404,-0.14941406,0.032226562,0.0048828125,19.565228,7.533803,-124.69815,4.5534105,0.0,0.0,0.0,0.0,0.0,0.0,0.0,-11.181815,-125.05997,-2.5002284,0.0,0.0,0.0,0.0,0.0,0.0,0.0,19.721207,39.68004,-7.7993827,
1.6015624761348592,82,-0.12585449,0.8688965,0.39093018,0.041015625,0.14160156,0.17578125,0.0,0.0,0.0,0.0,0.0,0.0,0.0,0.0,0.0,0.0,0.0,-0.094068795,-0.14612551,-0.98459053,-0.54071045,0.030578613,0.4673462,-0.7001953,0.24902344,-0.001953125,23.657364,-1.9475148,-3.0252507,-20.384077,0.89123535,-0.057250977,-0.13323975,-0.040039062,1.5273438,-0.30371094,52.616356,-44.111275,-41.37356,-19.23376,-0.18389893,-0.031677246,1.1032104,-0.13867188,-1.4267578,-0.640625,62.04186,-39.913914,-111.39531,-2.96418,0.0,0.0,0.0,0.0,0.0,0.0,0.0,-43.28773,-109.84068,-22.526768,0.0,0.0,0.0,0.0,0.0,0.0,0.0,0.094068795,0.14612551,0.98459053,-0.85736084,-0.054260254,-0.4404297,-0.38183594,0.69140625,-0.26367188,32.050537,1.9475148,3.0252507,20.384077,0.94348145,-0.04107666,-0.40844727,0.55078125,-1.0634766,-0.26757812,6.376951,5.1157875,-53.727493,16.081339,-0.38226318,0.034362793,0.88079834,-0.12988281,0.05078125,-0.0146484375,17.89671,9.608114,-124.40214,3.0037804,0.0,0.0,0.0,0.0,0.0,0.0,0.0,-9.11566,-124.79979,-4.0280714,0.0,0.0,0.0,0.0,0.0,0.0,0.0,19.160933,39.96062,-7.7613096,
1.621093725843821,83,-0.21490479,0.8253784,0.36309814,-0.018554688,0.123046875,0.140625,0.0,0.0,0.0,0.0,0.0,0.0,0.0,0.0,0.0,0.0,0.0,-0.099841684,-0.14111862,-0.98480284,-0.58673096,0.046875,0.64282227,-0.4921875,0.4033203,-0.115234375,23.931238,-2.0670333,-2.921593,-20.388472,0.9024048,0.006713867,-0.062316895,0.13671875,1.7138672,-0.20507812,50.83443,-43.967445,-41.55876,-19.329449,-0.3071289,-0.020690918,1.0479736,-0.13671875,-1.7148438,-0.50683594,62.603027,-41.823555,-111.359825,-1.7650146,0.0,0.0,0.0,0.0,0.0,0.0,0.0,-44.92706,-109.473724,-21.400618,0.0,0.0,0.0,0.0,0.0,0.0,0.0,0.099841684,0.14111862,0.98480284,-0.9008789,-0.076049805,-0.43566895,0.0390625,0.63964844,-0.2890625,32.24686,2.0670333,2.921593,20.388472,0.9383545,-0.08898926,-0.4593506,-0.6855469,-1.0244141,0.06738281,6.601053,5.974182,-53.753284,15.6132965,-0.40289307,0.038391113,0.9212036,-0.091796875,0.087890625,0.00390625,17.531649,11.956797,-124.16841,1.7928524,0.0,0.0,0.0,0.0,0.0,0.0,0.0,-6.763649,-124.608116,-5.2360034,0.0,0.0,0.0,0.0,0.0,0.0,0.0,18.678188,40.211273,-7.655768,
1.6406249755527826,84,-0.22283936,0.8555298,0.38342285,-0.1640625,-0.13964844,0.19628906,0.0,0.0,0.0,0.0,0.0,0.0,0.0,0.0,0.0,0.0,0.0,-0.10952526,-0.13356741,-0.9847399,-0.59576416,0.050048828,0.631897,-0.19042969,0.15820312,-0.19433594,24.272015,-2.2675118,-2.765259,-20.387169,0.8831177,0.039733887,-0.034118652,-0.028320312,1.8476562,-0.07714844,48.93789,-43.994423,-41.5832,-19.121136,-0.41796875,-0.059936523,0.92559814,-0.15429688,-1.7851562,-0.3935547,60.13185,-44.149124,-110.9797,-0.29069138,0.0,0.0,0.0,0.0,0.0,0.0,0.0,-47.967545,-108.9544,-19.805998,0.0,0.0,0.0,0.0,0.0,0.0,0.0,0.10952526,0.13356741,0.9847399,-0.8577881,-0.08483887,-0.47113037,0.19238281,0.8300781,-0.31152344,32.510715,2.2675118,2.765259,20.387169,0.94158936,-0.23278809,-0.5009155,-0.39648438,-0.9921875,0.0068359375,7.157467,7.102103,-53.79792,15.192858,-0.4052124,0.04284668,0.98724365,-0.07128906,0.14453125,-0.0146484375,17.934244,14.171347,-123.85805,0.13195133,0.0,0.0,0.0,0.0,0.0,0.0,0.0,-4.5639534,-124.31796,-6.8449054,0.0,0.0,0.0,0.0,0.0,0.0,0.0,18.14621,40.47744,-7.508516,
1.6601562252617443,85,-0.16967773,0.8947754,0.37042236,-0.2685547,-0.32617188,0.2529297,0.0,0.0,0.0,0.0,0.0,0.0,0.0,0.0,0.0,0.0,0.0,-0.12215182,-0.12767673,-0.9841144,-0.6054077,0.11431885,0.6409302,-0.28515625,0.234375,-0.23144531,24.88048,-2.5289207,-2.6433039,-20.374218,0.9086304,-0.023925781,-0.055480957,-0.29296875,1.8320312,-0.046875,46.75237,-44.046124,-41.677864,-18.945946,-0.54852295,-0.13018799,0.80633545,-0.15429688,-1.8027344,-0.375,58.25923,-46.799397,-110.83971,0.92570686,0.0,0.0,0.0,0.0,0.0,0.0,0.0,-51.08195,-108.67007,-18.485205,0.0,0.0,0.0,0.0,0.0,0.0,0.0,0.12215182,0.12767673,0.9841144,-0.86157227,-0.07098389,-0.5142822,0.49902344,1.0556641,-0.2939453,32.862885,2.5289207,2.6433039,20.374218,0.95184326,-0.21295166,-0.49041748,0.39453125,-0.9121094,-0.24804688,7.3094363,8.440121,-53.750534,14.478546,-0.3843994,0.0569458,0.9290161,-0.0087890625,0.390625,0.00390625,17.661245,16.412283,-123.45913,-1.7239647,0.0,0.0,0.0,0.0,0.0,0.0,0.0,-2.3469791,-123.949295,-8.63349,0.0,0.0,0.0,0.0,0.0,0.0,0.0,17.416481,40.810143,-7.4564095,
1.679687474970706,86,-0.15679932,0.9251709,0.36138916,-0.34960938,-0.41992188,0.23535156,0.0,0.0,0.0,0.0,0.0,0.0,0.0,0.0,0.0,0.0,0.0,-0.13378629,-0.123148836,-0.9833219,-0.569458,0.12335205,0.5923462,-0.24609375,0.34960938,-0.30664062,25.504864,-2.7697926,-2.5495627,-20.357815,0.8477783,-0.054504395,-0.12780762,-0.27441406,1.8125,-0.064453125,45.803715,-43.99939,-41.88553,-18.71726,-0.6326294,-0.18908691,0.697876,-0.078125,-1.7695312,-0.44921875,58.354076,-47.797447,-110.34915,2.852209,0.0,0.0,0.0,0.0,0.0,0.0,0.0,-52.290974,-108.09337,-16.503036,0.0,0.0,0.0,0.0,0.0,0.0,0.0,0.13378629,0.123148836,0.9833219,-0.9527588,-0.051513672,-0.4413452,0.44140625,1.0185547,-0.31445312,33.006218,2.7697926,2.5495627,20.357815,0.95129395,-0.06512451,-0.40447998,0.35546875,-0.9121094,-0.3046875,7.1250515,9.663427,-53.655373,13.807662,-0.31677246,0.027832031,0.9081421,-0.0068359375,0.5234375,0.13574219,18.692333,18.919075,-123.07632,-2.9517984,0.0,0.0,0.0,0.0,0.0,0.0,0.0,0.6132374,-123.591606,-10.252045,0.0,0.0,0.0,0.0,0.0,0.0,0.0,16.582,41.17121,-7.412253,
1.6992187246796677,87,-0.15252686,0.89630127,0.3670044,-0.234375,-0.48339844,0.123046875,0.0,0.0,0.0,0.0,0.0,0.0,0.0,0.0,0.0,0.0,0.0,-0.14779928,-0.118744515,-0.9817926,-0.54626465,0.12945557,0.6134033,-0.3017578,0.75,-0.30273438,25.759863,-3.0599039,-2.4583797,-20.32615,0.7854004,-0.038208008,-0.1451416,-0.33398438,1.6611328,-0.06542969,45.082977,-43.761467,-42.329407,-18.53147,-0.7803345,-0.105651855,0.49804688,-0.0234375,-1.6464844,-0.56152344,59.673088,-48.078465,-110.11456,5.0344753,0.0,0.0,0.0,0.0,0.0,0.0,0.0,-52.509197,-107.88307,-14.333992,0.0,0.0,0.0,0.0,0.0,0.0,0.0,0.14779928,0.118744515,0.9817926,-0.98413086,-0.06561279,-0.35784912,0.01953125,0.5625,-0.33007812,32.658405,3.0599039,2.4583797,20.32615,0.97924805,-0.061401367,-0.3359375,-0.18457031,-0.99609375,-0.16503906,7.291618,10.461512,-53.646446,13.4773035,-0.18847656,0.007873535,0.8544922,0.024414062,1.1328125,0.09863281,22.506857,20.827213,-122.79494,-3.7411318,0.0,0.0,0.0,0.0,0.0,0.0,0.0,3.3750057,-123.22572,-12.168307,0.0,0.0,0.0,0.0,0.0,0.0,0.0,15.800747,41.477314,-7.39519,
1.7187499743886294,88,-0.16400146,0.92126465,0.34661865,-0.09765625,-0.5078125,0.009765625,0.0,0.0,0.0,0.0,0.0,0.0,0.0,0.0,0.0,0.0,0.0,-0.16555488,-0.11327744,-0.9796514,-0.5319214,0.04034424,0.5153198,-0.69628906,1.1318359,-0.47070312,25.424911,-3.4274998,-2.3451943,-20.28182,0.7919922,0.072631836,0.28485107,0.04296875,1.3496094,0.005859375,44.22566,-43.33583,-42.997974,-18.330647,-2.0,1.1516113,0.01739502,1.5380859,0.8984375,-0.22949219,61.605164,-47.952362,-110.122284,7.0257587,0.0,0.0,0.0,0.0,0.0,0.0,0.0,-52.026806,-107.89694,-12.320147,0.0,0.0,0.0,0.0,0.0,0.0,0.0,0.16555488,0.11327744,0.9796514,-1.0811768,-0.1831665,-0.32037354,0.07714844,0.6386719,-0.31054688,32.455708,3.4274998,2.3451943,20.28182,1.1276855,-0.04144287,-0.277771,-0.22167969,-1.2177734,-0.18066406,7.7291856,11.307882,-53.678757,13.269061,-0.3001709,0.014038086,1.0735474,-0.009765625,1.3251953,0.0048828125,27.105566,23.111567,-122.409096,-4.433551,0.0,0.0,0.0,0.0,0.0,0.0,0.0,6.1817493,-122.93263,-14.214976,0.0,0.0,0.0,0.0,0.0,0.0,0.0,15.206163,41.70189,-7.391751,
1.7382812240975911,89,-0.15808105,0.9105835,0.40905762,-0.018554688,-0.49023438,0.044921875,0.0,0.0,0.0,0.0,0.0,0.0,0.0,0.0,0.0,0.0,0.0,-0.18313667,-0.10789971,-0.97712624,-0.7905884,0.5288086,-1.8656006,-0.6386719,1.2480469,-0.5654297,24.494314,-3.791498,-2.2338583,-20.229544,1.8386841,-0.20941162,0.09869385,0.13671875,-1.7597656,1.3740234,43.40367,-42.57775,-43.94151,-17.899595,-2.0,0.95825195,-1.2210083,0.7578125,1.8349609,0.51464844,64.77795,-45.960648,-111.44653,6.627556,0.0,0.0,0.0,0.0,0.0,0.0,0.0,-49.348644,-108.99094,-12.827618,0.0,0.0,0.0,0.0,0.0,0.0,0.0,0.18313667,0.10789971,0.97712624,-1.2468872,-0.17462158,-0.13934326,0.76464844,0.34472656,-0.31933594,32.567642,3.791498,2.2338583,20.229544,1.2289429,-0.059692383,-0.15625,-0.6074219,-1.2119141,-0.10058594,8.6013565,12.40994,-53.663696,13.084076,-0.3562622,0.01965332,1.0126953,0.037109375,1.78125,-0.032226562,30.46973,26.42815,-121.77803,-5.384945,0.0,0.0,0.0,0.0,0.0,0.0,0.0,9.839935,-122.505516,-16.010061,0.0,0.0,0.0,0.0,0.0,0.0,0.0,14.6976795,41.885887,-7.3799667,
1.7578124738065528,90,-0.11621094,0.9351196,0.52856445,0.13867188,-0.49609375,-0.05078125,0.0,0.0,0.0,0.0,0.0,0.0,0.0,0.0,0.0,0.0,0.0,-0.19233847,-0.10411999,-0.9757019,-1.0322876,-0.09869385,0.6467285,-0.6621094,-1.6035156,-1.0507812,25.028053,-3.9820027,-2.1556067,-20.200054,0.7720947,0.07550049,-0.50842285,0.3701172,-0.60546875,0.45410156,44.6344,-42.859356,-43.69906,-16.722338,1.0826416,-0.5526123,-0.29718018,0.8173828,1.0683594,0.11328125,66.49963,-43.96089,-111.66888,6.9699917,0.0,0.0,0.0,0.0,0.0,0.0,0.0,-46.706306,-109.005615,-12.571926,0.0,0.0,0.0,0.0,0.0,0.0,0.0,0.19233847,0.10411999,0.9757019,-1.3434448,0.041015625,-0.079711914,1.0117188,0.16210938,-0.28222656,32.2546,3.9820027,2.1556067,20.200054,1.2392578,-0.082336426,0.13598633,-0.8183594,-1.4121094,-0.07714844,10.005414,13.2059,-53.678658,13.331995,-0.3447876,0.09881592,1.0756226,-0.064453125,2.413086,-0.087890625,34.242294,29.385614,-121.104744,-5.9505424,0.0,0.0,0.0,0.0,0.0,0.0,0.0,13.403924,-122.066765,-17.285875,0.0,0.0,0.0,0.0,0.0,0.0,0.0,14.156843,42.085785,-7.281811,
1.7773437235155145,91,0.10357666,1.1153564,0.5700073,-0.2109375,-0.37597656,-0.1875,0.0,0.0,0.0,0.0,0.0,0.0,0.0,0.0,0.0,0.0,0.0,-0.21941683,-0.10048266,-0.9576489,-1.0441895,-0.059631348,-0.65405273,1.0458984,3.243164,-1.1582031,21.767416,-4.5426087,-2.080303,-19.8263,1.244751,-0.24560547,0.24060059,-3.3808594,-1.796875,1.0458984,44.653698,-42.33243,-44.558094,-15.663736,-0.883667,0.47192383,0.81884766,0.375,1.7480469,-0.08886719,70.53731,-41.12985,-112.739975,7.214529,0.0,0.0,0.0,0.0,0.0,0.0,0.0,-43.56789,-110.23527,-12.397129,0.0,0.0,0.0,0.0,0.0,0.0,0.0,0.21941683,0.10048266,0.9576489,-1.5567017,0.24359131,-0.036743164,0.95410156,0.125,-0.28125,34.69232,4.5426087,2.080303,19.8263,1.3590698,-0.1418457,0.18634033,-0.3642578,-2.1044922,0.11425781,12.163563,14.345648,-53.68976,13.261498,-0.34344482,0.17144775,1.104126,-0.10449219,3.234375,-0.27441406,37.851147,32.86824,-120.03106,-7.6192923,0.0,0.0,0.0,0.0,0.0,0.0,0.0,17.489225,-121.36442,-19.817577,0.0,0.0,0.0,0.0,0.0,0.0,0.0,15.35,40.96756,-7.815577,
1.7968749732244762,92,0.2793579,1.255127,0.62420654,-0.53125,0.032226562,-0.17773438,0.0,0.0,0.0,0.0,0.0,0.0,0.0,0.0,0.0,0.0,0.0,-0.25621322,-0.092942104,-0.95011765,-1.7266846,1.1519165,1.999939,-0.9160156,2.1347656,-1.3779297,15.319766,-5.304408,-1.9241894,-19.670382,1.4864502,-0.6074219,-0.7588501,-2.59375,-0.7685547,0.29492188,43.440987,-39.922466,-46.97063,-14.993196,-0.66638184,-0.24639893,0.9383545,0.111328125,1.4677734,0.059570312,77.26939,-34.968784,-115.226456,7.214658,0.0,0.0,0.0,0.0,0.0,0.0,0.0,-36.681843,-112.85977,-12.499511,0.0,0.0,0.0,0.0,0.0,0.0,0.0,0.25621322,0.092942104,0.95011765,-1.4943848,0.24377441,-0.012268066,-1.0400391,-1.7675781,-0.50683594,37.177647,5.304408,1.9241894,19.670382,1.4970093,0.053894043,0.2553711,0.64453125,-2.4169922,0.08691406,15.759777,14.954598,-53.973213,14.015088,-0.3526001,0.18652344,1.1130371,-0.31347656,4.15625,-0.5732422,41.899517,35.920563,-118.85504,-9.043622,0.0,0.0,0.0,0.0,0.0,0.0,0.0,21.718409,-120.6931,-22.483349,0.0,0.0,0.0,0.0,0.0,0.0,0.0,17.404152,40.01798,-8.607911,
1.816406222933438,93,0.3192749,1.2373657,0.6578369,-1.0527344,0.29296875,-0.20019531,0.0,0.0,0.0,0.0,0.0,0.0,0.0,0.0,0.0,0.0,0.0,-0.27981335,-0.08073565,-0.94591343,-0.7426758,0.8352051,-0.17749023,1.6005859,-0.32714844,-0.46777344,12.423941,-5.7930045,-1.671478,-19.583342,0.89038086,-0.9770508,-0.30615234,-0.7763672,-0.46875,0.07714844,44.017464,-40.006187,-46.925877,-14.013471,-0.80078125,0.1751709,0.9610596,0.018554688,1.1816406,0.1171875,81.64905,-33.44254,-114.94783,8.512294,0.0,0.0,0.0,0.0,0.0,0.0,0.0,-34.483334,-112.638374,-11.263064,0.0,0.0,0.0,0.0,0.0,0.0,0.0,0.27981335,0.08073565,0.94591343,-1.437561,-0.002319336,0.16668701,-2.9169922,-2.9023438,-0.8544922,37.299885,5.7930045,1.671478,19.583342,1.5565186,0.24273682,0.27661133,-0.19726562,-2.8291016,0.6484375,21.600426,13.824078,-54.65515,16.061373,-0.46472168,0.2008667,1.2069702,-0.42089844,5.3632812,-1.0800781,45.787735,37.03991,-117.71332,-9.739916,0.0,0.0,0.0,0.0,0.0,0.0,0.0,24.122215,-120.30989,-24.41292,0.0,0.0,0.0,0.0,0.0,0.0,0.0,19.205345,39.158066,-9.023409,
1.8359374726423996,94,0.17492676,1.0531006,0.602417,0.045898438,0.87890625,-0.12890625,0.0,0.0,0.0,0.0,0.0,0.0,0.0,0.0,0.0,0.0,0.0,-0.2949722,-0.0707005,-0.9430747,-0.73150635,0.5409546,-0.34375,-2.8046875,2.8564453,-0.31933594,9.285292,-6.106838,-1.4637195,-19.52457,0.80529785,-0.49072266,-0.7072754,2.4140625,-1.5947266,-0.41308594,43.299675,-37.75126,-48.305984,-15.113201,-0.95129395,-0.028503418,1.0577393,0.021484375,0.8378906,0.10253906,83.17169,-28.79562,-116.34545,6.531622,0.0,0.0,0.0,0.0,0.0,0.0,0.0,-29.187412,-114.04143,-13.273315,0.0,0.0,0.0,0.0,0.0,0.0,0.0,0.2949722,0.0707005,0.9430747,-1.4135742,-0.2319336,0.29766846,-2.6298828,-3.046875,-1.1035156,37.369778,6.106838,1.4637195,19.52457,1.6276855,0.099487305,-0.07537842,-1.2324219,-3.3320312,1.2138672,28.446093,12.284441,-55.195976,18.322197,-0.7401123,0.23736572,1.4029541,0.21484375,6.419922,-1.6660156,50.215187,37.5674,-115.79765,-11.168098,0.0,0.0,0.0,0.0,0.0,0.0,0.0,26.030777,-119.35206,-26.841122,0.0,0.0,0.0,0.0,0.0,0.0,0.0,21.053844,38.142673,-9.444645,
1.8554687223513613,95,-0.04699707,0.8364868,0.6224365,0.24902344,1.0849609,-0.095703125,0.0,0.0,0.0,0.0,0.0,0.0,0.0,0.0,0.0,0.0,0.0,-0.2933458,-0.07355343,-0.951339,-1.1224976,-0.032043457,0.22357178,-2.5029297,3.1796875,-0.24023438,10.432414,-6.0731683,-1.5227841,-19.695667,0.9984131,0.012268066,-0.74401855,1.7607422,-0.6298828,-0.5361328,40.796955,-33.901836,-51.181442,-17.226017,-0.8362427,-0.1862793,0.97698975,0.005859375,0.36914062,0.14550781,83.29708,-23.412231,-119.094215,4.1352863,0.0,0.0,0.0,0.0,0.0,0.0,0.0,-23.191357,-116.67211,-15.665091,0.0,0.0,0.0,0.0,0.0,0.0,0.0,0.2933458,0.07355343,0.951339,-1.4255371,-0.29992676,0.24505615,-2.3271484,-3.9345703,-1.1708984,36.467823,6.0731683,1.5227841,19.695667,1.5821533,-0.14874268,-0.3206787,-2.6640625,-3.2910156,1.2490234,36.165054,9.954515,-55.326195,21.4812,-0.84039307,0.17260742,1.2615356,0.82421875,7.189453,-2.1386719,54.943756,37.02507,-113.16293,-11.782633,0.0,0.0,0.0,0.0,0.0,0.0,0.0,26.884016,-117.779434,-28.186642,0.0,0.0,0.0,0.0,0.0,0.0,0.0,22.717571,37.46725,-9.901781,
1.874999972060323,96,-0.14337158,0.7178345,0.62402344,-0.5810547,0.9189453,0.123046875,0.0,0.0,0.0,0.0,0.0,0.0,0.0,0.0,0.0,0.0,0.0,-0.25285718,-0.07756606,-0.9632689,-1.2278442,0.04736328,0.042541504,-1.9560547,2.461914,-0.4951172,9.700446,-5.2349267,-1.6058577,-19.94265,1.0149536,0.095703125,-0.428833,-0.25390625,-0.6640625,-0.09765625,39.31378,-30.386877,-52.69163,-17.255714,-0.61279297,-0.003479004,0.8742676,-0.05078125,0.13476562,0.072265625,84.02034,-18.161064,-120.278656,4.2229137,0.0,0.0,0.0,0.0,0.0,0.0,0.0,-17.804592,-117.78654,-15.606432,0.0,0.0,0.0,0.0,0.0,0.0,0.0,0.25285718,0.07756606,0.9632689,-1.3954468,-0.01361084,-0.045654297,-1.140625,-3.5205078,-1.0,32.07153,5.2349267,1.6058577,19.94265,1.3786011,-0.55389404,-0.85809326,-4.5654297,-3.0761719,0.8935547,44.140087,6.545957,-55.172634,24.927479,-1.2550049,0.30010986,1.526001,1.4345703,6.9697266,-2.7080078,60.24556,35.535465,-109.993225,-11.6741295,0.0,0.0,0.0,0.0,0.0,0.0,0.0,26.784592,-115.70528,-28.570526,0.0,0.0,0.0,0.0,0.0,0.0,0.0,22.328594,37.980278,-8.919551,
1.8945312217692847,97,-0.011474609,0.56591797,0.70684814,-1.2929688,0.76464844,0.119140625,0.0,0.0,0.0,0.0,0.0,0.0,0.0,0.0,0.0,0.0,0.0,-0.21152231,-0.081303075,-0.9714581,-1.0304565,-0.117248535,0.05895996,-2.8427734,2.796875,-0.16699219,10.132169,-4.3791676,-1.6832255,-20.112194,1.156311,-0.33795166,-0.2962036,0.0859375,-0.86035156,-0.028320312,37.43846,-26.501902,-54.137592,-17.472965,-0.58392334,-0.08111572,0.8546753,-0.06933594,0.11621094,0.03515625,83.78742,-12.655791,-121.5515,3.5733204,0.0,0.0,0.0,0.0,0.0,0.0,0.0,-12.606991,-119.1701,-16.277914,0.0,0.0,0.0,0.0,0.0,0.0,0.0,0.21152231,0.081303075,0.9714581,-1.4848022,0.20501709,-0.31915283,0.92285156,-2.5488281,0.0,28.700937,4.3791676,1.6832255,20.112194,1.0049438,-0.8456421,-1.2496338,-3.9794922,-2.140625,0.42285156,50.50711,3.682756,-54.818314,27.649145,-0.80755615,0.026062012,1.0507812,1.0576172,6.2177734,-2.8759766,65.36739,34.233368,-107.03708,-11.394632,0.0,0.0,0.0,0.0,0.0,0.0,0.0,26.960478,-113.83786,-28.615824,0.0,0.0,0.0,0.0,0.0,0.0,0.0,21.851076,38.393185,-7.970982,
1.9140624714782464,98,0.16040039,0.56848145,0.72924805,-1.2617188,0.5371094,0.20800781,0.0,0.0,0.0,0.0,0.0,0.0,0.0,0.0,0.0,0.0,0.0,-0.16434786,-0.088342845,-0.98032963,-1.0353394,-0.42730713,0.33447266,-2.5986328,2.7207031,-0.12988281,9.972476,-3.40251,-1.8289709,-20.295862,1.0070801,-0.022094727,-0.30358887,1.6728516,-0.34472656,-0.44628906,35.23729,-22.559484,-55.449635,-17.507912,-0.5751343,-0.036071777,0.86047363,-0.03125,0.09765625,0.016601562,81.18663,-7.6995783,-122.72107,3.4344769,0.0,0.0,0.0,0.0,0.0,0.0,0.0,-8.163908,-120.50645,-16.429485,0.0,0.0,0.0,0.0,0.0,0.0,0.0,0.16434786,0.088342845,0.98032963,-1.4691772,0.38208008,-0.7344971,1.5517578,-2.256836,0.68847656,24.527702,3.40251,1.8289709,20.295862,0.69781494,-0.8533325,-1.2789917,-0.72753906,-1.3398438,-0.7001953,55.21565,0.74142265,-54.340244,29.676777,-0.11193848,1.4518433,0.56866455,0.8251953,6.1816406,-2.4033203,68.38199,32.669067,-104.76557,-10.608227,0.0,0.0,0.0,0.0,0.0,0.0,0.0,26.93379,-112.39105,-28.087093,0.0,0.0,0.0,0.0,0.0,0.0,0.0,20.524448,39.326565,-6.9847617,
1.933593721187208,99,0.29663086,0.7057495,0.54364014,-0.2578125,0.6113281,0.35058594,0.0,0.0,0.0,0.0,0.0,0.0,0.0,0.0,0.0,0.0,0.0,-0.13234273,-0.104185656,-0.9844173,-0.93048096,-0.37060547,0.22802734,-1.5058594,2.2480469,-0.11621094,10.249085,-2.7399058,-2.1569662,-20.380491,0.9116211,0.20373535,-0.15435791,0.5214844,-0.65625,-0.1328125,32.409096,-19.397127,-56.565754,-17.016602,-0.5531006,-0.046325684,0.80908203,-0.0126953125,0.09667969,-9.765625E-4,77.36634,-4.7970533,-123.919815,3.8546562,0.0,0.0,0.0,0.0,0.0,0.0,0.0,-5.7706265,-121.86473,-16.009966,0.0,0.0,0.0,0.0,0.0,0.0,0.0,0.13234273,0.104185656,0.9844173,-1.223999,0.23150635,-1.0512085,-0.5527344,-2.4677734,0.9189453,20.323988,2.7399058,2.1569662,20.380491,0.526062,-0.47546387,-1.1783447,2.875,-0.73046875,-1.7695312,58.95704,-2.4176822,-53.615498,30.999182,-2.0,1.3861694,-1.9191284,-1.7988281,2.6425781,0.26171875,70.71211,31.131405,-102.91176,-9.378572,0.0,0.0,0.0,0.0,0.0,0.0,0.0,27.204136,-110.36048,-27.448408,0.0,0.0,0.0,0.0,0.0,0.0,0.0,19.339859,39.989,-6.832234,
1.9531249708961698,100,0.17144775,0.85736084,0.43475342,0.24414062,0.9482422,0.59765625,0.0,0.0,0.0,0.0,0.0,0.0,0.0,0.0,0.0,0.0,0.0,-0.109208286,-0.12629427,-0.9854124,-0.9538574,-0.20172119,0.1552124,-1.2050781,2.6259766,0.17382812,11.789903,-2.2609513,-2.6146827,-20.40109,1.038147,0.09777832,-0.19580078,-0.4560547,-0.58691406,0.068359375,29.843323,-16.312813,-57.722633,-16.505125,-0.5770874,-0.04168701,0.8140259,0.025390625,0.095703125,0.017578125,75.20865,-1.4600697,-125.11171,4.0655155,0.0,0.0,0.0,0.0,0.0,0.0,0.0,-2.896116,-123.21041,-15.7873,0.0,0.0,0.0,0.0,0.0,0.0,0.0,0.109208286,0.12629427,0.9854124,-1.0463257,0.08001709,-0.67022705,-2.3144531,-3.118164,0.7949219,16.23714,2.2609513,2.6146827,20.40109,0.262146,-0.043701172,-1.2667847,3.0332031,-0.5283203,-1.1894531,62.528484,-6.0498686,-52.59688,31.91391,-0.52716064,0.5319824,1.4059448,-2.703125,-1.9990234,2.0878906,71.20486,28.90477,-101.10899,-8.225647,0.0,0.0,0.0,0.0,0.0,0.0,0.0,25.811193,-107.38038,-26.905624,0.0,0.0,0.0,0.0,0.0,0.0,0.0,18.685303,40.266197,-7.23147,
1.9726562206051315,101,-0.06793213,0.92578125,0.5152588,-0.21972656,1.1884766,0.61035156,0.0,0.0,0.0,0.0,0.0,0.0,0.0,0.0,0.0,0.0,0.0,-0.08237752,-0.13904914,-0.98658085,-1.001709,-0.16583252,0.20751953,-1.5253906,2.8125,0.3671875,13.684627,-1.7054693,-2.8787482,-20.425282,1.0701294,-0.028076172,-0.1786499,-0.15136719,-0.4970703,0.09472656,27.633654,-12.812367,-58.63419,-16.23762,-0.5598755,-0.087646484,0.8388672,0.026367188,0.059570312,0.037109375,74.27656,2.9383726,-125.87633,4.137684,0.0,0.0,0.0,0.0,0.0,0.0,0.0,1.0425954,-124.12566,-15.689589,0.0,0.0,0.0,0.0,0.0,0.0,0.0,0.08237752,0.13904914,0.98658085,-1.0666504,0.002746582,-0.20892334,-2.7939453,-3.5332031,0.7392578,11.743665,1.7054693,2.8787482,20.425282,0.82598877,-0.31054688,-0.8565674,1.8447266,0.6953125,-0.62402344,65.51301,-10.421249,-51.448326,32.72567,0.18658447,0.030029297,0.70043945,-2.8789062,-2.2050781,2.1074219,72.62465,24.729927,-100.18141,-6.9557037,0.0,0.0,0.0,0.0,0.0,0.0,0.0,21.981606,-105.1301,-26.088085,0.0,0.0,0.0,0.0,0.0,0.0,0.0,18.121153,40.537796,-7.2264943,
1.9921874703140932,102,-0.2836914,0.88879395,0.5216675,-0.115234375,0.76660156,0.6230469,0.0,0.0,0.0,0.0,0.0,0.0,0.0,0.0,0.0,0.0,0.0,-0.06348011,-0.13910559,-0.9878291,-0.98114014,-0.18389893,0.041931152,-1.6015625,2.9257812,0.4638672,15.615454,-1.3142354,-2.879917,-20.451124,1.0354004,-0.0051879883,-0.16326904,0.18847656,-0.48242188,0.028320312,24.210405,-9.298663,-59.150043,-16.013313,-0.5623779,-0.061828613,0.8150635,0.1015625,0.11230469,0.056640625,72.08873,6.1190977,-126.684814,3.655264,0.0,0.0,0.0,0.0,0.0,0.0,0.0,3.767952,-125.08319,-16.135653,0.0,0.0,0.0,0.0,0.0,0.0,0.0,0.06348011,0.13910559,0.9878291,-1.0709229,-0.016784668,-0.16680908,-2.7714844,-2.9091797,0.69921875,7.7447352,1.3142354,2.879917,20.451124,0.55810547,-0.37487793,-1.022644,3.883789,1.4794922,-1.1298828,67.11343,-14.4154625,-50.428356,33.089973,-0.16137695,-0.21789551,0.9008179,-2.40625,-2.6503906,1.4833984,73.32086,20.61119,-100.36142,-5.172863,0.0,0.0,0.0,0.0,0.0,0.0,0.0,18.251972,-104.232994,-24.626106,0.0,0.0,0.0,0.0,0.0,0.0,0.0,17.500345,40.862835,-6.878895,
2.011718720023055,103,-0.28027344,0.7943115,0.5197754,0.0048828125,0.22851562,0.57910156,0.0,0.0,0.0,0.0,0.0,0.0,0.0,0.0,0.0,0.0,0.0,-0.05805105,-0.13554028,-0.988778,-0.98760986,-0.18444824,0.081726074,-1.1875,2.7548828,0.4814453,17.821508,-1.2018385,-2.8061035,-20.47077,0.975647,-0.03894043,-0.18676758,-0.040039062,-0.47851562,0.001953125,20.871311,-6.0304503,-59.411076,-15.778793,-0.5498047,-0.026855469,0.8327637,0.12011719,0.12988281,0.056640625,69.818924,9.093544,-127.193634,3.2694702,0.0,0.0,0.0,0.0,0.0,0.0,0.0,6.252349,-125.709724,-16.466612,0.0,0.0,0.0,0.0,0.0,0.0,0.0,0.05805105,0.13554028,0.988778,-1.0117798,-0.17626953,-0.3753662,-2.9208984,-2.3769531,0.41503906,4.8050556,1.2018385,2.8061035,20.47077,0.352417,0.12719727,-0.9230957,5.2597656,1.4394531,-0.93847656,67.21688,-17.049564,-49.793163,32.3464,-0.095458984,-0.1307373,0.9546509,-1.6230469,-3.7324219,0.9501953,66.39795,18.516895,-101.01749,-3.6705322,0.0,0.0,0.0,0.0,0.0,0.0,0.0,15.449678,-104.87889,-23.026691,0.0,0.0,0.0,0.0,0.0,0.0,0.0,16.967709,41.13284,-6.6346035,
2.0312499697320168,104,-0.15032959,0.6425171,0.45941162,-0.41503906,-0.01171875,0.47753906,0.0,0.0,0.0,0.0,0.0,0.0,0.0,0.0,0.0,0.0,0.0,-0.06565529,-0.13921806,-0.9754632,-1.0029297,-0.17108154,-0.008666992,-0.24707031,1.9755859,0.62597656,21.244198,-1.3592677,-2.8822453,-20.195114,0.9876709,-0.14001465,-0.2859497,-0.076171875,-0.42089844,0.0390625,18.23914,-3.687313,-59.63464,-15.34469,-0.56518555,-0.049926758,0.80810547,0.1015625,0.111328125,0.038085938,67.47627,11.329842,-127.653564,2.909708,0.0,0.0,0.0,0.0,0.0,0.0,0.0,8.033626,-126.29041,-16.764826,0.0,0.0,0.0,0.0,0.0,0.0,0.0,0.06565529,0.13921806,0.9754632,-0.89727783,-0.32800293,-0.38049316,-3.0732422,-2.665039,0.048828125,3.1506999,1.3592677,2.8822453,20.195114,0.48388672,0.28894043,-0.99786377,4.3203125,2.2695312,-1.1630859,66.45575,-18.896582,-49.127655,31.407825,-0.06439209,0.11218262,0.98791504,-1.1191406,-4.4091797,0.6455078,59.789993,15.889856,-102.04802,-2.8100052,0.0,0.0,0.0,0.0,0.0,0.0,0.0,11.750875,-105.84724,-21.971079,0.0,0.0,0.0,0.0,0.0,0.0,0.0,17.403088,40.29924,-6.92285,
2.0507812194409785,105,-0.045654297,0.5510254,0.4100952,-0.7080078,0.049804688,0.3935547,0.0,0.0,0.0,0.0,0.0,0.0,0.0,0.0,0.0,0.0,0.0,-0.09413877,-0.14734575,-0.9718503,-0.95739746,-0.1105957,-0.055358887,-0.00390625,1.9326172,0.98828125,26.595634,-1.9489638,-3.0505137,-20.120314,0.97735596,-0.15356445,-0.22009277,0.18945312,-0.3671875,0.0078125,15.932922,-1.937229,-59.877533,-15.579027,-0.5789795,-0.033813477,0.82092285,0.08300781,0.11230469,0.037109375,65.15933,12.857065,-128.17139,1.8170853,0.0,0.0,0.0,0.0,0.0,0.0,0.0,9.131475,-126.91614,-17.787392,0.0,0.0,0.0,0.0,0.0,0.0,0.0,0.09413877,0.14734575,0.9718503,-0.7546997,-0.40319824,-0.2937622,-2.461914,-3.0146484,-0.10253906,2.6792727,1.9489638,3.0505137,20.120314,0.428833,0.3178711,-0.8380127,0.7441406,3.584961,-1.4365234,64.90816,-20.495445,-48.11516,31.094528,-0.13720703,0.30023193,1.0106812,-0.8466797,-5.0654297,0.8496094,54.664505,13.529232,-103.97536,0.9796219,0.0,0.0,0.0,0.0,0.0,0.0,0.0,8.070376,-107.47176,-17.897484,0.0,0.0,0.0,0.0,0.0,0.0,0.0,19.329048,39.239265,-7.821526,
2.07031246914994,106,0.022216797,0.4821167,0.48339844,-0.6064453,0.16015625,0.30078125,0.0,0.0,0.0,0.0,0.0,0.0,0.0,0.0,0.0,0.0,0.0,-0.11868644,-0.15227297,-0.9697702,-1.026123,-0.15802002,0.10803223,0.29785156,1.9326172,1.0830078,31.712448,-2.4571788,-3.1525226,-20.07725,1.0254517,-0.037231445,-0.14038086,0.28320312,-0.40625,-0.0078125,13.961962,-0.2592287,-59.97029,-16.041512,-0.55804443,-0.04034424,0.82684326,0.08300781,0.11230469,0.037109375,63.073895,14.165197,-128.51485,0.6638279,0.0,0.0,0.0,0.0,0.0,0.0,0.0,10.004963,-127.36369,-18.85858,0.0,0.0,0.0,0.0,0.0,0.0,0.0,0.11868644,0.15227297,0.9697702,-0.56585693,-0.33044434,-0.25012207,-1.4072266,-1.9921875,-0.032226562,2.5751147,2.4571788,3.1525226,20.07725,0.3717041,0.084106445,-0.87683105,-0.9082031,4.333008,-1.4443359,63.5322,-22.3891,-46.950962,31.074368,-0.16339111,0.35595703,0.9802246,-0.8017578,-5.564453,1.2636719,51.33725,11.078236,-105.91749,6.8316383,0.0,0.0,0.0,0.0,0.0,0.0,0.0,4.2414694,-108.69542,-11.705952,0.0,0.0,0.0,0.0,0.0,0.0,0.0,21.167454,38.18522,-8.586433,
2.089843718858902,107,0.0859375,0.47851562,0.49365234,-0.36914062,0.20996094,0.24023438,0.0,0.0,0.0,0.0,0.0,0.0,0.0,0.0,0.0,0.0,0.0,-0.1422297,-0.15645835,-0.9672171,-1.0024414,-0.12219238,0.09674072,0.37402344,1.765625,0.8144531,36.466763,-2.944597,-3.239173,-20.024391,1.0539551,0.025878906,-0.016784668,0.078125,-0.50097656,0.13964844,12.503802,1.0525663,-59.986904,-16.411592,-0.5609741,-0.038208008,0.80804443,0.1015625,0.14746094,0.037109375,61.4652,15.114649,-128.72304,-0.1817913,0.0,0.0,0.0,0.0,0.0,0.0,0.0,10.529663,-127.67257,-19.615114,0.0,0.0,0.0,0.0,0.0,0.0,0.0,0.1422297,0.15645835,0.9672171,-0.50878906,-0.27252197,-0.3027954,-0.48632812,-1.375,-0.041992188,3.7829442,2.944597,3.239173,20.024391,0.32800293,-0.107910156,-0.8400879,-0.046875,5.1904297,-1.5029297,61.008068,-23.367334,-46.098305,31.109303,-0.39788818,0.17425537,1.1358643,-0.6933594,-5.779297,1.6201172,50.67517,8.675501,-108.0869,13.373123,0.0,0.0,0.0,0.0,0.0,0.0,0.0,1.431428,-109.566734,-5.0897465,0.0,0.0,0.0,0.0,0.0,0.0,0.0,22.964663,37.01188,-9.364057,
2.1093749685678636,108,0.07696533,0.5549927,0.44873047,-0.4033203,0.34277344,0.16894531,0.0,0.0,0.0,0.0,0.0,0.0,0.0,0.0,0.0,0.0,0.0,-0.16350797,-0.15908754,-0.96437186,-1.0268555,-0.054992676,0.17449951,0.58203125,1.6552734,0.5839844,40.865833,-3.3851209,-3.2936053,-19.965487,0.9971924,0.014160156,0.05645752,-0.33691406,-0.55371094,0.2421875,11.375859,2.1447597,-59.92575,-16.694712,-0.54693604,-0.036743164,0.8248291,0.12011719,0.21972656,0.055664062,60.509712,15.841366,-128.82803,-0.8616142,0.0,0.0,0.0,0.0,0.0,0.0,0.0,10.840666,-127.87331,-20.197123,0.0,0.0,0.0,0.0,0.0,0.0,0.0,0.16350797,0.15908754,0.96437186,-0.4335327,-0.20751953,-0.33776855,-0.18066406,-1.4033203,-0.0859375,5.088042,3.3851209,3.2936053,19.965487,0.30773926,-0.14251709,-0.8434448,0.6660156,5.569336,-1.4404297,58.170967,-24.216839,-45.26498,31.358473,-0.77093506,0.18847656,1.3479614,-0.45507812,-6.243164,1.7314453,50.79628,5.4788322,-109.93222,20.432549,0.0,0.0,0.0,0.0,0.0,0.0,0.0,-1.579556,-109.730865,1.8401508,0.0,0.0,0.0,0.0,0.0,0.0,0.0,24.654755,35.765846,-10.08029,
