TOTAL_TIME,0m10s
TOTAL_FRAMES,499
SELECTED_FRAMES,499
NO_OF_JOINTS,12
FREQUENCY,51.2
DESCRIPTION,Capture 42
TIME_STAMP,Nov 1, 2010

Time,Frame,Pelvis_accelX_Pelvis,Pelvis_accelY_Pelvis,Pelvis_accelZ_Pelvis,Pelvis_gyroX_Pelvis,Pelvis_gyroY_Pelvis,Pelvis_gyroZ_Pelvis,Pelvis_Joint angle_Pelvis,Pelvis_Relative pos X_Pelvis,Pelvis_Relative pos Y_Pelvis,Pelvis_Relative pos Z_Pelvis,RightPelvis_accelX_RightPelvis,RightPelvis_accelY_RightPelvis,RightPelvis_accelZ_RightPelvis,RightPelvis_gyroX_RightPelvis,RightPelvis_gyroY_RightPelvis,RightPelvis_gyroZ_RightPelvis,RightPelvis_Joint angle_RightPelvis,RightPelvis_Relative pos X_RightPelvis,RightPelvis_Relative pos Y_RightPelvis,RightPelvis_Relative pos Z_RightPelvis,RightUpLeg_accelX_RightUpLeg,RightUpLeg_accelY_RightUpLeg,RightUpLeg_accelZ_RightUpLeg,RightUpLeg_gyroX_RightUpLeg,RightUpLeg_gyroY_RightUpLeg,RightUpLeg_gyroZ_RightUpLeg,RightUpLeg_Joint angle_RightUpLeg,RightUpLeg_Relative pos X_RightUpLeg,RightUpLeg_Relative pos Y_RightUpLeg,RightUpLeg_Relative pos Z_RightUpLeg,RightLeg_accelX_RightLeg,RightLeg_accelY_RightLeg,RightLeg_accelZ_RightLeg,RightLeg_gyroX_RightLeg,RightLeg_gyroY_RightLeg,RightLeg_gyroZ_RightLeg,RightLeg_Joint angle_RightLeg,RightLeg_Relative pos X_RightLeg,RightLeg_Relative pos Y_RightLeg,RightLeg_Relative pos Z_RightLeg,RightFoot_accelX_RightFoot,RightFoot_accelY_RightFoot,RightFoot_accelZ_RightFoot,RightFoot_gyroX_RightFoot,RightFoot_gyroY_RightFoot,RightFoot_gyroZ_RightFoot,RightFoot_Joint angle_RightFoot,RightFoot_Relative pos X_RightFoot,RightFoot_Relative pos Y_RightFoot,RightFoot_Relative pos Z_RightFoot,RightFootEnd_accelX_RightFootEnd,RightFootEnd_accelY_RightFootEnd,RightFootEnd_accelZ_RightFootEnd,RightFootEnd_gyroX_RightFootEnd,RightFootEnd_gyroY_RightFootEnd,RightFootEnd_gyroZ_RightFootEnd,RightFootEnd_Joint angle_RightFootEnd,RightFootEnd_Relative pos X_RightFootEnd,RightFootEnd_Relative pos Y_RightFootEnd,RightFootEnd_Relative pos Z_RightFootEnd,LeftPelvis_accelX_LeftPelvis,LeftPelvis_accelY_LeftPelvis,LeftPelvis_accelZ_LeftPelvis,LeftPelvis_gyroX_LeftPelvis,LeftPelvis_gyroY_LeftPelvis,LeftPelvis_gyroZ_LeftPelvis,LeftPelvis_Joint angle_LeftPelvis,LeftPelvis_Relative pos X_LeftPelvis,LeftPelvis_Relative pos Y_LeftPelvis,LeftPelvis_Relative pos Z_LeftPelvis,LeftUpLeg_accelX_LeftUpLeg,LeftUpLeg_accelY_LeftUpLeg,LeftUpLeg_accelZ_LeftUpLeg,LeftUpLeg_gyroX_LeftUpLeg,LeftUpLeg_gyroY_LeftUpLeg,LeftUpLeg_gyroZ_LeftUpLeg,LeftUpLeg_Joint angle_LeftUpLeg,LeftUpLeg_Relative pos X_LeftUpLeg,LeftUpLeg_Relative pos Y_LeftUpLeg,LeftUpLeg_Relative pos Z_LeftUpLeg,LeftLeg_accelX_LeftLeg,LeftLeg_accelY_LeftLeg,LeftLeg_accelZ_LeftLeg,LeftLeg_gyroX_LeftLeg,LeftLeg_gyroY_LeftLeg,LeftLeg_gyroZ_LeftLeg,LeftLeg_Joint angle_LeftLeg,LeftLeg_Relative pos X_LeftLeg,LeftLeg_Relative pos Y_LeftLeg,LeftLeg_Relative pos Z_LeftLeg,LeftFoot_accelX_LeftFoot,LeftFoot_accelY_LeftFoot,LeftFoot_accelZ_LeftFoot,LeftFoot_gyroX_LeftFoot,LeftFoot_gyroY_LeftFoot,LeftFoot_gyroZ_LeftFoot,LeftFoot_Joint angle_LeftFoot,LeftFoot_Relative pos X_LeftFoot,LeftFoot_Relative pos Y_LeftFoot,LeftFoot_Relative pos Z_LeftFoot,LeftFootEnd_accelX_LeftFootEnd,LeftFootEnd_accelY_LeftFootEnd,LeftFootEnd_accelZ_LeftFootEnd,LeftFootEnd_gyroX_LeftFootEnd,LeftFootEnd_gyroY_LeftFootEnd,LeftFootEnd_gyroZ_LeftFootEnd,LeftFootEnd_Joint angle_LeftFootEnd,LeftFootEnd_Relative pos X_LeftFootEnd,LeftFootEnd_Relative pos Y_LeftFootEnd,LeftFootEnd_Relative pos Z_LeftFootEnd,Spine_accelX_Spine,Spine_accelY_Spine,Spine_accelZ_Spine,Spine_gyroX_Spine,Spine_gyroY_Spine,Spine_gyroZ_Spine,Spine_Joint angle_Spine,Spine_Relative pos X_Spine,Spine_Relative pos Y_Spine,Spine_Relative pos Z_Spine,
0.0,0,-0.1359253,0.6875,0.56585693,-0.18457031,1.0712891,0.53515625,0.0,0.0,0.0,0.0,0.0,0.0,0.0,0.0,0.0,0.0,0.0,-0.092763275,-0.06464672,0.9935774,-1.0385132,-0.17840576,0.11364746,-1.0400391,0.30566406,-0.0390625,62.656097,-1.9204873,-1.338387,20.570133,0.9714966,0.064086914,-0.15545654,0.23339844,-0.025390625,0.043945312,27.818228,3.8879366,-58.026237,19.256718,-0.58465576,-0.010986328,0.822876,0.08300781,0.021484375,0.038085938,16.077208,8.430216,-122.66484,50.644684,0.0,0.0,0.0,0.0,0.0,0.0,0.0,27.917997,-122.79886,55.138447,0.0,0.0,0.0,0.0,0.0,0.0,0.0,0.092763275,0.06464672,-0.9935774,-1.1538696,0.607605,-0.18377686,0.026367188,-0.5527344,1.2021484,79.78707,1.9204873,1.338387,-20.570133,0.6795044,0.11468506,-0.880188,0.625,0.1015625,-1.4316406,53.444454,24.515701,-50.820686,-24.934212,-1.135315,0.21105957,0.52490234,-1.6054688,-0.46484375,2.3466797,11.832065,11.731976,-107.18152,17.918129,0.0,0.0,0.0,0.0,0.0,0.0,0.0,29.202732,-108.61573,27.350891,0.0,0.0,0.0,0.0,0.0,0.0,0.0,37.402466,24.497936,5.08595,
0.0195312497089617,1,-0.1359253,0.6875,0.56585693,-0.18457031,1.0712891,0.53515625,0.0,0.0,0.0,0.0,0.0,0.0,0.0,0.0,0.0,0.0,0.0,-0.092763275,-0.06464672,0.9935774,-1.0385132,-0.17840576,0.11364746,-1.0400391,0.30566406,-0.0390625,62.656097,-1.9204873,-1.338387,20.570133,0.9714966,0.064086914,-0.15545654,0.23339844,-0.025390625,0.043945312,27.818228,3.8879366,-58.026237,19.256718,-0.58465576,-0.010986328,0.822876,0.08300781,0.021484375,0.038085938,16.077208,8.430216,-122.66484,50.644684,0.0,0.0,0.0,0.0,0.0,0.0,0.0,27.917997,-122.79886,55.138447,0.0,0.0,0.0,0.0,0.0,0.0,0.0,0.092763275,0.06464672,-0.9935774,-1.1538696,0.607605,-0.18377686,0.026367188,-0.5527344,1.2021484,79.78707,1.9204873,1.338387,-20.570133,0.6795044,0.11468506,-0.880188,0.625,0.1015625,-1.4316406,53.444454,24.515701,-50.820686,-24.934212,-1.135315,0.21105957,0.52490234,-1.6054688,-0.46484375,2.3466797,11.832065,11.731976,-107.18152,17.918129,0.0,0.0,0.0,0.0,0.0,0.0,0.0,29.202732,-108.61573,27.350891,0.0,0.0,0.0,0.0,0.0,0.0,0.0,37.402466,24.497936,5.08595,
0.0390624994179234,2,-0.1359253,0.6875,0.56585693,-0.18457031,1.0712891,0.53515625,0.0,0.0,0.0,0.0,0.0,0.0,0.0,0.0,0.0,0.0,0.0,-0.092763275,-0.06464672,0.9935774,-1.0385132,-0.17840576,0.11364746,-1.0400391,0.30566406,-0.0390625,62.656097,-1.9204873,-1.338387,20.570133,0.9714966,0.064086914,-0.15545654,0.23339844,-0.025390625,0.043945312,27.818228,3.8879366,-58.026237,19.256718,-0.58465576,-0.010986328,0.822876,0.08300781,0.021484375,0.038085938,16.077208,8.430216,-122.66484,50.644684,0.0,0.0,0.0,0.0,0.0,0.0,0.0,27.917997,-122.79886,55.138447,0.0,0.0,0.0,0.0,0.0,0.0,0.0,0.092763275,0.06464672,-0.9935774,-1.1538696,0.607605,-0.18377686,0.026367188,-0.5527344,1.2021484,79.78707,1.9204873,1.338387,-20.570133,0.6795044,0.11468506,-0.880188,0.625,0.1015625,-1.4316406,53.444454,24.515701,-50.820686,-24.934212,-1.135315,0.21105957,0.52490234,-1.6054688,-0.46484375,2.3466797,11.832065,11.731976,-107.18152,17.918129,0.0,0.0,0.0,0.0,0.0,0.0,0.0,29.202732,-108.61573,27.350891,0.0,0.0,0.0,0.0,0.0,0.0,0.0,37.402466,24.497936,5.08595,
0.0585937491268851,3,-0.060424805,0.83374023,0.44665527,-0.001953125,0.025390625,0.06640625,0.0,0.0,0.0,0.0,0.0,0.0,0.0,0.0,0.0,0.0,0.0,0.20815071,-0.03191628,-0.97771955,-0.9612427,0.09777832,0.23590088,0.0146484375,1.1757812,0.65625,17.073463,4.3093657,-0.6607659,-20.241825,0.94750977,-0.19610596,-0.31469727,-0.049804688,0.03515625,0.0546875,17.818977,-11.319422,-55.4273,-22.547848,-0.6468506,0.04248047,0.76446533,-0.03125,0.04296875,-9.765625E-4,12.568954,-10.095354,-127.19214,-28.35459,0.0,0.0,0.0,0.0,0.0,0.0,0.0,-27.312593,-126.97084,-38.526466,0.0,0.0,0.0,0.0,0.0,0.0,0.0,-0.20815071,0.03191628,0.97771955,-0.9159546,-0.07476807,-0.39630127,-0.022460938,0.016601562,0.016601562,6.2042503,-4.3093657,0.6607659,20.241825,1.0031738,-0.08947754,-0.1930542,-0.057617188,0.040039062,0.046875,4.57029,-1.4775352,-56.14833,16.48077,-0.4182129,0.053649902,0.92523193,-0.049804688,0.61328125,1.0771484,6.430169,-4.0834193,-128.08324,14.276854,0.0,0.0,0.0,0.0,0.0,0.0,0.0,-24.049862,-128.38145,13.203534,0.0,0.0,0.0,0.0,0.0,0.0,0.0,-0.46784657,44.976574,-1.5677987,
0.0781249988358468,4,-0.06542969,0.8309326,0.44573975,-0.0234375,-0.032226562,0.030273438,0.0,0.0,0.0,0.0,0.0,0.0,0.0,0.0,0.0,0.0,0.0,0.20864367,-0.031743787,-0.97758174,-0.96209717,0.1038208,0.2230835,-0.041015625,0.796875,0.4609375,16.321373,4.3195696,-0.6571948,-20.238972,0.9382324,-0.20257568,-0.3196411,0.0068359375,0.03515625,0.037109375,16.714314,-10.336617,-55.65827,-23.29259,-0.64959717,0.054504395,0.7406616,-0.01171875,0.005859375,-0.018554688,12.731677,-9.128834,-127.423965,-29.143269,0.0,0.0,0.0,0.0,0.0,0.0,0.0,-26.326736,-127.20388,-39.34773,0.0,0.0,0.0,0.0,0.0,0.0,0.0,-0.20864367,0.031743787,0.97758174,-0.8908081,-0.07336426,-0.39337158,-0.041992188,-0.0029296875,0.017578125,6.210062,-4.3195696,0.6571948,20.238972,0.9946289,-0.074401855,-0.17224121,-0.057617188,0.021484375,0.06640625,4.6199512,-1.4689708,-56.151726,16.468431,-0.39764404,0.060302734,0.9152832,-0.03125,0.5371094,0.9267578,7.3873224,-4.1039886,-128.08356,14.286421,0.0,0.0,0.0,0.0,0.0,0.0,0.0,-24.046581,-128.34653,12.851802,0.0,0.0,0.0,0.0,0.0,0.0,0.0,-0.47283286,44.97506,-1.5613346,
0.09765624854480849,5,-0.08477783,0.83929443,0.43536377,-0.021484375,0.0068359375,0.06640625,0.0,0.0,0.0,0.0,0.0,0.0,0.0,0.0,0.0,0.0,0.0,0.20810476,-0.031251244,-0.9777588,-0.9528198,0.11456299,0.2163086,0.015625,0.25097656,0.0546875,15.942324,4.3084145,-0.64699763,-20.242638,0.9393921,-0.1987915,-0.29571533,-0.0126953125,0.03515625,0.036132812,16.168066,-9.850302,-55.760067,-23.644104,-0.661499,0.064575195,0.7614136,-0.01171875,0.005859375,0.018554688,12.867486,-8.642843,-127.52222,-29.50215,0.0,0.0,0.0,0.0,0.0,0.0,0.0,-25.820137,-127.29944,-39.742985,0.0,0.0,0.0,0.0,0.0,0.0,0.0,-0.20810476,0.031251244,0.9777588,-0.9069214,-0.078308105,-0.42089844,-0.061523438,-0.001953125,0.038085938,6.1857686,-4.3084145,0.64699763,20.242638,0.99902344,-0.07946777,-0.2078247,-0.0390625,0.05859375,0.06542969,4.6486936,-1.4195435,-56.16434,16.482954,-0.39874268,0.035461426,0.90252686,-0.06933594,0.42578125,0.64453125,8.096649,-4.038645,-128.09416,14.329987,0.0,0.0,0.0,0.0,0.0,0.0,0.0,-23.96435,-128.33955,12.613639,0.0,0.0,0.0,0.0,0.0,0.0,0.0,-0.47563055,44.977844,-1.5388196,
0.11718749825377019,6,-0.070373535,0.8131714,0.44873047,-0.022460938,-0.0126953125,0.06640625,0.0,0.0,0.0,0.0,0.0,0.0,0.0,0.0,0.0,0.0,0.0,0.20815912,-0.030960212,-0.9777133,-0.9650879,0.10491943,0.21813965,-0.060546875,0.021484375,0.052734375,15.904657,4.309538,-0.6409724,-20.241697,0.9360962,-0.2043457,-0.33654785,-0.0126953125,0.03515625,0.036132812,16.169561,-9.826826,-55.758198,-23.652023,-0.6472168,0.077941895,0.75842285,0.026367188,0.0048828125,0.01953125,12.941377,-8.589012,-127.52106,-29.522379,0.0,0.0,0.0,0.0,0.0,0.0,0.0,-25.746416,-127.294235,-39.796425,0.0,0.0,0.0,0.0,0.0,0.0,0.0,-0.20815912,0.030960212,0.9777133,-0.89489746,-0.07733154,-0.38946533,-0.080078125,-9.765625E-4,-0.0029296875,6.174507,-4.309538,0.6409724,20.241697,0.99780273,-0.061462402,-0.16741943,-0.018554688,0.021484375,0.06542969,4.6258836,-1.4409907,-56.16985,16.471725,-0.41308594,0.044677734,0.9133911,-0.051757812,0.21875,0.2109375,8.376276,-4.022098,-128.09686,14.370051,0.0,0.0,0.0,0.0,0.0,0.0,0.0,-23.936111,-128.33685,12.539505,0.0,0.0,0.0,0.0,0.0,0.0,0.0,-0.4651775,44.97658,-1.5232639,
0.1367187479627319,7,-0.06726074,0.8231201,0.4586792,-9.765625E-4,0.044921875,0.06640625,0.0,0.0,0.0,0.0,0.0,0.0,0.0,0.0,0.0,0.0,0.0,0.20817664,-0.030392423,-0.9777647,-0.95391846,0.103881836,0.21411133,-0.00390625,0.041015625,0.034179688,15.923937,4.3099027,-0.6292174,-20.24276,0.9407959,-0.18206787,-0.3225708,-0.01171875,0.053710938,0.0546875,16.204573,-9.83433,-55.74283,-23.657192,-0.6635742,0.062683105,0.7644043,0.0068359375,0.005859375,0.0,13.088818,-8.563751,-127.50452,-29.537945,0.0,0.0,0.0,0.0,0.0,0.0,0.0,-25.690857,-127.27829,-39.860397,0.0,0.0,0.0,0.0,0.0,0.0,0.0,-0.20817664,0.030392423,0.9777647,-0.9033203,-0.10900879,-0.4064331,-0.00390625,0.015625,0.057617188,6.135105,-4.3099027,0.6292174,20.24276,1.0111694,-0.076660156,-0.19824219,-0.05859375,0.05859375,0.046875,4.6242743,-1.4195395,-56.178566,16.486977,-0.4048462,0.04559326,0.9035034,0.0029296875,0.028320312,0.00390625,8.302931,-3.9835148,-128.11406,14.376773,0.0,0.0,0.0,0.0,0.0,0.0,0.0,-23.898573,-128.36844,12.55849,0.0,0.0,0.0,0.0,0.0,0.0,0.0,-0.48149776,44.978813,-1.5006183,
0.1562499976716936,8,-0.06994629,0.80145264,0.48046875,-0.041992188,-0.01171875,0.048828125,0.0,0.0,0.0,0.0,0.0,0.0,0.0,0.0,0.0,0.0,0.0,0.20918345,-0.029794764,-0.9774976,-0.9580078,0.09802246,0.21801758,-0.00390625,0.0029296875,0.033203125,15.901132,4.3307467,-0.616844,-20.23723,0.9387207,-0.18597412,-0.3026123,-0.06933594,0.016601562,0.053710938,16.18449,-9.79784,-55.73651,-23.6337,-0.6669922,0.038208008,0.75164795,-0.01171875,-0.030273438,-0.018554688,13.225065,-8.53385,-127.49334,-29.511175,0.0,0.0,0.0,0.0,0.0,0.0,0.0,-25.63928,-127.27197,-39.870216,0.0,0.0,0.0,0.0,0.0,0.0,0.0,-0.20918345,0.029794764,0.9774976,-0.8970947,-0.09399414,-0.42596436,-0.00390625,0.0546875,0.037109375,6.122566,-4.3307467,0.616844,20.23723,1.007019,-0.07757568,-0.20703125,-0.057617188,0.05859375,0.06640625,4.628847,-1.4165373,-56.1939,16.46856,-0.41400146,0.06958008,0.9222412,0.0029296875,0.028320312,0.00390625,8.130476,-3.9512749,-128.12662,14.352847,0.0,0.0,0.0,0.0,0.0,0.0,0.0,-23.868948,-128.37425,12.575211,0.0,0.0,0.0,0.0,0.0,0.0,0.0,-0.4894532,44.976444,-1.4756539,
0.1757812473806553,9,-0.07659912,0.82922363,0.4430542,-0.060546875,0.02734375,0.06738281,0.0,0.0,0.0,0.0,0.0,0.0,0.0,0.0,0.0,0.0,0.0,0.20848432,-0.029146034,-0.97770363,-0.97229004,0.10290527,0.23199463,-0.00390625,0.0029296875,0.033203125,15.8935995,4.3162704,-0.6034132,-20.241497,0.94329834,-0.20080566,-0.32562256,-0.0126953125,0.0546875,0.016601562,16.215704,-9.830946,-55.718422,-23.621998,-0.6539917,0.03778076,0.76348877,-0.03125,-0.01171875,0.0,13.309604,-8.555162,-127.47706,-29.515015,0.0,0.0,0.0,0.0,0.0,0.0,0.0,-25.639654,-127.261475,-39.908344,0.0,0.0,0.0,0.0,0.0,0.0,0.0,-0.20848432,0.029146034,0.97770363,-0.8909912,-0.08770752,-0.40625,-0.022460938,0.016601562,0.016601562,6.1023927,-4.3162704,0.6034132,20.241497,1.0150146,-0.09466553,-0.19818115,-0.057617188,0.040039062,0.046875,4.641356,-1.3866053,-56.20329,16.464045,-0.39672852,0.045288086,0.9192505,0.021484375,0.0087890625,0.0029296875,8.038489,-3.9159586,-128.14119,14.34295,0.0,0.0,0.0,0.0,0.0,0.0,0.0,-23.833855,-128.38702,12.588787,0.0,0.0,0.0,0.0,0.0,0.0,0.0,-0.48354888,44.97917,-1.4439722,
0.19531249708961698,10,-0.060058594,0.82995605,0.47045898,-0.061523438,0.0078125,0.049804688,0.0,0.0,0.0,0.0,0.0,0.0,0.0,0.0,0.0,0.0,0.0,0.20939445,-0.029344657,-0.97746456,-0.9668579,0.114990234,0.20135498,-0.0029296875,0.041992188,-0.00390625,15.910015,4.335115,-0.6075254,-20.236546,0.9537964,-0.22576904,-0.31488037,-0.0126953125,0.0546875,0.036132812,16.172356,-9.788439,-55.732155,-23.63898,-0.65216064,0.027770996,0.774353,0.0068359375,0.005859375,0.0,13.420586,-8.537089,-127.485825,-29.58245,0.0,0.0,0.0,0.0,0.0,0.0,0.0,-25.607296,-127.270874,-40.002655,0.0,0.0,0.0,0.0,0.0,0.0,0.0,-0.20939445,0.029344657,0.97746456,-0.91796875,-0.07562256,-0.40124512,-0.041992188,-0.0029296875,0.017578125,6.0991473,-4.335115,0.6075254,20.236546,1.0110474,-0.07366943,-0.20611572,0.0,0.0390625,0.02734375,4.584668,-1.4189799,-56.200832,16.463959,-0.39672852,0.038330078,0.91729736,0.0029296875,0.009765625,0.00390625,7.9159408,-3.8951302,-128.13103,14.3300905,0.0,0.0,0.0,0.0,0.0,0.0,0.0,-23.814812,-128.37933,12.583348,0.0,0.0,0.0,0.0,0.0,0.0,0.0,-0.5060806,44.976746,-1.4586697,
0.21484374679857868,11,-0.06414795,0.82006836,0.463562,-0.0029296875,-0.0126953125,0.047851562,0.0,0.0,0.0,0.0,0.0,0.0,0.0,0.0,0.0,0.0,0.0,0.20926836,-0.029029194,-0.97751105,-0.9651489,0.105773926,0.22711182,-0.022460938,0.022460938,0.033203125,15.897676,4.3325043,-0.6009943,-20.237509,0.9472046,-0.20581055,-0.32470703,-0.03125,0.03515625,0.0546875,16.131132,-9.762733,-55.73116,-23.66187,-0.65289307,0.042663574,0.76342773,0.0068359375,0.005859375,0.0,13.501539,-8.526433,-127.485596,-29.62851,0.0,0.0,0.0,0.0,0.0,0.0,0.0,-25.581306,-127.275185,-40.071865,0.0,0.0,0.0,0.0,0.0,0.0,0.0,-0.20926836,0.029029194,0.97751105,-0.8869629,-0.08685303,-0.36401367,-0.022460938,0.055664062,0.016601562,6.072411,-4.3325043,0.6009943,20.237509,1.0109863,-0.07763672,-0.20709229,-0.038085938,0.040039062,0.06640625,4.5792813,-1.3985262,-56.207947,16.479631,-0.38641357,0.0491333,0.9172363,0.0029296875,0.009765625,0.00390625,7.8488045,-3.8424127,-128.14537,14.368883,0.0,0.0,0.0,0.0,0.0,0.0,0.0,-23.762121,-128.39902,12.628496,0.0,0.0,0.0,0.0,0.0,0.0,0.0,-0.5168838,44.97747,-1.4463542,
0.23437499650754037,12,-0.06341553,0.8338623,0.44573975,-0.021484375,0.0068359375,0.048828125,0.0,0.0,0.0,0.0,0.0,0.0,0.0,0.0,0.0,0.0,0.0,0.2088305,-0.028789697,-0.97767484,-0.9680176,0.107055664,0.21118164,-0.00390625,0.0029296875,0.052734375,15.931778,4.323439,-0.596036,-20.2409,0.9375,-0.1887207,-0.34649658,-0.01171875,0.03515625,0.055664062,16.188974,-9.792192,-55.721745,-23.67492,-0.65545654,0.064453125,0.74853516,-0.01171875,0.005859375,0.018554688,13.498759,-8.509628,-127.474106,-29.65985,0.0,0.0,0.0,0.0,0.0,0.0,0.0,-25.55615,-127.26106,-40.118195,0.0,0.0,0.0,0.0,0.0,0.0,0.0,-0.2088305,0.028789697,0.97767484,-0.93621826,-0.088378906,-0.38562012,0.015625,0.015625,0.016601562,6.041534,-4.323439,0.596036,20.2409,1.0093994,-0.068603516,-0.18835449,-0.0390625,0.05859375,0.046875,4.547561,-1.3711166,-56.20899,16.506405,-0.42340088,0.04272461,0.92822266,0.0029296875,0.009765625,0.00390625,7.6648784,-3.7412026,-128.15338,14.435507,0.0,0.0,0.0,0.0,0.0,0.0,0.0,-23.661987,-128.41222,12.704365,0.0,0.0,0.0,0.0,0.0,0.0,0.0,-0.5292994,44.980377,-1.4376,
0.2539062462165021,13,-0.07623291,0.82440186,0.4668579,0.018554688,0.043945312,0.047851562,0.0,0.0,0.0,0.0,0.0,0.0,0.0,0.0,0.0,0.0,0.0,0.2098665,-0.028326785,-0.9774745,-0.96191406,0.110839844,0.21124268,-0.041015625,0.041015625,0.034179688,15.95915,4.3448887,-0.5864523,-20.236752,0.94140625,-0.1998291,-0.29870605,-0.030273438,0.0546875,0.0546875,16.176954,-9.759471,-55.710358,-23.712284,-0.64959717,0.057373047,0.7505493,-0.01171875,0.005859375,-0.018554688,13.590595,-8.475645,-127.45722,-29.71823,0.0,0.0,0.0,0.0,0.0,0.0,0.0,-25.508247,-127.24177,-40.19705,0.0,0.0,0.0,0.0,0.0,0.0,0.0,-0.2098665,0.028326785,0.9774745,-0.9168091,-0.064819336,-0.40216064,-0.022460938,0.036132812,0.016601562,5.984548,-4.3448887,0.5864523,20.236752,0.9918823,-0.057373047,-0.16436768,-0.07714844,0.059570312,0.046875,4.6078095,-1.3913741,-56.223797,16.53161,-0.41296387,0.055786133,0.89764404,0.0029296875,0.009765625,-0.015625,7.706807,-3.8241262,-128.1714,14.540184,0.0,0.0,0.0,0.0,0.0,0.0,0.0,-23.746548,-128.43489,12.815972,0.0,0.0,0.0,0.0,0.0,0.0,0.0,-0.55421865,44.98091,-1.4225194,
0.2734374959254638,14,-0.056030273,0.81188965,0.46624756,0.016601562,-0.013671875,0.047851562,0.0,0.0,0.0,0.0,0.0,0.0,0.0,0.0,0.0,0.0,0.0,0.21131527,-0.028039843,-0.9771432,-0.9611206,0.111450195,0.2331543,-0.00390625,0.0029296875,0.0146484375,16.021595,4.3748813,-0.58051157,-20.229893,0.9498291,-0.22265625,-0.30981445,-0.05078125,0.036132812,0.03515625,16.217588,-9.752871,-55.696663,-23.709978,-0.6479492,0.037597656,0.7624512,-0.01171875,-0.0126953125,-0.037109375,13.633475,-8.448517,-127.444016,-29.718927,0.0,0.0,0.0,0.0,0.0,0.0,0.0,-25.470255,-127.22938,-40.216713,0.0,0.0,0.0,0.0,0.0,0.0,0.0,-0.21131527,0.028039843,0.9771432,-0.90997314,-0.07897949,-0.34820557,-0.041992188,0.036132812,0.017578125,5.977731,-4.3748813,0.58051157,20.229893,1.0230713,-0.09576416,-0.19042969,-0.057617188,0.040039062,0.06640625,4.644689,-1.4245605,-56.22976,16.50777,-0.4130249,0.06555176,0.9222412,-0.016601562,0.009765625,0.022460938,7.6598325,-3.894818,-128.1725,14.531969,0.0,0.0,0.0,0.0,0.0,0.0,0.0,-23.820906,-128.43587,12.849686,0.0,0.0,0.0,0.0,0.0,0.0,0.0,-0.58717513,44.979443,-1.4176996,
0.2929687456344255,15,-0.057250977,0.8018799,0.44732666,-0.021484375,0.0068359375,0.048828125,0.0,0.0,0.0,0.0,0.0,0.0,0.0,0.0,0.0,0.0,0.0,0.21278414,-0.027499352,-0.97681963,-0.9649658,0.1204834,0.21936035,-0.060546875,0.021484375,0.033203125,16.061378,4.405291,-0.5693218,-20.223196,0.9315796,-0.2218628,-0.32061768,-0.032226562,0.036132812,0.016601562,16.228626,-9.722424,-55.682594,-23.730663,-0.6557007,0.05065918,0.74957275,0.0068359375,0.005859375,0.0,13.698723,-8.403169,-127.430725,-29.759033,0.0,0.0,0.0,0.0,0.0,0.0,0.0,-25.417873,-127.2165,-40.270287,0.0,0.0,0.0,0.0,0.0,0.0,0.0,-0.21278414,0.027499352,0.97681963,-0.9209595,-0.074523926,-0.36291504,-0.00390625,-0.0234375,-0.024414062,5.9072723,-4.405291,0.5693218,20.223196,1.0073242,-0.08154297,-0.18725586,-0.05859375,0.095703125,0.046875,4.6355705,-1.4843583,-56.241085,16.528116,-0.397583,0.054504395,0.89953613,0.0029296875,0.009765625,0.00390625,7.53929,-3.974001,-128.18013,14.596641,0.0,0.0,0.0,0.0,0.0,0.0,0.0,-23.902342,-128.44344,12.948266,0.0,0.0,0.0,0.0,0.0,0.0,0.0,-0.6181102,44.978672,-1.400881,
0.3124999953433872,16,-0.064575195,0.822876,0.4317627,-0.041015625,0.026367188,0.048828125,0.0,0.0,0.0,0.0,0.0,0.0,0.0,0.0,0.0,0.0,0.0,0.2124089,-0.026868261,-0.97691727,-0.97229004,0.098083496,0.22692871,-0.041015625,0.041015625,0.0146484375,16.060192,4.397522,-0.55625635,-20.225216,0.9324951,-0.19360352,-0.2946167,-0.05078125,0.036132812,0.03515625,16.23454,-9.728699,-55.668957,-23.714933,-0.66290283,0.043029785,0.75457764,-0.01171875,-0.01171875,0.0,13.707243,-8.404992,-127.41394,-29.771084,0.0,0.0,0.0,0.0,0.0,0.0,0.0,-25.41172,-127.2009,-40.293514,0.0,0.0,0.0,0.0,0.0,0.0,0.0,-0.2124089,0.026868261,0.97691727,-0.9067993,-0.066833496,-0.40808105,-0.099609375,-0.020507812,-0.0029296875,5.847575,-4.397522,0.55625635,20.225216,0.9954834,-0.07739258,-0.1821289,-0.07714844,0.041015625,0.06640625,4.662789,-1.4606333,-56.255966,16.559683,-0.40307617,0.013366699,0.9251709,0.001953125,0.009765625,0.022460938,7.500931,-3.9532719,-128.19972,14.694038,0.0,0.0,0.0,0.0,0.0,0.0,0.0,-23.883337,-128.4674,13.062959,0.0,0.0,0.0,0.0,0.0,0.0,0.0,-0.63216615,44.979218,-1.3745188,
0.3320312450523489,17,-0.062194824,0.8120117,0.45544434,-0.001953125,0.025390625,0.06640625,0.0,0.0,0.0,0.0,0.0,0.0,0.0,0.0,0.0,0.0,0.0,0.21253094,-0.026868027,-0.9769131,-0.96435547,0.09484863,0.23986816,-0.041015625,0.022460938,0.033203125,16.079155,4.4000483,-0.55625147,-20.225128,0.93756104,-0.18878174,-0.3265381,-0.0126953125,0.036132812,0.017578125,16.253439,-9.736114,-55.669483,-23.715303,-0.63964844,0.051086426,0.7644043,0.0068359375,-0.0126953125,-0.018554688,13.789152,-8.401831,-127.41551,-29.786491,0.0,0.0,0.0,0.0,0.0,0.0,0.0,-25.394901,-127.20027,-40.329468,0.0,0.0,0.0,0.0,0.0,0.0,0.0,-0.21253094,0.026868027,0.9769131,-0.90112305,-0.091552734,-0.3630371,-0.022460938,0.016601562,0.037109375,5.848379,-4.4000483,0.55625147,20.225128,1.006958,-0.0736084,-0.2119751,-0.07714844,0.059570312,0.046875,4.690851,-1.4101102,-56.25647,16.578188,-0.40789795,0.045654297,0.9035034,0.001953125,-0.028320312,0.00390625,7.4865294,-3.9114313,-128.19742,14.66291,0.0,0.0,0.0,0.0,0.0,0.0,0.0,-23.842388,-128.46906,13.038787,0.0,0.0,0.0,0.0,0.0,0.0,0.0,-0.6397543,44.980038,-1.3762661,
0.3515624947613106,18,-0.078430176,0.8183594,0.45196533,0.017578125,0.005859375,0.06542969,0.0,0.0,0.0,0.0,0.0,0.0,0.0,0.0,0.0,0.0,0.0,0.21225762,-0.027099933,-0.97700584,-0.9588623,0.114746094,0.21032715,-0.022460938,0.00390625,-0.0048828125,16.09052,4.394391,-0.5610526,-20.22705,0.9501343,-0.21087646,-0.31280518,-0.0126953125,0.0546875,0.036132812,16.259758,-9.753564,-55.6716,-23.692877,-0.6766968,0.056274414,0.7496338,0.0068359375,0.0048828125,-0.018554688,13.907746,-8.432325,-127.41297,-29.792744,0.0,0.0,0.0,0.0,0.0,0.0,0.0,-25.4115,-127.196724,-40.359303,0.0,0.0,0.0,0.0,0.0,0.0,0.0,-0.21225762,0.027099933,0.97700584,-0.9100952,-0.08673096,-0.3914795,-0.00390625,0.015625,0.016601562,5.8609343,-4.394391,0.5610526,20.22705,0.991333,-0.08831787,-0.18591309,-0.057617188,0.040039062,0.046875,4.718333,-1.3906729,-56.247284,16.585081,-0.3986206,0.057495117,0.89953613,0.001953125,-0.028320312,0.00390625,7.432762,-3.9071624,-128.19128,14.68608,0.0,0.0,0.0,0.0,0.0,0.0,0.0,-23.840368,-128.45601,13.092255,0.0,0.0,0.0,0.0,0.0,0.0,0.0,-0.64244235,44.981415,-1.3872553,
0.37109374447027227,19,-0.09063721,0.81365967,0.44329834,-0.060546875,0.02734375,0.06738281,0.0,0.0,0.0,0.0,0.0,0.0,0.0,0.0,0.0,0.0,0.0,0.21246293,-0.026455514,-0.97694284,-0.9735718,0.088134766,0.24371338,-0.022460938,0.022460938,-0.0048828125,16.083124,4.398642,-0.54771113,-20.225744,0.94055176,-0.19189453,-0.3116455,-0.05078125,0.055664062,0.015625,16.267466,-9.7441025,-55.65854,-23.69258,-0.6767578,0.05419922,0.7624512,0.0068359375,-0.0126953125,-0.018554688,13.982866,-8.406626,-127.400665,-29.79106,0.0,0.0,0.0,0.0,0.0,0.0,0.0,-25.365158,-127.188515,-40.388557,0.0,0.0,0.0,0.0,0.0,0.0,0.0,-0.21246293,0.026455514,0.97694284,-0.9071045,-0.088378906,-0.40820312,-0.022460938,-0.0029296875,-0.00390625,5.8363013,-4.398642,0.54771113,20.225744,1.0272217,-0.06591797,-0.19464111,0.0,0.057617188,0.046875,4.6988626,-1.411772,-56.261208,16.564308,-0.40905762,0.041503906,0.9193115,0.0029296875,0.009765625,0.00390625,7.3599677,-3.9060314,-128.21017,14.673137,0.0,0.0,0.0,0.0,0.0,0.0,0.0,-23.839846,-128.47456,13.099961,0.0,0.0,0.0,0.0,0.0,0.0,0.0,-0.6496297,44.98057,-1.359349,
0.39062499417923396,20,-0.09234619,0.8059082,0.4631958,-0.041992188,0.0078125,0.06738281,0.0,0.0,0.0,0.0,0.0,0.0,0.0,0.0,0.0,0.0,0.0,0.2131648,-0.025831185,-0.97677034,-0.9559326,0.10583496,0.21612549,-0.041015625,-0.07324219,0.013671875,16.105263,4.413173,-0.53478557,-20.222174,0.9493408,-0.20202637,-0.3256836,-0.06933594,0.036132812,0.034179688,16.294447,-9.742182,-55.643803,-23.668667,-0.66778564,0.050048828,0.7515869,0.0068359375,0.005859375,0.0,14.058014,-8.389499,-127.38229,-29.76735,0.0,0.0,0.0,0.0,0.0,0.0,0.0,-25.32608,-127.17257,-40.40042,0.0,0.0,0.0,0.0,0.0,0.0,0.0,-0.2131648,0.025831185,0.97677034,-0.8878784,-0.08154297,-0.42193604,-0.022460938,-0.0029296875,-0.00390625,5.7889915,-4.413173,0.53478557,20.222174,0.98553467,-0.06329346,-0.18695068,-0.0390625,0.095703125,0.046875,4.6991963,-1.4215968,-56.277435,16.572502,-0.4151001,0.026977539,0.8838501,9.765625E-4,-0.06640625,0.00390625,7.3243456,-3.883932,-128.22736,14.748408,0.0,0.0,0.0,0.0,0.0,0.0,0.0,-23.817312,-128.49513,13.156291,0.0,0.0,0.0,0.0,0.0,0.0,0.0,-0.6713517,44.97936,-1.3360138,
0.41015624388819566,21,-0.07623291,0.83135986,0.4689331,-0.001953125,0.0068359375,0.06640625,0.0,0.0,0.0,0.0,0.0,0.0,0.0,0.0,0.0,0.0,0.0,0.21157208,-0.024785563,-0.9771738,-0.95111084,0.08898926,0.22784424,-0.022460938,0.0029296875,0.033203125,16.071804,4.3801994,-0.513138,-20.230526,0.9401245,-0.20452881,-0.33361816,-0.03125,0.03515625,0.036132812,16.290419,-9.767557,-55.62716,-23.679306,-0.66064453,0.055786133,0.74957275,0.0068359375,0.005859375,0.0,14.211078,-8.409889,-127.36621,-29.78816,0.0,0.0,0.0,0.0,0.0,0.0,0.0,-25.325825,-127.16198,-40.455276,0.0,0.0,0.0,0.0,0.0,0.0,0.0,-0.21157208,0.024785563,0.9771738,-0.88897705,-0.085510254,-0.37872314,-0.00390625,0.03515625,0.037109375,5.748116,-4.3801994,0.513138,20.230526,0.9871216,-0.07733154,-0.2076416,-0.057617188,0.05859375,0.103515625,4.734,-1.3560238,-56.294598,16.576458,-0.4171753,0.041748047,0.90948486,0.0029296875,0.009765625,-0.034179688,7.231557,-3.836388,-128.24365,14.725632,0.0,0.0,0.0,0.0,0.0,0.0,0.0,-23.773298,-128.51137,13.165097,0.0,0.0,0.0,0.0,0.0,0.0,0.0,-0.66698766,44.982227,-1.2853657,
0.42968749359715736,22,-0.054260254,0.80578613,0.44525146,-0.041015625,0.026367188,0.048828125,0.0,0.0,0.0,0.0,0.0,0.0,0.0,0.0,0.0,0.0,0.0,0.21177366,-0.024435844,-0.9771608,-0.9671631,0.093444824,0.20996094,0.015625,0.022460938,0.0146484375,16.096262,4.384372,-0.5058977,-20.230259,0.9425049,-0.19189453,-0.32562256,-0.0126953125,0.0546875,0.036132812,16.326672,-9.786779,-55.612206,-23.683664,-0.6557617,0.049682617,0.75946045,-0.01171875,0.005859375,-0.038085938,14.262222,-8.414907,-127.35118,-29.806166,0.0,0.0,0.0,0.0,0.0,0.0,0.0,-25.31979,-127.15086,-40.49077,0.0,0.0,0.0,0.0,0.0,0.0,0.0,-0.21177366,0.024435844,0.9771608,-0.93743896,-0.105895996,-0.38867188,-0.00390625,-0.00390625,0.016601562,5.7020707,-4.384372,0.5058977,20.230259,1.001831,-0.08154297,-0.21777344,-0.05859375,0.05859375,0.046875,4.704279,-1.3503261,-56.30403,16.608402,-0.41308594,0.039733887,0.90649414,0.001953125,-0.009765625,0.00390625,7.1425686,-3.8143916,-128.2436,14.72141,0.0,0.0,0.0,0.0,0.0,0.0,0.0,-23.753483,-128.51263,13.181577,0.0,0.0,0.0,0.0,0.0,0.0,0.0,-0.6716049,44.98354,-1.2704554,
0.44921874330611905,23,-0.087402344,0.82263184,0.46020508,-0.041992188,0.0078125,0.0859375,0.0,0.0,0.0,0.0,0.0,0.0,0.0,0.0,0.0,0.0,0.0,0.21187425,-0.024200011,-0.977068,-0.97021484,0.10681152,0.22711182,0.015625,0.00390625,0.0146484375,16.095016,4.3864527,-0.50101525,-20.228338,0.9393921,-0.19366455,-0.3425293,-0.03125,0.03515625,0.0546875,16.354467,-9.786088,-55.60689,-23.67557,-0.6536255,0.053588867,0.7476196,-0.01171875,0.005859375,-0.018554688,14.267711,-8.381727,-127.3474,-29.79525,0.0,0.0,0.0,0.0,0.0,0.0,0.0,-25.274187,-127.150185,-40.4997,0.0,0.0,0.0,0.0,0.0,0.0,0.0,-0.21187425,0.024200011,0.977068,-0.9058838,-0.074035645,-0.39434814,-0.022460938,0.036132812,0.037109375,5.6919217,-4.3864527,0.50101525,20.228338,1.0310669,-0.08392334,-0.19262695,-0.078125,0.09667969,0.06542969,4.7637835,-1.3210964,-56.307858,16.616442,-0.4130249,0.06549072,0.9320679,0.001953125,0.009765625,0.022460938,7.108043,-3.8178983,-128.25085,14.764412,0.0,0.0,0.0,0.0,0.0,0.0,0.0,-23.756947,-128.52133,13.23953,0.0,0.0,0.0,0.0,0.0,0.0,0.0,-0.6743284,44.980404,-1.2603004,
0.46874999301508075,24,-0.07208252,0.8024292,0.47155762,-0.04296875,-0.03125,0.06738281,0.0,0.0,0.0,0.0,0.0,0.0,0.0,0.0,0.0,0.0,0.0,0.21252593,-0.023815837,-0.97699165,-0.9538574,0.10681152,0.21417236,0.015625,0.00390625,0.0146484375,16.11031,4.3999457,-0.4930617,-20.226757,0.93548584,-0.22692871,-0.32165527,-0.049804688,0.03515625,0.0546875,16.351774,-9.780149,-55.59688,-23.696241,-0.6397095,0.04626465,0.7525635,0.0068359375,0.005859375,0.0,14.360714,-8.386049,-127.33362,-29.81406,0.0,0.0,0.0,0.0,0.0,0.0,0.0,-25.267544,-127.1326,-40.535686,0.0,0.0,0.0,0.0,0.0,0.0,0.0,-0.21252593,0.023815837,0.97699165,-0.8861084,-0.0949707,-0.35327148,-0.022460938,-0.0029296875,0.016601562,5.6646543,-4.3999457,0.4930617,20.226757,1.0113525,-0.093566895,-0.17834473,-0.09667969,0.078125,0.06640625,4.8156443,-1.3316948,-56.318558,16.622044,-0.43041992,0.058044434,0.9055786,-0.016601562,-0.0087890625,0.00390625,7.1792245,-3.8589118,-128.26624,14.85765,0.0,0.0,0.0,0.0,0.0,0.0,0.0,-23.797865,-128.5312,13.349277,0.0,0.0,0.0,0.0,0.0,0.0,0.0,-0.6803602,44.983208,-1.2445418,
0.48828124272404244,25,-0.078063965,0.8354492,0.4859619,-0.041992188,-0.01171875,0.048828125,0.0,0.0,0.0,0.0,0.0,0.0,0.0,0.0,0.0,0.0,0.0,0.21447691,-0.023201846,-0.97654796,-0.9570923,0.09020996,0.21789551,0.015625,0.00390625,0.0146484375,16.13139,4.440338,-0.4803501,-20.21757,0.93548584,-0.19067383,-0.3145752,-0.049804688,0.016601562,0.0546875,16.357439,-9.746738,-55.585114,-23.668129,-0.6444092,0.06506348,0.75549316,0.0068359375,-0.0126953125,-0.018554688,14.401702,-8.356272,-127.32296,-29.787352,0.0,0.0,0.0,0.0,0.0,0.0,0.0,-25.234255,-127.11939,-40.515976,0.0,0.0,0.0,0.0,0.0,0.0,0.0,-0.21447691,0.023201846,0.97654796,-0.91833496,-0.105285645,-0.38867188,0.015625,0.0546875,0.016601562,5.5933137,-4.440338,0.4803501,20.21757,1.0032349,-0.06555176,-0.2020874,-0.078125,0.09667969,0.06542969,4.786879,-1.3755236,-56.333286,16.648735,-0.43041992,0.058044434,0.9055786,-0.016601562,-0.0087890625,0.00390625,7.142541,-3.9033937,-128.2741,14.855263,0.0,0.0,0.0,0.0,0.0,0.0,0.0,-23.842346,-128.53906,13.3468895,0.0,0.0,0.0,0.0,0.0,0.0,0.0,-0.7044691,44.982006,-1.2234502,
0.5078124924330042,26,-0.054260254,0.8078003,0.44726562,-0.061523438,-0.01171875,0.03125,0.0,0.0,0.0,0.0,0.0,0.0,0.0,0.0,0.0,0.0,0.0,0.21392989,-0.023177614,-0.9766538,-0.9691162,0.107910156,0.21716309,-0.041015625,0.0029296875,0.0146484375,16.095287,4.4290113,-0.47984847,-20.21976,0.93481445,-0.21313477,-0.33355713,-0.0126953125,0.0546875,0.036132812,16.327255,-9.727166,-55.592793,-23.661058,-0.65167236,0.055419922,0.7644043,0.0068359375,-0.0126953125,0.0,14.434372,-8.340607,-127.32608,-29.833748,0.0,0.0,0.0,0.0,0.0,0.0,0.0,-25.211935,-127.11989,-40.569412,0.0,0.0,0.0,0.0,0.0,0.0,0.0,-0.21392989,0.023177614,0.9766538,-0.91186523,-0.07122803,-0.38549805,-0.022460938,0.036132812,0.037109375,5.5608087,-4.4290113,0.47984847,20.21976,0.9949951,-0.089416504,-0.20568848,-0.078125,0.09667969,0.046875,4.801222,-1.3694196,-56.335228,16.682213,-0.39672852,0.04522705,0.9241333,0.001953125,-0.009765625,0.00390625,7.045117,-3.9340816,-128.27898,14.907837,0.0,0.0,0.0,0.0,0.0,0.0,0.0,-23.87608,-128.54446,13.428174,0.0,0.0,0.0,0.0,0.0,0.0,0.0,-0.7029053,44.981438,-1.2214512,
0.5273437421419659,27,-0.055480957,0.824646,0.4364624,-0.0029296875,-0.0126953125,0.06640625,0.0,0.0,0.0,0.0,0.0,0.0,0.0,0.0,0.0,0.0,0.0,0.21338698,-0.023346767,-0.9767896,-0.954895,0.101989746,0.21008301,-0.00390625,0.022460938,0.033203125,16.125538,4.4177713,-0.48335046,-20.222574,0.9359741,-0.21032715,-0.31762695,-0.03125,0.0546875,0.03515625,16.330498,-9.751451,-55.591946,-23.67686,-0.64471436,0.05126953,0.7663574,0.0068359375,-0.0126953125,0.0,14.462321,-8.378626,-127.31972,-29.87245,0.0,0.0,0.0,0.0,0.0,0.0,0.0,-25.24789,-127.10636,-40.613308,0.0,0.0,0.0,0.0,0.0,0.0,0.0,-0.21338698,0.023346767,0.9767896,-0.90301514,-0.08239746,-0.37475586,-0.022460938,0.036132812,0.016601562,5.5519204,-4.4177713,0.48335046,20.222574,1.0270386,-0.085876465,-0.1954956,-0.07714844,0.078125,0.06640625,4.8339562,-1.3587503,-56.333508,16.701336,-0.4234619,0.051452637,0.95477295,0.0029296875,0.009765625,-0.015625,7.086511,-3.9712734,-128.27603,14.944814,0.0,0.0,0.0,0.0,0.0,0.0,0.0,-23.912432,-128.54492,13.469239,0.0,0.0,0.0,0.0,0.0,0.0,0.0,-0.71080667,44.98199,-1.2304195,
0.5468749918509276,28,-0.07733154,0.8104248,0.4588623,-0.080078125,0.02734375,0.068359375,0.0,0.0,0.0,0.0,0.0,0.0,0.0,0.0,0.0,0.0,0.0,0.21244907,-0.023748305,-0.9770227,-0.9661255,0.10491943,0.22009277,-0.022460938,0.0029296875,0.033203125,16.144058,4.398355,-0.49166355,-20.227398,0.9503174,-0.20404053,-0.31573486,-0.03125,0.03515625,0.036132812,16.321726,-9.771683,-55.59949,-23.703304,-0.6416626,0.05126953,0.7485962,0.0068359375,-0.03125,-0.018554688,14.559487,-8.408489,-127.331375,-29.903568,0.0,0.0,0.0,0.0,0.0,0.0,0.0,-25.262287,-127.1193,-40.66887,0.0,0.0,0.0,0.0,0.0,0.0,0.0,-0.21244907,0.023748305,0.9770227,-0.88494873,-0.08416748,-0.39642334,-0.00390625,0.03515625,0.016601562,5.587459,-4.398355,0.49166355,20.227398,0.9951172,-0.097351074,-0.19580078,-0.0390625,0.05859375,0.046875,4.8680806,-1.3246,-56.322895,16.695465,-0.40179443,0.038635254,0.8956299,0.001953125,-0.009765625,0.00390625,7.0371766,-3.941911,-128.26733,14.975264,0.0,0.0,0.0,0.0,0.0,0.0,0.0,-23.883242,-128.53842,13.504334,0.0,0.0,0.0,0.0,0.0,0.0,0.0,-0.71378577,44.98313,-1.2486058,
0.5664062415598893,29,-0.064208984,0.8220215,0.4605713,-0.041992188,0.0078125,0.06738281,0.0,0.0,0.0,0.0,0.0,0.0,0.0,0.0,0.0,0.0,0.0,0.21177453,-0.02340863,-0.97717416,-0.96099854,0.103027344,0.21209717,-0.00390625,0.022460938,0.0146484375,16.152248,4.3843884,-0.4846312,-20.230536,0.9545288,-0.19934082,-0.30578613,-0.033203125,0.036132812,-0.0029296875,16.33238,-9.7911415,-55.59019,-23.697193,-0.6517334,0.049560547,0.75653076,-0.01171875,0.024414062,0.0,14.632166,-8.423648,-127.32179,-29.901848,0.0,0.0,0.0,0.0,0.0,0.0,0.0,-25.265877,-127.10829,-40.685257,0.0,0.0,0.0,0.0,0.0,0.0,0.0,-0.21177453,0.02340863,0.97717416,-0.90722656,-0.10076904,-0.3817749,-0.022460938,0.055664062,0.016601562,5.5279717,-4.3843884,0.4846312,20.230536,1.0110474,-0.075683594,-0.20611572,-0.0390625,0.05859375,0.06542969,4.904206,-1.3122895,-56.332493,16.739077,-0.4130249,0.049804688,0.89959717,0.021484375,-0.029296875,-0.015625,7.0321016,-4.002598,-128.27144,15.026512,0.0,0.0,0.0,0.0,0.0,0.0,0.0,-23.947773,-128.53989,13.569853,0.0,0.0,0.0,0.0,0.0,0.0,0.0,-0.7230332,44.98324,-1.2342899,
0.585937491268851,30,-0.044067383,0.8314209,0.46209717,-0.07910156,0.045898438,0.049804688,0.0,0.0,0.0,0.0,0.0,0.0,0.0,0.0,0.0,0.0,0.0,0.21123841,-0.023355152,-0.97736204,-0.9498291,0.10290527,0.21209717,-0.022460938,0.022460938,-0.0048828125,16.234797,4.3732905,-0.48352408,-20.234423,0.93914795,-0.20654297,-0.30969238,-0.0126953125,0.0546875,0.016601562,16.365284,-9.8310795,-55.580685,-23.678871,-0.6436157,0.05517578,0.7574463,0.026367188,-0.03125,9.765625E-4,14.700727,-8.462188,-127.31323,-29.873798,0.0,0.0,0.0,0.0,0.0,0.0,0.0,-25.300049,-127.09483,-40.663322,0.0,0.0,0.0,0.0,0.0,0.0,0.0,-0.21123841,0.023355152,0.97736204,-0.8937988,-0.070007324,-0.40808105,-0.0029296875,0.07421875,0.016601562,5.5381722,-4.3732905,0.48352408,20.234423,1.0028687,-0.10748291,-0.20379639,0.057617188,0.07519531,0.045898438,4.9159365,-1.2829804,-56.332268,16.72315,-0.40979004,0.09338379,0.9310913,0.001953125,-0.028320312,-0.015625,6.927586,-3.962737,-128.27347,14.9939575,0.0,0.0,0.0,0.0,0.0,0.0,0.0,-23.908295,-128.5354,13.567024,0.0,0.0,0.0,0.0,0.0,0.0,0.0,-0.7708814,44.98535,-1.2415866,
0.6054687409778127,31,-0.054504395,0.8195801,0.43145752,-0.080078125,0.02734375,0.068359375,0.0,0.0,0.0,0.0,0.0,0.0,0.0,0.0,0.0,0.0,0.0,0.21083134,-0.02307915,-0.9773536,-0.95703125,0.097961426,0.22198486,-0.00390625,0.0029296875,0.0146484375,16.35459,4.3648624,-0.47780997,-20.23425,0.9446411,-0.18804932,-0.33355713,-0.0126953125,0.0546875,0.036132812,16.440107,-9.880627,-55.569614,-23.66893,-0.67755127,0.064208984,0.7446289,0.0068359375,0.005859375,0.0,14.687938,-8.46921,-127.3031,-29.848999,0.0,0.0,0.0,0.0,0.0,0.0,0.0,-25.291494,-127.0891,-40.661514,0.0,0.0,0.0,0.0,0.0,0.0,0.0,-0.21083134,0.02307915,0.9773536,-0.89001465,-0.088012695,-0.39544678,0.015625,0.11328125,0.016601562,5.622495,-4.3648624,0.47780997,20.23425,0.989563,-0.032409668,-0.19909668,-9.765625E-4,0.11328125,0.045898438,5.093892,-1.194448,-56.324394,16.632412,-0.39678955,0.02935791,0.9104004,-0.016601562,0.009765625,0.022460938,6.886124,-3.9147747,-128.26785,15.0069,0.0,0.0,0.0,0.0,0.0,0.0,0.0,-23.861448,-128.53244,13.589764,0.0,0.0,0.0,0.0,0.0,0.0,0.0,-0.8391957,44.979553,-1.2431722,
0.6249999906867744,32,-0.07336426,0.85809326,0.46710205,-0.07910156,0.045898438,0.049804688,0.0,0.0,0.0,0.0,0.0,0.0,0.0,0.0,0.0,0.0,0.0,0.20894566,-0.02271724,-0.97775346,-0.96099854,0.10876465,0.22015381,-0.022460938,0.060546875,0.0146484375,16.447742,4.325823,-0.47031724,-20.242527,0.96173096,-0.19366455,-0.3237915,-0.0146484375,-0.001953125,-0.001953125,16.441145,-9.925933,-55.560658,-23.671951,-0.67181396,0.052124023,0.7624512,0.026367188,-0.013671875,-0.018554688,14.774213,-8.517626,-127.29732,-29.80341,0.0,0.0,0.0,0.0,0.0,0.0,0.0,-25.320412,-127.09413,-40.649235,0.0,0.0,0.0,0.0,0.0,0.0,0.0,-0.20894566,0.02271724,0.97775346,-0.91638184,-0.10852051,-0.3779297,-0.060546875,0.115234375,-0.0029296875,5.634543,-4.325823,0.47031724,20.242527,0.99975586,-0.06347656,-0.16845703,-9.765625E-4,0.11328125,0.064453125,5.255087,-1.0765059,-56.327557,16.617924,-0.39666748,0.05126953,0.9192505,0.001953125,0.009765625,0.022460938,6.7618155,-3.8430882,-128.27055,15.12352,0.0,0.0,0.0,0.0,0.0,0.0,0.0,-23.792315,-128.53363,13.720127,0.0,0.0,0.0,0.0,0.0,0.0,0.0,-0.9132567,44.977604,-1.2401776,
0.6445312403957361,33,-0.06933594,0.8380127,0.45788574,-0.099609375,0.02734375,0.05078125,0.0,0.0,0.0,0.0,0.0,0.0,0.0,0.0,0.0,0.0,0.0,0.20885208,-0.021410992,-0.97786504,-0.96221924,0.09020996,0.22283936,-0.00390625,0.0029296875,0.033203125,16.546455,4.323886,-0.4432739,-20.244839,0.93981934,-0.18005371,-0.32250977,-0.0126953125,0.0546875,0.036132812,16.467356,-9.940071,-55.53162,-23.648048,-0.6727295,0.055114746,0.7525635,-0.01171875,-0.030273438,0.0,14.755333,-8.515091,-127.271866,-29.749388,0.0,0.0,0.0,0.0,0.0,0.0,0.0,-25.31034,-127.071976,-40.607086,0.0,0.0,0.0,0.0,0.0,0.0,0.0,-0.20885208,0.021410992,0.97786504,-0.913147,-0.09020996,-0.40924072,-0.080078125,0.057617188,-0.0029296875,5.52627,-4.323886,0.4432739,20.244839,1.0115356,-0.093566895,-0.16455078,0.038085938,0.11328125,0.064453125,5.391724,-1.0602999,-56.35427,16.644215,-0.43865967,0.06304932,0.9223633,0.001953125,-0.009765625,0.00390625,6.80455,-3.937571,-128.2974,15.304144,0.0,0.0,0.0,0.0,0.0,0.0,0.0,-23.887693,-128.562,13.908245,0.0,0.0,0.0,0.0,0.0,0.0,0.0,-1.0044063,44.9795,-1.1993762,
0.6640624901046978,34,-0.08117676,0.8265381,0.4779663,-0.099609375,0.047851562,0.08691406,0.0,0.0,0.0,0.0,0.0,0.0,0.0,0.0,0.0,0.0,0.0,0.20848748,-0.02124197,-0.97788215,-0.9569702,0.09240723,0.20593262,-0.00390625,0.022460938,0.0146484375,16.561283,4.316336,-0.43977472,-20.245193,0.9354248,-0.1895752,-0.34448242,-0.049804688,0.07421875,0.03515625,16.473211,-9.921743,-55.53543,-23.606314,-0.6506958,0.05053711,0.74664307,0.0078125,-0.030273438,0.01953125,14.782662,-8.460275,-127.27265,-29.695257,0.0,0.0,0.0,0.0,0.0,0.0,0.0,-25.240383,-127.0802,-40.574413,0.0,0.0,0.0,0.0,0.0,0.0,0.0,-0.20848748,0.02124197,0.97788215,-0.9011841,-0.0960083,-0.38079834,-0.099609375,0.038085938,0.038085938,5.4945464,-4.316336,0.43977472,20.245193,0.98321533,-0.055236816,-0.14648438,0.038085938,0.15039062,0.06347656,5.461635,-1.0645084,-56.360077,16.654028,-0.4182129,0.047729492,0.91833496,0.001953125,-0.009765625,0.041015625,6.834949,-3.9820774,-128.29488,15.464375,0.0,0.0,0.0,0.0,0.0,0.0,0.0,-23.929523,-128.56142,14.062177,0.0,0.0,0.0,0.0,0.0,0.0,0.0,-1.0476651,44.975655,-1.2003456,
0.6835937398136595,35,-0.06817627,0.8062744,0.4625244,-0.080078125,0.026367188,0.03125,0.0,0.0,0.0,0.0,0.0,0.0,0.0,0.0,0.0,0.0,0.0,0.2086609,-0.020829154,-0.9779056,-0.9713745,0.08642578,0.22473145,-0.00390625,0.041015625,0.034179688,16.559893,4.3199267,-0.431228,-20.245678,0.93969727,-0.18493652,-0.3225708,-0.01171875,0.053710938,0.0546875,16.486647,-9.899654,-55.532597,-23.579123,-0.6356201,0.052001953,0.75354004,0.0078125,-0.030273438,0.01953125,14.754849,-8.39666,-127.272934,-29.623913,0.0,0.0,0.0,0.0,0.0,0.0,0.0,-25.167927,-127.0798,-40.518707,0.0,0.0,0.0,0.0,0.0,0.0,0.0,-0.2086609,0.020829154,0.9779056,-0.92193604,-0.07287598,-0.34814453,-0.09863281,0.057617188,-0.0029296875,5.411858,-4.3199267,0.431228,20.245678,0.98010254,-0.044189453,-0.16027832,0.038085938,0.11328125,0.026367188,5.5031714,-1.1290054,-56.371693,16.690851,-0.38824463,0.06640625,0.88964844,0.001953125,0.009765625,0.022460938,6.837531,-4.123692,-128.31807,15.655693,0.0,0.0,0.0,0.0,0.0,0.0,0.0,-24.07433,-128.58119,14.272938,0.0,0.0,0.0,0.0,0.0,0.0,0.0,-1.0727103,44.977688,-1.1869036,
0.7031249895226211,36,-0.06994629,0.79248047,0.47644043,-0.12109375,-0.029296875,0.068359375,0.0,0.0,0.0,0.0,0.0,0.0,0.0,0.0,0.0,0.0,0.0,0.20863664,-0.019886307,-0.9779249,-0.9569702,0.098083496,0.21502686,0.015625,0.041015625,0.034179688,16.678188,4.3194256,-0.41170818,-20.246077,0.93981934,-0.18109131,-0.3135376,-0.03125,0.03515625,0.0546875,16.495138,-9.891522,-55.51521,-23.53758,-0.64398193,0.030639648,0.74664307,-0.01171875,-0.048828125,-0.018554688,14.763295,-8.367797,-127.26166,-29.533245,0.0,0.0,0.0,0.0,0.0,0.0,0.0,-25.136475,-127.074356,-40.432854,0.0,0.0,0.0,0.0,0.0,0.0,0.0,-0.20863664,0.019886307,0.9779249,-0.9229126,-0.07208252,-0.38256836,-0.080078125,0.038085938,0.038085938,5.255087,-4.3194256,0.41170818,20.246077,1.0317993,-0.0569458,-0.16125488,0.0390625,0.057617188,0.064453125,5.4681973,-1.1602547,-56.400185,16.769396,-0.38446045,0.05090332,0.9349365,-0.016601562,0.009765625,-0.015625,6.8110323,-4.1758165,-128.34668,15.777935,0.0,0.0,0.0,0.0,0.0,0.0,0.0,-24.124454,-128.61215,14.394067,0.0,0.0,0.0,0.0,0.0,0.0,0.0,-1.1921965,44.97491,-1.1689248,
0.7226562392315828,37,-0.07824707,0.84033203,0.47302246,-0.12109375,-0.029296875,0.05078125,0.0,0.0,0.0,0.0,0.0,0.0,0.0,0.0,0.0,0.0,0.0,0.21039477,-0.01779612,-0.97762626,-0.9581909,0.09490967,0.23187256,-0.0029296875,0.1171875,0.015625,16.759792,4.3558245,-0.36843482,-20.239895,0.949646,-0.19226074,-0.31469727,-0.087890625,0.036132812,0.052734375,16.44691,-9.802083,-55.48723,-23.544924,-0.66485596,0.045959473,0.7614746,0.026367188,-0.03125,0.01953125,14.858494,-8.266253,-127.23475,-29.52462,0.0,0.0,0.0,0.0,0.0,0.0,0.0,-25.024284,-127.049805,-40.438408,0.0,0.0,0.0,0.0,0.0,0.0,0.0,-0.21039477,0.01779612,0.97762626,-0.901062,-0.08886719,-0.35125732,-0.022460938,0.036132812,0.057617188,5.0675535,-4.3558245,0.36843482,20.239895,0.9989624,-0.0635376,-0.21881104,0.09667969,0.056640625,0.08300781,5.424842,-1.1978016,-56.449955,16.822582,-0.39672852,0.04333496,0.91625977,0.001953125,-0.009765625,0.00390625,6.717818,-4.197212,-128.39442,15.82552,0.0,0.0,0.0,0.0,0.0,0.0,0.0,-24.145618,-128.66507,14.442915,0.0,0.0,0.0,0.0,0.0,0.0,0.0,-1.3194001,44.974693,-1.10264,
0.7421874889405445,38,-0.062072754,0.81207275,0.4644165,-0.18164062,-0.06640625,0.051757812,0.0,0.0,0.0,0.0,0.0,0.0,0.0,0.0,0.0,0.0,0.0,0.21042389,-0.015748389,-0.97755694,-0.9711914,0.10601807,0.21911621,0.0146484375,0.041015625,0.072265625,16.872597,4.3564267,-0.32604045,-20.238459,0.9223633,-0.19213867,-0.30645752,-0.048828125,0.07324219,0.07324219,16.37758,-9.7537365,-55.459846,-23.522305,-0.6739502,0.04425049,0.76446533,0.026367188,-0.03125,0.01953125,14.989443,-8.243245,-127.206375,-29.478745,0.0,0.0,0.0,0.0,0.0,0.0,0.0,-24.989285,-127.024376,-40.41221,0.0,0.0,0.0,0.0,0.0,0.0,0.0,-0.21042389,0.015748389,0.97755694,-0.90649414,-0.11932373,-0.38391113,-0.061523438,-0.041015625,0.038085938,4.9378066,-4.3564267,0.32604045,20.238459,1.0192261,-0.07672119,-0.19244385,0.01953125,0.057617188,0.06542969,5.4582615,-1.1429205,-56.487656,16.837181,-0.40905762,0.04547119,0.92718506,0.001953125,-0.009765625,0.00390625,6.5783772,-4.117504,-128.43034,15.861182,0.0,0.0,0.0,0.0,0.0,0.0,0.0,-24.066076,-128.70346,14.4728775,0.0,0.0,0.0,0.0,0.0,0.0,0.0,-1.4734856,44.967045,-1.0415916,
0.7617187386495062,39,-0.039794922,0.8105469,0.47180176,-0.16210938,-0.0859375,0.032226562,0.0,0.0,0.0,0.0,0.0,0.0,0.0,0.0,0.0,0.0,0.0,0.20970285,-0.014694721,-0.97782457,-0.95513916,0.08337402,0.21972656,-0.00390625,0.021484375,0.072265625,17.077091,4.3414993,-0.30422637,-20.244001,0.93707275,-0.2074585,-0.30664062,-0.01171875,0.053710938,0.0546875,16.336763,-9.749988,-55.44196,-23.551523,-0.6409912,0.032470703,0.75756836,0.0068359375,-0.0126953125,0.018554688,15.142637,-8.264578,-127.19264,-29.519917,0.0,0.0,0.0,0.0,0.0,0.0,0.0,-24.994637,-127.01489,-40.476196,0.0,0.0,0.0,0.0,0.0,0.0,0.0,-0.20970285,0.014694721,0.97782457,-0.87371826,-0.14923096,-0.4263916,-0.00390625,0.03515625,0.057617188,4.8816237,-4.3414993,0.30422637,20.244001,1.0071411,-0.0736084,-0.20013428,-0.13476562,0.060546875,0.123046875,5.4789023,-1.0263212,-56.504623,16.851772,-0.41723633,0.06341553,0.9468994,0.001953125,0.009765625,0.022460938,6.388747,-3.9412844,-128.44797,15.808854,0.0,0.0,0.0,0.0,0.0,0.0,0.0,-23.887877,-128.71773,14.418119,0.0,0.0,0.0,0.0,0.0,0.0,0.0,-1.653604,44.965282,-1.0303667,
0.7812499883584679,40,-0.05810547,0.8258667,0.46343994,-0.10058594,-0.01171875,0.013671875,0.0,0.0,0.0,0.0,0.0,0.0,0.0,0.0,0.0,0.0,0.0,0.20930853,-0.01382765,-0.9777242,-0.9623413,0.07751465,0.2276001,0.015625,0.07910156,0.072265625,17.149755,4.333335,-0.28627524,-20.241922,0.947937,-0.18347168,-0.2927246,-0.01171875,-0.0029296875,0.07519531,16.26054,-9.708034,-55.43746,-23.540321,-0.6288452,0.037963867,0.76934814,-0.01171875,-0.030273438,0.0,15.170328,-8.252682,-127.191,-29.489115,0.0,0.0,0.0,0.0,0.0,0.0,0.0,-24.98249,-127.01227,-40.447563,0.0,0.0,0.0,0.0,0.0,0.0,0.0,-0.20930853,0.01382765,0.9777242,-0.89086914,-0.078552246,-0.4229126,0.16894531,0.10839844,0.076171875,4.8954096,-4.333335,0.28627524,20.241922,1.0029297,-0.07159424,-0.21783447,-0.13574219,0.060546875,0.0859375,5.6132503,-0.89513636,-56.510895,16.81031,-0.38946533,0.057128906,0.9211426,0.0029296875,0.009765625,0.00390625,6.4222355,-3.856587,-128.44604,15.69225,0.0,0.0,0.0,0.0,0.0,0.0,0.0,-23.803598,-128.71104,14.307662,0.0,0.0,0.0,0.0,0.0,0.0,0.0,-1.7604537,44.952927,-1.0126286,
0.8007812380674296,41,-0.047729492,0.8297119,0.49005127,-0.103515625,-0.08886719,-0.0234375,0.0,0.0,0.0,0.0,0.0,0.0,0.0,0.0,0.0,0.0,0.0,0.20865959,-0.012992688,-0.9777859,-0.9655762,0.07531738,0.24645996,0.07128906,0.059570312,0.072265625,17.229614,4.3199005,-0.26898897,-20.243196,0.9512329,-0.17279053,-0.30169678,-0.01171875,-0.0029296875,0.07519531,16.24553,-9.737856,-55.41852,-23.49278,-0.6487427,0.04650879,0.7545166,0.026367188,-0.013671875,9.765625E-4,15.209691,-8.323236,-127.17673,-29.383547,0.0,0.0,0.0,0.0,0.0,0.0,0.0,-25.054482,-126.99197,-40.33706,0.0,0.0,0.0,0.0,0.0,0.0,0.0,-0.20865959,0.012992688,0.9777859,-0.88775635,-0.070495605,-0.39434814,0.091796875,0.032226562,0.07714844,4.9147406,-4.3199005,0.26898897,20.243196,0.98547363,-0.06530762,-0.18988037,-0.1171875,0.115234375,0.06640625,5.7324095,-0.81164837,-56.523003,16.755678,-0.39660645,0.049438477,0.89953613,0.001953125,-0.009765625,-0.015625,6.3446155,-3.8092303,-128.46848,15.655384,0.0,0.0,0.0,0.0,0.0,0.0,0.0,-23.758188,-128.73041,14.277009,0.0,0.0,0.0,0.0,0.0,0.0,0.0,-1.829761,44.946815,-0.9877186,
0.8203124877763913,42,-0.07128906,0.80529785,0.45367432,-0.18261719,-0.10546875,-0.021484375,0.0,0.0,0.0,0.0,0.0,0.0,0.0,0.0,0.0,0.0,0.0,0.20697433,-0.011878319,-0.97821456,-0.9735718,0.07751465,0.23754883,0.07128906,0.041015625,0.052734375,17.393744,4.2850113,-0.24591804,-20.252073,0.9673462,-0.17834473,-0.29089355,-0.125,0.055664062,0.07128906,16.22727,-9.787946,-55.393894,-23.43314,-0.6546631,0.053527832,0.760437,0.044921875,-0.013671875,0.01953125,15.2879095,-8.420335,-127.156235,-29.2765,0.0,0.0,0.0,0.0,0.0,0.0,0.0,-25.14996,-126.96966,-40.23454,0.0,0.0,0.0,0.0,0.0,0.0,0.0,-0.20697433,0.011878319,0.97821456,-0.9197998,-0.064575195,-0.41101074,-0.022460938,0.055664062,0.057617188,4.9410987,-4.2850113,0.24591804,20.252073,0.99902344,-0.07647705,-0.21081543,-0.15527344,0.13476562,0.123046875,5.765072,-0.84581757,-56.54306,16.650658,-0.4017334,0.050476074,0.90740967,0.0029296875,0.009765625,-0.015625,6.390681,-3.9025989,-128.4811,15.550883,0.0,0.0,0.0,0.0,0.0,0.0,0.0,-23.851124,-128.74107,14.180496,0.0,0.0,0.0,0.0,0.0,0.0,0.0,-1.9721645,44.943817,-0.9630244,
0.839843737485353,43,-0.085876465,0.8109131,0.4968872,-0.14550781,-0.1640625,-0.0048828125,0.0,0.0,0.0,0.0,0.0,0.0,0.0,0.0,0.0,0.0,0.0,0.20409372,-0.010973597,-0.9789438,-0.9696045,0.08404541,0.24963379,0.16601562,0.00390625,0.033203125,17.583342,4.225373,-0.22718747,-20.26717,0.95758057,-0.20550537,-0.2630005,-0.14355469,-0.021484375,0.109375,16.208475,-9.895721,-55.370907,-23.373505,-0.6481323,0.022949219,0.73480225,-0.01171875,0.024414062,0.018554688,15.627362,-8.625735,-127.13022,-29.25164,0.0,0.0,0.0,0.0,0.0,0.0,0.0,-25.340809,-126.945595,-40.231552,0.0,0.0,0.0,0.0,0.0,0.0,0.0,-0.20409372,0.010973597,0.9789438,-0.9052124,-0.09643555,-0.39941406,0.034179688,0.09277344,0.09863281,4.951278,-4.225373,0.22718747,20.26717,0.97979736,-0.07513428,-0.16503906,-0.078125,0.09667969,0.08496094,5.8987045,-0.79272246,-56.559452,16.598837,-0.41003418,0.06628418,0.94488525,0.0029296875,0.009765625,0.00390625,6.4861875,-3.9659016,-128.48921,15.56801,0.0,0.0,0.0,0.0,0.0,0.0,0.0,-23.915436,-128.7436,14.211797,0.0,0.0,0.0,0.0,0.0,0.0,0.0,-2.1085596,44.943054,-0.94339496,
0.8593749871943147,44,-0.06817627,0.7992554,0.4584961,-0.14355469,-0.12695312,-0.059570312,0.0,0.0,0.0,0.0,0.0,0.0,0.0,0.0,0.0,0.0,0.0,0.20268449,-0.009902418,-0.97918034,-0.95532227,0.08685303,0.24468994,0.22265625,-0.03515625,0.07128906,17.829998,4.196197,-0.20501074,-20.272068,0.9657593,-0.19793701,-0.28894043,-0.08691406,0.016601562,0.091796875,16.214678,-9.9958515,-55.330208,-23.310383,-0.6449585,0.030700684,0.7427368,0.0068359375,0.0234375,0.018554688,15.914799,-8.82915,-127.08899,-29.276615,0.0,0.0,0.0,0.0,0.0,0.0,0.0,-25.53978,-126.90402,-40.26434,0.0,0.0,0.0,0.0,0.0,0.0,0.0,-0.20268449,0.009902418,0.97918034,-0.9020996,-0.093322754,-0.40924072,-0.00390625,0.0546875,0.057617188,4.9671197,-4.196197,0.20501074,20.272068,1.0036621,-0.09246826,-0.15948486,-0.078125,0.115234375,0.103515625,6.1256714,-0.7466936,-56.57676,16.537603,-0.40899658,0.0435791,0.91534424,0.0029296875,0.028320312,0.00390625,6.5953765,-4.1430483,-128.49821,15.569824,0.0,0.0,0.0,0.0,0.0,0.0,0.0,-24.093777,-128.74756,14.227842,0.0,0.0,0.0,0.0,0.0,0.0,0.0,-2.2679434,44.932713,-0.92385375,
0.8789062369032764,45,-0.078063965,0.791687,0.4706421,-0.16503906,-0.1640625,-0.041015625,0.0,0.0,0.0,0.0,0.0,0.0,0.0,0.0,0.0,0.0,0.0,0.19811976,-0.009182134,-0.98015106,-0.95111084,0.10046387,0.2409668,0.22265625,-0.072265625,0.051757812,18.072716,4.1016927,-0.19009863,-20.292162,0.9404297,-0.23504639,-0.29785156,-0.14257812,-0.001953125,0.12792969,16.237154,-10.173508,-55.297443,-23.30375,-0.6399536,0.03338623,0.76348877,0.026367188,0.0234375,0.018554688,16.201073,-9.102947,-127.04167,-29.390705,0.0,0.0,0.0,0.0,0.0,0.0,0.0,-25.811905,-126.85575,-40.38067,0.0,0.0,0.0,0.0,0.0,0.0,0.0,-0.19811976,0.009182134,0.98015106,-0.90112305,-0.09442139,-0.36505127,-0.00390625,0.015625,0.078125,4.92915,-4.1016927,0.19009863,20.292162,0.9841919,-0.055236816,-0.14746094,-0.0390625,0.095703125,0.10253906,6.166087,-0.7355964,-56.59621,16.550545,-0.41082764,0.08355713,0.9192505,-0.015625,0.047851562,0.00390625,6.6974382,-4.273896,-128.51756,15.615239,0.0,0.0,0.0,0.0,0.0,0.0,0.0,-24.224106,-128.7583,14.272412,0.0,0.0,0.0,0.0,0.0,0.0,0.0,-2.4058726,44.927197,-0.9071851,
0.8984374866122381,46,-0.063964844,0.7992554,0.47131348,-0.18261719,-0.10546875,-0.021484375,0.0,0.0,0.0,0.0,0.0,0.0,0.0,0.0,0.0,0.0,0.0,0.19437411,-0.008110139,-0.9808545,-0.960022,0.11730957,0.23028564,0.18457031,-0.034179688,0.033203125,18.356823,4.024146,-0.16790505,-20.306728,0.9499512,-0.18457031,-0.28076172,-0.08691406,-0.060546875,0.13085938,16.216156,-10.306551,-55.257393,-23.324102,-0.66973877,0.051208496,0.7367554,0.044921875,0.05859375,0.0,16.493599,-9.339551,-127.000595,-29.455788,0.0,0.0,0.0,0.0,0.0,0.0,0.0,-26.036674,-126.81947,-40.46094,0.0,0.0,0.0,0.0,0.0,0.0,0.0,-0.19437411,0.008110139,0.9808545,-0.9042969,-0.10656738,-0.3857422,0.07324219,0.18945312,0.09765625,4.9093165,-4.024146,0.16790505,20.306728,0.99212646,-0.041381836,-0.15661621,-0.05859375,0.095703125,0.103515625,6.235519,-0.6806545,-56.617176,16.546778,-0.39874268,0.0423584,0.9133301,-0.016601562,0.028320312,0.041015625,6.7087026,-4.3308783,-128.52982,15.618305,0.0,0.0,0.0,0.0,0.0,0.0,0.0,-24.284054,-128.76833,14.292095,0.0,0.0,0.0,0.0,0.0,0.0,0.0,-2.5928302,44.914776,-0.88519144,
0.9179687363211998,47,-0.049865723,0.8048096,0.47003174,-0.20605469,-0.23925781,-0.041015625,0.0,0.0,0.0,0.0,0.0,0.0,0.0,0.0,0.0,0.0,0.0,0.1910075,-0.007950816,-0.9816182,-0.95202637,0.115112305,0.24121094,0.16601562,-0.072265625,0.032226562,18.657808,3.9544477,-0.16460663,-20.32254,0.95410156,-0.21606445,-0.29388428,-0.125,-0.059570312,0.11035156,16.164581,-10.436797,-55.240555,-23.353203,-0.64172363,0.045288086,0.75354004,0.026367188,0.078125,0.055664062,16.81933,-9.618775,-126.977356,-29.554752,0.0,0.0,0.0,0.0,0.0,0.0,0.0,-26.305817,-126.81895,-40.576714,0.0,0.0,0.0,0.0,0.0,0.0,0.0,-0.1910075,0.007950816,0.9816182,-0.90808105,-0.08648682,-0.4033203,0.091796875,0.051757812,0.13867188,5.0076594,-3.9544477,0.16460663,20.32254,1.015564,-0.097595215,-0.16064453,-0.115234375,0.059570312,0.123046875,6.265662,-0.6590595,-56.617992,16.493828,-0.42938232,0.07775879,0.93408203,0.0029296875,0.028320312,0.022460938,6.7691493,-4.3833914,-128.5246,15.534792,0.0,0.0,0.0,0.0,0.0,0.0,0.0,-24.337711,-128.76176,14.214297,0.0,0.0,0.0,0.0,0.0,0.0,0.0,-2.7795694,44.9077,-0.9045997,
0.9374999860301615,48,-0.035583496,0.8154907,0.48565674,-0.203125,-0.14453125,-0.05859375,0.0,0.0,0.0,0.0,0.0,0.0,0.0,0.0,0.0,0.0,0.0,0.18741879,-0.0070633963,-0.9823041,-0.94921875,0.104003906,0.2609253,0.12792969,-0.07324219,0.051757812,19.001755,3.8801491,-0.14623424,-20.336739,0.9569092,-0.2290039,-0.26306152,-0.10546875,-0.09863281,0.14941406,16.157133,-10.616451,-55.193466,-23.355642,-0.63183594,0.037109375,0.76049805,-0.0126953125,0.1328125,0.036132812,17.177204,-9.959668,-126.926605,-29.658756,0.0,0.0,0.0,0.0,0.0,0.0,0.0,-26.646027,-126.77598,-40.68111,0.0,0.0,0.0,0.0,0.0,0.0,0.0,-0.18741879,0.0070633963,0.9823041,-0.90808105,-0.08648682,-0.4033203,0.091796875,0.051757812,0.13867188,5.006955,-3.8801491,0.14623424,20.336739,1.0057373,-0.0914917,-0.15655518,-0.078125,0.09667969,0.08496094,6.3656263,-0.5847609,-56.636368,16.508026,-0.41101074,0.03869629,0.90252686,0.021484375,0.0087890625,-0.015625,6.783534,-4.454006,-128.53601,15.545765,0.0,0.0,0.0,0.0,0.0,0.0,0.0,-24.41074,-128.76773,14.252723,0.0,0.0,0.0,0.0,0.0,0.0,0.0,-2.975255,44.894897,-0.8904871,
0.9570312357391232,49,-0.041625977,0.7887573,0.4776001,-0.203125,-0.125,-0.057617188,0.0,0.0,0.0,0.0,0.0,0.0,0.0,0.0,0.0,0.0,0.0,0.18527389,-0.0063802935,-0.9826771,-0.96154785,0.1105957,0.2859497,0.18457031,-0.11035156,0.051757812,19.416744,3.8357437,-0.13209188,-20.344463,0.96765137,-0.2109375,-0.23718262,-0.087890625,-0.07910156,0.111328125,16.200167,-10.853309,-55.129833,-23.306696,-0.6437988,0.04534912,0.7584839,0.06347656,0.14941406,0.055664062,17.615408,-10.412402,-126.85933,-29.68686,0.0,0.0,0.0,0.0,0.0,0.0,0.0,-27.105122,-126.735954,-40.70153,0.0,0.0,0.0,0.0,0.0,0.0,0.0,-0.18527389,0.0063802935,0.9826771,-0.9202881,-0.10119629,-0.3935547,0.07324219,0.111328125,0.09765625,5.2730656,-3.8357437,0.13209188,20.344463,0.99591064,-0.09234619,-0.14746094,-0.09667969,0.059570312,0.123046875,6.4400415,-0.65060663,-56.640167,16.289412,-0.39050293,0.05419922,0.9152832,0.0390625,-0.048828125,0.022460938,6.827829,-4.629198,-128.54047,15.289884,0.0,0.0,0.0,0.0,0.0,0.0,0.0,-24.586563,-128.77028,14.00253,0.0,0.0,0.0,0.0,0.0,0.0,0.0,-3.1618168,44.88049,-0.8875272,
0.9765624854480849,50,-0.061706543,0.8182373,0.4953003,-0.18164062,-0.087890625,-0.076171875,0.0,0.0,0.0,0.0,0.0,0.0,0.0,0.0,0.0,0.0,0.0,0.18259907,-0.005946912,-0.9831319,-0.97094727,0.113098145,0.31982422,0.203125,-0.14941406,0.0703125,19.88588,3.780367,-0.12311954,-20.353876,1.0050659,-0.21343994,-0.23352051,-0.068359375,-0.11816406,0.13183594,16.377872,-11.216493,-55.042343,-23.225933,-0.6279297,0.038757324,0.7970581,0.08203125,0.2578125,0.091796875,17.972435,-10.987174,-126.75461,-29.745867,0.0,0.0,0.0,0.0,0.0,0.0,0.0,-27.698051,-126.653534,-40.732643,0.0,0.0,0.0,0.0,0.0,0.0,0.0,-0.18259907,0.005946912,0.9831319,-0.9015503,-0.051635742,-0.39422607,-0.0234375,0.036132812,0.078125,5.4050465,-3.780367,0.12311954,20.353876,1.0178223,-0.08465576,-0.14892578,0.078125,0.056640625,0.12109375,6.513972,-0.6522424,-56.647007,16.204008,-0.43780518,0.03894043,0.9331665,0.07910156,0.026367188,0.0029296875,6.928973,-4.759986,-128.53969,15.173508,0.0,0.0,0.0,0.0,0.0,0.0,0.0,-24.713425,-128.76689,13.877995,0.0,0.0,0.0,0.0,0.0,0.0,0.0,-3.3022227,44.868282,-0.88473433,
0.9960937351570466,51,-0.053955078,0.81188965,0.4711914,-0.29882812,-0.06640625,-0.11035156,0.0,0.0,0.0,0.0,0.0,0.0,0.0,0.0,0.0,0.0,0.0,0.17763996,-0.002220817,-0.98408467,-1.0362549,0.11425781,0.3665161,0.24023438,-0.20703125,0.12695312,20.370022,3.6776981,-0.04597778,-20.373604,1.0419922,-0.2355957,-0.21002197,-0.087890625,-0.17480469,0.13183594,16.863451,-11.675699,-54.870216,-23.226046,-0.6251221,0.028808594,0.8040161,0.119140625,0.41992188,0.12792969,18.475948,-11.291814,-126.57586,-29.703985,0.0,0.0,0.0,0.0,0.0,0.0,0.0,-28.017223,-126.49401,-40.66787,0.0,0.0,0.0,0.0,0.0,0.0,0.0,-0.17763996,0.002220817,0.98408467,-0.88635254,-0.11199951,-0.33569336,-0.1953125,-0.095703125,0.018554688,5.235475,-3.6776981,0.04597778,20.373604,0.98339844,-0.024169922,-0.087402344,0.21289062,0.12890625,0.13671875,6.5793014,-0.6428633,-56.727898,16.249088,-0.39227295,0.078430176,0.89160156,0.17480469,0.024414062,-0.03515625,6.7820597,-4.924122,-128.61084,15.317226,0.0,0.0,0.0,0.0,0.0,0.0,0.0,-24.87997,-128.80414,14.019581,0.0,0.0,0.0,0.0,0.0,0.0,0.0,-3.4337513,44.862637,-0.7210791,
1.0156249848660084,52,-0.061645508,0.84210205,0.5064697,-0.37597656,-0.0078125,-0.12597656,0.0,0.0,0.0,0.0,0.0,0.0,0.0,0.0,0.0,0.0,0.0,0.17407769,0.0023526512,-0.98470837,-1.064209,0.1116333,0.42919922,0.296875,-0.3203125,0.10644531,20.910492,3.6039474,0.048707213,-20.386515,1.0466309,-0.25152588,-0.19519043,-0.013671875,-0.25195312,0.13476562,17.26532,-12.041539,-54.684746,-23.328396,-0.6723633,0.026306152,0.79815674,0.13769531,0.54589844,0.14550781,19.066114,-11.515482,-126.400375,-29.813354,0.0,0.0,0.0,0.0,0.0,0.0,0.0,-28.246546,-126.351105,-40.7713,0.0,0.0,0.0,0.0,0.0,0.0,0.0,-0.17407769,-0.0023526512,0.98470837,-0.973938,-0.12884521,-0.3416748,-0.11816406,0.0,-0.022460938,5.002101,-3.6039474,-0.048707213,20.386515,1.0057373,-0.08129883,-0.030212402,-0.30859375,0.0625,0.21972656,6.8383055,-0.5973127,-56.835415,16.359556,-0.40075684,0.06524658,0.9310303,0.17578125,0.08203125,-0.016601562,6.9792376,-5.1942215,-128.69675,15.71435,0.0,0.0,0.0,0.0,0.0,0.0,0.0,-25.153267,-128.82915,14.451927,0.0,0.0,0.0,0.0,0.0,0.0,0.0,-3.6445422,44.84803,-0.5371353,
1.03515623457497,53,-0.0635376,0.83026123,0.51239014,-0.43359375,0.01171875,-0.14355469,0.0,0.0,0.0,0.0,0.0,0.0,0.0,0.0,0.0,0.0,0.0,0.17077628,0.008260641,-0.98525167,-1.0432129,0.107910156,0.46099854,0.3154297,-0.4921875,0.10449219,21.659063,3.5355988,0.17102084,-20.397764,1.0554199,-0.26672363,-0.168396,0.07910156,-0.27148438,0.080078125,18.403223,-12.5635605,-54.43111,-23.382687,-0.67962646,0.071777344,0.8059082,0.11816406,0.6376953,0.18164062,19.622084,-11.165949,-126.00734,-29.693754,0.0,0.0,0.0,0.0,0.0,0.0,0.0,-27.910563,-126.006355,-40.629524,0.0,0.0,0.0,0.0,0.0,0.0,0.0,-0.17077628,-0.008260641,0.98525167,-0.9977417,-0.030151367,-0.3163452,0.22558594,-0.0107421875,0.0546875,4.6949005,-3.5355988,-0.17102084,20.397764,1.007019,-0.18310547,-0.02758789,-0.38476562,-0.083984375,0.18457031,6.938535,-0.6500845,-56.97653,16.585896,-0.41278076,0.06298828,0.87298584,0.15625,0.06347656,-0.03515625,7.9709005,-5.6460586,-128.81136,16.04029,0.0,0.0,0.0,0.0,0.0,0.0,0.0,-25.609781,-128.89764,14.823628,0.0,0.0,0.0,0.0,0.0,0.0,0.0,-3.9014492,44.828503,-0.30039293,
1.0546874842839318,54,-0.10510254,0.83428955,0.5015869,-0.453125,0.01171875,-0.1796875,0.0,0.0,0.0,0.0,0.0,0.0,0.0,0.0,0.0,0.0,0.0,0.1657283,0.015381392,-0.9860354,-1.0119629,0.10992432,0.48895264,0.29589844,-0.64453125,0.06542969,22.55216,3.4310882,0.3184425,-20.413992,1.0393066,-0.230896,-0.1352539,0.19042969,-0.38671875,0.045898438,18.921385,-13.273166,-54.10229,-23.361643,-0.7056885,0.016540527,0.7982178,0.080078125,0.7294922,0.2548828,20.12484,-12.02141,-125.82068,-29.710032,0.0,0.0,0.0,0.0,0.0,0.0,0.0,-28.751604,-125.91117,-40.66919,0.0,0.0,0.0,0.0,0.0,0.0,0.0,-0.1657283,-0.015381392,0.9860354,-1.0153198,0.0057373047,-0.29052734,0.22460938,-0.20605469,0.17675781,4.624571,-3.4310882,-0.3184425,20.413992,1.0203247,-0.11755371,-0.10040283,0.119140625,-0.203125,0.06738281,6.621816,-0.9458492,-57.149105,16.752525,-0.40979004,0.06573486,0.897583,0.080078125,0.045898438,-0.015625,8.31706,-6.126505,-128.96764,16.167439,0.0,0.0,0.0,0.0,0.0,0.0,0.0,-26.091524,-129.00287,15.032538,0.0,0.0,0.0,0.0,0.0,0.0,0.0,-4.158885,44.80669,-5.6505203E-5,
1.0742187339928935,55,-0.122558594,0.78186035,0.46380615,-0.37304688,0.06738281,-0.16210938,0.0,0.0,0.0,0.0,0.0,0.0,0.0,0.0,0.0,0.0,0.0,0.15819147,0.022519518,-0.9870972,-0.96417236,0.14111328,0.50354004,0.27734375,-0.85253906,-0.0126953125,23.585379,3.2750537,0.46622384,-20.43597,1.0592651,-0.20220947,-0.15527344,0.18554688,-0.4609375,-0.06738281,20.427183,-14.285657,-53.686817,-23.165447,-0.71746826,0.032592773,0.8031006,-0.015625,0.7871094,0.2529297,20.585873,-12.288301,-125.39018,-29.44611,0.0,0.0,0.0,0.0,0.0,0.0,0.0,-28.987572,-125.59272,-40.449837,0.0,0.0,0.0,0.0,0.0,0.0,0.0,-0.15819147,-0.022519518,0.9870972,-0.95739746,-0.020690918,-0.3359375,-0.17871094,-0.42773438,0.22265625,4.792891,-3.2750537,-0.46622384,20.43597,1.0167236,-0.05670166,-0.1697998,0.022460938,-0.16503906,0.12402344,5.795522,-1.4390234,-57.33544,16.94566,-0.40673828,0.06561279,0.90057373,0.07910156,0.026367188,-0.015625,8.042323,-6.489981,-129.17123,16.162157,0.0,0.0,0.0,0.0,0.0,0.0,0.0,-26.455389,-129.20215,15.038683,0.0,0.0,0.0,0.0,0.0,0.0,0.0,-4.3238688,44.788147,0.32885158,
1.0937499837018552,56,-0.10620117,0.74468994,0.46801758,-0.21582031,0.064453125,-0.12988281,0.0,0.0,0.0,0.0,0.0,0.0,0.0,0.0,0.0,0.0,0.0,0.13262972,0.013996584,-0.961241,-0.96710205,0.13757324,0.48553467,0.33398438,-1.0615234,-0.053710938,22.23671,2.745847,0.28977266,-19.90067,1.0591431,-0.23931885,-0.1873169,0.06933594,-0.5732422,-0.08886719,22.201824,-16.051933,-53.46789,-22.288069,-0.72088623,0.060546875,0.7585449,-0.12988281,0.88183594,0.34375,21.139835,-13.509936,-125.03723,-28.58282,0.0,0.0,0.0,0.0,0.0,0.0,0.0,-30.147926,-125.36558,-39.675167,0.0,0.0,0.0,0.0,0.0,0.0,0.0,-0.13262972,-0.013996584,0.961241,-0.8569946,-0.021240234,-0.30755615,0.109375,-0.2607422,0.19921875,3.280859,-2.745847,-0.28977266,19.90067,0.99121094,-0.14520264,-0.16577148,-0.30566406,-0.19628906,0.22265625,5.0627956,-1.4703635,-57.188908,16.61877,-0.4130249,0.051696777,0.9104004,0.021484375,0.0087890625,0.0029296875,8.207266,-6.470903,-129.02164,15.570523,0.0,0.0,0.0,0.0,0.0,0.0,0.0,-26.437431,-129.04985,14.460776,0.0,0.0,0.0,0.0,0.0,0.0,0.0,-2.1972759,43.61362,0.33188093,
1.1132812334108169,57,-0.11816406,0.7774658,0.4138794,-0.25683594,0.029296875,-0.037109375,0.0,0.0,0.0,0.0,0.0,0.0,0.0,0.0,0.0,0.0,0.0,0.09245157,-0.0069886185,-0.9626942,-0.946167,0.09918213,0.49487305,0.31445312,-1.1386719,0.0029296875,18.115885,1.9140344,-0.14468603,-19.930756,0.99005127,-0.24523926,-0.21356201,0.10546875,-0.6689453,-0.10644531,24.128872,-18.347212,-53.38789,-21.784977,-0.6968384,0.055908203,0.7496338,-0.24316406,0.9042969,0.41601562,21.880291,-15.448549,-125.04506,-28.366594,0.0,0.0,0.0,0.0,0.0,0.0,0.0,-31.994616,-125.51911,-39.591038,0.0,0.0,0.0,0.0,0.0,0.0,0.0,-0.09245157,0.0069886185,0.9626942,-0.8375244,0.006286621,-0.32800293,0.3984375,0.21875,0.15527344,5.2497897,-1.9140344,0.14468603,19.930756,1.0141602,-0.19348145,-0.20343018,0.10058594,-0.24023438,0.10546875,4.810475,-0.79065335,-56.75564,16.641884,-0.41308594,0.043701172,0.9074707,-0.016601562,0.009765625,0.00390625,8.668254,-5.8772063,-128.57082,15.088429,0.0,0.0,0.0,0.0,0.0,0.0,0.0,-25.844742,-128.59651,13.987279,0.0,0.0,0.0,0.0,0.0,0.0,0.0,2.1462672,43.468594,-0.10944247,
1.1328124831197786,58,-0.101867676,0.77008057,0.41937256,-0.296875,-0.0087890625,-0.07324219,0.0,0.0,0.0,0.0,0.0,0.0,0.0,0.0,0.0,0.0,0.0,0.056836724,-0.021178592,-0.9729059,-0.8731079,0.10101318,0.49499512,0.31445312,-0.9863281,-0.0146484375,14.960817,1.1766955,-0.43846256,-20.142168,0.92633057,-0.23858643,-0.24786377,0.3486328,-0.7285156,-0.19433594,26.067694,-20.46258,-53.1566,-21.405922,-0.7357788,0.0602417,0.7081299,-0.31933594,0.9609375,0.4892578,22.554192,-17.151043,-124.74486,-28.412956,0.0,0.0,0.0,0.0,0.0,0.0,0.0,-33.561172,-125.38023,-39.825584,0.0,0.0,0.0,0.0,0.0,0.0,0.0,-0.056836724,0.021178592,0.9729059,-0.9289551,0.0037841797,-0.39770508,0.03515625,0.20996094,0.057617188,9.736881,-1.1766955,0.43846256,20.142168,1.0223999,-0.105773926,-0.2298584,0.36914062,-0.16992188,-0.049804688,4.7729034,-0.0053783655,-56.444023,16.538277,-0.40985107,0.057800293,0.8927002,0.0029296875,0.009765625,-0.015625,8.266455,-4.998507,-128.25865,14.552742,0.0,0.0,0.0,0.0,0.0,0.0,0.0,-24.966595,-128.27875,13.465801,0.0,0.0,0.0,0.0,0.0,0.0,0.0,5.7242227,43.486362,-0.6122217,
1.1523437328287403,59,-0.09680176,0.8317261,0.44158936,-0.27734375,-0.009765625,-0.07421875,0.0,0.0,0.0,0.0,0.0,0.0,0.0,0.0,0.0,0.0,0.0,0.03504902,-0.025617719,-0.9956809,-0.83477783,0.072265625,0.49353027,0.38964844,-0.9863281,0.0234375,14.400822,0.7256227,-0.53036624,-20.613682,0.9105835,-0.17797852,-0.30334473,0.59277344,-0.8076172,-0.22460938,28.136934,-22.223665,-52.701977,-21.269114,-0.7581177,0.057739258,0.7605591,-0.3955078,1.0,0.4873047,22.75889,-18.288397,-124.21893,-28.719303,0.0,0.0,0.0,0.0,0.0,0.0,0.0,-34.53689,-125.03244,-40.35314,0.0,0.0,0.0,0.0,0.0,0.0,0.0,-0.03504902,0.025617719,0.9956809,-0.92681885,0.010437012,-0.39074707,-0.1953125,-0.017578125,-0.001953125,11.604662,-0.7256227,0.53036624,20.613682,1.0147705,-0.060791016,-0.22802734,0.041015625,-0.20214844,0.030273438,4.4387527,0.34385556,-56.34383,16.86824,-0.43945312,0.078308105,0.89575195,-0.036132812,-0.0087890625,-0.0146484375,7.6477814,-4.356787,-128.16371,14.617405,0.0,0.0,0.0,0.0,0.0,0.0,0.0,-24.325914,-128.18361,13.538546,0.0,0.0,0.0,0.0,0.0,0.0,0.0,7.3642826,44.23073,-0.8787751,
1.171874982537702,60,-0.13446045,0.86138916,0.42492676,-0.20019531,-0.030273438,-0.057617188,0.0,0.0,0.0,0.0,0.0,0.0,0.0,0.0,0.0,0.0,0.0,0.026616871,-0.022164978,-0.99903816,-0.810791,0.13549805,0.47576904,0.6542969,-1.0595703,-0.111328125,15.913168,0.5510519,-0.4588838,-20.683187,0.93652344,-0.1171875,-0.31628418,0.42382812,-0.8642578,-0.13378906,30.297976,-23.57491,-52.10158,-20.594584,-0.74835205,0.0015258789,0.89624023,-0.31933594,0.85253906,0.4345703,23.344704,-18.775406,-123.52879,-28.413559,0.0,0.0,0.0,0.0,0.0,0.0,0.0,-34.504555,-124.45764,-40.313946,0.0,0.0,0.0,0.0,0.0,0.0,0.0,-0.026616871,0.022164978,0.99903816,-0.8914795,-0.045654297,-0.32440186,-0.19433594,0.080078125,-0.021484375,11.264144,-0.5510519,0.4588838,20.683187,1.0165405,-0.07977295,-0.23388672,-0.15136719,-0.2548828,0.10839844,4.0366745,0.46311563,-56.4108,16.872389,-0.3925171,0.057250977,0.9122925,-0.0546875,-0.0078125,0.00390625,7.316841,-3.8742104,-128.24213,14.27079,0.0,0.0,0.0,0.0,0.0,0.0,0.0,-23.844547,-128.26192,13.19479,0.0,0.0,0.0,0.0,0.0,0.0,0.0,7.154766,44.403988,-0.7945404,
1.1914062322466636,61,-0.11517334,0.84002686,0.42822266,-0.08300781,-0.0703125,-0.041992188,0.0,0.0,0.0,0.0,0.0,0.0,0.0,0.0,0.0,0.0,0.0,0.01730898,-0.018999964,-0.99964243,-0.8463135,0.090026855,0.4321289,0.5595703,-0.83496094,0.13964844,17.316956,0.3583496,-0.39335814,-20.695698,0.9723511,-0.10296631,-0.32556152,0.21582031,-0.7841797,-0.17773438,32.234554,-24.773937,-51.55363,-20.29268,-0.6133423,-0.0435791,0.82891846,-0.26171875,0.7763672,0.32421875,23.420523,-19.04599,-122.88074,-28.40294,0.0,0.0,0.0,0.0,0.0,0.0,0.0,-34.816628,-123.93418,-40.631535,0.0,0.0,0.0,0.0,0.0,0.0,0.0,-0.01730898,0.018999964,0.99964243,-0.90423584,-0.099487305,-0.3149414,-0.15527344,0.2548828,-0.021484375,11.089191,-0.3583496,0.39335814,20.695698,0.98651123,-0.11126709,-0.23010254,-0.15332031,-0.14355469,0.032226562,3.8244371,0.7457601,-56.465702,16.762543,-0.4345703,0.054992676,0.918396,-0.07324219,0.049804688,-0.0146484375,7.2465167,-3.3019986,-128.3008,13.7391405,0.0,0.0,0.0,0.0,0.0,0.0,0.0,-23.271284,-128.32994,12.658207,0.0,0.0,0.0,0.0,0.0,0.0,0.0,6.9236016,44.45703,-0.72510076,
1.2109374819556253,62,-0.11706543,0.85113525,0.44030762,-0.14355469,-0.12597656,-0.022460938,0.0,0.0,0.0,0.0,0.0,0.0,0.0,0.0,0.0,0.0,0.0,0.00812155,-0.01714857,-0.9998498,-0.91937256,0.04119873,0.38635254,0.5029297,-0.89160156,0.12011719,18.523554,0.16814142,-0.35502845,-20.699991,0.9472046,-0.16851807,-0.34051514,-0.12109375,-0.5888672,-0.1328125,33.770683,-25.735283,-51.13088,-20.102798,-0.55023193,-0.04486084,0.8881836,-0.1484375,0.66308594,0.17675781,22.892403,-19.213566,-122.36943,-28.381115,0.0,0.0,0.0,0.0,0.0,0.0,0.0,-35.032402,-123.55174,-40.543255,0.0,0.0,0.0,0.0,0.0,0.0,0.0,-0.00812155,0.01714857,0.9998498,-0.86206055,-0.10229492,-0.3513794,0.07421875,0.40429688,-0.024414062,11.132716,-0.16814142,0.35502845,20.699991,0.98327637,-0.072265625,-0.20166016,-0.11425781,-0.16308594,-0.005859375,3.884688,1.2583296,-56.486843,16.606491,-0.40063477,0.061523438,0.90148926,-0.053710938,0.048828125,-0.052734375,7.063331,-2.4729698,-128.32419,13.35515,0.0,0.0,0.0,0.0,0.0,0.0,0.0,-22.440855,-128.36082,12.272027,0.0,0.0,0.0,0.0,0.0,0.0,0.0,6.655303,44.50084,-0.7091807,
1.230468731664587,63,-0.12109375,0.8213501,0.43225098,-0.20507812,-0.20214844,-0.07714844,0.0,0.0,0.0,0.0,0.0,0.0,0.0,0.0,0.0,0.0,0.0,-9.5278025E-4,-0.014571633,-0.99991035,-0.9170532,0.07910156,0.38702393,0.84277344,-0.7939453,0.025390625,19.721828,-0.01972586,-0.30167803,-20.701244,0.9445801,-0.18493652,-0.3774414,-0.15820312,-0.4736328,-0.15332031,35.048443,-26.543089,-50.750313,-19.899258,-0.5003052,-0.055480957,0.9257202,-0.09082031,0.4970703,0.030273438,22.376377,-19.3583,-121.905754,-28.333181,0.0,0.0,0.0,0.0,0.0,0.0,0.0,-35.28214,-123.198746,-40.34304,0.0,0.0,0.0,0.0,0.0,0.0,0.0,9.5278025E-4,0.014571633,0.99991035,-0.89733887,-0.11065674,-0.3435669,0.3623047,0.53222656,-0.02734375,11.212345,0.01972586,0.30167803,20.701244,1.0031738,-0.03955078,-0.15289307,-0.38476562,-0.17675781,0.053710938,4.211381,1.9632728,-56.509594,16.413506,-0.39874268,0.03942871,0.9094238,-0.015625,0.047851562,0.00390625,7.1197076,-1.4539049,-128.36578,13.173578,0.0,0.0,0.0,0.0,0.0,0.0,0.0,-21.422638,-128.41098,12.091205,0.0,0.0,0.0,0.0,0.0,0.0,0.0,6.2694674,44.55708,-0.65530205,
1.2499999813735487,64,-0.09307861,0.8468628,0.4993286,-0.22460938,-0.18359375,-0.13085938,0.0,0.0,0.0,0.0,0.0,0.0,0.0,0.0,0.0,0.0,0.0,-0.00851199,-0.010812338,-0.9998492,-0.8754883,0.1484375,0.4569702,0.9941406,-0.7919922,-0.0703125,21.046822,-0.1762242,-0.223849,-20.699978,0.9493408,-0.16064453,-0.3734131,-0.2109375,-0.22558594,-0.119140625,36.15331,-27.3716,-50.31106,-19.641352,-0.41253662,-0.029846191,0.9680176,-0.08984375,0.296875,-0.041992188,21.774645,-19.800976,-121.42555,-28.06927,0.0,0.0,0.0,0.0,0.0,0.0,0.0,-35.873108,-122.76714,-39.8612,0.0,0.0,0.0,0.0,0.0,0.0,0.0,0.00851199,0.010812338,0.9998492,-0.99450684,-0.090026855,-0.35217285,0.40039062,0.4921875,-0.0078125,11.19125,0.1762242,0.223849,20.699978,0.98620605,-0.08319092,-0.13549805,-0.5390625,-0.23046875,0.07519531,4.5700326,2.5946941,-56.551235,16.157278,-0.4182129,0.06542969,0.94488525,-0.034179688,0.06738281,0.00390625,7.711975,-0.5911846,-128.42293,12.882502,0.0,0.0,0.0,0.0,0.0,0.0,0.0,-20.55949,-128.47652,11.808378,0.0,0.0,0.0,0.0,0.0,0.0,0.0,5.8374567,44.614048,-0.5321506,
1.2695312310825104,65,-0.12573242,0.81469727,0.46313477,-0.22265625,-0.14746094,-0.20410156,0.0,0.0,0.0,0.0,0.0,0.0,0.0,0.0,0.0,0.0,0.0,-0.015867442,-0.004785612,-0.9999867,-0.8531494,0.18835449,0.37701416,1.1074219,-0.8857422,-0.12890625,22.403759,-0.32850572,-0.099077,-20.702826,0.9506836,-0.21948242,-0.3815918,-0.2265625,0.022460938,-0.14160156,37.09543,-28.253696,-49.776497,-19.390474,-0.3973999,-0.01776123,1.0203857,-0.20214844,0.029296875,-0.041015625,22.010899,-20.569439,-120.896,-27.698153,0.0,0.0,0.0,0.0,0.0,0.0,0.0,-36.582623,-122.22818,-39.4256,0.0,0.0,0.0,0.0,0.0,0.0,0.0,0.015867442,0.004785612,0.9999867,-0.99194336,-0.046203613,-0.30566406,0.3798828,0.27734375,0.07421875,10.816197,0.32850572,0.099077,20.702826,0.9849243,-0.07312012,-0.09307861,-0.65527344,-0.22851562,0.0390625,4.6757936,2.9538121,-56.658463,16.118082,-0.40057373,0.0635376,0.89660645,-0.072265625,0.10644531,-0.0146484375,8.559284,-0.059001684,-128.53702,12.922144,0.0,0.0,0.0,0.0,0.0,0.0,0.0,-20.029873,-128.60701,11.860678,0.0,0.0,0.0,0.0,0.0,0.0,0.0,5.449403,44.673443,-0.30026174,
1.2890624807914721,66,-0.15039062,0.77978516,0.4923706,-0.18359375,-0.12988281,-0.24121094,0.0,0.0,0.0,0.0,0.0,0.0,0.0,0.0,0.0,0.0,0.0,-0.02435708,0.0025632493,-0.9997779,-0.8283081,0.28381348,0.4085083,0.9560547,-0.7734375,-0.05078125,23.591684,-0.504267,0.05306722,-20.698503,0.9517212,-0.29309082,-0.3729248,-0.20507812,0.2890625,-0.16210938,37.654835,-29.122946,-49.22489,-19.329292,-0.3562622,-0.015197754,1.0440674,-0.37109375,-0.2548828,0.015625,25.24772,-21.693731,-120.39538,-27.442686,0.0,0.0,0.0,0.0,0.0,0.0,0.0,-37.001415,-121.66519,-39.79818,0.0,0.0,0.0,0.0,0.0,0.0,0.0,0.02435708,-0.0025632493,0.9997779,-0.95788574,-0.051086426,-0.2506714,0.53222656,0.1953125,0.13378906,10.234641,0.504267,-0.05306722,20.698503,1.020813,-0.09655762,-0.077819824,-0.92285156,-0.4091797,0.15722656,4.460981,3.0944407,-56.826473,16.24451,-0.43341064,0.062194824,0.8996582,-0.109375,0.12695312,-0.0146484375,9.782773,0.26553535,-128.70753,13.074956,0.0,0.0,0.0,0.0,0.0,0.0,0.0,-19.704247,-128.8119,12.005985,0.0,0.0,0.0,0.0,0.0,0.0,0.0,5.166073,44.706,-0.011240244,
1.3085937305004338,67,-0.14880371,0.78253174,0.46447754,-0.22363281,-0.16601562,-0.20410156,0.0,0.0,0.0,0.0,0.0,0.0,0.0,0.0,0.0,0.0,0.0,-0.03335315,0.010950204,-0.9994149,-0.81469727,0.27282715,0.47106934,0.7109375,-0.7578125,0.1015625,24.82965,-0.69051296,0.22670308,-20.690987,0.9154663,-0.28778076,-0.35559082,0.17578125,0.5703125,-0.25,37.912746,-30.05392,-48.60767,-19.198591,-0.34332275,-0.07775879,1.0600586,-0.4638672,-0.5595703,0.036132812,27.84968,-23.332104,-119.890274,-26.946709,0.0,0.0,0.0,0.0,0.0,0.0,0.0,-38.18918,-121.048195,-39.90075,0.0,0.0,0.0,0.0,0.0,0.0,0.0,0.03335315,-0.010950204,0.9994149,-1.0007935,-0.031982422,-0.2789917,0.74316406,0.30566406,0.11035156,9.701176,0.69051296,-0.22670308,20.690987,1.00354,-0.19616699,-0.11633301,-0.92285156,-0.44628906,0.12011719,4.2210426,3.260108,-57.007137,16.309345,-0.41796875,0.07788086,0.89764404,-0.09082031,0.107421875,-0.0146484375,11.377538,0.5706773,-128.8874,12.856287,0.0,0.0,0.0,0.0,0.0,0.0,0.0,-19.399565,-129.03864,11.782316,0.0,0.0,0.0,0.0,0.0,0.0,0.0,4.906822,44.731903,0.3263563,
1.3281249802093955,68,-0.14208984,0.7528076,0.5038452,-0.26464844,-0.22167969,-0.1484375,0.0,0.0,0.0,0.0,0.0,0.0,0.0,0.0,0.0,0.0,0.0,-0.040859222,0.018314637,-0.9989631,-0.8116455,0.27282715,0.47009277,0.484375,-0.75878906,0.12109375,26.249796,-0.84591293,0.37916973,-20.681633,0.942688,-0.2555542,-0.3557129,0.4033203,0.87402344,-0.3798828,37.88692,-30.98452,-47.977615,-19.07881,-0.3319702,-0.057556152,1.0827026,-0.5390625,-0.81152344,-0.07421875,31.739717,-25.316143,-119.42154,-26.101559,0.0,0.0,0.0,0.0,0.0,0.0,0.0,-39.274574,-120.36728,-40.011757,0.0,0.0,0.0,0.0,0.0,0.0,0.0,0.040859222,-0.018314637,0.9989631,-0.98236084,-0.007507324,-0.2935791,0.5888672,0.095703125,0.091796875,8.995909,0.84591293,-0.37916973,20.681633,0.9920654,-0.15307617,-0.10845947,-0.45898438,-0.49121094,0.001953125,3.9167168,3.3388333,-57.167713,16.42221,-0.41485596,0.091674805,0.9143677,-0.14746094,0.14648438,-0.051757812,12.5875845,0.8159783,-129.03577,12.724646,0.0,0.0,0.0,0.0,0.0,0.0,0.0,-19.15626,-129.25032,11.65531,0.0,0.0,0.0,0.0,0.0,0.0,0.0,4.5413027,44.76423,0.6349447,
1.3476562299183572,69,-0.081970215,0.7529907,0.47045898,-0.18554688,-0.20214844,-0.05859375,0.0,0.0,0.0,0.0,0.0,0.0,0.0,0.0,0.0,0.0,0.0,-0.06707281,0.016063543,-0.97709197,-0.78790283,0.27905273,0.42443848,0.20117188,-0.70214844,0.12207031,24.72386,-1.3886156,0.33256528,-20.228834,0.9238281,-0.17358398,-0.3104248,0.38671875,1.1992188,-0.4404297,37.585686,-32.22905,-47.579742,-18.591612,-0.28668213,-0.107299805,1.107544,-0.5371094,-1.1201172,-0.20117188,35.12803,-27.779654,-119.2194,-24.452265,0.0,0.0,0.0,0.0,0.0,0.0,0.0,-40.872784,-119.88253,-39.238243,0.0,0.0,0.0,0.0,0.0,0.0,0.0,0.06707281,-0.016063543,0.97709197,-0.930542,-0.0368042,-0.2545166,0.45507812,0.041015625,0.051757812,11.086386,1.3886156,-0.33256528,20.228834,0.99591064,-0.105285645,-0.1404419,-0.43945312,-0.5839844,0.0029296875,3.3287258,3.7130036,-57.151043,16.19619,-0.41516113,0.043640137,0.9173584,-0.14746094,0.10839844,-0.051757812,13.359874,1.5578327,-129.01173,12.058992,0.0,0.0,0.0,0.0,0.0,0.0,0.0,-18.410069,-129.30115,10.946094,0.0,0.0,0.0,0.0,0.0,0.0,0.0,6.229594,43.635143,0.2897358,
1.367187479627319,70,-0.07611084,0.744812,0.45129395,-0.08496094,-0.12792969,-0.060546875,0.0,0.0,0.0,0.0,0.0,0.0,0.0,0.0,0.0,0.0,0.0,-0.10344833,0.011945449,-0.9768768,-0.7617798,0.27630615,0.45031738,0.18359375,-0.5498047,0.08496094,21.776936,-2.1417012,0.24730799,-20.224379,0.91101074,-0.15924072,-0.33215332,0.24023438,1.5449219,-0.4482422,37.007698,-33.584274,-47.27088,-18.525593,-0.19787598,-0.072021484,1.1844482,-0.5175781,-1.4306641,-0.36621094,38.101692,-30.543379,-119.084595,-22.858265,0.0,0.0,0.0,0.0,0.0,0.0,0.0,-42.816166,-119.42074,-38.375748,0.0,0.0,0.0,0.0,0.0,0.0,0.0,0.10344833,-0.011945449,0.9768768,-0.93774414,-0.05078125,-0.28015137,0.53222656,0.1953125,0.051757812,14.714918,2.1417012,-0.24730799,20.224379,0.984375,-0.107055664,-0.11254883,-0.61328125,-0.5439453,0.041992188,2.9189317,4.434704,-57.076836,16.399704,-0.4130249,0.049743652,0.9055176,-0.16699219,0.109375,-0.033203125,14.193344,2.695621,-128.92876,11.856802,0.0,0.0,0.0,0.0,0.0,0.0,0.0,-17.268286,-129.29291,10.726224,0.0,0.0,0.0,0.0,0.0,0.0,0.0,8.996021,43.28147,-0.4233966,
1.3867187293362806,71,-0.047973633,0.7280884,0.4375,-0.103515625,-0.08886719,-0.041992188,0.0,0.0,0.0,0.0,0.0,0.0,0.0,0.0,0.0,0.0,0.0,-0.14242339,0.009960055,-0.9721961,-0.7512207,0.21362305,0.3466797,-0.6279297,-0.5341797,0.16210938,18.195564,-2.9486063,0.20620406,-20.127474,0.84783936,-0.14111328,-0.30456543,0.020507812,1.9853516,-0.4013672,36.067387,-34.884163,-46.988,-18.5116,-0.09869385,-0.024108887,1.2316284,-0.43945312,-1.8505859,-0.5097656,40.781902,-33.535347,-118.9404,-21.029026,0.0,0.0,0.0,0.0,0.0,0.0,0.0,-45.049416,-118.8925,-37.143124,0.0,0.0,0.0,0.0,0.0,0.0,0.0,0.14242339,-0.009960055,0.9721961,-0.94781494,-0.053588867,-0.27722168,0.5126953,0.09863281,0.03125,18.999092,2.9486063,-0.20620406,20.127474,0.96936035,-0.09979248,-0.057006836,-0.53515625,-0.6376953,0.0048828125,2.71851,5.2719126,-57.04974,16.47357,-0.41516113,0.033813477,0.904541,-0.18652344,0.09082031,-0.033203125,15.160759,3.8688016,-128.8802,11.586587,0.0,0.0,0.0,0.0,0.0,0.0,0.0,-16.092056,-129.31984,10.453887,0.0,0.0,0.0,0.0,0.0,0.0,0.0,12.095394,42.51061,-1.3364172,
1.4062499790452423,72,-0.09362793,0.729187,0.42279053,0.015625,-0.051757812,0.06542969,0.0,0.0,0.0,0.0,0.0,0.0,0.0,0.0,0.0,0.0,0.0,-0.17828915,0.010141924,-0.9689498,-0.63201904,0.12963867,0.20404053,-0.7207031,-0.22851562,0.03125,14.736508,-3.691139,0.20996936,-20.060265,0.835083,-0.16314697,-0.29956055,0.029296875,2.4794922,-0.33007812,35.24178,-35.98713,-46.73726,-18.409111,-0.117126465,-0.032836914,1.3048706,-0.34277344,-2.2529297,-0.6347656,43.88066,-36.02409,-118.73995,-18.383797,0.0,0.0,0.0,0.0,0.0,0.0,0.0,-46.84737,-118.23079,-34.98016,0.0,0.0,0.0,0.0,0.0,0.0,0.0,0.17828915,-0.010141924,0.9689498,-0.979187,-0.06616211,-0.17803955,0.49316406,-0.057617188,-0.030273438,22.97797,3.691139,-0.20996936,20.060265,0.96698,-0.05291748,-0.10467529,-0.3984375,-0.8066406,0.0048828125,2.5855074,5.9435463,-57.073612,16.780884,-0.402771,0.059448242,0.91430664,-0.20507812,0.12890625,-0.033203125,15.934005,4.9704947,-128.87602,11.375047,0.0,0.0,0.0,0.0,0.0,0.0,0.0,-14.9847355,-129.4003,10.216896,0.0,0.0,0.0,0.0,0.0,0.0,0.0,15.025436,41.6484,-2.3287864,
1.425781228754204,73,-0.12872314,0.7501221,0.44476318,0.13378906,-0.032226562,0.20898438,0.0,0.0,0.0,0.0,0.0,0.0,0.0,0.0,0.0,0.0,0.0,-0.21113065,0.0101291835,-0.9645221,-0.6253052,0.098083496,0.33996582,-1.0019531,0.171875,-0.0029296875,11.379374,-4.37106,0.2097058,-19.9686,0.8386841,-0.11254883,-0.24456787,0.24316406,2.8769531,-0.3466797,33.966816,-36.637638,-46.7559,-18.350513,-0.2420044,-0.042053223,1.3515015,-0.18847656,-2.7294922,-0.7949219,46.856964,-38.14408,-118.5473,-15.130884,0.0,0.0,0.0,0.0,0.0,0.0,0.0,-48.36986,-117.50092,-32.087082,0.0,0.0,0.0,0.0,0.0,0.0,0.0,0.21113065,-0.0101291835,0.9645221,-0.9909668,-0.044799805,-0.16217041,0.53125,-0.09765625,-0.03125,26.471483,4.37106,-0.2097058,19.9686,0.975647,-0.107055664,-0.15979004,-0.35839844,-0.8076172,0.1171875,2.9242249,6.412133,-57.10529,17.234632,-0.42541504,0.049743652,0.9272461,-0.22460938,0.11035156,-0.013671875,16.577604,5.855564,-128.85347,11.125084,0.0,0.0,0.0,0.0,0.0,0.0,0.0,-14.0987,-129.47429,9.950444,0.0,0.0,0.0,0.0,0.0,0.0,0.0,17.625626,40.64359,-3.4313607,
1.4453124784631657,74,-0.18054199,0.70654297,0.4050293,0.09277344,-0.083984375,0.37402344,0.0,0.0,0.0,0.0,0.0,0.0,0.0,0.0,0.0,0.0,0.0,-0.24267188,0.0076030046,-0.9588687,-0.66845703,0.1427002,0.32769775,-0.98339844,0.15332031,-0.041015625,8.937339,-5.024061,0.15740569,-19.851553,0.9393921,-0.10510254,-0.17572021,-0.11035156,3.1279297,-0.26367188,31.862867,-37.163742,-46.893845,-18.319756,-0.46484375,-0.036010742,1.3261108,-0.12890625,-3.0927734,-0.80859375,48.87079,-41.256634,-118.5167,-12.04903,0.0,0.0,0.0,0.0,0.0,0.0,0.0,-50.936554,-116.824486,-29.280807,0.0,0.0,0.0,0.0,0.0,0.0,0.0,0.24267188,-0.0076030046,0.9588687,-0.88708496,-0.015075684,-0.21704102,0.33984375,-0.13085938,0.052734375,29.65239,5.024061,-0.15740569,19.851553,0.9244995,-0.12219238,-0.11425781,-0.26171875,-0.9013672,0.041992188,3.6609437,6.883791,-57.082752,17.540283,-0.4293213,0.06707764,0.8996582,-0.22265625,0.20507812,0.0234375,17.22506,6.557402,-128.7613,10.6786785,0.0,0.0,0.0,0.0,0.0,0.0,0.0,-13.39617,-129.47762,9.505963,0.0,0.0,0.0,0.0,0.0,0.0,0.0,19.825886,39.572987,-4.703784,
1.4648437281721274,75,-0.20288086,0.75579834,0.40795898,0.13085938,-0.123046875,0.37304688,0.0,0.0,0.0,0.0,0.0,0.0,0.0,0.0,0.0,0.0,0.0,-0.2722597,0.0059570745,-0.9522128,-0.701355,0.12902832,0.47973633,-0.85058594,0.45996094,-0.15234375,7.688118,-5.636619,0.12332935,-19.713757,1.0009155,-0.19818115,-0.08392334,-0.1796875,3.2792969,-0.11425781,28.95154,-37.49778,-47.122753,-18.245945,-0.68322754,-0.01977539,1.1967773,-0.22265625,-3.2158203,-0.69628906,50.81303,-45.16342,-118.15614,-9.234654,0.0,0.0,0.0,0.0,0.0,0.0,0.0,-54.26571,-115.75541,-26.703053,0.0,0.0,0.0,0.0,0.0,0.0,0.0,0.2722597,-0.0059570745,0.9522128,-0.8416748,-0.07336426,-0.18804932,0.052734375,-0.25878906,-0.045898438,32.570587,5.636619,-0.12332935,19.713757,0.86383057,-0.089538574,-0.19226074,-0.14355469,-1.1816406,-0.049804688,4.679772,7.3378696,-57.06996,17.740759,-0.44702148,0.034301758,0.91448975,-0.22460938,0.12890625,0.04296875,17.78136,8.0797615,-128.59898,9.721122,0.0,0.0,0.0,0.0,0.0,0.0,0.0,-11.871363,-129.4179,8.520091,0.0,0.0,0.0,0.0,0.0,0.0,0.0,21.724209,38.453465,-5.9708896,
1.484374977881089,76,-0.19012451,0.81604004,0.40014648,0.18652344,-0.21972656,0.40722656,0.0,0.0,0.0,0.0,0.0,0.0,0.0,0.0,0.0,0.0,0.0,-0.2871459,0.003256783,-0.9577378,-0.8707886,0.16003418,0.7518921,-0.8886719,0.09863281,-0.23242188,8.02096,-5.944811,0.06742571,-19.82814,0.9746704,-0.21032715,0.035888672,0.23632812,3.2539062,-0.12207031,26.038177,-37.611496,-47.299675,-18.076097,-0.82244873,0.033813477,0.9941406,-0.44921875,-3.1699219,-0.45703125,52.85292,-49.13936,-117.41473,-6.359255,0.0,0.0,0.0,0.0,0.0,0.0,0.0,-57.5599,-114.283165,-24.061285,0.0,0.0,0.0,0.0,0.0,0.0,0.0,0.2871459,-0.003256783,0.9577378,-0.8730469,-0.09423828,-0.35327148,0.4375,0.10058594,-0.19335938,32.03463,5.944811,-0.06742571,19.82814,0.9638672,-0.08129883,-0.42041016,0.18847656,-1.3720703,0.041992188,6.266257,7.7536263,-57.01698,18.033382,-0.43798828,0.0020751953,0.9273071,-0.18457031,0.18554688,0.0048828125,17.5862,9.379387,-128.34016,8.248102,0.0,0.0,0.0,0.0,0.0,0.0,0.0,-10.563618,-129.25388,7.029374,0.0,0.0,0.0,0.0,0.0,0.0,0.0,21.429049,39.059578,-6.2919674,
1.5039062275900508,77,-0.12792969,0.8649292,0.38598633,0.12988281,-0.16015625,0.4453125,0.0,0.0,0.0,0.0,0.0,0.0,0.0,0.0,0.0,0.0,0.0,-0.29547298,-0.0039593726,-0.9552541,-0.70532227,0.10620117,0.6864624,-0.71972656,-0.072265625,-0.19628906,8.826369,-6.1172085,-0.08197136,-19.776718,0.91516113,-0.1798706,0.15020752,0.6308594,2.9433594,-0.107421875,23.767982,-37.970352,-47.29232,-17.541742,-0.93621826,0.1005249,0.77752686,-0.71484375,-2.9228516,-0.14648438,54.818222,-53.245266,-116.194695,-3.2236118,0.0,0.0,0.0,0.0,0.0,0.0,0.0,-60.83298,-112.35463,-21.170725,0.0,0.0,0.0,0.0,0.0,0.0,0.0,0.29547298,0.0039593726,0.9552541,-0.8720703,-0.028503418,-0.44122314,0.8017578,0.24609375,-0.23828125,31.601171,6.1172085,0.08197136,19.776718,0.97613525,-0.076660156,-0.53131104,0.14746094,-1.2050781,0.0029296875,7.464375,8.471656,-56.842533,17.906275,-0.40600586,0.030517578,0.91729736,-0.107421875,0.22167969,-0.033203125,17.56727,11.4312,-127.86502,6.596936,0.0,0.0,0.0,0.0,0.0,0.0,0.0,-8.507067,-128.8576,5.377577,0.0,0.0,0.0,0.0,0.0,0.0,0.0,20.635292,39.446003,-6.546273,
1.5234374772990125,78,-0.15515137,0.8935547,0.39990234,0.22558594,-0.21972656,0.4248047,0.0,0.0,0.0,0.0,0.0,0.0,0.0,0.0,0.0,0.0,0.0,-0.30311555,-0.011102423,-0.95278656,-0.6790161,0.12670898,0.8362427,-0.8876953,0.21386719,-0.2890625,9.532525,-6.2754316,-0.2298548,-19.725637,0.95648193,-0.07476807,0.42730713,1.0195312,2.5,-0.1875,21.853342,-38.341316,-47.230377,-16.666813,-2.0,-0.3729248,0.38476562,0.37597656,-1.2910156,-0.12890625,56.303394,-56.978786,-114.70656,0.21633911,0.0,0.0,0.0,0.0,0.0,0.0,0.0,-63.66424,-110.23308,-17.953054,0.0,0.0,0.0,0.0,0.0,0.0,0.0,0.30311555,0.011102423,0.95278656,-0.81658936,-0.013122559,-0.55511475,0.38183594,0.3955078,-0.2939453,31.395937,6.2754316,0.2298548,19.725637,0.8999634,-0.09063721,-0.62054443,-0.22167969,-1.0507812,0.005859375,8.171185,9.181163,-56.649174,17.338917,-0.40924072,0.045043945,0.9734497,-0.068359375,0.296875,0.00390625,17.425953,13.451714,-127.39258,4.588089,0.0,0.0,0.0,0.0,0.0,0.0,0.0,-6.483841,-128.46527,3.3911953,0.0,0.0,0.0,0.0,0.0,0.0,0.0,19.878157,39.791847,-6.787632,
1.5429687270079742,79,-0.17913818,0.8311157,0.4736328,0.34375,-0.22363281,0.3671875,0.0,0.0,0.0,0.0,0.0,0.0,0.0,0.0,0.0,0.0,0.0,-0.3104517,-0.016801998,-0.95032436,-0.95874023,0.052612305,1.999939,-1.0400391,-0.35839844,-0.27539062,10.3377075,-6.4273114,-0.3478536,-19.674662,1.274292,0.04309082,0.31121826,0.86816406,0.7080078,0.016601562,22.18214,-38.47474,-47.37575,-16.37424,-2.0,0.07922363,-1.1235352,0.30859375,-0.24707031,-0.6845703,58.00859,-57.253696,-114.15202,2.2941399,0.0,0.0,0.0,0.0,0.0,0.0,0.0,-63.317104,-109.31117,-16.008818,0.0,0.0,0.0,0.0,0.0,0.0,0.0,0.3104517,0.016801998,0.95032436,-0.88775635,-0.0028686523,-0.5599365,0.3076172,0.8857422,-0.43554688,31.64998,6.4273114,0.3478536,19.674662,0.95880127,-0.17626953,-0.57373047,-0.3017578,-0.9941406,-0.23925781,8.457005,10.157927,-56.438908,16.361483,-0.427063,-0.004699707,0.98535156,-0.13964844,0.5654297,0.080078125,17.757292,15.8329115,-126.777664,2.177847,0.0,0.0,0.0,0.0,0.0,0.0,0.0,-3.8598566,-127.95685,0.87197113,0.0,0.0,0.0,0.0,0.0,0.0,0.0,19.152245,40.115086,-6.965896,
1.5624999767169359,80,-0.20800781,0.8982544,0.44708252,0.57910156,-0.21191406,0.3076172,0.0,0.0,0.0,0.0,0.0,0.0,0.0,0.0,0.0,0.0,0.0,-0.3194154,-0.022630915,-0.9472359,-0.71240234,-0.07763672,0.6286011,-0.13769531,-1.9326172,-0.51953125,11.929636,-6.61289,-0.46852994,-19.610718,0.38171387,0.29364014,-0.0793457,-1.0976562,0.043945312,-0.71875,24.663572,-39.80197,-46.61502,-15.366229,-2.0,0.0072631836,-1.293396,0.7324219,1.2714844,-1.2011719,59.718918,-57.097145,-113.24404,5.2466593,0.0,0.0,0.0,0.0,0.0,0.0,0.0,-62.804684,-108.40757,-13.180341,0.0,0.0,0.0,0.0,0.0,0.0,0.0,0.3194154,0.022630915,0.9472359,-1.0466309,0.13482666,-0.5460205,0.69140625,1.2646484,-0.29589844,32.522026,6.61289,0.46852994,19.610718,1.1433716,-0.25549316,-0.44256592,-0.07128906,-0.90527344,-0.41210938,8.2056875,11.416874,-56.176277,15.346663,-0.38482666,0.14691162,0.9260254,-0.061523438,0.69628906,0.13671875,19.284943,18.753819,-126.21262,0.37819862,0.0,0.0,0.0,0.0,0.0,0.0,0.0,-0.79927254,-127.525215,-1.274847,0.0,0.0,0.0,0.0,0.0,0.0,0.0,18.635527,40.308563,-7.24708,
1.5820312264258976,81,-0.23687744,0.9574585,0.4204712,0.4013672,-0.26660156,0.25585938,0.0,0.0,0.0,0.0,0.0,0.0,0.0,0.0,0.0,0.0,0.0,-0.33516866,-0.026362255,-0.94167805,-0.5180054,-0.028381348,-0.23065186,-0.18847656,0.3359375,-0.6123047,12.781341,-6.9390316,-0.54578024,-19.495655,0.43463135,0.109191895,-0.86206055,-2.6689453,-2.149414,-0.2841797,28.239777,-40.521088,-46.332954,-14.464829,-1.324707,0.68969727,1.8689575,0.80566406,1.7587891,-1.1494141,64.19302,-53.368805,-113.88443,6.7378016,0.0,0.0,0.0,0.0,0.0,0.0,0.0,-58.88,-109.33728,-11.829581,0.0,0.0,0.0,0.0,0.0,0.0,0.0,0.33516866,0.026362255,0.94167805,-1.1035767,0.017578125,-0.3493042,-0.42089844,0.24414062,-0.38671875,33.11024,6.9390316,0.54578024,19.495655,1.06073,-0.08654785,-0.33538818,0.97265625,-0.99609375,-0.59375,8.433542,12.465365,-55.99188,14.707455,-0.4519043,0.068237305,1.1508789,-0.265625,1.0800781,0.3828125,20.638365,21.44664,-125.6669,-0.9901638,0.0,0.0,0.0,0.0,0.0,0.0,0.0,2.252018,-127.2127,-3.245861,0.0,0.0,0.0,0.0,0.0,0.0,0.0,18.221828,40.42914,-7.6174536,
1.6015624761348592,82,-0.26593018,1.060852,0.4668579,0.043945312,-0.3955078,0.080078125,0.0,0.0,0.0,0.0,0.0,0.0,0.0,0.0,0.0,0.0,0.0,-0.36432534,-0.023955002,-0.9212,-0.8128662,-0.0043945312,-0.48651123,-0.7138672,2.0048828,-0.21386719,9.819487,-7.5426645,-0.4959432,-19.071695,1.0427856,-0.014465332,-0.8800659,-2.165039,-1.3847656,0.33203125,29.312918,-39.153606,-47.495388,-14.352863,-0.46826172,0.43865967,0.79071045,0.3935547,1.6181641,-0.29296875,67.672966,-47.795494,-115.8414,6.2450027,0.0,0.0,0.0,0.0,0.0,0.0,0.0,-53.446487,-111.38348,-12.317087,0.0,0.0,0.0,0.0,0.0,0.0,0.0,0.36432534,0.023955002,0.9212,-1.1405029,-0.2576294,-0.18719482,-1.6855469,-0.4794922,-0.578125,35.62646,7.5426645,0.4959432,19.071695,1.0997314,0.15258789,-0.24987793,1.0722656,-1.2197266,-0.5546875,9.662858,13.0118885,-56.065266,14.510053,-0.36816406,0.025634766,0.9290161,-0.17675781,1.5957031,-0.0126953125,21.588196,23.41115,-125.36421,-1.98664,0.0,0.0,0.0,0.0,0.0,0.0,0.0,4.1459446,-127.23753,-5.102167,0.0,0.0,0.0,0.0,0.0,0.0,0.0,19.526356,39.12437,-8.739874,
1.621093725843821,83,-0.19592285,1.142273,0.44177246,0.4716797,-0.50683594,-0.14941406,0.0,0.0,0.0,0.0,0.0,0.0,0.0,0.0,0.0,0.0,0.0,-0.40123966,-0.016330227,-0.90704983,-0.6849365,-0.10662842,0.23583984,0.49804688,2.3652344,-1.1660156,8.525049,-8.306905,-0.3380866,-18.778744,1.1470337,-0.57318115,-0.20532227,-3.7138672,-1.0,1.5429688,27.65742,-36.91638,-49.423176,-14.255929,-0.71533203,-0.29675293,0.86834717,0.31933594,1.4042969,-0.19824219,74.2024,-43.094257,-118.37851,5.2642317,0.0,0.0,0.0,0.0,0.0,0.0,0.0,-48.151714,-113.97671,-13.4809065,0.0,0.0,0.0,0.0,0.0,0.0,0.0,0.40123966,0.016330227,0.90704983,-1.1862183,-0.2935791,-0.08325195,0.0,0.11425781,-0.55566406,38.770267,8.306905,0.3380866,18.778744,1.2202148,0.07519531,-0.14611816,-0.9169922,-1.2998047,-0.13378906,11.242269,14.052719,-56.216114,14.462492,-0.4052124,0.07836914,1.0325317,-0.2626953,1.9990234,-0.12402344,24.534687,26.144938,-124.94266,-3.2334309,0.0,0.0,0.0,0.0,0.0,0.0,0.0,7.3877506,-127.24082,-7.30407,0.0,0.0,0.0,0.0,0.0,0.0,0.0,21.16028,37.99933,-10.044522,
1.6406249755527826,84,-0.18322754,1.0979004,0.5475464,0.48046875,-0.24511719,-0.4033203,0.0,0.0,0.0,0.0,0.0,0.0,0.0,0.0,0.0,0.0,0.0,-0.43558836,-0.0053564906,-0.8924936,-1.6274414,0.4335327,1.111023,1.5722656,1.9326172,-1.3046875,10.573934,-9.01803,-0.11089581,-18.477385,1.239624,-0.8999634,-0.08282471,0.6347656,-0.8779297,0.54003906,25.523457,-35.07331,-50.54277,-13.240258,-0.8162842,0.2253418,1.0637207,0.28320312,1.2626953,-0.047851562,78.32032,-39.66831,-120.02586,4.83694,0.0,0.0,0.0,0.0,0.0,0.0,0.0,-44.146515,-115.64643,-14.072219,0.0,0.0,0.0,0.0,0.0,0.0,0.0,0.43558836,0.0053564906,0.8924936,-1.2514038,-0.05834961,-0.0068359375,0.859375,0.06933594,-0.42382812,42.583294,9.01803,0.11089581,18.477385,1.126831,-0.14904785,-0.1506958,-1.3603516,-1.3671875,-0.051757812,12.848133,15.466567,-56.38697,14.4218445,-0.44195557,0.070495605,0.98931885,-0.32910156,2.4960938,-0.23632812,29.052443,29.179302,-124.42728,-4.712509,0.0,0.0,0.0,0.0,0.0,0.0,0.0,10.570539,-127.27368,-9.903872,0.0,0.0,0.0,0.0,0.0,0.0,0.0,22.9125,36.63713,-11.402507,
1.6601562252617443,85,0.02508545,1.0950928,0.6524658,-0.5,-0.21777344,-0.2529297,0.0,0.0,0.0,0.0,0.0,0.0,0.0,0.0,0.0,0.0,0.0,-0.45943928,0.012512177,-0.8812365,-1.5912476,0.3815918,0.744751,2.3710938,-1.4658203,-0.57421875,11.819734,-9.511817,0.25904104,-18.244328,1.3829346,-0.32720947,-0.14477539,0.94921875,-0.984375,-0.25097656,25.965342,-35.36928,-50.163464,-12.028374,-0.85943604,-0.17907715,1.0570679,-0.01953125,1.1640625,0.041992188,79.99136,-38.53207,-119.86809,5.480873,0.0,0.0,0.0,0.0,0.0,0.0,0.0,-42.355522,-115.486984,-13.581671,0.0,0.0,0.0,0.0,0.0,0.0,0.0,0.45943928,-0.012512177,0.8812365,-1.3117676,0.15618896,-0.010070801,-0.13671875,-0.48632812,-0.53515625,45.12437,9.511817,-0.25904104,18.244328,1.2996216,-0.28100586,0.016601562,-0.3544922,-1.5683594,-0.30664062,14.905447,16.360569,-56.743244,14.721951,-0.4663086,0.13763428,1.0238037,-0.4501953,3.053711,-0.42382812,31.84691,31.666386,-123.99051,-5.940098,0.0,0.0,0.0,0.0,0.0,0.0,0.0,13.391142,-127.46061,-11.8919735,0.0,0.0,0.0,0.0,0.0,0.0,0.0,24.269707,35.548965,-12.148457,
1.679687474970706,86,0.21411133,0.9937134,0.64764404,-0.33496094,0.038085938,0.25683594,0.0,0.0,0.0,0.0,0.0,0.0,0.0,0.0,0.0,0.0,0.0,-0.47872502,0.024697334,-0.8713816,-0.8709717,0.6196289,-0.095703125,1.1308594,0.49023438,-0.47851562,13.287735,-9.911093,0.51131105,-18.040298,0.84417725,-0.17651367,-0.49212646,-0.48339844,-0.6982422,-0.14160156,27.32422,-35.753906,-49.625145,-11.543198,-0.725708,0.098083496,0.94140625,-0.036132812,0.83984375,0.064453125,81.46296,-37.01734,-119.62156,5.2438927,0.0,0.0,0.0,0.0,0.0,0.0,0.0,-40.217842,-115.19935,-13.929066,0.0,0.0,0.0,0.0,0.0,0.0,0.0,0.47872502,-0.024697334,0.8713816,-1.2748413,0.13659668,-0.07904053,-0.21582031,-1.1289062,-0.51464844,46.547745,9.911093,-0.51131105,18.040298,1.3403931,-0.14587402,0.008972168,0.5214844,-2.0634766,-0.31152344,18.033627,16.778042,-57.047737,15.58118,-0.5765381,0.24151611,1.039917,-0.5488281,3.7451172,-0.87402344,35.18222,33.831543,-123.23864,-7.060727,0.0,0.0,0.0,0.0,0.0,0.0,0.0,16.297737,-127.45772,-14.349884,0.0,0.0,0.0,0.0,0.0,0.0,0.0,25.219786,34.657753,-12.873108,
1.6992187246796677,87,0.2954712,0.8355713,0.6442261,-0.18652344,0.38085938,0.36523438,0.0,0.0,0.0,0.0,0.0,0.0,0.0,0.0,0.0,0.0,0.0,-0.48760402,0.022827953,-0.8704837,-0.8183594,0.6147461,0.15924072,-0.73339844,1.5322266,-0.5048828,19.800856,-10.094917,0.47260937,-18.021711,0.74645996,-0.37542725,-0.5018921,-0.9472656,-1.1083984,-0.24609375,26.56257,-32.76783,-51.240032,-15.159391,-0.61047363,-0.038269043,0.9188843,-0.033203125,0.51464844,0.125,81.37878,-31.84776,-121.53552,0.28682518,0.0,0.0,0.0,0.0,0.0,0.0,0.0,-34.58971,-117.07477,-18.962732,0.0,0.0,0.0,0.0,0.0,0.0,0.0,0.48760402,-0.022827953,0.8704837,-1.2212524,0.084472656,-0.10992432,-1.2695312,-1.8779297,-0.64746094,46.730694,10.094917,-0.47260937,18.021711,1.2324829,-0.004638672,-0.020446777,0.6777344,-2.1210938,-0.16210938,22.139208,16.49439,-57.11233,17.189394,-0.59375,0.10394287,1.0401001,-0.5908203,4.359375,-1.3623047,39.163166,35.07328,-122.02931,-7.821085,0.0,0.0,0.0,0.0,0.0,0.0,0.0,18.511555,-127.142006,-16.860786,0.0,0.0,0.0,0.0,0.0,0.0,0.0,25.865723,34.104233,-13.5943985,
1.7187499743886294,88,0.2321167,0.66815186,0.61273193,-0.021484375,0.6435547,0.3642578,0.0,0.0,0.0,0.0,0.0,0.0,0.0,0.0,0.0,0.0,0.0,-0.45966232,-0.008347303,-0.88668644,-0.6517334,0.4356079,-0.040771484,-2.84375,2.2832031,-0.22949219,22.119907,-9.516436,-0.17281583,-18.357159,1.0307617,-0.33966064,-0.56622314,1.0908203,-0.9433594,-0.5908203,26.060947,-29.378992,-53.572628,-17.255001,-0.7116089,0.07867432,0.80596924,0.025390625,0.20507812,0.07324219,81.92207,-25.892721,-123.88133,-2.4109278,0.0,0.0,0.0,0.0,0.0,0.0,0.0,-28.239765,-119.31047,-21.72847,0.0,0.0,0.0,0.0,0.0,0.0,0.0,0.45966232,0.008347303,0.88668644,-1.2584229,0.0138549805,0.008483887,-2.7060547,-2.5576172,-0.7949219,43.347404,9.516436,0.17281583,18.357159,1.288269,-0.02746582,-0.07171631,-0.59277344,-2.4902344,0.10253906,27.192608,14.665862,-56.590878,19.534887,-0.7264404,-0.050476074,1.1608276,-0.27441406,4.774414,-1.796875,43.389824,34.768665,-119.96358,-8.11515,0.0,0.0,0.0,0.0,0.0,0.0,0.0,19.33356,-126.01742,-18.693438,0.0,0.0,0.0,0.0,0.0,0.0,0.0,25.08963,34.82509,-13.334427,
1.7382812240975911,89,0.089660645,0.6051636,0.5811157,0.2109375,0.5263672,0.50390625,0.0,0.0,0.0,0.0,0.0,0.0,0.0,0.0,0.0,0.0,0.0,-0.4622361,-0.016737819,-0.88043165,-0.8937378,-0.14361572,-0.29382324,-4.21875,3.4560547,0.0126953125,26.46517,-9.56972,-0.34652507,-18.227665,1.187561,0.014526367,-0.5303955,2.0283203,-0.61621094,-0.4716797,24.339237,-26.194332,-54.838963,-17.4618,-0.6105957,0.0044555664,0.8485718,-0.049804688,0.080078125,0.036132812,80.66338,-21.09639,-125.060196,-2.6411047,0.0,0.0,0.0,0.0,0.0,0.0,0.0,-23.514584,-120.570984,-21.970337,0.0,0.0,0.0,0.0,0.0,0.0,0.0,0.4622361,0.016737819,0.88043165,-1.2512817,0.10040283,0.066101074,-2.2304688,-2.9033203,-0.51464844,42.274082,9.56972,0.34652507,18.227665,1.3046875,-0.37945557,-0.3817749,-2.1210938,-2.5039062,0.12207031,33.01,12.880761,-56.463486,21.653267,-0.90527344,0.11627197,1.0077515,0.07910156,5.2060547,-2.1552734,48.438274,34.637905,-117.97249,-8.814281,0.0,0.0,0.0,0.0,0.0,0.0,0.0,20.454355,-124.94695,-20.656374,0.0,0.0,0.0,0.0,0.0,0.0,0.0,25.625734,33.874863,-14.097779,
1.7578124738065528,90,0.008605957,0.6340332,0.56658936,-0.13671875,0.70703125,0.5136719,0.0,0.0,0.0,0.0,0.0,0.0,0.0,0.0,0.0,0.0,0.0,-0.4737629,-0.020318419,-0.8747218,-1.3309937,-0.7266846,-0.260437,-4.008789,3.7851562,-0.3095703,32.042034,-9.808361,-0.4206542,-18.109455,0.9556885,0.14105225,-0.3782959,0.07324219,-0.49902344,0.005859375,21.084997,-22.170364,-56.059875,-17.105614,-0.5687256,-0.01550293,0.84161377,-0.087890625,0.026367188,-0.001953125,78.154305,-16.013199,-126.28253,-2.4379673,0.0,0.0,0.0,0.0,0.0,0.0,0.0,-18.925667,-122.04573,-21.757692,0.0,0.0,0.0,0.0,0.0,0.0,0.0,0.4737629,0.020318419,0.8747218,-1.1651611,0.22167969,-0.038208008,-1.2382812,-2.680664,0.026367188,41.639824,9.808361,0.4206542,18.109455,1.0841675,-0.66412354,-0.5967407,-2.1484375,-2.078125,-0.33496094,38.623623,11.036239,-56.298206,23.714186,-0.96710205,0.40698242,1.2520142,-0.26757812,4.875,-2.7001953,53.641815,34.667023,-115.9558,-8.962229,0.0,0.0,0.0,0.0,0.0,0.0,0.0,21.903444,-123.851036,-21.890127,0.0,0.0,0.0,0.0,0.0,0.0,0.0,26.559273,32.71081,-15.144733,
1.7773437235155145,91,0.030273438,0.71728516,0.62841797,-0.5078125,0.76953125,0.3388672,0.0,0.0,0.0,0.0,0.0,0.0,0.0,0.0,0.0,0.0,0.0,-0.45621186,-0.03458029,-0.8881044,-1.3528442,-0.4668579,0.41107178,-0.75,1.8398438,-0.71191406,33.57488,-9.444999,-0.7159191,-18.38651,0.91308594,-0.08276367,-0.35583496,-0.8515625,-0.56347656,0.1328125,18.48168,-18.985643,-56.88335,-16.388939,-0.5687256,-0.018432617,0.8406372,-0.06933594,0.043945312,-0.020507812,76.04137,-11.9611435,-127.1577,-2.3187132,0.0,0.0,0.0,0.0,0.0,0.0,0.0,-15.3757515,-123.15905,-21.60643,0.0,0.0,0.0,0.0,0.0,0.0,0.0,0.45621186,0.03458029,0.8881044,-1.0470581,0.1885376,-0.17614746,-1.3710938,-2.227539,0.27441406,38.73926,9.444999,0.7159191,18.38651,0.84246826,-0.6671753,-0.9029541,0.59375,-2.0654297,-0.85839844,43.57543,8.356352,-55.79595,25.475922,-1.3659668,0.29309082,1.3313599,-0.9042969,4.453125,-2.9033203,57.508614,33.71952,-113.66121,-9.082817,0.0,0.0,0.0,0.0,0.0,0.0,0.0,22.74438,-122.45071,-23.095255,0.0,0.0,0.0,0.0,0.0,0.0,0.0,26.659222,32.954697,-14.977784,
1.7968749732244762,92,0.13623047,0.8239746,0.6572876,-0.25097656,0.8125,0.0048828125,0.0,0.0,0.0,0.0,0.0,0.0,0.0,0.0,0.0,0.0,0.0,-0.42115942,-0.05250129,-0.90450346,-1.0925903,0.023071289,0.10003662,0.7705078,0.8798828,0.17480469,32.66709,-8.719305,-1.0869395,-18.726025,1.027771,-0.31463623,-0.1593628,-0.51171875,-0.4140625,0.026367188,17.10217,-17.10888,-57.42432,-16.405258,-0.55322266,-0.053222656,0.8140259,-0.087890625,0.0625,-0.001953125,74.856575,-9.842173,-127.852615,-3.2694225,0.0,0.0,0.0,0.0,0.0,0.0,0.0,-13.723849,-124.090775,-22.516233,0.0,0.0,0.0,0.0,0.0,0.0,0.0,0.42115942,0.05250129,0.90450346,-1.0022583,0.0018310547,-0.46447754,-1.4853516,-1.8925781,0.48046875,34.868534,8.719305,1.0869395,18.726025,0.55804443,-0.31622314,-1.1849976,3.008789,-2.0478516,-1.265625,47.73436,5.4112344,-55.295467,26.438702,0.07788086,1.7791748,0.7647705,-1.859375,2.6611328,-2.2783203,58.79065,32.41295,-111.31012,-9.873089,0.0,0.0,0.0,0.0,0.0,0.0,0.0,23.202742,-120.647385,-24.81409,0.0,0.0,0.0,0.0,0.0,0.0,0.0,26.035362,33.840652,-14.086975,
1.816406222933438,93,0.21435547,0.78930664,0.52856445,0.22265625,0.8955078,-0.041015625,0.0,0.0,0.0,0.0,0.0,0.0,0.0,0.0,0.0,0.0,0.0,-0.39160436,-0.0726621,-0.9164493,-0.8069458,-0.07867432,0.17938232,-0.51171875,1.4228516,0.58203125,33.061256,-8.107425,-1.5043314,-18.973341,1.0315552,-0.21478271,-0.16699219,0.8232422,-0.35253906,-0.3173828,16.285852,-15.123909,-58.043503,-17.117643,-0.55529785,-0.054260254,0.83477783,-0.05078125,0.13378906,0.016601562,73.442444,-7.417567,-128.50314,-4.362995,0.0,0.0,0.0,0.0,0.0,0.0,0.0,-11.771732,-124.97004,-23.55049,0.0,0.0,0.0,0.0,0.0,0.0,0.0,0.39160436,0.0726621,0.9164493,-1.0560913,-0.11767578,-0.6598511,-1.6757812,-1.5361328,0.6269531,31.766838,8.107425,1.5043314,18.973341,0.58966064,-0.09301758,-1.1149902,1.953125,-1.0302734,-1.3017578,51.19885,2.784955,-54.645428,27.271332,-0.5975342,1.5830688,1.1278076,-3.0722656,-0.16503906,2.7128906,60.85329,31.468197,-109.20662,-9.94611,0.0,0.0,0.0,0.0,0.0,0.0,0.0,23.522663,-117.53937,-26.185215,0.0,0.0,0.0,0.0,0.0,0.0,0.0,25.574472,34.373222,-13.653464,
1.8359374726423996,94,0.15136719,0.7215576,0.5515747,-0.16796875,0.9482422,0.16894531,0.0,0.0,0.0,0.0,0.0,0.0,0.0,0.0,0.0,0.0,0.0,-0.35783944,-0.09472497,-0.92805755,-0.85839844,-0.06488037,0.03717041,-0.71777344,1.8056641,0.37597656,33.815086,-7.4083858,-1.9611007,-19.213669,1.026062,0.0670166,-0.22174072,1.1074219,-0.37597656,-0.328125,14.780868,-12.591693,-58.71441,-17.764513,-0.56817627,-0.045959473,0.8199463,-0.05078125,0.13378906,0.016601562,70.17849,-5.018168,-129.2229,-5.2292385,0.0,0.0,0.0,0.0,0.0,0.0,0.0,-9.835986,-125.909454,-24.34665,0.0,0.0,0.0,0.0,0.0,0.0,0.0,0.35783944,0.09472497,0.92805755,-1.2622681,-0.06121826,-0.5689087,-1.8867188,-1.5878906,0.54785156,28.783161,7.4083858,1.9611007,19.213669,1.0311279,-0.44903564,-0.78271484,-1.5966797,0.4892578,-0.5605469,53.009693,0.13396788,-53.916695,27.836996,-0.42095947,0.6864624,0.78796387,-4.0273438,-0.6875,4.3183594,66.74639,30.068436,-108.220024,-8.779734,0.0,0.0,0.0,0.0,0.0,0.0,0.0,22.856216,-114.42998,-26.285822,0.0,0.0,0.0,0.0,0.0,0.0,0.0,25.076366,34.895687,-13.230651,
1.8554687223513613,95,-0.038757324,0.7055054,0.51568604,-0.27148438,0.80566406,0.51660156,0.0,0.0,0.0,0.0,0.0,0.0,0.0,0.0,0.0,0.0,0.0,-0.36175227,-0.09742719,-0.9204794,-0.9961548,-0.029907227,0.043518066,-1.7128906,2.741211,0.022460938,38.356983,-7.489394,-2.0170448,-19.056776,1.0452881,0.13165283,-0.1628418,0.28125,-0.4248047,-0.045898438,12.689475,-9.989884,-58.942112,-17.482153,-0.5430908,-0.050598145,0.815979,-0.0126953125,0.11425781,-0.001953125,67.39341,-2.2873688,-129.43497,-4.9440556,0.0,0.0,0.0,0.0,0.0,0.0,0.0,-7.5423,-126.339615,-23.983284,0.0,0.0,0.0,0.0,0.0,0.0,0.0,0.36175227,0.09742719,0.9204794,-1.2272949,0.22558594,-0.47735596,-1.7568359,-2.2753906,0.79003906,28.55608,7.489394,2.0170448,19.056776,0.68981934,-0.7247925,-0.8274536,2.3798828,1.2431641,-0.75,54.080086,-2.1151075,-53.425835,28.219706,-0.2835083,-0.21875,0.928833,-3.7734375,-1.4550781,4.126953,68.74302,28.110905,-108.49484,-6.99547,0.0,0.0,0.0,0.0,0.0,0.0,0.0,20.657778,-113.14416,-24.932415,0.0,0.0,0.0,0.0,0.0,0.0,0.0,26.098042,33.5872,-13.811643,
1.874999972060323,96,-0.2387085,0.77838135,0.53253174,0.08300781,0.8183594,0.58203125,0.0,0.0,0.0,0.0,0.0,0.0,0.0,0.0,0.0,0.0,0.0,-0.35426772,-0.105967015,-0.9284925,-1.0969238,-0.03491211,0.19866943,-2.1845703,2.6640625,-0.03515625,41.08113,-7.33444,-2.193846,-19.222672,0.9894409,-0.06439209,-0.08331299,-0.64453125,-0.45117188,0.041992188,10.420657,-6.932051,-59.160606,-17.28345,-0.545166,-0.050598145,0.8189697,0.005859375,0.15039062,0.016601562,66.02035,0.92288494,-129.66064,-4.881879,0.0,0.0,0.0,0.0,0.0,0.0,0.0,-4.7622676,-126.78789,-23.831543,0.0,0.0,0.0,0.0,0.0,0.0,0.0,0.35426772,0.105967015,0.9284925,-1.0836182,0.078308105,-0.4058838,-3.6328125,-2.961914,0.75,25.573992,7.33444,2.193846,19.222672,0.5817871,-0.29803467,-0.81427,7.5039062,-0.07714844,-0.4580078,55.22124,-5.4748573,-52.514412,28.885338,0.034606934,-0.53741455,0.89733887,-2.5019531,-2.1826172,3.008789,66.4619,22.053843,-108.62555,-6.8747177,0.0,0.0,0.0,0.0,0.0,0.0,0.0,14.565192,-112.371765,-24.99994,0.0,0.0,0.0,0.0,0.0,0.0,0.0,26.414629,33.6336,-13.917079,
1.8945312217692847,97,-0.28240967,0.8401489,0.52819824,-0.024414062,0.5361328,0.6738281,0.0,0.0,0.0,0.0,0.0,0.0,0.0,0.0,0.0,0.0,0.0,-0.34203234,-0.10954189,-0.9329395,-1.1088867,-0.2508545,0.08343506,-1.5654297,1.6894531,0.28027344,41.776215,-7.081129,-2.2678568,-19.314741,1.0036011,-0.32385254,-0.055541992,-0.40429688,-0.56640625,-0.10253906,8.616801,-4.3906474,-59.167484,-17.19956,-0.5373535,-0.004638672,0.838562,0.005859375,0.20507812,0.016601562,65.89475,3.5027785,-129.7523,-5.3506975,0.0,0.0,0.0,0.0,0.0,0.0,0.0,-2.6228967,-127.09344,-24.19049,0.0,0.0,0.0,0.0,0.0,0.0,0.0,0.34203234,0.10954189,0.9329395,-1.003418,-0.3001709,-0.31536865,-4.301758,-3.1757812,0.57421875,20.772316,7.081129,2.2678568,19.314741,0.6046753,0.20202637,-1.2564697,7.533203,0.6074219,-0.7871094,57.446022,-9.287172,-51.42596,29.093891,0.051635742,-0.4102173,0.94055176,-1.2666016,-2.8320312,1.8144531,59.087673,17.33872,-107.73988,-6.9868507,0.0,0.0,0.0,0.0,0.0,0.0,0.0,9.547797,-111.108406,-25.053402,0.0,0.0,0.0,0.0,0.0,0.0,0.0,25.764668,34.3261,-13.476215,
1.9140624714782464,98,-0.16455078,0.7652588,0.48864746,-0.07519531,0.18945312,0.453125,0.0,0.0,0.0,0.0,0.0,0.0,0.0,0.0,0.0,0.0,0.0,-0.32803506,-0.11416565,-0.93731534,-1.0844116,-0.41577148,0.029907227,-0.15527344,0.7949219,0.5566406,41.652103,-6.7913413,-2.363583,-19.405333,0.97387695,-0.14593506,-0.13031006,1.1982422,-0.5292969,-0.38183594,7.7392344,-2.7535043,-59.194233,-17.57406,-0.5506592,-0.022827148,0.81988525,0.005859375,0.25878906,0.015625,64.443146,4.944925,-129.91014,-6.3631525,0.0,0.0,0.0,0.0,0.0,0.0,0.0,-1.5887008,-127.46597,-25.096626,0.0,0.0,0.0,0.0,0.0,0.0,0.0,0.32803506,0.11416565,0.93731534,-0.8725586,-0.43267822,-0.39996338,-2.6523438,-2.3457031,0.24902344,17.258738,6.7913413,2.363583,19.405333,0.47149658,0.36987305,-1.0653076,3.9941406,1.9589844,-1.25,57.35284,-11.753298,-50.60038,29.003447,-0.06542969,-0.049743652,0.99884033,-0.6298828,-3.680664,1.0761719,52.551277,14.07135,-108.12924,-5.6661243,0.0,0.0,0.0,0.0,0.0,0.0,0.0,5.4952984,-111.27548,-23.414114,0.0,0.0,0.0,0.0,0.0,0.0,0.0,24.984222,35.068172,-13.015131,
1.933593721187208,99,0.030212402,0.67297363,0.53448486,-0.50683594,0.1953125,0.26171875,0.0,0.0,0.0,0.0,0.0,0.0,0.0,0.0,0.0,0.0,0.0,-0.33566964,-0.11328019,-0.9279492,-0.989563,-0.23516846,0.03112793,0.31640625,0.75878906,0.5751953,43.66716,-6.9494033,-2.345251,-19.211426,0.9711914,0.20343018,-0.19177246,0.6533203,-0.484375,-0.24511719,7.5850925,-2.1330948,-59.118416,-17.469763,-0.5698242,-0.028137207,0.81500244,0.024414062,0.2763672,0.015625,61.535088,5.7539806,-129.81491,-6.2803497,0.0,0.0,0.0,0.0,0.0,0.0,0.0,-1.160058,-127.5853,-24.906755,0.0,0.0,0.0,0.0,0.0,0.0,0.0,0.33566964,0.11328019,0.9279492,-0.81848145,-0.2947998,-0.27520752,-1.7890625,-1.7666016,0.07519531,17.558601,6.9494033,2.345251,19.211426,0.35595703,0.32556152,-1.0499268,0.8857422,2.915039,-1.5244141,55.493652,-12.802187,-50.24833,28.507277,-0.15429688,0.15600586,0.97247314,-0.62402344,-4.3476562,1.0566406,48.595592,12.358717,-109.84879,-3.001112,0.0,0.0,0.0,0.0,0.0,0.0,0.0,2.732191,-112.579926,-20.266296,0.0,0.0,0.0,0.0,0.0,0.0,0.0,25.458881,34.21288,-13.3858795,
1.9531249708961698,100,0.085632324,0.5654907,0.42071533,-0.7392578,0.296875,0.3046875,0.0,0.0,0.0,0.0,0.0,0.0,0.0,0.0,0.0,0.0,0.0,-0.35132343,-0.108991235,-0.92322457,-0.9468384,-0.07733154,-0.075683594,0.5810547,1.0839844,0.54003906,46.471214,-7.273486,-2.2564561,-19.113611,0.9883423,0.09698486,-0.2341919,-0.7763672,-0.50683594,0.09667969,7.573259,-1.4313927,-58.93361,-17.432516,-0.59906006,-0.030212402,0.8258667,0.04296875,0.2939453,0.03515625,59.962326,7.0666714,-129.53969,-6.1314764,0.0,0.0,0.0,0.0,0.0,0.0,0.0,-0.21436596,-127.52508,-24.64109,0.0,0.0,0.0,0.0,0.0,0.0,0.0,0.35132343,0.108991235,0.92322457,-0.77752686,-0.31225586,-0.31365967,-1.2333984,-1.6845703,-0.053710938,18.205744,7.273486,2.2564561,19.113611,0.4557495,0.18658447,-0.9650879,-0.095703125,3.9677734,-1.8642578,53.173504,-13.802846,-49.87005,28.381252,-0.29412842,0.14215088,1.039917,-0.5576172,-4.751953,1.4316406,46.927208,10.677867,-112.13779,1.7711067,0.0,0.0,0.0,0.0,0.0,0.0,0.0,0.23897743,-114.07708,-15.105375,0.0,0.0,0.0,0.0,0.0,0.0,0.0,26.398691,33.283638,-13.975045,
1.9726562206051315,101,-0.019897461,0.6680298,0.48303223,-0.3984375,0.49902344,0.29785156,0.0,0.0,0.0,0.0,0.0,0.0,0.0,0.0,0.0,0.0,0.0,-0.36321604,-0.10694376,-0.9193716,-0.9746704,0.076416016,0.008483887,0.39257812,1.0664062,0.40625,49.53472,-7.519698,-2.2140672,-19.033844,0.95874023,-0.24304199,-0.20831299,-1.0400391,-0.5419922,0.16503906,7.31928,-0.65433025,-58.78092,-17.7856,-0.5852051,-0.046325684,0.8051758,0.04296875,0.2939453,0.03515625,59.701454,8.2889,-129.43773,-7.159745,0.0,0.0,0.0,0.0,0.0,0.0,0.0,0.6504202,-127.62318,-25.546528,0.0,0.0,0.0,0.0,0.0,0.0,0.0,0.36321604,0.10694376,0.9193716,-0.68115234,-0.39190674,-0.3310547,-0.9638672,-1.2636719,-0.09667969,18.777905,7.519698,2.2140672,19.033844,0.5018921,0.05718994,-0.944397,-1.2246094,4.7265625,-1.7470703,50.86666,-14.945098,-49.322014,28.47789,-0.4557495,0.08465576,1.1104736,-0.43164062,-5.041992,1.6757812,48.629814,9.000485,-114.20515,8.443672,0.0,0.0,0.0,0.0,0.0,0.0,0.0,-1.2630129,-114.649536,-8.558832,0.0,0.0,0.0,0.0,0.0,0.0,0.0,27.371033,32.258213,-14.565832,
1.9921874703140932,102,-0.08404541,0.8286743,0.48901367,-0.28320312,0.4189453,0.2763672,0.0,0.0,0.0,0.0,0.0,0.0,0.0,0.0,0.0,0.0,0.0,-0.3579077,-0.110830754,-0.926598,-0.97613525,0.10809326,-0.024841309,0.053710938,1.1601562,0.40722656,50.665375,-7.4097977,-2.2945406,-19.18345,0.99261475,-0.33459473,-0.20996094,0.20214844,-0.6142578,-0.06542969,6.848566,0.48013496,-58.74174,-18.472927,-0.58709717,-0.04034424,0.8071289,0.0048828125,0.34960938,0.051757812,59.425194,9.472671,-129.55228,-8.989856,0.0,0.0,0.0,0.0,0.0,0.0,0.0,1.4904842,-127.935905,-27.247581,0.0,0.0,0.0,0.0,0.0,0.0,0.0,0.3579077,0.110830754,0.926598,-0.59521484,-0.42175293,-0.3381958,0.05078125,-0.92285156,-0.026367188,17.644386,7.4097977,2.2945406,19.18345,0.5423584,-0.09802246,-0.8878784,-1.6943359,5.364258,-1.5976562,48.045845,-16.031319,-48.759933,28.88137,-0.67297363,0.029724121,1.2403564,-0.30078125,-5.2539062,1.4863281,50.716328,6.6408005,-115.89109,16.131695,0.0,0.0,0.0,0.0,0.0,0.0,0.0,-3.4231339,-114.771,-0.9608135,0.0,0.0,0.0,0.0,0.0,0.0,0.0,27.544582,32.455067,-14.521333,
2.011718720023055,103,-0.060180664,0.88061523,0.4758911,-0.40722656,0.24804688,0.18652344,0.0,0.0,0.0,0.0,0.0,0.0,0.0,0.0,0.0,0.0,0.0,-0.34041905,-0.11519958,-0.9327809,-0.97875977,0.115722656,0.04699707,-0.22851562,1.3300781,0.42871094,50.120403,-7.0477304,-2.3849883,-19.311457,1.0007935,-0.117370605,-0.19030762,0.48339844,-0.6357422,-0.171875,6.8257604,1.9207048,-58.671074,-19.193047,-0.6027832,-0.018188477,0.8001709,0.0048828125,0.421875,0.013671875,57.975815,10.9765005,-129.58292,-10.551758,0.0,0.0,0.0,0.0,0.0,0.0,0.0,2.658368,-128.16635,-28.67536,0.0,0.0,0.0,0.0,0.0,0.0,0.0,0.34041905,0.11519958,0.9327809,-0.5609131,-0.265625,-0.3449707,1.1035156,-0.19335938,0.18652344,15.170747,7.0477304,2.3849883,19.311457,0.61883545,-0.19671631,-0.78704834,-0.9033203,5.629883,-1.5732422,44.56507,-16.840557,-48.390137,29.365944,-0.7218628,0.15179443,1.321228,-0.072265625,-5.3339844,1.3154297,51.65558,3.5345268,-117.22648,23.961468,0.0,0.0,0.0,0.0,0.0,0.0,0.0,-6.3249474,-114.54184,6.922079,0.0,0.0,0.0,0.0,0.0,0.0,0.0,26.706417,33.431927,-13.875411,
2.0312499697320168,104,0.003967285,0.8209839,0.42590332,-0.36621094,0.2841797,0.14941406,0.0,0.0,0.0,0.0,0.0,0.0,0.0,0.0,0.0,0.0,0.0,-0.32253975,-0.11943188,-0.9385601,-0.96447754,0.003540039,-0.068359375,-0.5498047,1.2509766,0.5810547,49.635887,-6.6775746,-2.4726105,-19.431107,0.9781494,-0.057617188,-0.18884277,0.21777344,-0.6699219,-0.140625,7.1794157,3.3634868,-58.58057,-19.926031,-0.60498047,-0.029846191,0.7843628,-0.0146484375,0.4765625,0.0126953125,56.38857,12.719109,-129.52052,-11.815425,0.0,0.0,0.0,0.0,0.0,0.0,0.0,4.059513,-128.31331,-29.79369,0.0,0.0,0.0,0.0,0.0,0.0,0.0,0.32253975,0.11943188,0.9385601,-0.58703613,-0.11456299,-0.29858398,1.0859375,0.29589844,0.3310547,13.391702,6.6775746,2.4726105,19.431107,0.7763672,-0.1508789,-0.6680298,0.08691406,5.5966797,-1.2080078,40.0354,-17.158817,-48.310703,29.577774,-0.80718994,0.31878662,1.3795166,0.107421875,-4.975586,1.2392578,51.38254,-0.5538826,-118.35391,30.72553,0.0,0.0,0.0,0.0,0.0,0.0,0.0,-10.144958,-114.13277,13.841253,0.0,0.0,0.0,0.0,0.0,0.0,0.0,25.85435,34.33988,-13.2547,
2.0507812194409785,105,-0.05895996,0.7657471,0.38433838,-0.2685547,0.28125,0.111328125,0.0,0.0,0.0,0.0,0.0,0.0,0.0,0.0,0.0,0.0,0.0,-0.32295638,-0.11836502,-0.9320718,-0.9379883,-0.1585083,-0.118896484,-0.7001953,1.3837891,0.6015625,51.571575,-6.6861973,-2.4505224,-19.296774,0.9567261,0.013916016,-0.22125244,0.27441406,-0.7089844,-0.13867188,7.4013867,4.6675186,-58.306805,-20.033997,-0.62457275,-0.054016113,0.8121338,-0.0146484375,0.5126953,0.049804688,54.86722,14.455918,-129.23537,-12.360743,0.0,0.0,0.0,0.0,0.0,0.0,0.0,5.498618,-128.2449,-30.206558,0.0,0.0,0.0,0.0,0.0,0.0,0.0,0.32295638,0.11836502,0.9320718,-0.5957031,-0.0859375,-0.18048096,0.49316406,0.2548828,0.29785156,14.243204,6.6861973,2.4505224,19.296774,0.8369751,-0.1538086,-0.7373657,0.671875,5.439453,-0.8359375,35.176617,-16.991497,-48.438602,29.26341,-0.85687256,0.43347168,1.399353,0.21191406,-4.4833984,1.2958984,50.728485,-5.1733932,-119.094986,35.792534,0.0,0.0,0.0,0.0,0.0,0.0,0.0,-14.394748,-113.3761,19.139181,0.0,0.0,0.0,0.0,0.0,0.0,0.0,26.027828,33.82465,-13.313896,
2.07031246914994,106,-0.061584473,0.7605591,0.33758545,-0.11035156,0.296875,0.12597656,0.0,0.0,0.0,0.0,0.0,0.0,0.0,0.0,0.0,0.0,0.0,-0.34026217,-0.11522673,-0.9267943,-1.0189209,-0.23651123,-0.09741211,-0.4921875,1.6132812,0.54589844,55.366173,-7.0444813,-2.3855505,-19.187515,1.0065918,0.095214844,-0.22045898,0.14648438,-0.6904297,-0.009765625,7.6725307,5.757309,-57.924362,-19.920055,-0.6123047,-0.045410156,0.79333496,0.022460938,0.5673828,0.10644531,53.18262,16.102123,-128.80359,-12.51334,0.0,0.0,0.0,0.0,0.0,0.0,0.0,6.8545294,-128.03862,-30.221186,0.0,0.0,0.0,0.0,0.0,0.0,0.0,0.34026217,0.11522673,0.9267943,-0.80810547,-0.26391602,-0.18359375,0.43652344,0.41210938,0.19628906,16.974651,7.0444813,2.3855505,19.187515,0.9837036,-0.22924805,-1.06073,0.59375,5.8496094,-0.50097656,30.240173,-16.45778,-48.626183,28.960411,-1.6851807,0.739563,1.999939,0.56152344,-4.129883,1.4257812,52.167427,-10.056044,-119.31114,40.61257,0.0,0.0,0.0,0.0,0.0,0.0,0.0,-18.812544,-112.12279,24.27297,0.0,0.0,0.0,0.0,0.0,0.0,0.0,27.259544,32.558464,-14.055973,
2.089843718858902,107,-0.095458984,0.73431396,0.2845459,0.34472656,0.41796875,0.061523438,0.0,0.0,0.0,0.0,0.0,0.0,0.0,0.0,0.0,0.0,0.0,-0.35757253,-0.113444656,-0.9212539,-1.1102295,-0.10394287,0.029174805,-0.001953125,1.6728516,0.54589844,59.485435,-7.4028597,-2.3486564,-19.072811,1.0394287,-0.047668457,-0.115600586,-0.4765625,-0.79785156,0.12695312,8.152252,6.927169,-57.51519,-19.932434,-0.6123047,-0.046447754,0.7992554,0.041015625,0.6933594,0.12402344,52.402573,17.799889,-128.35999,-12.941715,0.0,0.0,0.0,0.0,0.0,0.0,0.0,8.267971,-127.8123,-30.505093,0.0,0.0,0.0,0.0,0.0,0.0,0.0,0.35757253,0.113444656,0.9212539,-0.8345337,-0.44140625,-0.3519287,0.09863281,1.2431641,-0.2685547,21.536465,7.4028597,2.3486564,19.072811,0.8925171,0.052368164,-1.1762695,2.5175781,5.9853516,-1.5810547,24.178606,-14.407037,-49.431118,28.27769,-2.0,1.2432861,-1.9190674,0.4013672,-6.265625,2.0830078,52.663868,-13.67882,-119.25284,45.47361,0.0,0.0,0.0,0.0,0.0,0.0,0.0,-21.919302,-110.3302,29.72447,0.0,0.0,0.0,0.0,0.0,0.0,0.0,28.512253,31.123514,-14.899252,
2.1093749685678636,108,-0.115722656,0.78302,0.51934814,0.14648438,0.3408203,-0.15332031,0.0,0.0,0.0,0.0,0.0,0.0,0.0,0.0,0.0,0.0,0.0,-0.36166033,-0.11341339,-0.9245273,-1.0921631,-0.024108887,0.24761963,0.18554688,1.4052734,0.6582031,62.721996,-7.4874897,-2.3480084,-19.140581,1.0356445,-0.20092773,0.0154418945,-0.4423828,-0.93066406,0.052734375,9.251365,8.592133,-57.020084,-20.495996,-0.6109619,-0.030517578,0.76556396,-0.016601562,0.82128906,0.10253906,52.656307,19.742165,-127.87329,-14.095184,0.0,0.0,0.0,0.0,0.0,0.0,0.0,9.933906,-127.54524,-31.513424,0.0,0.0,0.0,0.0,0.0,0.0,0.0,0.36166033,0.11341339,0.9245273,-0.5435791,-0.15759277,0.23461914,0.076171875,0.20996094,-0.515625,23.820015,7.4874897,2.3480084,19.140581,0.4487915,0.8395996,-0.83691406,1.6113281,6.314453,-0.85839844,19.718851,-13.276693,-49.91147,28.493658,-1.6099243,-1.1712036,0.6939697,0.55078125,-6.4589844,1.9697266,53.418327,-18.645584,-117.86766,51.309868,0.0,0.0,0.0,0.0,0.0,0.0,0.0,-26.166063,-107.02405,36.42189,0.0,0.0,0.0,0.0,0.0,0.0,0.0,29.335,30.491314,-15.215807,
