TOTAL_TIME,0m17s
TOTAL_FRAMES,884
SELECTED_FRAMES,884
NO_OF_JOINTS,12
FREQUENCY,51.2
DESCRIPTION,Capture 53
TIME_STAMP,Nov 1, 2010

Time,Frame,Pelvis_accelX_Pelvis,Pelvis_accelY_Pelvis,Pelvis_accelZ_Pelvis,Pelvis_gyroX_Pelvis,Pelvis_gyroY_Pelvis,Pelvis_gyroZ_Pelvis,Pelvis_Joint angle_Pelvis,Pelvis_Relative pos X_Pelvis,Pelvis_Relative pos Y_Pelvis,Pelvis_Relative pos Z_Pelvis,RightPelvis_accelX_RightPelvis,RightPelvis_accelY_RightPelvis,RightPelvis_accelZ_RightPelvis,RightPelvis_gyroX_RightPelvis,RightPelvis_gyroY_RightPelvis,RightPelvis_gyroZ_RightPelvis,RightPelvis_Joint angle_RightPelvis,RightPelvis_Relative pos X_RightPelvis,RightPelvis_Relative pos Y_RightPelvis,RightPelvis_Relative pos Z_RightPelvis,RightUpLeg_accelX_RightUpLeg,RightUpLeg_accelY_RightUpLeg,RightUpLeg_accelZ_RightUpLeg,RightUpLeg_gyroX_RightUpLeg,RightUpLeg_gyroY_RightUpLeg,RightUpLeg_gyroZ_RightUpLeg,RightUpLeg_Joint angle_RightUpLeg,RightUpLeg_Relative pos X_RightUpLeg,RightUpLeg_Relative pos Y_RightUpLeg,RightUpLeg_Relative pos Z_RightUpLeg,RightLeg_accelX_RightLeg,RightLeg_accelY_RightLeg,RightLeg_accelZ_RightLeg,RightLeg_gyroX_RightLeg,RightLeg_gyroY_RightLeg,RightLeg_gyroZ_RightLeg,RightLeg_Joint angle_RightLeg,RightLeg_Relative pos X_RightLeg,RightLeg_Relative pos Y_RightLeg,RightLeg_Relative pos Z_RightLeg,RightFoot_accelX_RightFoot,RightFoot_accelY_RightFoot,RightFoot_accelZ_RightFoot,RightFoot_gyroX_RightFoot,RightFoot_gyroY_RightFoot,RightFoot_gyroZ_RightFoot,RightFoot_Joint angle_RightFoot,RightFoot_Relative pos X_RightFoot,RightFoot_Relative pos Y_RightFoot,RightFoot_Relative pos Z_RightFoot,RightFootEnd_accelX_RightFootEnd,RightFootEnd_accelY_RightFootEnd,RightFootEnd_accelZ_RightFootEnd,RightFootEnd_gyroX_RightFootEnd,RightFootEnd_gyroY_RightFootEnd,RightFootEnd_gyroZ_RightFootEnd,RightFootEnd_Joint angle_RightFootEnd,RightFootEnd_Relative pos X_RightFootEnd,RightFootEnd_Relative pos Y_RightFootEnd,RightFootEnd_Relative pos Z_RightFootEnd,LeftPelvis_accelX_LeftPelvis,LeftPelvis_accelY_LeftPelvis,LeftPelvis_accelZ_LeftPelvis,LeftPelvis_gyroX_LeftPelvis,LeftPelvis_gyroY_LeftPelvis,LeftPelvis_gyroZ_LeftPelvis,LeftPelvis_Joint angle_LeftPelvis,LeftPelvis_Relative pos X_LeftPelvis,LeftPelvis_Relative pos Y_LeftPelvis,LeftPelvis_Relative pos Z_LeftPelvis,LeftUpLeg_accelX_LeftUpLeg,LeftUpLeg_accelY_LeftUpLeg,LeftUpLeg_accelZ_LeftUpLeg,LeftUpLeg_gyroX_LeftUpLeg,LeftUpLeg_gyroY_LeftUpLeg,LeftUpLeg_gyroZ_LeftUpLeg,LeftUpLeg_Joint angle_LeftUpLeg,LeftUpLeg_Relative pos X_LeftUpLeg,LeftUpLeg_Relative pos Y_LeftUpLeg,LeftUpLeg_Relative pos Z_LeftUpLeg,LeftLeg_accelX_LeftLeg,LeftLeg_accelY_LeftLeg,LeftLeg_accelZ_LeftLeg,LeftLeg_gyroX_LeftLeg,LeftLeg_gyroY_LeftLeg,LeftLeg_gyroZ_LeftLeg,LeftLeg_Joint angle_LeftLeg,LeftLeg_Relative pos X_LeftLeg,LeftLeg_Relative pos Y_LeftLeg,LeftLeg_Relative pos Z_LeftLeg,LeftFoot_accelX_LeftFoot,LeftFoot_accelY_LeftFoot,LeftFoot_accelZ_LeftFoot,LeftFoot_gyroX_LeftFoot,LeftFoot_gyroY_LeftFoot,LeftFoot_gyroZ_LeftFoot,LeftFoot_Joint angle_LeftFoot,LeftFoot_Relative pos X_LeftFoot,LeftFoot_Relative pos Y_LeftFoot,LeftFoot_Relative pos Z_LeftFoot,LeftFootEnd_accelX_LeftFootEnd,LeftFootEnd_accelY_LeftFootEnd,LeftFootEnd_accelZ_LeftFootEnd,LeftFootEnd_gyroX_LeftFootEnd,LeftFootEnd_gyroY_LeftFootEnd,LeftFootEnd_gyroZ_LeftFootEnd,LeftFootEnd_Joint angle_LeftFootEnd,LeftFootEnd_Relative pos X_LeftFootEnd,LeftFootEnd_Relative pos Y_LeftFootEnd,LeftFootEnd_Relative pos Z_LeftFootEnd,Spine_accelX_Spine,Spine_accelY_Spine,Spine_accelZ_Spine,Spine_gyroX_Spine,Spine_gyroY_Spine,Spine_gyroZ_Spine,Spine_Joint angle_Spine,Spine_Relative pos X_Spine,Spine_Relative pos Y_Spine,Spine_Relative pos Z_Spine,
0.0,0,0.022888184,0.83880615,0.49023438,-0.3388672,1.1279297,0.33789062,0.0,0.0,0.0,0.0,0.0,0.0,0.0,0.0,0.0,0.0,0.0,-0.86617416,0.08647159,0.49238107,-1.0448608,0.04638672,0.0029296875,-0.25097656,-0.13769531,0.4716797,4.5392404,-17.932493,1.7902298,10.193814,0.95166016,0.012268066,-0.4973755,0.23144531,-0.5048828,0.20117188,15.715785,-17.257769,-55.15409,12.235465,-0.70721436,-0.027282715,0.71429443,0.13574219,0.7265625,0.10644531,38.656284,-33.788857,-124.51857,22.222775,0.0,0.0,0.0,0.0,0.0,0.0,0.0,-17.65288,-131.99083,31.367872,0.0,0.0,0.0,0.0,0.0,0.0,0.0,0.86617416,-0.08647159,-0.49238107,-1.1749268,-0.8497925,0.49334717,-3.9794922,-0.5673828,-0.6113281,16.281307,17.932493,-1.7902298,-10.193814,0.5863037,0.571228,-0.11602783,-1.0742188,1.2236328,0.29003906,8.059928,24.623293,-55.970215,6.226054,-2.0,0.27581787,-0.25,2.4941406,1.2490234,2.3427734,62.091454,23.0776,-124.9665,26.71806,0.0,0.0,0.0,0.0,0.0,0.0,0.0,32.016052,-133.91304,41.98269,0.0,0.0,0.0,0.0,0.0,0.0,0.0,2.6543772,44.811436,-3.2002916,
0.0195312497089617,1,0.022888184,0.83880615,0.49023438,-0.3388672,1.1279297,0.33789062,0.0,0.0,0.0,0.0,0.0,0.0,0.0,0.0,0.0,0.0,0.0,-0.86617416,0.08647159,0.49238107,-1.0448608,0.04638672,0.0029296875,-0.25097656,-0.13769531,0.4716797,4.5392404,-17.932493,1.7902298,10.193814,0.95166016,0.012268066,-0.4973755,0.23144531,-0.5048828,0.20117188,15.715785,-17.257769,-55.15409,12.235465,-0.70721436,-0.027282715,0.71429443,0.13574219,0.7265625,0.10644531,38.656284,-33.788857,-124.51857,22.222775,0.0,0.0,0.0,0.0,0.0,0.0,0.0,-17.65288,-131.99083,31.367872,0.0,0.0,0.0,0.0,0.0,0.0,0.0,0.86617416,-0.08647159,-0.49238107,-1.1749268,-0.8497925,0.49334717,-3.9794922,-0.5673828,-0.6113281,16.281307,17.932493,-1.7902298,-10.193814,0.5863037,0.571228,-0.11602783,-1.0742188,1.2236328,0.29003906,8.059928,24.623293,-55.970215,6.226054,-2.0,0.27581787,-0.25,2.4941406,1.2490234,2.3427734,62.091454,23.0776,-124.9665,26.71806,0.0,0.0,0.0,0.0,0.0,0.0,0.0,32.016052,-133.91304,41.98269,0.0,0.0,0.0,0.0,0.0,0.0,0.0,2.6543772,44.811436,-3.2002916,
0.0390624994179234,2,0.022888184,0.83880615,0.49023438,-0.3388672,1.1279297,0.33789062,0.0,0.0,0.0,0.0,0.0,0.0,0.0,0.0,0.0,0.0,0.0,-0.86617416,0.08647159,0.49238107,-1.0448608,0.04638672,0.0029296875,-0.25097656,-0.13769531,0.4716797,4.5392404,-17.932493,1.7902298,10.193814,0.95166016,0.012268066,-0.4973755,0.23144531,-0.5048828,0.20117188,15.715785,-17.257769,-55.15409,12.235465,-0.70721436,-0.027282715,0.71429443,0.13574219,0.7265625,0.10644531,38.656284,-33.788857,-124.51857,22.222775,0.0,0.0,0.0,0.0,0.0,0.0,0.0,-17.65288,-131.99083,31.367872,0.0,0.0,0.0,0.0,0.0,0.0,0.0,0.86617416,-0.08647159,-0.49238107,-1.1749268,-0.8497925,0.49334717,-3.9794922,-0.5673828,-0.6113281,16.281307,17.932493,-1.7902298,-10.193814,0.5863037,0.571228,-0.11602783,-1.0742188,1.2236328,0.29003906,8.059928,24.623293,-55.970215,6.226054,-2.0,0.27581787,-0.25,2.4941406,1.2490234,2.3427734,62.091454,23.0776,-124.9665,26.71806,0.0,0.0,0.0,0.0,0.0,0.0,0.0,32.016052,-133.91304,41.98269,0.0,0.0,0.0,0.0,0.0,0.0,0.0,2.6543772,44.811436,-3.2002916,
0.0585937491268851,3,-0.12609863,0.80010986,0.5048218,-0.040039062,0.045898438,0.0859375,0.0,0.0,0.0,0.0,0.0,0.0,0.0,0.0,0.0,0.0,0.0,-0.58804667,0.06296992,0.8065871,-0.97888184,0.07525635,-0.0970459,0.0146484375,1.1757812,0.65625,0.89197105,-12.174389,1.3036726,16.698854,0.94970703,-0.118774414,-0.30541992,-0.03125,0.03515625,0.0546875,2.73409,-16.809883,-55.506714,17.46346,-0.6488037,-0.016479492,0.7468262,-0.032226562,0.11425781,-0.0390625,7.4634013,-19.874626,-127.43733,15.843025,0.0,0.0,0.0,0.0,0.0,0.0,0.0,-11.802496,-128.34273,34.119072,0.0,0.0,0.0,0.0,0.0,0.0,0.0,0.58804667,-0.06296992,-0.8065871,-0.9439087,-0.06225586,-0.32739258,-0.041992188,0.017578125,-0.0234375,3.4074323,12.174389,-1.3036726,-16.698854,1.0196533,-0.09564209,-0.15582275,-0.09667969,0.022460938,0.0859375,2.1207106,11.442869,-58.295673,-15.712934,-0.40985107,0.08050537,0.92022705,-0.030273438,0.6123047,1.1152344,4.8873997,11.904109,-130.15758,-11.099968,0.0,0.0,0.0,0.0,0.0,0.0,0.0,14.721721,-129.93295,8.6994,0.0,0.0,0.0,0.0,0.0,0.0,0.0,3.2248616,44.877327,-1.1524516,
0.0781249988358468,4,-0.1262207,0.8060303,0.49591064,0.038085938,0.04296875,0.047851562,0.0,0.0,0.0,0.0,0.0,0.0,0.0,0.0,0.0,0.0,0.0,-0.5885012,0.06285194,0.8062083,-0.98706055,0.07714844,-0.084106445,-0.022460938,0.8544922,0.4814453,1.891137,-12.183802,1.3012302,16.691011,0.94610596,-0.10296631,-0.300354,-0.01171875,0.053710938,0.0546875,3.6150885,-18.047188,-55.394253,17.529501,-0.6485596,-7.324219E-4,0.7536621,0.0068359375,-0.0126953125,0.018554688,7.524544,-21.114359,-127.32565,15.891756,0.0,0.0,0.0,0.0,0.0,0.0,0.0,-13.043279,-128.22661,34.16925,0.0,0.0,0.0,0.0,0.0,0.0,0.0,0.5885012,-0.06285194,-0.8062083,-0.95996094,-0.058410645,-0.30969238,-0.041992188,0.07519531,0.05859375,3.406628,12.183802,-1.3012302,-16.691011,1.0222778,-0.09472656,-0.1776123,0.0390625,0.020507812,0.045898438,2.1256883,11.449886,-58.29359,-15.698695,-0.4128418,0.07672119,0.90649414,-0.03125,0.5371094,0.9453125,5.8923545,11.882229,-130.14943,-11.063213,0.0,0.0,0.0,0.0,0.0,0.0,0.0,14.342528,-129.8874,8.783968,0.0,0.0,0.0,0.0,0.0,0.0,0.0,3.2280798,44.87531,-1.1421012,
0.09765624854480849,5,-0.13189697,0.786438,0.5197754,0.038085938,0.04296875,0.047851562,0.0,0.0,0.0,0.0,0.0,0.0,0.0,0.0,0.0,0.0,0.0,-0.5887885,0.06270467,0.80598897,-0.9953613,0.07208252,-0.06726074,0.015625,0.30566406,0.16992188,2.4443254,-12.189747,1.2981809,16.68647,0.9529419,-0.11004639,-0.3184204,-0.049804688,0.0546875,0.053710938,4.131901,-18.651165,-55.332268,17.559216,-0.65093994,-0.020385742,0.75177,-0.01171875,-0.0126953125,-0.018554688,7.6356854,-21.706371,-127.25551,15.890234,0.0,0.0,0.0,0.0,0.0,0.0,0.0,-13.638269,-128.15678,34.166855,0.0,0.0,0.0,0.0,0.0,0.0,0.0,0.5887885,-0.06270467,-0.80598897,-0.9439087,-0.061157227,-0.29107666,-0.099609375,0.018554688,0.017578125,3.434617,12.189747,-1.2981809,-16.68647,0.9996338,-0.0814209,-0.1673584,0.057617188,0.09375,0.026367188,2.1196027,11.472428,-58.292675,-15.697564,-0.40979004,0.079589844,0.90844727,-0.032226562,0.40625,0.66308594,6.671503,11.905634,-130.15776,-11.066827,0.0,0.0,0.0,0.0,0.0,0.0,0.0,14.091423,-129.86203,8.812341,0.0,0.0,0.0,0.0,0.0,0.0,0.0,3.2389193,44.874195,-1.125056,
0.11718749825377019,6,-0.101867676,0.8024292,0.5062256,-0.059570312,0.045898438,0.049804688,0.0,0.0,0.0,0.0,0.0,0.0,0.0,0.0,0.0,0.0,0.0,-0.5898789,0.062294338,0.80520946,-0.9871216,0.06933594,-0.082214355,-0.022460938,0.022460938,0.033203125,2.3998802,-12.212323,1.2896858,16.670332,0.9633179,-0.10266113,-0.31048584,-0.01171875,0.07324219,0.0546875,4.092516,-18.619389,-55.349583,17.53567,-0.6628418,-0.013122559,0.7498169,0.0068359375,-0.0126953125,-0.018554688,7.6931963,-21.66995,-127.27919,15.855359,0.0,0.0,0.0,0.0,0.0,0.0,0.0,-13.595453,-128.18192,34.128983,0.0,0.0,0.0,0.0,0.0,0.0,0.0,0.5898789,-0.062294338,-0.80520946,-0.9362793,-0.089904785,-0.32269287,-0.11816406,-0.0390625,-0.0029296875,3.3905554,12.212323,-1.2896858,-16.670332,0.9949951,-0.07635498,-0.14752197,-0.11621094,0.041015625,0.0859375,2.082153,11.468826,-58.2798,-15.668236,-0.4169922,0.066833496,0.90356445,-0.0703125,0.2578125,0.2109375,7.090801,11.898667,-130.1427,-11.079488,0.0,0.0,0.0,0.0,0.0,0.0,0.0,13.9619465,-129.84543,8.8122015,0.0,0.0,0.0,0.0,0.0,0.0,0.0,3.2283452,44.874912,-1.1066936,
0.1367187479627319,7,-0.1282959,0.8050537,0.4920044,-0.020507812,0.064453125,0.06738281,0.0,0.0,0.0,0.0,0.0,0.0,0.0,0.0,0.0,0.0,0.0,-0.5905223,0.061786108,0.8047733,-0.97802734,0.06817627,-0.07928467,-0.041015625,0.060546875,0.0146484375,2.35077,-12.225641,1.279164,16.6613,0.9487915,-0.11383057,-0.30639648,-0.03125,0.03515625,0.036132812,4.047866,-18.584848,-55.360058,17.516825,-0.6588745,-0.013366699,0.77056885,0.026367188,-0.03125,-0.017578125,7.8070307,-21.646114,-127.291306,15.825914,0.0,0.0,0.0,0.0,0.0,0.0,0.0,-13.577263,-128.19199,34.10281,0.0,0.0,0.0,0.0,0.0,0.0,0.0,0.5905223,-0.061786108,-0.8047733,-0.9298706,-0.06536865,-0.32940674,0.03515625,0.09277344,0.037109375,3.3792768,12.225641,-1.279164,-16.6613,1.019165,-0.12561035,-0.1694336,-0.07714844,0.059570312,0.06640625,2.116646,11.474241,-58.27304,-15.694502,-0.41687012,0.10961914,0.9222412,-0.016601562,0.009765625,-0.015625,7.197864,11.854406,-130.1301,-11.092407,0.0,0.0,0.0,0.0,0.0,0.0,0.0,13.950054,-129.83324,8.795706,0.0,0.0,0.0,0.0,0.0,0.0,0.0,3.225729,44.87566,-1.0783503,
0.1562499976716936,8,-0.105895996,0.791626,0.50323486,-0.001953125,0.025390625,0.06640625,0.0,0.0,0.0,0.0,0.0,0.0,0.0,0.0,0.0,0.0,0.0,-0.5910879,0.061789088,0.80444723,-0.991333,0.068115234,-0.066345215,-0.022460938,0.0029296875,0.052734375,2.2481182,-12.237351,1.2792256,16.654552,0.9685669,-0.09802246,-0.29455566,-0.068359375,0.0546875,0.072265625,3.9853616,-18.49874,-55.37463,17.495417,-0.6520386,-0.029174805,0.7429199,0.0068359375,0.0234375,0.0,7.9124436,-21.542395,-127.30435,15.780268,0.0,0.0,0.0,0.0,0.0,0.0,0.0,-13.478441,-128.20238,34.06071,0.0,0.0,0.0,0.0,0.0,0.0,0.0,0.5910879,-0.061789088,-0.80444723,-0.9259033,-0.066589355,-0.32354736,0.015625,0.07421875,0.016601562,3.3512933,12.237351,-1.2792256,-16.654552,0.9957886,-0.0993042,-0.14837646,-0.0390625,0.040039062,0.046875,2.1759186,11.446722,-58.273624,-15.722954,-0.40264893,0.08239746,0.9152832,-0.016601562,-0.0087890625,0.00390625,7.165877,11.821575,-130.13718,-11.10109,0.0,0.0,0.0,0.0,0.0,0.0,0.0,13.95701,-129.83766,8.783401,0.0,0.0,0.0,0.0,0.0,0.0,0.0,3.2320118,44.8786,-1.0722954,
0.1757812473806553,9,-0.1453247,0.819458,0.5064697,-0.021484375,0.026367188,0.06738281,0.0,0.0,0.0,0.0,0.0,0.0,0.0,0.0,0.0,0.0,0.0,-0.5917421,0.061642103,0.80395997,-0.9849243,0.07067871,-0.1071167,-0.00390625,0.00390625,-0.0048828125,2.1782558,-12.2508955,1.2761827,16.644463,0.9758301,-0.12670898,-0.29974365,-0.01171875,0.03515625,0.055664062,3.948387,-18.430866,-55.387516,17.484776,-0.6624756,0.0075683594,0.7507324,-0.01171875,-0.01171875,0.0,7.983697,-21.41904,-127.31282,15.784515,0.0,0.0,0.0,0.0,0.0,0.0,0.0,-13.359116,-128.20673,34.065525,0.0,0.0,0.0,0.0,0.0,0.0,0.0,0.5917421,-0.061642103,-0.80395997,-0.9401245,-0.079833984,-0.33148193,-0.080078125,-0.020507812,0.038085938,3.3526368,12.2508955,-1.2761827,-16.644463,1.0394287,-0.083984375,-0.16912842,-0.057617188,0.05859375,0.06640625,2.1806805,11.473893,-58.26849,-15.711211,-0.3965454,0.074279785,0.9172363,0.001953125,-0.009765625,0.00390625,7.155192,11.853434,-130.12737,-11.077131,0.0,0.0,0.0,0.0,0.0,0.0,0.0,14.024773,-129.83441,8.80415,0.0,0.0,0.0,0.0,0.0,0.0,0.0,3.2229598,44.878708,-1.0687807,
0.19531249708961698,10,-0.12243652,0.8027954,0.4798584,-0.041015625,0.026367188,0.048828125,0.0,0.0,0.0,0.0,0.0,0.0,0.0,0.0,0.0,0.0,0.0,-0.59285116,0.061360743,0.80306816,-0.9984131,0.06738281,-0.07330322,-0.022460938,0.022460938,0.0146484375,2.150586,-12.273855,1.2703575,16.626,0.94281006,-0.1116333,-0.3053589,-0.03125,0.03515625,0.0546875,3.8997815,-18.392578,-55.397236,17.459694,-0.6646118,7.324219E-4,0.7527466,0.0068359375,0.0048828125,-0.018554688,7.9849753,-21.392527,-127.32373,15.740198,0.0,0.0,0.0,0.0,0.0,0.0,0.0,-13.31241,-128.21191,34.01272,0.0,0.0,0.0,0.0,0.0,0.0,0.0,0.59285116,-0.061360743,-0.80306816,-0.9491577,-0.07757568,-0.33538818,-0.080078125,-9.765625E-4,0.038085938,3.325077,12.273855,-1.2703575,-16.626,1.0024414,-0.11340332,-0.16522217,-0.0390625,0.05859375,0.046875,2.1754687,11.501154,-58.261158,-15.690471,-0.42926025,0.093811035,0.9291992,-0.016601562,0.009765625,-0.015625,7.1197634,11.8449955,-130.12057,-11.047352,0.0,0.0,0.0,0.0,0.0,0.0,0.0,14.053612,-129.83247,8.828104,0.0,0.0,0.0,0.0,0.0,0.0,0.0,3.1979055,44.877037,-1.068161,
0.21484374679857868,11,-0.11315918,0.78674316,0.48547363,0.017578125,0.025390625,0.06640625,0.0,0.0,0.0,0.0,0.0,0.0,0.0,0.0,0.0,0.0,0.0,-0.5936665,0.060828406,0.8025909,-0.99108887,0.08105469,-0.08306885,-0.00390625,-0.015625,0.033203125,2.1043122,-12.290737,1.2593367,16.61612,0.97369385,-0.12957764,-0.30371094,-0.049804688,0.03515625,0.0546875,3.8829741,-18.36248,-55.41263,17.458088,-0.638855,-0.016906738,0.76953125,0.0068359375,0.0234375,0.0,8.10886,-21.340843,-127.34519,15.738634,0.0,0.0,0.0,0.0,0.0,0.0,0.0,-13.276109,-128.222,34.018753,0.0,0.0,0.0,0.0,0.0,0.0,0.0,0.5936665,-0.060828406,-0.8025909,-0.9139404,-0.07165527,-0.28527832,-0.022460938,0.036132812,0.037109375,3.349248,12.290737,-1.2593367,-16.61612,1.0072021,-0.105529785,-0.18017578,-0.0390625,0.05859375,0.046875,2.171777,11.5532675,-58.25523,-15.704039,-0.4006958,0.08502197,0.95269775,0.001953125,-0.009765625,0.00390625,7.101361,11.853433,-130.11388,-11.070847,0.0,0.0,0.0,0.0,0.0,0.0,0.0,14.099828,-129.83041,8.800842,0.0,0.0,0.0,0.0,0.0,0.0,0.0,3.1904368,44.881264,-1.0416269,
0.23437499650754037,12,-0.13061523,0.8099365,0.47320557,-0.021484375,0.025390625,0.048828125,0.0,0.0,0.0,0.0,0.0,0.0,0.0,0.0,0.0,0.0,0.0,-0.5945209,0.06057027,0.8019169,-0.9796753,0.09576416,-0.09869385,-0.060546875,0.0029296875,0.033203125,2.0628889,-12.308424,1.2539923,16.602165,0.96295166,-0.11639404,-0.305542,-0.03125,0.03515625,0.036132812,3.899028,-18.334236,-55.421066,17.520521,-0.64276123,-0.015625,0.7359009,0.0068359375,0.0234375,-0.018554688,8.15006,-21.307692,-127.35573,15.802946,0.0,0.0,0.0,0.0,0.0,0.0,0.0,-13.239426,-128.22777,34.082436,0.0,0.0,0.0,0.0,0.0,0.0,0.0,0.5945209,-0.06057027,-0.8019169,-0.96533203,-0.08380127,-0.3098755,-0.041992188,-0.001953125,-0.0029296875,3.3524616,12.308424,-1.2539923,-16.602165,1.0234375,-0.07281494,-0.17974854,-0.09667969,0.022460938,0.0859375,2.1303787,11.597935,-58.249035,-15.677267,-0.41296387,0.08532715,0.9458618,-0.016601562,-0.009765625,0.022460938,7.049097,11.884991,-130.11359,-11.069271,0.0,0.0,0.0,0.0,0.0,0.0,0.0,14.170931,-129.83632,8.798355,0.0,0.0,0.0,0.0,0.0,0.0,0.0,3.173296,44.88038,-1.0372968,
0.2539062462165021,13,-0.09979248,0.77453613,0.5029297,-0.041015625,0.026367188,0.06738281,0.0,0.0,0.0,0.0,0.0,0.0,0.0,0.0,0.0,0.0,0.0,-0.59522575,0.06052729,0.8014187,-0.9758911,0.08087158,-0.08404541,-0.022460938,0.022460938,0.033203125,1.9675199,-12.323018,1.2531027,16.591852,0.975647,-0.1315918,-0.30670166,-0.048828125,0.0546875,0.07324219,3.848427,-18.27407,-55.4333,17.537722,-0.6535034,0.0024414062,0.737854,0.0068359375,0.005859375,0.018554688,8.241525,-21.24801,-127.36745,15.842955,0.0,0.0,0.0,0.0,0.0,0.0,0.0,-13.180792,-128.23503,34.12388,0.0,0.0,0.0,0.0,0.0,0.0,0.0,0.59522575,-0.06052729,-0.8014187,-0.930603,-0.045654297,-0.33514404,-0.00390625,0.03515625,0.016601562,3.3951719,12.323018,-1.2531027,-16.591852,1.0033569,-0.11242676,-0.17016602,-0.057617188,0.05859375,0.06640625,2.1334999,11.643734,-58.249626,-15.670591,-0.40447998,0.119384766,0.9212036,0.0029296875,0.028320312,0.00390625,7.1196804,11.842903,-130.11334,-11.0343485,0.0,0.0,0.0,0.0,0.0,0.0,0.0,14.14827,-129.83342,8.830588,0.0,0.0,0.0,0.0,0.0,0.0,0.0,3.183524,44.880714,-1.025173,
0.2734374959254638,14,-0.12591553,0.79119873,0.51568604,-0.020507812,0.043945312,0.030273438,0.0,0.0,0.0,0.0,0.0,0.0,0.0,0.0,0.0,0.0,0.0,-0.59484434,0.060814276,0.8016261,-0.98620605,0.06915283,-0.07330322,-0.060546875,0.041015625,0.052734375,1.8708484,-12.315123,1.2590442,16.596146,0.9649048,-0.119384766,-0.3015747,-0.03125,0.03515625,0.036132812,3.8507667,-18.206388,-55.43142,17.57297,-0.66485596,-0.013916016,0.73394775,-0.01171875,0.005859375,0.018554688,8.2694235,-21.139309,-127.36398,15.875862,0.0,0.0,0.0,0.0,0.0,0.0,0.0,-13.067447,-128.23439,34.154224,0.0,0.0,0.0,0.0,0.0,0.0,0.0,0.59484434,-0.060814276,-0.8016261,-0.9227295,-0.053588867,-0.29492188,0.015625,0.03515625,0.037109375,3.4455445,12.315123,-1.2590442,-16.596146,1.0192871,-0.12561035,-0.16448975,-0.09765625,0.115234375,0.08496094,2.1830127,11.653904,-58.25451,-15.680089,-0.4136963,0.11364746,0.9133301,-0.016601562,-0.0087890625,0.00390625,7.176355,11.876415,-130.11395,-10.987746,0.0,0.0,0.0,0.0,0.0,0.0,0.0,14.210604,-129.83112,8.873979,0.0,0.0,0.0,0.0,0.0,0.0,0.0,3.2085774,44.87701,-1.0236179,
0.2929687456344255,15,-0.10571289,0.7927246,0.51916504,0.018554688,0.04296875,0.029296875,0.0,0.0,0.0,0.0,0.0,0.0,0.0,0.0,0.0,0.0,0.0,-0.5948172,0.060819916,0.80169404,-0.9963989,0.06542969,-0.07336426,-0.022460938,0.0029296875,0.052734375,1.7768514,-12.31456,1.2591608,16.597553,0.95410156,-0.107177734,-0.30145264,-0.049804688,0.0546875,0.053710938,3.8097143,-18.12369,-55.44188,17.584764,-0.6405029,0.0,0.744751,-0.01171875,0.005859375,-0.018554688,8.309431,-21.048857,-127.37723,15.874199,0.0,0.0,0.0,0.0,0.0,0.0,0.0,-12.978748,-128.249,34.152996,0.0,0.0,0.0,0.0,0.0,0.0,0.0,0.5948172,-0.060819916,-0.80169404,-0.97314453,-0.068115234,-0.3048706,-0.041992188,0.036132812,0.038085938,3.458023,12.31456,-1.2591608,-16.597553,1.00531,-0.113464355,-0.17218018,-0.07714844,0.059570312,0.06640625,2.1574006,11.659849,-58.255154,-15.657136,-0.38623047,0.07409668,0.9142456,0.0029296875,0.009765625,0.00390625,7.214499,11.833266,-130.1072,-10.956864,0.0,0.0,0.0,0.0,0.0,0.0,0.0,14.181828,-129.82277,8.903758,0.0,0.0,0.0,0.0,0.0,0.0,0.0,3.2160099,44.878334,-1.0185418,
0.3124999953433872,16,-0.11627197,0.78778076,0.48358154,-0.061523438,0.0078125,0.049804688,0.0,0.0,0.0,0.0,0.0,0.0,0.0,0.0,0.0,0.0,0.0,-0.59564394,0.060567636,0.80108714,-0.9769287,0.091308594,-0.06689453,0.015625,-0.015625,0.0146484375,1.712465,-12.3316765,1.2539378,16.584988,0.9708252,-0.123535156,-0.30566406,-0.049804688,0.03515625,0.0546875,3.7995753,-18.070171,-55.44885,17.601427,-0.64294434,-0.02545166,0.7369385,-0.01171875,0.005859375,-0.018554688,8.388739,-20.94905,-127.38016,15.903612,0.0,0.0,0.0,0.0,0.0,0.0,0.0,-12.883543,-128.25432,34.184242,0.0,0.0,0.0,0.0,0.0,0.0,0.0,0.59564394,-0.060567636,-0.80108714,-0.9336548,-0.04486084,-0.32531738,-0.022460938,0.036132812,0.037109375,3.483296,12.3316765,-1.2539378,-16.584988,1.0142212,-0.089660645,-0.18829346,-0.07714844,0.041015625,0.08496094,2.1419227,11.715467,-58.249508,-15.648445,-0.39642334,0.08630371,0.91033936,0.001953125,-0.009765625,0.041015625,7.2136283,11.883337,-130.11285,-10.96328,0.0,0.0,0.0,0.0,0.0,0.0,0.0,14.2568655,-129.83476,8.894564,0.0,0.0,0.0,0.0,0.0,0.0,0.0,3.2062862,44.878815,-1.0091271,
0.3320312450523489,17,-0.11212158,0.7937012,0.49047852,-0.059570312,0.045898438,0.049804688,0.0,0.0,0.0,0.0,0.0,0.0,0.0,0.0,0.0,0.0,0.0,-0.5966359,0.060423978,0.8003975,-0.98638916,0.059265137,-0.06347656,0.015625,0.0029296875,0.033203125,1.6616571,-12.352213,1.2509637,16.570711,0.96307373,-0.11047363,-0.30651855,-0.03125,0.03515625,0.0546875,3.766916,-18.016077,-55.461323,17.614346,-0.6412964,0.01184082,0.75164795,0.0068359375,0.005859375,0.0,8.419722,-20.88892,-127.39659,15.920392,0.0,0.0,0.0,0.0,0.0,0.0,0.0,-12.821358,-128.2651,34.200073,0.0,0.0,0.0,0.0,0.0,0.0,0.0,0.5966359,-0.060423978,-0.8003975,-0.9230957,-0.079956055,-0.29711914,-0.041992188,0.016601562,0.038085938,3.493791,12.352213,-1.2509637,-16.570711,1.0033569,-0.10546875,-0.17120361,-0.07714844,0.059570312,0.08496094,2.1895478,11.767753,-58.247837,-15.684771,-0.4005127,0.08148193,0.9024658,0.0029296875,0.028320312,0.00390625,7.222055,11.886527,-130.10393,-10.991566,0.0,0.0,0.0,0.0,0.0,0.0,0.0,14.286241,-129.82793,8.863667,0.0,0.0,0.0,0.0,0.0,0.0,0.0,3.1848123,44.881607,-1.0141851,
0.3515624947613106,18,-0.10803223,0.7836304,0.49224854,0.0,0.06347656,0.048828125,0.0,0.0,0.0,0.0,0.0,0.0,0.0,0.0,0.0,0.0,0.0,-0.5974857,0.05965431,0.7997904,-0.98498535,0.07330322,-0.09112549,-0.022460938,0.022460938,0.033203125,1.673159,-12.369807,1.2350292,16.55814,0.96258545,-0.091796875,-0.31744385,-0.06933594,0.016601562,0.053710938,3.7544718,-18.017822,-55.476883,17.579502,-0.64294434,-0.027404785,0.73498535,0.026367188,0.0234375,0.0,8.475746,-20.903278,-127.41139,15.848032,0.0,0.0,0.0,0.0,0.0,0.0,0.0,-12.841837,-128.27621,34.12995,0.0,0.0,0.0,0.0,0.0,0.0,0.0,0.5974857,-0.05965431,-0.7997904,-0.934021,-0.074523926,-0.3118286,-0.00390625,0.0546875,0.037109375,3.44969,12.369807,-1.2350292,-16.55814,1.001709,-0.08843994,-0.15942383,-0.07714844,0.059570312,0.103515625,2.268226,11.772072,-58.233315,-15.69258,-0.41290283,0.09741211,0.9379883,0.001953125,0.009765625,0.022460938,7.280793,11.795761,-130.07991,-10.918683,0.0,0.0,0.0,0.0,0.0,0.0,0.0,14.201214,-129.79933,8.935843,0.0,0.0,0.0,0.0,0.0,0.0,0.0,3.1617866,44.88276,-0.98566765,
0.37109374447027227,19,-0.11212158,0.8066406,0.4975586,-0.020507812,0.044921875,0.048828125,0.0,0.0,0.0,0.0,0.0,0.0,0.0,0.0,0.0,0.0,0.0,-0.59706664,0.059650127,0.8001703,-0.9890747,0.08105469,-0.08306885,-0.022460938,-0.07324219,0.033203125,1.5978968,-12.361132,1.2349427,16.566008,0.95025635,-0.09820557,-0.30639648,-0.06933594,0.036132812,0.034179688,3.758225,-17.958794,-55.485027,17.61352,-0.6555786,-4.8828125E-4,0.73986816,-0.01171875,0.005859375,0.0,8.48899,-20.822765,-127.417496,15.867308,0.0,0.0,0.0,0.0,0.0,0.0,0.0,-12.757277,-128.28438,34.1489,0.0,0.0,0.0,0.0,0.0,0.0,0.0,0.59706664,-0.059650127,-0.8001703,-0.9512329,-0.08154297,-0.33148193,0.053710938,0.111328125,0.057617188,3.3648195,12.361132,-1.2349427,-16.566008,1.0274658,-0.08081055,-0.171875,-0.057617188,0.05859375,0.06640625,2.2737417,11.659857,-58.230297,-15.705291,-0.39855957,0.07336426,0.9123535,0.001953125,0.0087890625,0.041015625,7.240097,11.672113,-130.08548,-10.942869,0.0,0.0,0.0,0.0,0.0,0.0,0.0,14.114048,-129.80608,8.905582,0.0,0.0,0.0,0.0,0.0,0.0,0.0,3.177319,44.8843,-0.975146,
0.39062499417923396,20,-0.1282959,0.79608154,0.49194336,-0.020507812,0.044921875,0.048828125,0.0,0.0,0.0,0.0,0.0,0.0,0.0,0.0,0.0,0.0,0.0,-0.59847325,0.05901749,0.7991918,-0.9827881,0.086120605,-0.101867676,-0.041015625,-0.015625,0.033203125,1.5949548,-12.390252,1.221845,16.545748,0.9671631,-0.11065674,-0.30560303,-0.030273438,0.053710938,0.07324219,3.7545764,-17.960941,-55.500412,17.628456,-0.64990234,-0.020446777,0.75476074,0.0068359375,0.005859375,0.018554688,8.514446,-20.854883,-127.43002,15.872576,0.0,0.0,0.0,0.0,0.0,0.0,0.0,-12.78343,-128.30194,34.14942,0.0,0.0,0.0,0.0,0.0,0.0,0.0,0.59847325,-0.05901749,-0.7991918,-0.923645,-0.047424316,-0.30670166,-0.060546875,0.037109375,0.017578125,3.3692386,12.390252,-1.221845,-16.545748,0.991272,-0.10827637,-0.18182373,-0.09667969,0.09667969,0.06640625,2.2399197,11.7295885,-58.216263,-15.65773,-0.41485596,0.08178711,0.897583,0.001953125,0.0087890625,0.041015625,7.2794185,11.711206,-130.0688,-10.894275,0.0,0.0,0.0,0.0,0.0,0.0,0.0,14.187371,-129.79431,8.950038,0.0,0.0,0.0,0.0,0.0,0.0,0.0,3.153547,44.887383,-0.9532471,
0.41015624388819566,21,-0.12640381,0.79400635,0.480896,-0.059570312,0.064453125,0.03125,0.0,0.0,0.0,0.0,0.0,0.0,0.0,0.0,0.0,0.0,0.0,-0.5989366,0.05925998,0.79875976,-0.9859619,0.09643555,-0.075805664,-0.00390625,-0.015625,0.0146484375,1.560347,-12.399844,1.2268654,16.536802,0.96209717,-0.109436035,-0.31347656,-0.032226562,0.036132812,0.016601562,3.7543156,-17.934332,-55.50043,17.660734,-0.65301514,-0.024291992,0.7597046,0.0068359375,0.059570312,-9.765625E-4,8.564377,-20.838287,-127.43559,15.905905,0.0,0.0,0.0,0.0,0.0,0.0,0.0,-12.758657,-128.30556,34.179558,0.0,0.0,0.0,0.0,0.0,0.0,0.0,0.5989366,-0.05925998,-0.79875976,-0.9440918,-0.0748291,-0.29211426,-0.11816406,-0.01953125,-0.0029296875,3.3757987,12.399844,-1.2268654,-16.536802,1.0159912,-0.07366943,-0.1430664,-0.078125,0.115234375,0.06542969,2.2460277,11.7541,-58.22008,-15.578523,-0.43133545,0.07800293,0.9104614,-0.016601562,0.009765625,0.00390625,7.228409,11.874448,-130.06654,-10.732235,0.0,0.0,0.0,0.0,0.0,0.0,0.0,14.381184,-129.79063,9.108477,0.0,0.0,0.0,0.0,0.0,0.0,0.0,3.1503592,44.884884,-0.96776533,
0.42968749359715736,22,-0.12213135,0.80792236,0.5037842,-0.05859375,0.083984375,0.049804688,0.0,0.0,0.0,0.0,0.0,0.0,0.0,0.0,0.0,0.0,0.0,-0.59981734,0.059604645,0.79804903,-0.98095703,0.06945801,-0.09716797,-0.09863281,-0.016601562,0.07128906,1.5388784,-12.4180765,1.234001,16.522089,0.9609375,-0.11529541,-0.31152344,-0.01171875,0.03515625,0.055664062,3.7512894,-17.926407,-55.493046,17.670132,-0.6687622,-0.0060424805,0.74975586,-0.01171875,0.005859375,0.0,8.640269,-20.856508,-127.426865,15.898937,0.0,0.0,0.0,0.0,0.0,0.0,0.0,-12.779979,-128.29803,34.174976,0.0,0.0,0.0,0.0,0.0,0.0,0.0,0.59981734,-0.059604645,-0.79804903,-0.9266968,-0.052612305,-0.33325195,0.015625,0.07421875,0.016601562,3.3881872,12.4180765,-1.234001,-16.522089,1.0253296,-0.10876465,-0.16766357,-0.07714844,0.059570312,0.08496094,2.3079169,11.785292,-58.229095,-15.584699,-0.4066162,0.085632324,0.90252686,0.021484375,-0.009765625,0.0029296875,7.2529035,11.900019,-130.07233,-10.682629,0.0,0.0,0.0,0.0,0.0,0.0,0.0,14.430792,-129.79811,9.154373,0.0,0.0,0.0,0.0,0.0,0.0,0.0,3.1466556,44.88386,-0.98724246,
0.44921874330611905,23,-0.12390137,0.80010986,0.51867676,-0.040039062,0.064453125,0.049804688,0.0,0.0,0.0,0.0,0.0,0.0,0.0,0.0,0.0,0.0,0.0,-0.60036576,0.059893377,0.79765916,-0.99108887,0.07531738,-0.08709717,-0.060546875,0.041015625,0.034179688,1.5093468,-12.42943,1.2399784,16.514017,0.95202637,-0.109069824,-0.29644775,-0.0126953125,0.0546875,0.036132812,3.7348106,-17.921188,-55.48751,17.65033,-0.6508789,-0.020263672,0.73498535,-0.01171875,0.005859375,0.0,8.709149,-20.852257,-127.417564,15.873954,0.0,0.0,0.0,0.0,0.0,0.0,0.0,-12.776451,-128.28726,34.149956,0.0,0.0,0.0,0.0,0.0,0.0,0.0,0.60036576,-0.059893377,-0.79765916,-0.93859863,-0.039733887,-0.289917,0.053710938,0.11230469,0.016601562,3.3808985,12.42943,-1.2399784,-16.514017,1.0075684,-0.11743164,-0.1505127,0.0,0.0390625,0.06542969,2.3545966,11.774188,-58.233074,-15.577517,-0.42919922,0.09197998,0.90948486,-0.016601562,-0.0087890625,0.00390625,7.2891154,11.865291,-130.06851,-10.61803,0.0,0.0,0.0,0.0,0.0,0.0,0.0,14.422555,-129.79416,9.215827,0.0,0.0,0.0,0.0,0.0,0.0,0.0,3.158147,44.884514,-0.99320793,
0.46874999301508075,24,-0.1281128,0.79919434,0.50683594,0.01953125,0.0625,0.047851562,0.0,0.0,0.0,0.0,0.0,0.0,0.0,0.0,0.0,0.0,0.0,-0.6004103,0.060132217,0.797607,-0.9902344,0.0836792,-0.06707764,-0.041015625,0.0029296875,0.052734375,1.4210641,-12.430353,1.2449234,16.512938,0.9579468,-0.11419678,-0.30352783,-0.0126953125,0.0546875,0.016601562,3.7109847,-17.852009,-55.49103,17.678211,-0.6468506,-0.019470215,0.74487305,0.0068359375,0.005859375,0.018554688,8.786708,-20.788586,-127.42206,15.899785,0.0,0.0,0.0,0.0,0.0,0.0,0.0,-12.714575,-128.28792,34.176945,0.0,0.0,0.0,0.0,0.0,0.0,0.0,0.6004103,-0.060132217,-0.797607,-0.96813965,-0.067993164,-0.3126831,-0.15625,-0.018554688,-0.001953125,3.3941913,12.430353,-1.2449234,-16.512938,0.9990845,-0.07342529,-0.14367676,0.078125,9.765625E-4,0.083984375,2.3202655,11.776654,-58.23839,-15.526512,-0.39019775,0.08935547,0.8925781,0.001953125,-0.009765625,0.00390625,7.2887383,11.83628,-130.07562,-10.54257,0.0,0.0,0.0,0.0,0.0,0.0,0.0,14.405909,-129.80035,9.289875,0.0,0.0,0.0,0.0,0.0,0.0,0.0,3.1704934,44.88353,-0.9971701,
0.48828124272404244,25,-0.10491943,0.8095093,0.5083008,-0.01953125,0.08300781,0.06738281,0.0,0.0,0.0,0.0,0.0,0.0,0.0,0.0,0.0,0.0,0.0,-0.6007752,0.060148075,0.79736197,-0.9829712,0.08099365,-0.085998535,-0.022460938,0.0029296875,0.052734375,1.3741583,-12.437907,1.2452515,16.507864,0.96710205,-0.11566162,-0.27770996,-0.01171875,0.015625,0.07421875,3.7093484,-17.813366,-55.490948,17.701601,-0.65374756,-0.008544922,0.7626343,0.0068359375,0.0234375,0.0,8.802321,-20.720024,-127.42403,15.939289,0.0,0.0,0.0,0.0,0.0,0.0,0.0,-12.652094,-128.2914,34.217964,0.0,0.0,0.0,0.0,0.0,0.0,0.0,0.6007752,-0.060148075,-0.79736197,-0.9460449,-0.07092285,-0.28918457,-0.1953125,-0.115234375,-0.001953125,3.4646976,12.437907,-1.2452515,-16.507864,1.0077515,-0.07952881,-0.1605835,-0.057617188,0.0029296875,0.047851562,2.2117817,11.860021,-58.238346,-15.459696,-0.40460205,0.085510254,0.90740967,0.001953125,0.009765625,0.022460938,7.1814103,11.944127,-130.07918,-10.524815,0.0,0.0,0.0,0.0,0.0,0.0,0.0,14.540079,-129.80699,9.3056755,0.0,0.0,0.0,0.0,0.0,0.0,0.0,3.1698165,44.88468,-0.9975145,
0.5078124924330042,26,-0.12414551,0.76416016,0.48754883,0.0,0.06347656,0.048828125,0.0,0.0,0.0,0.0,0.0,0.0,0.0,0.0,0.0,0.0,0.0,-0.60082984,0.06076491,0.7972837,-0.9727783,0.07800293,-0.092041016,-0.060546875,-0.016601562,0.033203125,1.3013091,-12.439041,1.2580221,16.506245,0.97753906,-0.1385498,-0.29681396,0.005859375,0.03515625,0.017578125,3.6656477,-17.771997,-55.485344,17.68394,-0.66693115,-0.018859863,0.7458496,0.0068359375,0.0234375,0.0,8.811601,-20.6776,-127.41942,15.930195,0.0,0.0,0.0,0.0,0.0,0.0,0.0,-12.602244,-128.28543,34.205402,0.0,0.0,0.0,0.0,0.0,0.0,0.0,0.60082984,-0.06076491,-0.7972837,-0.9678345,-0.04736328,-0.31744385,-0.00390625,0.0546875,0.037109375,3.4592118,12.439041,-1.2580221,-16.506245,1.013977,-0.08557129,-0.14093018,-0.07714844,0.022460938,0.10449219,2.227038,11.822649,-58.251472,-15.454396,-0.40460205,0.08947754,0.9133301,0.001953125,0.009765625,0.022460938,7.1608105,11.879927,-130.09058,-10.497978,0.0,0.0,0.0,0.0,0.0,0.0,0.0,14.493343,-129.81662,9.328438,0.0,0.0,0.0,0.0,0.0,0.0,0.0,3.1950047,44.882904,-1.0130037,
0.5273437421419659,27,-0.11193848,0.79278564,0.5053711,-0.057617188,0.10253906,0.049804688,0.0,0.0,0.0,0.0,0.0,0.0,0.0,0.0,0.0,0.0,0.0,-0.60116327,0.061430447,0.79699516,-0.9729004,0.08074951,-0.078063965,-0.1171875,0.0029296875,0.033203125,1.2274854,-12.445941,1.2718008,16.50027,0.96173096,-0.12213135,-0.31750488,-0.0126953125,0.036132812,0.017578125,3.669758,-17.712719,-55.47844,17.718681,-0.6529541,-0.025146484,0.7379761,-0.01171875,0.024414062,0.0,8.8268585,-20.607529,-127.41054,15.95595,0.0,0.0,0.0,0.0,0.0,0.0,0.0,-12.524275,-128.27682,34.228714,0.0,0.0,0.0,0.0,0.0,0.0,0.0,0.60116327,-0.061430447,-0.79699516,-0.9295654,-0.038391113,-0.31347656,-0.00390625,0.0546875,0.037109375,3.401912,12.445941,-1.2718008,-16.50027,1.0072632,-0.105529785,-0.1762085,-0.057617188,0.040039062,0.08496094,2.3003566,11.760009,-58.262947,-15.473058,-0.42608643,0.105773926,0.92126465,-0.016601562,0.009765625,0.022460938,7.17794,11.764219,-130.09442,-10.459473,0.0,0.0,0.0,0.0,0.0,0.0,0.0,14.39106,-129.81421,9.364927,0.0,0.0,0.0,0.0,0.0,0.0,0.0,3.200756,44.882256,-1.0451257,
0.5468749918509276,28,-0.14398193,0.77978516,0.52008057,-0.038085938,0.12109375,0.049804688,0.0,0.0,0.0,0.0,0.0,0.0,0.0,0.0,0.0,0.0,0.0,-0.6018792,0.06219766,0.79632074,-0.9813843,0.058166504,-0.058532715,-0.07910156,0.0029296875,0.033203125,1.1000289,-12.460768,1.2876844,16.486307,0.9573364,-0.099487305,-0.30645752,-0.03125,0.016601562,0.0546875,3.6558592,-17.642916,-55.466953,17.728476,-0.6467285,-0.012512207,0.7329712,0.0068359375,0.005859375,0.0,8.819735,-20.527988,-127.39609,15.948187,0.0,0.0,0.0,0.0,0.0,0.0,0.0,-12.44013,-128.26,34.21912,0.0,0.0,0.0,0.0,0.0,0.0,0.0,0.6018792,-0.06219766,-0.79632074,-0.94403076,-0.07196045,-0.33044434,-0.15722656,-0.038085938,0.018554688,3.4376938,12.460768,-1.2876844,-16.486307,1.0026245,-0.09741211,-0.15942383,-0.057617188,0.05859375,0.08496094,2.3400047,11.767255,-58.281254,-15.449562,-0.4251709,0.074035645,0.8986206,0.001953125,-0.009765625,0.022460938,7.1921663,11.730135,-130.11087,-10.369921,0.0,0.0,0.0,0.0,0.0,0.0,0.0,14.371484,-129.83003,9.454081,0.0,0.0,0.0,0.0,0.0,0.0,0.0,3.2338474,44.87684,-1.0609403,
0.5664062415598893,29,-0.123168945,0.79797363,0.49676514,-0.020507812,0.045898438,0.103515625,0.0,0.0,0.0,0.0,0.0,0.0,0.0,0.0,0.0,0.0,0.0,-0.6025449,0.061784994,0.795914,-0.9750366,0.07098389,-0.07421875,-0.060546875,-0.015625,-0.0048828125,1.0271726,-12.474548,1.2791407,16.477888,0.9517212,-0.11883545,-0.30548096,-0.0126953125,0.03515625,0.036132812,3.609397,-17.59311,-55.484062,17.720715,-0.66967773,-0.0030517578,0.7507324,0.0068359375,0.0234375,0.0,8.883563,-20.479656,-127.41234,15.954608,0.0,0.0,0.0,0.0,0.0,0.0,0.0,-12.394589,-128.27316,34.227413,0.0,0.0,0.0,0.0,0.0,0.0,0.0,0.6025449,-0.061784994,-0.795914,-0.9179077,-0.06726074,-0.2999878,-0.099609375,-0.020507812,0.017578125,3.4413939,12.474548,-1.2791407,-16.477888,0.97161865,-0.10296631,-0.16766357,-0.057617188,0.040039062,0.06640625,2.3304498,11.783596,-58.27246,-15.42159,-0.41290283,0.06976318,0.9015503,-0.016601562,0.009765625,0.022460938,7.1817927,11.698723,-130.1016,-10.323324,0.0,0.0,0.0,0.0,0.0,0.0,0.0,14.359677,-129.81926,9.497614,0.0,0.0,0.0,0.0,0.0,0.0,0.0,3.2385964,44.879494,-1.0321205,
0.585937491268851,30,-0.11785889,0.78900146,0.5124512,-0.036132812,0.16015625,0.08691406,0.0,0.0,0.0,0.0,0.0,0.0,0.0,0.0,0.0,0.0,0.0,-0.604617,0.0610913,0.7942984,-0.98620605,0.068237305,-0.07727051,-0.07910156,0.0029296875,0.033203125,1.0133635,-12.5174465,1.2647792,16.44444,0.9401245,-0.13098145,-0.33532715,-0.049804688,0.03515625,0.0546875,3.5667236,-17.617828,-55.49442,17.668179,-0.6706543,-6.1035156E-5,0.7457886,0.0068359375,0.005859375,0.0,8.889798,-20.54274,-127.42328,15.902423,0.0,0.0,0.0,0.0,0.0,0.0,0.0,-12.449181,-128.28514,34.17056,0.0,0.0,0.0,0.0,0.0,0.0,0.0,0.604617,-0.0610913,-0.7942984,-0.9281616,-0.0847168,-0.3394165,-0.041992188,0.016601562,0.038085938,3.4519026,12.5174465,-1.2647792,-16.44444,1.0228271,-0.11975098,-0.19616699,0.0,0.057617188,0.06542969,2.3551786,11.846144,-58.260277,-15.393932,-0.40551758,0.10748291,0.9123535,0.0029296875,0.009765625,-0.015625,7.187882,11.705934,-130.08365,-10.265892,0.0,0.0,0.0,0.0,0.0,0.0,0.0,14.380752,-129.794,9.553326,0.0,0.0,0.0,0.0,0.0,0.0,0.0,3.2336879,44.877342,-0.9901474,
0.6054687409778127,31,-0.10882568,0.7897339,0.51226807,-0.021484375,0.026367188,0.06738281,0.0,0.0,0.0,0.0,0.0,0.0,0.0,0.0,0.0,0.0,0.0,-0.6047733,0.061371636,0.794221,-1.0013428,0.07342529,-0.082214355,-0.041015625,0.0029296875,0.0146484375,0.9518273,-12.520683,1.2705832,16.442839,0.9686279,-0.12731934,-0.32458496,-0.051757812,0.017578125,0.016601562,3.5451393,-17.584963,-55.496914,17.679787,-0.642395,0.005004883,0.7398071,-0.01171875,0.005859375,0.0,9.010836,-20.558252,-127.421646,15.897736,0.0,0.0,0.0,0.0,0.0,0.0,0.0,-12.466484,-128.27965,34.16703,0.0,0.0,0.0,0.0,0.0,0.0,0.0,0.6047733,-0.061371636,-0.794221,-0.9359741,-0.066833496,-0.3048706,-0.022460938,0.07519531,0.016601562,3.496704,12.520683,-1.2705832,-16.442839,0.99542236,-0.09338379,-0.17803955,0.0390625,0.0390625,0.06542969,2.366867,11.867368,-58.262318,-15.423516,-0.4128418,0.07080078,0.8986206,-0.016601562,0.029296875,0.00390625,7.1948385,11.728939,-130.08818,-10.318939,0.0,0.0,0.0,0.0,0.0,0.0,0.0,14.403519,-129.80284,9.499033,0.0,0.0,0.0,0.0,0.0,0.0,0.0,3.2532783,44.87818,-0.99059504,
0.6249999906867744,32,-0.12438965,0.80389404,0.48095703,-0.041015625,0.026367188,0.048828125,0.0,0.0,0.0,0.0,0.0,0.0,0.0,0.0,0.0,0.0,0.0,-0.6061251,0.06118372,0.7932255,-0.9627075,0.08538818,-0.07598877,-0.060546875,0.001953125,0.07128906,0.9516218,-12.548668,1.2666928,16.422228,0.95684814,-0.11608887,-0.31347656,0.0068359375,0.03515625,0.055664062,3.5325801,-17.613674,-55.498013,17.677448,-0.65496826,-0.019348145,0.765625,0.0068359375,0.005859375,0.0,9.084476,-20.625647,-127.42424,15.912069,0.0,0.0,0.0,0.0,0.0,0.0,0.0,-12.532885,-128.27422,34.181618,0.0,0.0,0.0,0.0,0.0,0.0,0.0,0.6061251,-0.06118372,-0.7932255,-0.9388428,-0.0602417,-0.333313,-0.041992188,-0.021484375,0.017578125,3.4752488,12.548668,-1.2666928,-16.422228,0.99554443,-0.08538818,-0.17120361,-0.07714844,0.022460938,0.06640625,2.3312056,11.873987,-58.259163,-15.402268,-0.39233398,0.08520508,0.9142456,0.022460938,0.028320312,-0.015625,7.177612,11.694773,-130.09424,-10.341076,0.0,0.0,0.0,0.0,0.0,0.0,0.0,14.387482,-129.80797,9.475668,0.0,0.0,0.0,0.0,0.0,0.0,0.0,3.2543278,44.879204,-0.97493935,
0.6445312403957361,33,-0.16546631,0.8110962,0.50897217,-0.021484375,0.0068359375,0.048828125,0.0,0.0,0.0,0.0,0.0,0.0,0.0,0.0,0.0,0.0,0.0,-0.6067513,0.06153129,0.792707,-0.986084,0.07800293,-0.07910156,-0.060546875,0.041015625,0.034179688,0.95552063,-12.561633,1.2738885,16.411493,0.9585571,-0.12591553,-0.3215332,-0.068359375,0.03515625,0.07324219,3.5045903,-17.611988,-55.491695,17.661388,-0.6777344,-0.0037841797,0.74780273,0.0068359375,-0.0126953125,0.018554688,9.107224,-20.642752,-127.41925,15.908665,0.0,0.0,0.0,0.0,0.0,0.0,0.0,-12.540466,-128.26744,34.173065,0.0,0.0,0.0,0.0,0.0,0.0,0.0,0.6067513,-0.06153129,-0.792707,-0.93066406,-0.04559326,-0.296875,-0.099609375,-0.07910156,0.038085938,3.4615316,12.561633,-1.2738885,-16.411493,0.9973755,-0.08538818,-0.18206787,-0.07714844,0.041015625,0.10449219,2.3196747,11.89312,-58.265266,-15.335437,-0.41064453,0.109558105,0.9163208,0.0029296875,0.009765625,-0.015625,7.2949,11.61003,-130.08788,-10.214565,0.0,0.0,0.0,0.0,0.0,0.0,0.0,14.313093,-129.80145,9.600475,0.0,0.0,0.0,0.0,0.0,0.0,0.0,3.2395792,44.879177,-1.0039709,
0.6640624901046978,34,-0.13208008,0.78637695,0.5058594,-0.041015625,0.026367188,0.048828125,0.0,0.0,0.0,0.0,0.0,0.0,0.0,0.0,0.0,0.0,0.0,-0.60716826,0.061611876,0.7924023,-0.98828125,0.07293701,-0.06427002,-0.00390625,0.021484375,0.052734375,0.9526493,-12.570267,1.2755569,16.405188,0.9616089,-0.1270752,-0.31054688,-0.048828125,0.0546875,0.07324219,3.504758,-17.59293,-55.49307,17.67308,-0.6496582,-8.544922E-4,0.77246094,0.0078125,-0.030273438,0.01953125,9.134348,-20.621248,-127.42198,15.921274,0.0,0.0,0.0,0.0,0.0,0.0,0.0,-12.518689,-128.26068,34.185875,0.0,0.0,0.0,0.0,0.0,0.0,0.0,0.60716826,-0.061611876,-0.7924023,-0.9508667,-0.055236816,-0.32739258,-0.041992188,0.07519531,0.038085938,3.425141,12.570267,-1.2755569,-16.405188,0.9755249,-0.105041504,-0.17163086,-0.07714844,0.059570312,0.103515625,2.3476038,11.887686,-58.26718,-15.347587,-0.42504883,0.09399414,0.89959717,0.0029296875,0.009765625,0.00390625,7.3262205,11.4932785,-130.09729,-10.2146435,0.0,0.0,0.0,0.0,0.0,0.0,0.0,14.212767,-129.8086,9.59844,0.0,0.0,0.0,0.0,0.0,0.0,0.0,3.2200394,44.880913,-1.0223238,
0.6835937398136595,35,-0.11730957,0.78082275,0.47955322,-0.041015625,0.026367188,0.06738281,0.0,0.0,0.0,0.0,0.0,0.0,0.0,0.0,0.0,0.0,0.0,-0.60776067,0.06201817,0.7918314,-0.98394775,0.08013916,-0.09301758,-0.00390625,0.0029296875,0.052734375,0.9392031,-12.582529,1.2839684,16.393364,0.97869873,-0.13171387,-0.3017578,-0.048828125,0.0546875,0.07324219,3.4980476,-17.579737,-55.48463,17.704916,-0.6725464,0.0068969727,0.7457886,0.0068359375,-0.0126953125,0.0,9.132068,-20.600176,-127.410446,16.001804,0.0,0.0,0.0,0.0,0.0,0.0,0.0,-12.494043,-128.24232,34.266003,0.0,0.0,0.0,0.0,0.0,0.0,0.0,0.60776067,-0.06201817,-0.7918314,-0.95684814,-0.051879883,-0.3400879,-0.00390625,0.0546875,0.016601562,3.3674366,12.582529,-1.2839684,-16.393364,1.0110474,-0.13549805,-0.17608643,0.0,0.076171875,0.10253906,2.4222853,11.851934,-58.275505,-15.338447,-0.3809204,0.09710693,0.9024048,0.041015625,0.0087890625,0.0029296875,7.379669,11.362426,-130.08984,-10.117866,0.0,0.0,0.0,0.0,0.0,0.0,0.0,14.096936,-129.7954,9.692084,0.0,0.0,0.0,0.0,0.0,0.0,0.0,3.209941,44.877934,-1.0511978,
0.7031249895226211,36,-0.14453125,0.78552246,0.48132324,-0.041992188,-0.01171875,0.048828125,0.0,0.0,0.0,0.0,0.0,0.0,0.0,0.0,0.0,0.0,0.0,-0.60781556,0.06261408,0.79172826,-0.9577637,0.08807373,-0.06298828,-0.00390625,0.0029296875,0.052734375,0.9177057,-12.583669,1.2963057,16.39123,0.95062256,-0.1217041,-0.30944824,-0.01171875,0.053710938,0.0546875,3.5070474,-17.567232,-55.47379,17.736094,-0.64263916,-0.0048828125,0.758667,0.0068359375,0.0048828125,-0.018554688,9.184166,-20.621069,-127.40343,16.028734,0.0,0.0,0.0,0.0,0.0,0.0,0.0,-12.518511,-128.2276,34.295242,0.0,0.0,0.0,0.0,0.0,0.0,0.0,0.60781556,-0.06261408,-0.79172826,-0.9470215,-0.06842041,-0.31274414,-0.080078125,-9.765625E-4,0.038085938,3.3765526,12.583669,-1.2963057,-16.39123,1.00354,-0.10345459,-0.16040039,-0.05859375,0.11425781,0.046875,2.4154885,11.85101,-58.289364,-15.335699,-0.39746094,0.08331299,0.9152832,0.001953125,0.009765625,0.022460938,7.3887835,11.431805,-130.1096,-10.121289,0.0,0.0,0.0,0.0,0.0,0.0,0.0,14.164551,-129.81348,9.6890135,0.0,0.0,0.0,0.0,0.0,0.0,0.0,3.2161558,44.876305,-1.0799904,
0.7226562392315828,37,-0.1350708,0.8033447,0.5130615,0.017578125,0.005859375,0.083984375,0.0,0.0,0.0,0.0,0.0,0.0,0.0,0.0,0.0,0.0,0.0,-0.6075144,0.063142136,0.79199237,-0.99853516,0.08343506,-0.04321289,-0.00390625,0.0029296875,0.052734375,0.85041845,-12.57743,1.3072381,16.396698,0.9864502,-0.107543945,-0.30377197,0.0068359375,0.053710938,0.055664062,3.529142,-17.506313,-55.464115,17.804008,-0.647522,0.0021972656,0.751709,0.026367188,0.0048828125,0.0,9.213923,-20.546652,-127.389725,16.111551,0.0,0.0,0.0,0.0,0.0,0.0,0.0,-12.444052,-128.21185,34.378304,0.0,0.0,0.0,0.0,0.0,0.0,0.0,0.6075144,-0.063142136,-0.79199237,-0.96307373,-0.06738281,-0.30090332,-0.0234375,-0.022460938,0.037109375,3.4319367,12.57743,-1.3072381,-16.396698,1.005249,-0.10046387,-0.18017578,-0.057617188,0.021484375,0.08496094,2.4516811,11.88065,-58.299118,-15.38348,-0.43139648,0.085754395,0.9380493,-0.016601562,0.009765625,0.00390625,7.32681,11.47318,-130.12532,-10.176129,0.0,0.0,0.0,0.0,0.0,0.0,0.0,14.230992,-129.82982,9.631715,0.0,0.0,0.0,0.0,0.0,0.0,0.0,3.2257931,44.877716,-1.103495,
0.7421874889405445,38,-0.14923096,0.7659302,0.50115967,-0.0234375,-0.03125,0.047851562,0.0,0.0,0.0,0.0,0.0,0.0,0.0,0.0,0.0,0.0,0.0,-0.60676557,0.06413767,0.7924149,-0.97906494,0.07873535,-0.07110596,0.015625,0.0029296875,0.033203125,0.7597608,-12.56193,1.3278486,16.405447,0.95513916,-0.10632324,-0.29052734,-0.087890625,0.055664062,0.052734375,3.5254228,-17.426846,-55.45166,17.814907,-0.6557007,-0.0073242188,0.7349243,0.0068359375,0.005859375,0.018554688,9.248369,-20.451202,-127.3777,16.092463,0.0,0.0,0.0,0.0,0.0,0.0,0.0,-12.358573,-128.1979,34.363564,0.0,0.0,0.0,0.0,0.0,0.0,0.0,0.60676557,-0.06413767,-0.7924149,-0.9298706,-0.060668945,-0.28027344,-0.0234375,-0.041992188,0.037109375,3.4829588,12.56193,-1.3278486,-16.405447,1.019165,-0.109680176,-0.17938232,-0.078125,0.09667969,0.08496094,2.4911222,11.88482,-58.3205,-15.379119,-0.42486572,0.082458496,0.8483887,0.021484375,0.0087890625,-0.015625,7.3545003,11.424944,-130.13927,-10.108848,0.0,0.0,0.0,0.0,0.0,0.0,0.0,14.206684,-129.84897,9.695291,0.0,0.0,0.0,0.0,0.0,0.0,0.0,3.24651,44.87261,-1.1460583,
0.7617187386495062,39,-0.12023926,0.7929077,0.4876709,-0.0625,-0.030273438,0.048828125,0.0,0.0,0.0,0.0,0.0,0.0,0.0,0.0,0.0,0.0,0.0,-0.60661125,0.06446752,0.7925252,-0.9894409,0.074645996,-0.047302246,-0.00390625,0.0029296875,0.0146484375,0.7214502,-12.558735,1.3346776,16.407728,0.97265625,-0.13348389,-0.29174805,-0.125,0.017578125,0.07128906,3.5178616,-17.385971,-55.448284,17.822803,-0.6376343,-0.0060424805,0.7615967,0.0068359375,-0.03125,-0.018554688,9.333741,-20.399626,-127.37219,16.097923,0.0,0.0,0.0,0.0,0.0,0.0,0.0,-12.307476,-128.19077,34.367996,0.0,0.0,0.0,0.0,0.0,0.0,0.0,0.60661125,-0.06446752,-0.7925252,-0.9501343,-0.07672119,-0.33044434,0.015625,0.015625,0.057617188,3.4723744,12.558735,-1.3346776,-16.407728,0.99993896,-0.09136963,-0.14459229,-0.078125,0.09667969,0.08496094,2.5393698,11.8672085,-58.324833,-15.375169,-0.4230957,0.101623535,0.93408203,0.0029296875,0.009765625,0.00390625,7.4531407,11.459626,-130.13875,-10.0349455,0.0,0.0,0.0,0.0,0.0,0.0,0.0,14.251717,-129.84827,9.76747,0.0,0.0,0.0,0.0,0.0,0.0,0.0,3.247882,44.87272,-1.1641663,
0.7812499883584679,40,-0.1237793,0.7862549,0.522583,-0.0029296875,-0.0126953125,0.047851562,0.0,0.0,0.0,0.0,0.0,0.0,0.0,0.0,0.0,0.0,0.0,-0.6063774,0.06463903,0.7926598,-0.98742676,0.072631836,-0.04736328,0.034179688,-0.03515625,0.033203125,0.61675537,-12.553893,1.3382285,16.410515,0.9581299,-0.14361572,-0.30859375,-0.087890625,0.016601562,0.072265625,3.4900906,-17.294546,-55.448902,17.84552,-0.6646118,-0.0012207031,0.7457886,-0.01171875,0.024414062,0.0,9.468385,-20.328611,-127.37776,16.118032,0.0,0.0,0.0,0.0,0.0,0.0,0.0,-12.248499,-128.1928,34.394363,0.0,0.0,0.0,0.0,0.0,0.0,0.0,0.6063774,-0.06463903,-0.7926598,-0.9354248,-0.030822754,-0.33703613,0.111328125,0.07128906,0.036132812,3.4751363,12.553893,-1.3382285,-16.410515,1.0130005,-0.12158203,-0.18707275,-0.07714844,0.059570312,0.06640625,2.5574193,11.845499,-58.333927,-15.402866,-0.40460205,0.08154297,0.90545654,0.022460938,0.028320312,0.00390625,7.4795275,11.443804,-130.14105,-10.072719,0.0,0.0,0.0,0.0,0.0,0.0,0.0,14.25321,-129.84624,9.728303,0.0,0.0,0.0,0.0,0.0,0.0,0.0,3.26055,44.870693,-1.1647801,
0.8007812380674296,41,-0.1564331,0.80285645,0.50164795,-0.041992188,-0.0126953125,0.0126953125,0.0,0.0,0.0,0.0,0.0,0.0,0.0,0.0,0.0,0.0,0.0,-0.60592115,0.0654179,0.79295546,-0.9842529,0.064208984,-0.070373535,0.034179688,-0.053710938,0.013671875,0.55953133,-12.544448,1.3543534,16.416637,0.9616089,-0.12805176,-0.3065796,-0.03125,0.03515625,0.036132812,3.4926703,-17.245756,-55.43761,17.879744,-0.65667725,-0.005432129,0.75665283,-0.01171875,0.024414062,0.0,9.489992,-20.265863,-127.37044,16.165548,0.0,0.0,0.0,0.0,0.0,0.0,0.0,-12.180385,-128.1825,34.440315,0.0,0.0,0.0,0.0,0.0,0.0,0.0,0.60592115,-0.0654179,-0.79295546,-0.9176636,-0.049865723,-0.29101562,0.072265625,-0.005859375,0.07714844,3.5134618,12.544448,-1.3543534,-16.416637,1.017334,-0.10461426,-0.17150879,-0.13574219,0.11621094,0.103515625,2.6084952,11.847756,-58.34726,-15.419594,-0.41278076,0.09069824,0.90252686,0.0029296875,0.009765625,0.00390625,7.646011,11.485652,-130.15732,-10.038862,0.0,0.0,0.0,0.0,0.0,0.0,0.0,14.308216,-129.8587,9.75947,0.0,0.0,0.0,0.0,0.0,0.0,0.0,3.275608,44.86909,-1.1986566,
0.8203124877763913,42,-0.13873291,0.7658081,0.52978516,-0.0625,-0.03125,0.03125,0.0,0.0,0.0,0.0,0.0,0.0,0.0,0.0,0.0,0.0,0.0,-0.6053329,0.06603123,0.79338694,-0.9911499,0.085754395,-0.072021484,0.09082031,-0.015625,0.033203125,0.48978925,-12.53227,1.3670511,16.42557,0.9553833,-0.13372803,-0.305542,-0.049804688,0.0546875,0.03515625,3.503361,-17.191767,-55.429237,17.91178,-0.6685791,0.0038452148,0.744812,0.0068359375,0.0234375,0.0,9.442482,-20.177162,-127.358025,16.200655,0.0,0.0,0.0,0.0,0.0,0.0,0.0,-12.076786,-128.1726,34.46777,0.0,0.0,0.0,0.0,0.0,0.0,0.0,0.6053329,-0.06603123,-0.79338694,-0.94403076,-0.068115234,-0.3274536,-0.041992188,-0.0029296875,0.037109375,3.5314715,12.53227,-1.3670511,-16.42557,0.991272,-0.14520264,-0.16381836,-0.11621094,0.078125,0.06640625,2.644935,11.823977,-58.357582,-15.415457,-0.41259766,0.11468506,0.9015503,-0.016601562,0.009765625,0.00390625,7.818813,11.480838,-130.15776,-9.974157,0.0,0.0,0.0,0.0,0.0,0.0,0.0,14.321732,-129.85526,9.820616,0.0,0.0,0.0,0.0,0.0,0.0,0.0,3.297676,44.868134,-1.2182028,
0.839843737485353,43,-0.12597656,0.78723145,0.5116577,-0.041015625,0.024414062,-0.005859375,0.0,0.0,0.0,0.0,0.0,0.0,0.0,0.0,0.0,0.0,0.0,-0.60561335,0.066609025,0.7931297,-0.98083496,0.099365234,-0.07873535,0.034179688,-0.015625,0.013671875,0.45370305,-12.5380745,1.3790133,16.420242,0.95495605,-0.11114502,-0.30645752,-0.06933594,0.036132812,0.053710938,3.5325801,-17.170708,-55.414154,17.961945,-0.6859741,-0.012451172,0.76068115,-0.01171875,0.005859375,0.0,9.4619055,-20.164246,-127.34444,16.257618,0.0,0.0,0.0,0.0,0.0,0.0,0.0,-12.057753,-128.16272,34.522495,0.0,0.0,0.0,0.0,0.0,0.0,0.0,0.60561335,-0.066609025,-0.7931297,-0.93273926,-0.05291748,-0.31652832,0.053710938,0.053710938,0.015625,3.587687,12.5380745,-1.3790133,-16.420242,1.0128784,-0.10961914,-0.2000122,-0.05859375,0.095703125,0.06542969,2.6438246,11.878773,-58.371426,-15.37772,-0.40063477,0.06945801,0.9064331,0.0029296875,0.028320312,0.022460938,7.8195157,11.56117,-130.17555,-9.896275,0.0,0.0,0.0,0.0,0.0,0.0,0.0,14.424821,-129.87666,9.896151,0.0,0.0,0.0,0.0,0.0,0.0,0.0,3.3033867,44.867146,-1.2456745,
0.8593749871943147,44,-0.14312744,0.7976074,0.5132446,-0.041992188,0.0068359375,0.048828125,0.0,0.0,0.0,0.0,0.0,0.0,0.0,0.0,0.0,0.0,0.0,-0.6049471,0.0670424,0.7935609,-0.98602295,0.0914917,-0.07092285,0.052734375,-0.015625,0.033203125,0.40782428,-12.524281,1.3879857,16.42917,0.932251,-0.12591553,-0.30932617,-0.08886719,0.036132812,0.034179688,3.5758793,-17.130955,-55.408195,18.015219,-0.6798096,-0.006652832,0.7418823,0.0068359375,0.0234375,0.0,9.514319,-20.132795,-127.342384,16.285027,0.0,0.0,0.0,0.0,0.0,0.0,0.0,-12.017804,-128.16173,34.545235,0.0,0.0,0.0,0.0,0.0,0.0,0.0,0.6049471,-0.0670424,-0.7935609,-0.9388428,-0.058898926,-0.3470459,0.053710938,0.09277344,0.037109375,3.6166587,12.524281,-1.3879857,-16.42917,1.003418,-0.10443115,-0.16827393,-0.11621094,0.059570312,0.06640625,2.6037636,11.873486,-58.383163,-15.38166,-0.4046631,0.08337402,0.9212036,0.021484375,-0.009765625,0.0029296875,7.8214483,11.609731,-130.19182,-9.944239,0.0,0.0,0.0,0.0,0.0,0.0,0.0,14.486088,-129.89014,9.845184,0.0,0.0,0.0,0.0,0.0,0.0,0.0,3.317676,44.8642,-1.2611327,
0.8789062369032764,45,-0.1361084,0.80340576,0.51208496,-0.041992188,-0.01171875,0.048828125,0.0,0.0,0.0,0.0,0.0,0.0,0.0,0.0,0.0,0.0,0.0,-0.6043399,0.06743032,0.7940007,-0.99212646,0.09448242,-0.067871094,0.052734375,-0.07324219,0.032226562,0.36956525,-12.511708,1.3960166,16.438276,0.94506836,-0.137146,-0.32043457,-0.06933594,0.036132812,0.053710938,3.5785067,-17.107008,-55.40239,18.053442,-0.64019775,0.017700195,0.75164795,-0.01171875,0.005859375,0.0,9.578916,-20.13483,-127.33201,16.336699,0.0,0.0,0.0,0.0,0.0,0.0,0.0,-12.015508,-128.1512,34.595825,0.0,0.0,0.0,0.0,0.0,0.0,0.0,0.6043399,-0.06743032,-0.7940007,-0.91259766,-0.047058105,-0.33026123,-0.041992188,-0.0029296875,0.017578125,3.6127043,12.511708,-1.3960166,-16.438276,0.99694824,-0.109375,-0.1977539,-0.11621094,0.09667969,0.103515625,2.5713115,11.831248,-58.390038,-15.372532,-0.42919922,0.09979248,0.9262085,0.0029296875,0.009765625,0.00390625,7.9590216,11.56973,-130.193,-9.954681,0.0,0.0,0.0,0.0,0.0,0.0,0.0,14.447045,-129.8958,9.835608,0.0,0.0,0.0,0.0,0.0,0.0,0.0,3.339023,44.862774,-1.268521,
0.8984374866122381,46,-0.12011719,0.7819824,0.49554443,-0.041992188,-0.01171875,0.048828125,0.0,0.0,0.0,0.0,0.0,0.0,0.0,0.0,0.0,0.0,0.0,-0.6041146,0.06744872,0.79415345,-0.9636841,0.089416504,-0.081848145,-0.041015625,-0.03515625,0.033203125,0.37272853,-12.507046,1.3963976,16.441439,0.95233154,-0.12854004,-0.33538818,-0.030273438,0.0546875,0.0546875,3.5907965,-17.10085,-55.400925,18.117355,-0.6647339,-0.0032348633,0.7616577,-0.01171875,0.005859375,0.018554688,9.646098,-20.153992,-127.33151,16.445162,0.0,0.0,0.0,0.0,0.0,0.0,0.0,-12.042052,-128.15,34.708008,0.0,0.0,0.0,0.0,0.0,0.0,0.0,0.6041146,-0.06744872,-0.79415345,-0.92633057,-0.099731445,-0.32867432,-0.041992188,-0.041015625,0.016601562,3.6052718,12.507046,-1.3963976,-16.441439,1.0076904,-0.097473145,-0.15557861,-0.078125,0.115234375,0.06542969,2.590499,11.821546,-58.391365,-15.353593,-0.40460205,0.08557129,0.90148926,-0.016601562,0.009765625,0.00390625,7.970211,11.682209,-130.19485,-9.888788,0.0,0.0,0.0,0.0,0.0,0.0,0.0,14.569807,-129.89095,9.899481,0.0,0.0,0.0,0.0,0.0,0.0,0.0,3.3394914,44.862087,-1.269849,
0.9179687363211998,47,-0.13336182,0.7862549,0.4840088,-0.022460938,-0.013671875,0.01171875,0.0,0.0,0.0,0.0,0.0,0.0,0.0,0.0,0.0,0.0,0.0,-0.60365474,0.06771776,0.794518,-0.9647217,0.096069336,-0.06982422,-0.00390625,0.0029296875,0.0146484375,0.34378096,-12.497524,1.4019675,16.448986,0.94970703,-0.116760254,-0.3143921,-0.049804688,0.0546875,0.03515625,3.602501,-17.065525,-55.3953,18.16826,-0.6565552,0.0043945312,0.75860596,0.0068359375,0.005859375,0.0,9.749977,-20.156147,-127.3187,16.503824,0.0,0.0,0.0,0.0,0.0,0.0,0.0,-12.041623,-128.1384,34.76603,0.0,0.0,0.0,0.0,0.0,0.0,0.0,0.60365474,-0.06771776,-0.794518,-0.9224243,-0.033325195,-0.28399658,0.034179688,0.034179688,0.037109375,3.6364195,12.497524,-1.4019675,-16.448986,0.9837036,-0.10412598,-0.15600586,-0.11621094,0.09667969,0.06640625,2.6052666,11.831627,-58.393288,-15.351846,-0.39752197,0.07928467,0.91918945,-0.017578125,-0.028320312,-0.015625,8.010698,11.84351,-130.19745,-9.866364,0.0,0.0,0.0,0.0,0.0,0.0,0.0,14.735684,-129.89775,9.92193,0.0,0.0,0.0,0.0,0.0,0.0,0.0,3.3485045,44.862495,-1.2795768,
0.9374999860301615,48,-0.12432861,0.7869873,0.48376465,0.017578125,0.024414062,0.047851562,0.0,0.0,0.0,0.0,0.0,0.0,0.0,0.0,0.0,0.0,0.0,-0.6043949,0.067575455,0.7940194,-0.9840088,0.08288574,-0.08001709,-0.041015625,0.041015625,0.034179688,0.37690488,-12.512848,1.3990215,16.438663,0.9481201,-0.13623047,-0.33044434,-0.01171875,0.03515625,0.055664062,3.5996735,-17.062628,-55.394547,18.207647,-0.66503906,-0.020996094,0.7597046,0.0068359375,-0.0126953125,-0.018554688,9.815762,-20.224617,-127.31897,16.56946,0.0,0.0,0.0,0.0,0.0,0.0,0.0,-12.104891,-128.13705,34.827602,0.0,0.0,0.0,0.0,0.0,0.0,0.0,0.6043949,-0.067575455,-0.7940194,-0.95288086,-0.05633545,-0.28118896,-0.041992188,0.055664062,0.038085938,3.5952647,12.512848,-1.3990215,-16.438663,1.0187378,-0.0836792,-0.15289307,-0.0390625,0.095703125,0.06542969,2.5500615,11.853126,-58.39054,-15.279556,-0.42297363,0.093933105,0.89764404,0.001953125,-0.009765625,0.00390625,8.021302,11.9118185,-130.1937,-9.79023,0.0,0.0,0.0,0.0,0.0,0.0,0.0,14.816277,-129.88646,9.996309,0.0,0.0,0.0,0.0,0.0,0.0,0.0,3.3160317,44.866356,-1.2942655,
0.9570312357391232,49,-0.14813232,0.76989746,0.5071411,-0.061523438,-0.01171875,0.03125,0.0,0.0,0.0,0.0,0.0,0.0,0.0,0.0,0.0,0.0,0.0,-0.604814,0.06810763,0.7935908,-0.9749756,0.083496094,-0.06707764,-0.022460938,0.041015625,0.052734375,0.35936466,-12.521523,1.410039,16.42979,0.9529419,-0.11206055,-0.30047607,-0.049804688,0.03515625,0.0546875,3.5864863,-17.074707,-55.38257,18.20275,-0.65289307,-0.0154418945,0.765625,-0.01171875,-0.0126953125,-0.018554688,9.839411,-20.253067,-127.31171,16.581396,0.0,0.0,0.0,0.0,0.0,0.0,0.0,-12.131582,-128.12117,34.84005,0.0,0.0,0.0,0.0,0.0,0.0,0.0,0.604814,-0.06810763,-0.7935908,-0.9466553,-0.040161133,-0.3076172,-0.11816406,0.01953125,-0.001953125,3.6199596,12.521523,-1.410039,-16.42979,0.98413086,-0.10308838,-0.12841797,-0.13574219,0.09765625,0.06640625,2.5544326,11.875942,-58.396317,-15.230072,-0.4128418,0.08959961,0.9163208,-0.016601562,0.009765625,0.00390625,7.975874,12.100681,-130.19443,-9.703159,0.0,0.0,0.0,0.0,0.0,0.0,0.0,15.016676,-129.88281,10.081766,0.0,0.0,0.0,0.0,0.0,0.0,0.0,3.325703,44.862732,-1.3156178,
0.9765624854480849,50,-0.12597656,0.79815674,0.51379395,-9.765625E-4,0.043945312,0.047851562,0.0,0.0,0.0,0.0,0.0,0.0,0.0,0.0,0.0,0.0,0.0,-0.6057607,0.068251625,0.792902,-0.98101807,0.09039307,-0.06793213,-0.041015625,0.0029296875,0.0146484375,0.36099443,-12.541124,1.4130203,16.415531,0.96362305,-0.12615967,-0.3145752,-0.01171875,0.053710938,0.0546875,3.613734,-17.072794,-55.380344,18.233967,-0.6639404,-0.015075684,0.76068115,-0.01171875,-0.01171875,0.0,9.901965,-20.235073,-127.3073,16.628386,0.0,0.0,0.0,0.0,0.0,0.0,0.0,-12.116128,-128.1135,34.887917,0.0,0.0,0.0,0.0,0.0,0.0,0.0,0.6057607,-0.068251625,-0.792902,-0.93774414,-0.048828125,-0.2791748,0.03515625,0.034179688,0.016601562,3.6337802,12.541124,-1.4130203,-16.415531,1.0056152,-0.11743164,-0.1494751,-0.11621094,0.059570312,0.029296875,2.5583377,11.919085,-58.403095,-15.20982,-0.40045166,0.09741211,0.90740967,-0.016601562,-0.0087890625,-0.015625,8.079681,12.244692,-130.19437,-9.682837,0.0,0.0,0.0,0.0,0.0,0.0,0.0,15.167798,-129.8753,10.101208,0.0,0.0,0.0,0.0,0.0,0.0,0.0,3.3171687,44.864655,-1.3276234,
0.9960937351570466,51,-0.12902832,0.7703247,0.50164795,0.017578125,0.025390625,0.083984375,0.0,0.0,0.0,0.0,0.0,0.0,0.0,0.0,0.0,0.0,0.0,-0.60562164,0.06813822,0.792918,-0.99017334,0.08465576,-0.06707764,-0.060546875,0.0029296875,0.0146484375,0.35387784,-12.538243,1.4106724,16.415861,0.94555664,-0.12249756,-0.30841064,-0.030273438,0.0546875,0.0546875,3.612379,-17.055355,-55.381985,18.248959,-0.64746094,0.0032348633,0.7418213,-0.01171875,-0.01171875,0.018554688,9.9132395,-20.214598,-127.30531,16.657549,0.0,0.0,0.0,0.0,0.0,0.0,0.0,-12.099541,-128.10808,34.919907,0.0,0.0,0.0,0.0,0.0,0.0,0.0,0.60562164,-0.06813822,-0.792918,-0.9700928,-0.06719971,-0.30285645,0.015625,0.07421875,0.016601562,3.6259046,12.538243,-1.4106724,-16.415861,1.015686,-0.10559082,-0.14678955,0.0,0.057617188,0.046875,2.5270069,11.90847,-58.400585,-15.175941,-0.38928223,0.09112549,0.91918945,-0.016601562,0.009765625,0.022460938,8.068034,12.237318,-130.19592,-9.648196,0.0,0.0,0.0,0.0,0.0,0.0,0.0,15.151359,-129.86917,10.1376295,0.0,0.0,0.0,0.0,0.0,0.0,0.0,3.3214014,44.861042,-1.3182182,
1.0156249848660084,52,-0.13708496,0.80041504,0.5130615,-9.765625E-4,0.044921875,0.06640625,0.0,0.0,0.0,0.0,0.0,0.0,0.0,0.0,0.0,0.0,0.0,-0.6046844,0.06845177,0.7936567,-0.98724365,0.07293701,-0.066223145,-0.041015625,0.0029296875,0.033203125,0.33102235,-12.518845,1.417164,16.431154,0.9674072,-0.137146,-0.30267334,0.0068359375,0.053710938,0.055664062,3.5903056,-17.043875,-55.378002,18.251165,-0.6608887,-0.017028809,0.73791504,-0.01171875,-0.01171875,0.0,9.892865,-20.181295,-127.30643,16.6855,0.0,0.0,0.0,0.0,0.0,0.0,0.0,-12.065167,-128.11159,34.946667,0.0,0.0,0.0,0.0,0.0,0.0,0.0,0.6046844,-0.06845177,-0.7936567,-0.96191406,-0.05432129,-0.31652832,-0.15625,9.765625E-4,-0.001953125,3.6561272,12.518845,-1.417164,-16.431154,1.0133057,-0.099609375,-0.1763916,-0.057617188,0.040039062,0.06640625,2.4749625,11.898786,-58.404507,-15.171839,-0.4312744,0.09295654,0.9144287,-0.016601562,-0.009765625,0.022460938,7.9785566,12.240131,-130.20749,-9.684993,0.0,0.0,0.0,0.0,0.0,0.0,0.0,15.169448,-129.883,10.097566,0.0,0.0,0.0,0.0,0.0,0.0,0.0,3.3387184,44.86136,-1.3254702,
1.03515623457497,53,-0.10784912,0.80267334,0.5123291,-0.059570312,0.06542969,0.068359375,0.0,0.0,0.0,0.0,0.0,0.0,0.0,0.0,0.0,0.0,0.0,-0.6044318,0.0684773,0.7938776,-0.9812012,0.08807373,-0.045043945,-0.07910156,0.021484375,0.033203125,0.29936147,-12.513614,1.4176927,16.43573,0.965271,-0.10571289,-0.30255127,-0.0126953125,0.036132812,0.017578125,3.6118374,-16.992884,-55.38055,18.28429,-0.64849854,0.0012207031,0.7477417,0.0068359375,-0.0126953125,0.0,9.880016,-20.075487,-127.31384,16.725426,0.0,0.0,0.0,0.0,0.0,0.0,0.0,-11.961537,-128.11667,34.986244,0.0,0.0,0.0,0.0,0.0,0.0,0.0,0.6044318,-0.0684773,-0.7938776,-0.93084717,-0.061462402,-0.28710938,-0.11816406,-0.01953125,-0.022460938,3.6539304,12.513614,-1.4176927,-16.43573,1.0233154,-0.089782715,-0.17565918,-0.07714844,0.059570312,0.06640625,2.4165416,11.883642,-58.408092,-15.162739,-0.40667725,0.081604004,0.90448,0.001953125,-0.028320312,0.00390625,8.016676,12.214205,-130.21342,-9.732983,0.0,0.0,0.0,0.0,0.0,0.0,0.0,15.146269,-129.88492,10.04969,0.0,0.0,0.0,0.0,0.0,0.0,0.0,3.3465707,44.861988,-1.3216825,
1.0546874842839318,54,-0.13201904,0.77441406,0.5067749,0.01953125,0.06347656,0.06640625,0.0,0.0,0.0,0.0,0.0,0.0,0.0,0.0,0.0,0.0,0.0,-0.6049935,0.06840192,0.79346925,-0.9841919,0.088256836,-0.05102539,-0.060546875,0.0029296875,0.033203125,0.25256422,-12.525242,1.4161317,16.427273,0.96606445,-0.11657715,-0.28363037,0.0068359375,0.053710938,0.036132812,3.587305,-16.946638,-55.38671,18.26732,-0.66467285,-0.005126953,0.73986816,-0.01171875,-0.030273438,0.0,9.863283,-19.986555,-127.31554,16.72079,0.0,0.0,0.0,0.0,0.0,0.0,0.0,-11.866768,-128.1243,34.980133,0.0,0.0,0.0,0.0,0.0,0.0,0.0,0.6049935,-0.06840192,-0.79346925,-0.9310303,-0.0736084,-0.31079102,0.015625,0.1328125,0.016601562,3.5994017,12.525242,-1.4161317,-16.427273,1.0031128,-0.0914917,-0.19403076,-0.05859375,0.095703125,0.046875,2.4632301,11.827682,-58.40585,-15.170001,-0.4128418,0.09448242,0.92614746,-0.017578125,-0.028320312,0.041015625,8.005551,12.138794,-130.2043,-9.714863,0.0,0.0,0.0,0.0,0.0,0.0,0.0,15.079939,-129.87326,10.065632,0.0,0.0,0.0,0.0,0.0,0.0,0.0,3.3569999,44.86208,-1.3077871,
1.0742187339928935,55,-0.1383667,0.7883911,0.48913574,-0.020507812,0.06347656,0.048828125,0.0,0.0,0.0,0.0,0.0,0.0,0.0,0.0,0.0,0.0,0.0,-0.6050981,0.06804381,0.7934469,-0.986084,0.078063965,-0.08306885,-0.07910156,0.022460938,0.0146484375,0.25410897,-12.527409,1.408718,16.426811,0.9605713,-0.13000488,-0.29663086,0.005859375,0.0546875,0.017578125,3.582061,-16.920666,-55.393017,18.26596,-0.65252686,0.0033569336,0.7477417,0.0068359375,-0.0126953125,0.0,9.868785,-19.968536,-127.322296,16.710018,0.0,0.0,0.0,0.0,0.0,0.0,0.0,-11.851255,-128.13301,34.96953,0.0,0.0,0.0,0.0,0.0,0.0,0.0,0.6050981,-0.06804381,-0.7934469,-0.9338989,-0.06347656,-0.32348633,-0.041992188,0.07519531,0.017578125,3.4667878,12.527409,-1.408718,-16.426811,1.015625,-0.10656738,-0.14971924,-0.0390625,0.040039062,0.028320312,2.5293293,11.726124,-58.396053,-15.191336,-0.409729,0.09753418,0.9182739,0.001953125,-0.047851562,-0.015625,7.9994674,12.0736,-130.20299,-9.718924,0.0,0.0,0.0,0.0,0.0,0.0,0.0,15.008255,-129.86932,10.063114,0.0,0.0,0.0,0.0,0.0,0.0,0.0,3.332308,44.86492,-1.3062084,
1.0937499837018552,56,-0.13018799,0.77130127,0.49176025,-0.040039062,0.045898438,0.0859375,0.0,0.0,0.0,0.0,0.0,0.0,0.0,0.0,0.0,0.0,0.0,-0.605098,0.067964315,0.7933694,-0.98431396,0.0947876,-0.03503418,-0.09765625,0.0029296875,0.033203125,0.24228337,-12.527408,1.4070721,16.425207,0.95825195,-0.10241699,-0.30944824,-0.0126953125,0.0546875,0.036132812,3.5935218,-16.880833,-55.400406,18.273735,-0.664978,-0.020874023,0.7399292,-0.01171875,0.005859375,0.0,9.892607,-19.895857,-127.330734,16.708548,0.0,0.0,0.0,0.0,0.0,0.0,0.0,-11.789103,-128.14398,34.973923,0.0,0.0,0.0,0.0,0.0,0.0,0.0,0.605098,-0.067964315,-0.7933694,-0.9217529,-0.05822754,-0.3470459,-0.13769531,0.01953125,0.018554688,3.4420197,12.527408,-1.4070721,-16.425207,1.0143433,-0.10058594,-0.17443848,-0.09667969,0.059570312,0.06640625,2.4668827,11.700961,-58.389137,-15.1562195,-0.40551758,0.09362793,0.8945923,0.001953125,0.009765625,0.022460938,8.046105,12.048162,-130.1974,-9.731584,0.0,0.0,0.0,0.0,0.0,0.0,0.0,14.977073,-129.85793,10.051843,0.0,0.0,0.0,0.0,0.0,0.0,0.0,3.336408,44.861816,-1.298448,
1.1132812334108169,57,-0.15167236,0.80163574,0.48065186,-0.040039062,0.064453125,0.06738281,0.0,0.0,0.0,0.0,0.0,0.0,0.0,0.0,0.0,0.0,0.0,-0.60608727,0.06773724,0.7925962,-0.9729004,0.09222412,-0.067871094,-0.060546875,0.0029296875,0.033203125,0.24469422,-12.547887,1.4023709,16.409199,0.9688721,-0.121520996,-0.3106079,-0.032226562,0.036132812,0.016601562,3.5881233,-16.870104,-55.40812,18.262108,-0.65667725,-0.009277344,0.7329712,-0.01171875,0.024414062,0.018554688,9.844186,-19.888754,-127.33543,16.694012,0.0,0.0,0.0,0.0,0.0,0.0,0.0,-11.770682,-128.15077,34.953087,0.0,0.0,0.0,0.0,0.0,0.0,0.0,0.60608727,-0.06773724,-0.7925962,-0.95513916,-0.075927734,-0.317688,-0.11816406,0.0390625,0.018554688,3.4050183,12.547887,-1.4023709,-16.409199,0.99487305,-0.08135986,-0.15441895,0.01953125,0.057617188,0.06542969,2.4446456,11.707257,-58.3843,-15.132881,-0.40856934,0.119384766,0.9251709,-0.017578125,-0.047851562,0.022460938,7.9805493,12.064455,-130.19183,-9.735867,0.0,0.0,0.0,0.0,0.0,0.0,0.0,15.008357,-129.84656,10.044348,0.0,0.0,0.0,0.0,0.0,0.0,0.0,3.319261,44.86184,-1.2958117,
1.1328124831197786,58,-0.14849854,0.7946167,0.49047852,-0.040039062,0.045898438,0.06738281,0.0,0.0,0.0,0.0,0.0,0.0,0.0,0.0,0.0,0.0,0.0,-0.607067,0.06721097,0.79192764,-0.98223877,0.082336426,-0.0491333,-0.022460938,0.022460938,0.0146484375,0.26466992,-12.568169,1.3914754,16.395357,0.9423828,-0.1282959,-0.30340576,-0.0126953125,0.0546875,0.016601562,3.5592499,-16.863174,-55.421055,18.255459,-0.66186523,-0.015991211,0.7359619,-0.01171875,-0.01171875,0.0,9.818245,-19.91932,-127.35336,16.70948,0.0,0.0,0.0,0.0,0.0,0.0,0.0,-11.790523,-128.17004,34.964485,0.0,0.0,0.0,0.0,0.0,0.0,0.0,0.607067,-0.06721097,-0.79192764,-0.93536377,-0.09918213,-0.30413818,-0.080078125,0.018554688,0.017578125,3.3914793,12.568169,-1.3914754,-16.395357,1.0235596,-0.0927124,-0.16082764,0.0,0.057617188,0.046875,2.450084,11.754771,-58.37895,-15.149622,-0.39648438,0.07733154,0.9093628,0.001953125,-0.009765625,0.022460938,7.9188666,12.111534,-130.1864,-9.773619,0.0,0.0,0.0,0.0,0.0,0.0,0.0,15.07226,-129.84355,10.003294,0.0,0.0,0.0,0.0,0.0,0.0,0.0,3.2851322,44.86585,-1.2894888,
1.1523437328287403,59,-0.1385498,0.7883301,0.47821045,-0.020507812,0.044921875,0.06738281,0.0,0.0,0.0,0.0,0.0,0.0,0.0,0.0,0.0,0.0,0.0,-0.6077819,0.06758326,0.79142565,-0.97210693,0.07928467,-0.051208496,-0.07910156,0.0029296875,0.033203125,0.23573397,-12.58297,1.399183,16.384964,0.9491577,-0.10412598,-0.2814331,0.0068359375,0.053710938,0.055664062,3.5781236,-16.830482,-55.414825,18.267159,-0.67333984,0.018737793,0.7496948,0.0068359375,-0.0126953125,-0.018554688,9.825852,-19.881538,-127.34903,16.706728,0.0,0.0,0.0,0.0,0.0,0.0,0.0,-11.752382,-128.16666,34.96051,0.0,0.0,0.0,0.0,0.0,0.0,0.0,0.6077819,-0.06758326,-0.79142565,-0.9246826,-0.05053711,-0.3411255,-0.099609375,-0.020507812,-0.0029296875,3.3780017,12.58297,-1.399183,-16.384964,1.0075073,-0.09753418,-0.16644287,-0.15527344,0.060546875,0.047851562,2.3645506,11.77499,-58.386982,-15.141271,-0.421875,0.11773682,0.91534424,0.001953125,-0.028320312,0.00390625,7.9312763,12.1156,-130.20114,-9.872214,0.0,0.0,0.0,0.0,0.0,0.0,0.0,15.092372,-129.85161,9.902806,0.0,0.0,0.0,0.0,0.0,0.0,0.0,3.2661183,44.869038,-1.3233192,
1.171874982537702,60,-0.13250732,0.7841797,0.47601318,0.01953125,0.06347656,0.06640625,0.0,0.0,0.0,0.0,0.0,0.0,0.0,0.0,0.0,0.0,0.0,-0.6079757,0.06768126,0.79127353,-0.9680176,0.08026123,-0.05316162,-0.060546875,0.0029296875,0.033203125,0.22641939,-12.586982,1.4012121,16.381815,0.9645386,-0.13110352,-0.31359863,0.0068359375,0.07324219,0.036132812,3.6030986,-16.762547,-55.416363,18.298698,-0.66882324,-0.0119018555,0.7458496,0.0078125,-0.030273438,0.0,9.868207,-19.819355,-127.34332,16.721643,0.0,0.0,0.0,0.0,0.0,0.0,0.0,-11.695831,-128.15887,34.9787,0.0,0.0,0.0,0.0,0.0,0.0,0.0,0.6079757,-0.06768126,-0.79127353,-0.90802,-0.08343506,-0.32763672,-0.080078125,0.07714844,-0.0029296875,3.3356001,12.586982,-1.4012121,-16.381815,1.0,-0.09234619,-0.13867188,-0.13574219,0.060546875,0.06640625,2.2995057,11.754322,-58.390034,-15.157516,-0.40057373,0.08129883,0.9212036,0.0029296875,0.009765625,0.00390625,8.044203,12.108069,-130.21233,-10.011522,0.0,0.0,0.0,0.0,0.0,0.0,0.0,15.087878,-129.85661,9.763153,0.0,0.0,0.0,0.0,0.0,0.0,0.0,3.2471344,44.870018,-1.3430004,
1.1914062322466636,61,-0.14245605,0.8183594,0.49645996,0.01953125,0.08300781,0.08496094,0.0,0.0,0.0,0.0,0.0,0.0,0.0,0.0,0.0,0.0,0.0,-0.60924095,0.0675196,0.7903114,-0.97320557,0.070495605,-0.049316406,-0.07910156,0.0029296875,0.0146484375,0.18130822,-12.613175,1.3978648,16.361897,0.9550781,-0.11126709,-0.27954102,-0.049804688,0.0546875,0.053710938,3.5743458,-16.75036,-55.424313,18.237782,-0.6413574,0.006958008,0.7418213,-0.01171875,-0.01171875,0.018554688,9.855366,-19.763767,-127.3522,16.645538,0.0,0.0,0.0,0.0,0.0,0.0,0.0,-11.64382,-128.1673,34.903954,0.0,0.0,0.0,0.0,0.0,0.0,0.0,0.60924095,-0.0675196,-0.7903114,-0.9137573,-0.05883789,-0.32940674,0.015625,0.1328125,0.016601562,3.197268,12.613175,-1.3978648,-16.361897,1.0075073,-0.08154297,-0.17242432,-0.0390625,0.095703125,0.06542969,2.407453,11.6538725,-58.38397,-15.19611,-0.4015503,0.09338379,0.9152832,0.001953125,-0.047851562,-0.015625,8.046691,12.022238,-130.21149,-10.040726,0.0,0.0,0.0,0.0,0.0,0.0,0.0,15.020514,-129.85301,9.731056,0.0,0.0,0.0,0.0,0.0,0.0,0.0,3.229755,44.87117,-1.3437546,
1.2109374819556253,62,-0.13952637,0.7893677,0.4772339,-0.059570312,0.06640625,0.10449219,0.0,0.0,0.0,0.0,0.0,0.0,0.0,0.0,0.0,0.0,0.0,-0.6094134,0.06741459,0.7901923,-0.9893799,0.06317139,-0.062438965,-0.060546875,0.0029296875,0.0146484375,0.18451747,-12.616746,1.3956912,16.35943,0.9689331,-0.11755371,-0.30963135,-0.0126953125,0.03515625,0.036132812,3.588942,-16.719156,-55.432243,18.236431,-0.6618042,-0.011169434,0.74780273,-0.01171875,0.005859375,0.0,9.786471,-19.715788,-127.36342,16.619255,0.0,0.0,0.0,0.0,0.0,0.0,0.0,-11.593086,-128.16913,34.877453,0.0,0.0,0.0,0.0,0.0,0.0,0.0,0.6094134,-0.06741459,-0.7901923,-0.92407227,-0.08117676,-0.32855225,-0.041992188,0.037109375,-0.0234375,3.2025294,12.616746,-1.3956912,-16.35943,1.0115356,-0.093566895,-0.16357422,-0.09667969,0.059570312,0.06640625,2.4057453,11.659835,-58.38363,-15.222292,-0.41381836,0.09466553,0.9104004,0.001953125,0.009765625,0.022460938,8.0693245,12.048679,-130.21082,-10.112026,0.0,0.0,0.0,0.0,0.0,0.0,0.0,15.044667,-129.84512,9.65955,0.0,0.0,0.0,0.0,0.0,0.0,0.0,3.2290957,44.871567,-1.337832,
1.230468731664587,63,-0.14202881,0.77874756,0.5140381,-0.080078125,0.028320312,0.10449219,0.0,0.0,0.0,0.0,0.0,0.0,0.0,0.0,0.0,0.0,0.0,-0.609653,0.06748504,0.7898984,-0.9873657,0.062194824,-0.064453125,-0.00390625,0.022460938,0.0146484375,0.23490246,-12.621708,1.3971497,16.353344,0.95098877,-0.11004639,-0.30041504,-0.03125,0.03515625,0.036132812,3.5699608,-16.674177,-55.430447,18.246817,-0.6427002,-0.009765625,0.74676514,0.0068359375,0.0048828125,-0.018554688,9.754473,-19.672445,-127.364075,16.656696,0.0,0.0,0.0,0.0,0.0,0.0,0.0,-11.5413265,-128.16768,34.91069,0.0,0.0,0.0,0.0,0.0,0.0,0.0,0.609653,-0.06748504,-0.7898984,-0.93573,-0.05316162,-0.34405518,-0.11816406,0.078125,-0.001953125,3.1857357,12.621708,-1.3971497,-16.353344,1.0214233,-0.10870361,-0.16070557,-0.078125,0.115234375,0.028320312,2.4305134,11.62171,-58.3806,-15.187061,-0.4066162,0.09753418,0.9104004,0.001953125,-0.009765625,0.041015625,8.065845,12.088233,-130.20786,-10.059468,0.0,0.0,0.0,0.0,0.0,0.0,0.0,15.086643,-129.83585,9.710727,0.0,0.0,0.0,0.0,0.0,0.0,0.0,3.2565544,44.866447,-1.3197217,
1.2499999813735487,64,-0.11126709,0.8175049,0.48864746,-0.07910156,0.046875,0.08691406,0.0,0.0,0.0,0.0,0.0,0.0,0.0,0.0,0.0,0.0,0.0,-0.6114875,0.06693192,0.788556,-0.98010254,0.08929443,-0.05999756,-0.00390625,0.0029296875,0.033203125,0.3753442,-12.659686,1.3856982,16.325554,0.95336914,-0.13464355,-0.29656982,0.0068359375,0.053710938,0.055664062,3.5840287,-16.66927,-55.444523,18.2623,-0.6647949,-0.011047363,0.744812,-0.01171875,-0.01171875,0.0,9.72969,-19.64369,-127.37685,16.700434,0.0,0.0,0.0,0.0,0.0,0.0,0.0,-11.503675,-128.18,34.95126,0.0,0.0,0.0,0.0,0.0,0.0,0.0,0.6114875,-0.06693192,-0.788556,-0.8966675,-0.058166504,-0.3303833,-0.07910156,0.15527344,-0.0029296875,3.0709667,12.659686,-1.3856982,-16.325554,0.9918213,-0.115234375,-0.14031982,-9.765625E-4,0.11328125,0.02734375,2.5698647,11.516484,-58.371918,-15.168433,-0.38098145,0.09698486,0.91619873,-0.015625,0.029296875,-0.015625,8.039833,12.068923,-130.18945,-9.984987,0.0,0.0,0.0,0.0,0.0,0.0,0.0,15.077627,-129.80495,9.784689,0.0,0.0,0.0,0.0,0.0,0.0,0.0,3.2862918,44.867058,-1.259913,
1.2695312310825104,65,-0.12231445,0.8237915,0.49395752,-0.09863281,0.06640625,0.08691406,0.0,0.0,0.0,0.0,0.0,0.0,0.0,0.0,0.0,0.0,0.0,-0.6128229,0.06691964,0.7875611,-0.9798584,0.09454346,-0.08282471,-0.060546875,0.0029296875,0.033203125,0.47271237,-12.687333,1.3854439,16.304958,0.97924805,-0.11212158,-0.3116455,-0.01171875,0.053710938,0.0546875,3.6055975,-16.652529,-55.446606,18.267908,-0.6447754,-0.01373291,0.758667,-0.01171875,-0.01171875,0.0,9.722251,-19.61753,-127.37735,16.698093,0.0,0.0,0.0,0.0,0.0,0.0,0.0,-11.4754095,-128.18008,34.947247,0.0,0.0,0.0,0.0,0.0,0.0,0.0,0.6128229,-0.06691964,-0.7875611,-0.93011475,-0.079956055,-0.3324585,-0.09863281,0.09667969,-0.001953125,2.9830127,12.687333,-1.3854439,-16.304958,0.9984741,-0.08843994,-0.17614746,0.037109375,0.13183594,0.0078125,2.7131763,11.418522,-58.364864,-15.160632,-0.41680908,0.101745605,0.90844727,0.001953125,-0.009765625,0.00390625,7.9981422,12.063971,-130.1822,-9.925609,0.0,0.0,0.0,0.0,0.0,0.0,0.0,15.09308,-129.7876,9.841128,0.0,0.0,0.0,0.0,0.0,0.0,0.0,3.3187037,44.866978,-1.2300053,
1.2890624807914721,66,-0.11047363,0.8074341,0.46966553,-0.040039062,0.064453125,0.06738281,0.0,0.0,0.0,0.0,0.0,0.0,0.0,0.0,0.0,0.0,0.0,-0.6132102,0.06641824,0.7873149,-0.9834595,0.05706787,-0.049560547,-0.07910156,0.0029296875,0.0146484375,0.50706285,-12.695353,1.3750635,16.29986,0.96643066,-0.13409424,-0.3156128,-0.0126953125,0.03515625,0.036132812,3.5910687,-16.64061,-55.454872,18.277615,-0.66674805,-0.009033203,0.7428589,0.0068359375,-0.0126953125,0.0,9.767345,-19.629337,-127.38551,16.735003,0.0,0.0,0.0,0.0,0.0,0.0,0.0,-11.487247,-128.18303,34.984863,0.0,0.0,0.0,0.0,0.0,0.0,0.0,0.6132102,-0.06641824,-0.7873149,-0.9370117,-0.0692749,-0.3255005,-0.15625,0.040039062,-0.001953125,2.9506817,12.695353,-1.3750635,-16.29986,1.0003052,-0.0524292,-0.13696289,-0.05859375,0.095703125,0.046875,2.7924612,11.411683,-58.353447,-15.181907,-0.39849854,0.08135986,0.91033936,0.001953125,-0.009765625,-0.015625,7.912221,12.216469,-130.17133,-9.97276,0.0,0.0,0.0,0.0,0.0,0.0,0.0,15.23876,-129.77177,9.794045,0.0,0.0,0.0,0.0,0.0,0.0,0.0,3.3046088,44.868984,-1.2113309,
1.3085937305004338,67,-0.1404419,0.7755127,0.4821167,-0.059570312,0.064453125,0.049804688,0.0,0.0,0.0,0.0,0.0,0.0,0.0,0.0,0.0,0.0,0.0,-0.6138222,0.06643101,0.7868689,-0.9852905,0.069885254,-0.060302734,-0.041015625,-0.015625,0.0146484375,0.54929614,-12.708024,1.3753278,16.290625,0.963562,-0.13006592,-0.31359863,0.0068359375,0.053710938,0.036132812,3.589651,-16.61492,-55.462494,18.27509,-0.6464844,0.0059814453,0.76556396,0.0068359375,0.005859375,0.0,9.795608,-19.595533,-127.391396,16.7322,0.0,0.0,0.0,0.0,0.0,0.0,0.0,-11.460317,-128.18579,34.984024,0.0,0.0,0.0,0.0,0.0,0.0,0.0,0.6138222,-0.06643101,-0.7868689,-0.92907715,-0.079711914,-0.30395508,-0.080078125,0.038085938,-0.0234375,2.961542,12.708024,-1.3753278,-16.290625,1.0343018,-0.103881836,-0.16693115,-0.09667969,0.078125,0.06640625,2.8358657,11.4244,-58.35771,-15.165981,-0.39642334,0.086364746,0.9064331,0.0029296875,0.009765625,-0.015625,7.9346657,12.305884,-130.16942,-9.933815,0.0,0.0,0.0,0.0,0.0,0.0,0.0,15.33214,-129.77393,9.831974,0.0,0.0,0.0,0.0,0.0,0.0,0.0,3.3151455,44.86959,-1.2020075,
1.3281249802093955,68,-0.1463623,0.79559326,0.4973755,-0.07910156,0.046875,0.068359375,0.0,0.0,0.0,0.0,0.0,0.0,0.0,0.0,0.0,0.0,0.0,-0.6139194,0.06772003,0.78658783,-0.9743042,0.06365967,-0.046447754,-0.041015625,0.041015625,0.0146484375,0.55071914,-12.710036,1.4020146,16.284807,0.97039795,-0.10394287,-0.29760742,0.026367188,0.053710938,0.056640625,3.5577095,-16.575909,-55.441135,18.23278,-0.67559814,0.005004883,0.751709,-0.01171875,-0.0126953125,-0.018554688,9.772698,-19.522093,-127.38049,16.681103,0.0,0.0,0.0,0.0,0.0,0.0,0.0,-11.383889,-128.17458,34.933792,0.0,0.0,0.0,0.0,0.0,0.0,0.0,0.6139194,-0.06772003,-0.78658783,-0.9550171,-0.06384277,-0.2930298,-0.060546875,0.017578125,-0.0234375,3.1170292,12.710036,-1.4020146,-16.284807,1.0239258,-0.081726074,-0.14019775,0.018554688,0.09472656,0.064453125,2.8364868,11.514907,-58.383514,-15.162171,-0.3922119,0.10424805,0.9113159,0.001953125,-0.009765625,0.022460938,7.8688107,12.476115,-130.19235,-9.91105,0.0,0.0,0.0,0.0,0.0,0.0,0.0,15.515221,-129.79521,9.85242,0.0,0.0,0.0,0.0,0.0,0.0,0.0,3.3630505,44.861687,-1.2374874,
1.3476562299183572,69,-0.1574707,0.77801514,0.4925537,-0.119140625,0.047851562,0.087890625,0.0,0.0,0.0,0.0,0.0,0.0,0.0,0.0,0.0,0.0,0.0,-0.61389893,0.06866338,0.786608,-0.977417,0.072265625,-0.03338623,-0.060546875,0.022460938,0.0146484375,0.6501176,-12.709612,1.4215448,16.285225,0.9663086,-0.107788086,-0.28460693,-0.049804688,0.03515625,0.0546875,3.5661745,-16.521673,-55.425255,18.228176,-0.6465454,0.0030517578,0.7665405,-0.01171875,0.005859375,0.0,9.731852,-19.423586,-127.35775,16.655262,0.0,0.0,0.0,0.0,0.0,0.0,0.0,-11.284826,-128.14738,34.906433,0.0,0.0,0.0,0.0,0.0,0.0,0.0,0.61389893,-0.06866338,-0.786608,-0.91589355,-0.066833496,-0.28033447,-0.080078125,0.07714844,0.017578125,3.1918137,12.709612,-1.4215448,-16.285225,1.0256958,-0.087768555,-0.15203857,-0.0390625,0.11425781,0.06542969,2.8617704,11.511991,-58.403408,-15.130625,-0.40460205,0.09051514,0.90545654,0.001953125,0.009765625,0.022460938,7.785682,12.571216,-130.20897,-9.869148,0.0,0.0,0.0,0.0,0.0,0.0,0.0,15.616386,-129.8097,9.894014,0.0,0.0,0.0,0.0,0.0,0.0,0.0,3.427466,44.859768,-1.2409043,
1.367187479627319,70,-0.14001465,0.80651855,0.5231323,-0.11816406,0.06640625,0.05078125,0.0,0.0,0.0,0.0,0.0,0.0,0.0,0.0,0.0,0.0,0.0,-0.6140044,0.06912953,0.7864329,-0.9875488,0.07244873,-0.034362793,-0.022460938,0.022460938,0.033203125,0.79917383,-12.711795,1.4311953,16.2816,0.9659424,-0.121520996,-0.27471924,-0.06933594,0.055664062,0.034179688,3.557379,-16.468668,-55.41953,18.21252,-0.6456299,-0.0038452148,0.76257324,0.0068359375,0.0048828125,-0.018554688,9.679588,-19.320114,-127.36037,16.633484,0.0,0.0,0.0,0.0,0.0,0.0,0.0,-11.181388,-128.14478,34.88536,0.0,0.0,0.0,0.0,0.0,0.0,0.0,0.6140044,-0.06912953,-0.7864329,-0.9361572,-0.08215332,-0.31774902,-0.080078125,0.038085938,0.038085938,3.3116844,12.711795,-1.4311953,-16.2816,1.0182495,-0.06567383,-0.13226318,-0.07714844,0.059570312,0.06640625,2.8682613,11.542038,-58.412205,-15.109517,-0.3922119,0.11016846,0.9142456,0.0029296875,0.028320312,0.022460938,7.7319527,12.6792755,-130.22232,-9.845936,0.0,0.0,0.0,0.0,0.0,0.0,0.0,15.718752,-129.82372,9.918924,0.0,0.0,0.0,0.0,0.0,0.0,0.0,3.5058944,44.852825,-1.2054682,
1.3867187293362806,71,-0.13024902,0.78027344,0.4918213,-0.059570312,0.06542969,0.0859375,0.0,0.0,0.0,0.0,0.0,0.0,0.0,0.0,0.0,0.0,0.0,-0.61550444,0.06861553,0.7853198,-0.9937744,0.05303955,-0.032714844,-0.060546875,0.0029296875,0.033203125,0.89918137,-12.74285,1.4205544,16.258554,0.96643066,-0.101867676,-0.29058838,-0.03125,0.03515625,0.0546875,3.5630987,-16.414692,-55.429436,18.199198,-0.6434326,0.0059814453,0.7477417,0.0068359375,0.005859375,0.0,9.642042,-19.204374,-127.37197,16.618286,0.0,0.0,0.0,0.0,0.0,0.0,0.0,-11.06748,-128.15457,34.87108,0.0,0.0,0.0,0.0,0.0,0.0,0.0,0.61550444,-0.06861553,-0.7853198,-0.9248047,-0.06097412,-0.3126831,-0.041992188,0.056640625,-0.0029296875,3.3442755,12.74285,-1.4205544,-16.258554,1.0159302,-0.107543945,-0.13293457,-0.0390625,0.07714844,0.083984375,2.8615654,11.610569,-58.405437,-15.084532,-0.4025879,0.07946777,0.9104004,0.0029296875,0.009765625,0.00390625,7.7072144,12.743796,-130.21394,-9.792762,0.0,0.0,0.0,0.0,0.0,0.0,0.0,15.779039,-129.81546,9.9719305,0.0,0.0,0.0,0.0,0.0,0.0,0.0,3.505594,44.854294,-1.1714878,
1.4062499790452423,72,-0.13812256,0.79351807,0.51208496,-0.020507812,0.044921875,0.048828125,0.0,0.0,0.0,0.0,0.0,0.0,0.0,0.0,0.0,0.0,0.0,-0.61524606,0.068771526,0.7854993,-0.9864502,0.08111572,-0.032226562,-0.022460938,0.0029296875,0.0146484375,0.94169986,-12.737498,1.4237837,16.26227,0.9590454,-0.111328125,-0.29852295,-0.0126953125,0.015625,0.055664062,3.5465748,-16.357105,-55.433144,18.205143,-0.6576538,-0.0053710938,0.74780273,-0.01171875,0.005859375,-0.018554688,9.630087,-19.097086,-127.37858,16.645653,0.0,0.0,0.0,0.0,0.0,0.0,0.0,-10.965271,-128.15466,34.900192,0.0,0.0,0.0,0.0,0.0,0.0,0.0,0.61524606,-0.068771526,-0.7854993,-0.9623413,-0.085510254,-0.32269287,0.03515625,0.09277344,0.016601562,3.2934854,12.737498,-1.4237837,-16.26227,1.0314941,-0.11376953,-0.15100098,-0.0390625,0.05859375,0.046875,2.960352,11.548208,-58.40592,-15.125725,-0.39648438,0.08526611,0.9182129,-0.016601562,0.029296875,0.00390625,7.670842,12.686664,-130.21004,-9.783917,0.0,0.0,0.0,0.0,0.0,0.0,0.0,15.730685,-129.81117,9.979026,0.0,0.0,0.0,0.0,0.0,0.0,0.0,3.5066366,44.853645,-1.1804076,
1.425781228754204,73,-0.14904785,0.77893066,0.5181885,-0.021484375,0.025390625,0.048828125,0.0,0.0,0.0,0.0,0.0,0.0,0.0,0.0,0.0,0.0,0.0,-0.6143658,0.069600105,0.78606194,-0.994751,0.068481445,-0.024536133,-0.022460938,0.0029296875,0.0146484375,1.0214416,-12.719275,1.4409378,16.273918,0.9692993,-0.14611816,-0.28179932,-0.032226562,0.016601562,0.036132812,3.5090013,-16.26712,-55.418983,18.213312,-0.6608887,-0.015136719,0.75079346,-0.01171875,0.024414062,0.018554688,9.569367,-18.965014,-127.363976,16.688911,0.0,0.0,0.0,0.0,0.0,0.0,0.0,-10.833511,-128.13707,34.94492,0.0,0.0,0.0,0.0,0.0,0.0,0.0,0.6143658,-0.069600105,-0.78606194,-0.954895,-0.054870605,-0.29986572,-0.00390625,0.03515625,0.016601562,3.3807826,12.719275,-1.4409378,-16.273918,0.9957886,-0.11126709,-0.14434814,-0.0390625,0.05859375,0.06542969,2.9575071,11.574796,-58.422596,-15.161621,-0.3986206,0.058410645,0.91137695,-0.016601562,-0.0087890625,0.00390625,7.551461,12.760004,-130.22499,-9.848427,0.0,0.0,0.0,0.0,0.0,0.0,0.0,15.809637,-129.825,9.913919,0.0,0.0,0.0,0.0,0.0,0.0,0.0,3.5344486,44.84883,-1.208605,
1.4453124784631657,74,-0.13922119,0.772583,0.49700928,-0.061523438,-0.01171875,0.06738281,0.0,0.0,0.0,0.0,0.0,0.0,0.0,0.0,0.0,0.0,0.0,-0.61440146,0.07004881,0.78604305,-0.99224854,0.079833984,-0.068115234,-0.00390625,0.022460938,0.0146484375,1.0460497,-12.720016,1.4502275,16.27353,0.95758057,-0.12695312,-0.29858398,-0.032226562,-0.0029296875,0.036132812,3.4882388,-16.23402,-55.413185,18.221815,-0.6370239,-0.025817871,0.7675781,-0.01171875,0.024414062,0.0,9.591262,-18.950043,-127.35474,16.723364,0.0,0.0,0.0,0.0,0.0,0.0,0.0,-10.817557,-128.12706,34.97865,0.0,0.0,0.0,0.0,0.0,0.0,0.0,0.61440146,-0.07004881,-0.78604305,-0.91485596,-0.06774902,-0.3225708,-0.099609375,0.018554688,0.017578125,3.384487,12.720016,-1.4502275,-16.27353,0.9990845,-0.0803833,-0.14068604,-0.11621094,0.059570312,0.06640625,2.9248273,11.576562,-58.43253,-15.137215,-0.42907715,0.10803223,0.9016113,0.001953125,0.009765625,0.022460938,7.495488,12.775746,-130.23434,-9.852513,0.0,0.0,0.0,0.0,0.0,0.0,0.0,15.829763,-129.82513,9.910342,0.0,0.0,0.0,0.0,0.0,0.0,0.0,3.535987,44.849777,-1.2329577,
1.4648437281721274,75,-0.12402344,0.78411865,0.5036621,-0.041015625,0.026367188,0.06738281,0.0,0.0,0.0,0.0,0.0,0.0,0.0,0.0,0.0,0.0,0.0,-0.6139885,0.07053337,0.78633237,-0.9923706,0.08728027,-0.046081543,0.015625,0.041015625,0.034179688,1.0407987,-12.711466,1.4602596,16.279518,0.9454346,-0.12542725,-0.31140137,-0.05078125,-0.001953125,0.03515625,3.4786274,-16.220741,-55.40377,18.225718,-0.6694336,0.010803223,0.7408447,-0.01171875,-0.047851562,0.01953125,9.551416,-18.920494,-127.35253,16.738089,0.0,0.0,0.0,0.0,0.0,0.0,0.0,-10.786971,-128.12204,34.99289,0.0,0.0,0.0,0.0,0.0,0.0,0.0,0.6139885,-0.07053337,-0.78633237,-0.9423828,-0.094177246,-0.30212402,-0.00390625,-0.00390625,0.057617188,3.4555876,12.711466,-1.4602596,-16.279518,1.0119629,-0.07159424,-0.14892578,-0.11621094,0.078125,0.047851562,2.8780723,11.629654,-58.44535,-15.157557,-0.40045166,0.097473145,0.90545654,-0.016601562,0.009765625,0.00390625,7.560422,12.843502,-130.24896,-9.91884,0.0,0.0,0.0,0.0,0.0,0.0,0.0,15.898838,-129.83228,9.842945,0.0,0.0,0.0,0.0,0.0,0.0,0.0,3.538466,44.849186,-1.2600104,
1.484374977881089,76,-0.14147949,0.7914429,0.48425293,-0.04296875,-0.03125,0.06738281,0.0,0.0,0.0,0.0,0.0,0.0,0.0,0.0,0.0,0.0,0.0,-0.61481965,0.07063522,0.7856629,-0.9780884,0.092041016,-0.052001953,-0.00390625,0.041015625,0.034179688,1.0319242,-12.728673,1.4623679,16.26566,0.96539307,-0.09979248,-0.305542,-0.032226562,-0.001953125,0.016601562,3.5102842,-16.231218,-55.39786,18.242373,-0.67077637,-0.0040893555,0.76953125,-0.01171875,0.0234375,-0.01953125,9.588248,-18.923988,-127.34334,16.752409,0.0,0.0,0.0,0.0,0.0,0.0,0.0,-10.795787,-128.11375,35.009014,0.0,0.0,0.0,0.0,0.0,0.0,0.0,0.61481965,-0.07063522,-0.7856629,-0.9187622,-0.058898926,-0.32250977,0.053710938,0.09277344,0.037109375,3.4509952,12.728673,-1.4623679,-16.26566,1.0200195,-0.103637695,-0.12713623,-0.13476562,-0.032226562,0.068359375,2.8775961,11.658801,-58.44824,-15.147019,-0.42303467,0.09979248,0.9143677,0.001953125,-0.029296875,0.041015625,7.5126686,12.896255,-130.25836,-9.918508,0.0,0.0,0.0,0.0,0.0,0.0,0.0,15.9520445,-129.84067,9.843566,0.0,0.0,0.0,0.0,0.0,0.0,0.0,3.5227618,44.849606,-1.275481,
1.5039062275900508,77,-0.12896729,0.767395,0.5076294,-0.041992188,-0.01171875,0.048828125,0.0,0.0,0.0,0.0,0.0,0.0,0.0,0.0,0.0,0.0,0.0,-0.61525404,0.07085871,0.7852672,-0.9772949,0.06573486,-0.0513916,-0.00390625,0.07910156,0.034179688,0.9837734,-12.737666,1.4669951,16.257463,0.9807739,-0.13085938,-0.30181885,-0.049804688,0.03515625,0.0546875,3.476263,-16.256071,-55.39618,18.216269,-0.6605835,0.0025634766,0.7477417,-0.01171875,0.0234375,-0.01953125,9.5547085,-18.946037,-127.33934,16.750202,0.0,0.0,0.0,0.0,0.0,0.0,0.0,-10.809976,-128.1121,35.004128,0.0,0.0,0.0,0.0,0.0,0.0,0.0,0.61525404,-0.07085871,-0.7852672,-0.9137573,-0.06109619,-0.31762695,0.015625,0.0546875,0.037109375,3.4255984,12.737666,-1.4669951,-16.257463,1.0352173,-0.12182617,-0.16381836,-0.07714844,0.041015625,0.06640625,2.906229,11.656992,-58.45438,-15.133657,-0.3768921,0.08905029,0.8984375,0.0029296875,0.028320312,0.00390625,7.551877,12.868523,-130.26314,-9.846485,0.0,0.0,0.0,0.0,0.0,0.0,0.0,15.919854,-129.83794,9.914377,0.0,0.0,0.0,0.0,0.0,0.0,0.0,3.5082257,44.848835,-1.2982597,
1.5234374772990125,78,-0.1484375,0.791687,0.49243164,-0.04296875,-0.03125,0.048828125,0.0,0.0,0.0,0.0,0.0,0.0,0.0,0.0,0.0,0.0,0.0,-0.6151583,0.071065105,0.78530884,-0.9874878,0.07446289,-0.03930664,-0.022460938,0.041015625,0.034179688,1.0185639,-12.7356825,1.4712679,16.25833,0.9522095,-0.13653564,-0.30755615,-0.032226562,0.016601562,0.036132812,3.4533203,-16.234236,-55.392235,18.222046,-0.65789795,-0.017211914,0.75671387,-0.01171875,0.005859375,0.018554688,9.59491,-18.939602,-127.34287,16.78444,0.0,0.0,0.0,0.0,0.0,0.0,0.0,-10.814823,-128.11876,35.043964,0.0,0.0,0.0,0.0,0.0,0.0,0.0,0.6151583,-0.071065105,-0.78530884,-0.9314575,-0.03375244,-0.34100342,-0.041992188,-0.022460938,0.037109375,3.4593816,12.7356825,-1.4712679,-16.25833,0.984375,-0.09613037,-0.11657715,-0.0390625,0.040039062,0.046875,2.9091911,11.674641,-58.45918,-15.121138,-0.3963623,0.097351074,0.9093628,0.0029296875,0.009765625,-0.015625,7.4767723,12.913218,-130.26343,-9.814331,0.0,0.0,0.0,0.0,0.0,0.0,0.0,15.962635,-129.83978,9.948111,0.0,0.0,0.0,0.0,0.0,0.0,0.0,3.5207448,44.84727,-1.300457,
1.5429687270079742,79,-0.14831543,0.8036499,0.5064087,-0.0234375,-0.03125,0.047851562,0.0,0.0,0.0,0.0,0.0,0.0,0.0,0.0,0.0,0.0,0.0,-0.6141895,0.07204908,0.7860329,-0.9844971,0.072387695,-0.03540039,-0.00390625,0.0029296875,0.033203125,1.0923529,-12.715627,1.4916394,16.27332,0.95410156,-0.10522461,-0.30944824,-0.06933594,0.017578125,0.03515625,3.4495199,-16.180218,-55.37523,18.227514,-0.6368408,-0.0178833,0.75177,-0.01171875,0.024414062,0.0,9.608239,-18.890163,-127.320076,16.775257,0.0,0.0,0.0,0.0,0.0,0.0,0.0,-10.767336,-128.09346,35.03343,0.0,0.0,0.0,0.0,0.0,0.0,0.0,0.6141895,-0.07204908,-0.7860329,-0.9178467,-0.066833496,-0.31860352,-0.060546875,0.017578125,0.017578125,3.5269775,12.715627,-1.4916394,-16.27332,1.003479,-0.085510254,-0.1743164,-0.07714844,0.022460938,0.06640625,2.869285,11.662933,-58.47584,-15.1383,-0.39849854,0.08337402,0.9133301,-0.016601562,0.009765625,-0.015625,7.4989424,12.848722,-130.28421,-9.851581,0.0,0.0,0.0,0.0,0.0,0.0,0.0,15.894644,-129.85753,9.910533,0.0,0.0,0.0,0.0,0.0,0.0,0.0,3.5637677,44.845104,-1.325924,
1.5624999767169359,80,-0.1418457,0.7977295,0.5360718,-0.061523438,-0.01171875,0.048828125,0.0,0.0,0.0,0.0,0.0,0.0,0.0,0.0,0.0,0.0,0.0,-0.6143289,0.07259164,0.7858669,-0.9781494,0.0814209,-0.05810547,-0.00390625,0.0029296875,0.033203125,1.092532,-12.7185135,1.502872,16.269882,0.95703125,-0.14654541,-0.30560303,-0.013671875,-0.0029296875,0.017578125,3.4162695,-16.184013,-55.361755,18.231413,-0.65753174,0.0015869141,0.73687744,0.0068359375,0.0234375,-0.018554688,9.621794,-18.908787,-127.30878,16.827414,0.0,0.0,0.0,0.0,0.0,0.0,0.0,-10.782659,-128.08482,35.08499,0.0,0.0,0.0,0.0,0.0,0.0,0.0,0.6143289,-0.07259164,-0.7858669,-0.9382324,-0.087524414,-0.33746338,-0.041992188,0.036132812,0.017578125,3.5211995,12.7185135,-1.502872,-16.269882,1.0170898,-0.119628906,-0.17932129,-0.07714844,0.059570312,0.08496094,2.8317902,11.644213,-58.487793,-15.150564,-0.3881836,0.09716797,0.91326904,-0.016601562,-0.0087890625,0.00390625,7.497294,12.761009,-130.2944,-9.9126215,0.0,0.0,0.0,0.0,0.0,0.0,0.0,15.815872,-129.86848,9.848481,0.0,0.0,0.0,0.0,0.0,0.0,0.0,3.5697882,44.8436,-1.3516873,
1.5820312264258976,81,-0.125,0.76727295,0.5015259,-0.061523438,0.0078125,0.049804688,0.0,0.0,0.0,0.0,0.0,0.0,0.0,0.0,0.0,0.0,0.0,-0.6138091,0.07292823,0.7862508,-0.9802246,0.069885254,-0.06427002,-0.00390625,0.022460938,0.033203125,1.1113554,-12.707752,1.5098404,16.27783,0.94122314,-0.13214111,-0.3143921,-0.0126953125,0.036132812,0.017578125,3.4112227,-16.179165,-55.352634,18.238226,-0.6526489,-0.0016479492,0.7576294,0.0068359375,0.0234375,-0.018554688,9.620752,-18.92737,-127.29704,16.83545,0.0,0.0,0.0,0.0,0.0,0.0,0.0,-10.798148,-128.0719,35.090626,0.0,0.0,0.0,0.0,0.0,0.0,0.0,0.6138091,-0.07292823,-0.7862508,-0.91064453,-0.052734375,-0.3008423,-0.041992188,0.055664062,0.017578125,3.5390036,12.707752,-1.5098404,-16.27783,0.9899292,-0.10119629,-0.14331055,-0.038085938,0.021484375,0.046875,2.8482633,11.618753,-58.494038,-15.187728,-0.3963623,0.10620117,0.9211426,-0.016601562,0.009765625,0.00390625,7.515384,12.716791,-130.3008,-9.962135,0.0,0.0,0.0,0.0,0.0,0.0,0.0,15.770602,-129.86996,9.799187,0.0,0.0,0.0,0.0,0.0,0.0,0.0,3.5907915,44.84211,-1.3560494,
1.6015624761348592,82,-0.11077881,0.78186035,0.51220703,-0.041992188,0.0078125,0.06738281,0.0,0.0,0.0,0.0,0.0,0.0,0.0,0.0,0.0,0.0,0.0,-0.61378133,0.07285789,0.7862428,-0.9852295,0.07385254,-0.06524658,-0.00390625,0.041015625,0.052734375,1.1236132,-12.707175,1.5083841,16.277664,0.9649048,-0.1184082,-0.3095703,-0.06933594,0.036132812,0.034179688,3.3951142,-16.178253,-55.35773,18.209562,-0.6748657,-0.008850098,0.75671387,0.0068359375,0.0234375,0.018554688,9.665096,-18.949059,-127.304855,16.787027,0.0,0.0,0.0,0.0,0.0,0.0,0.0,-10.823727,-128.07628,35.045033,0.0,0.0,0.0,0.0,0.0,0.0,0.0,0.61378133,-0.07285789,-0.7862428,-0.9310303,-0.07385254,-0.30194092,-0.00390625,0.0546875,0.016601562,3.5470717,12.707175,-1.5083841,-16.277664,1.0177002,-0.0836792,-0.15881348,-0.057617188,0.040039062,0.046875,2.7998118,11.615735,-58.492622,-15.181114,-0.39038086,0.06915283,0.9172363,-0.016601562,-0.009765625,0.022460938,7.50726,12.674002,-130.31107,-9.995253,0.0,0.0,0.0,0.0,0.0,0.0,0.0,15.724481,-129.87834,9.766481,0.0,0.0,0.0,0.0,0.0,0.0,0.0,3.6022,44.8403,-1.3431051,
1.621093725843821,83,-0.15319824,0.80285645,0.5165405,-0.099609375,0.028320312,0.068359375,0.0,0.0,0.0,0.0,0.0,0.0,0.0,0.0,0.0,0.0,0.0,-0.61449647,0.07304453,0.7857277,-0.98602295,0.083862305,-0.08099365,0.0146484375,-0.03515625,0.033203125,1.1345319,-12.721981,1.5122482,16.267,0.9729614,-0.11669922,-0.32458496,-0.0126953125,0.016601562,0.036132812,3.4217098,-16.197979,-55.350697,18.20891,-0.67578125,-0.008666992,0.7260742,-0.01171875,0.024414062,0.0,9.667964,-19.01716,-127.295105,16.757301,0.0,0.0,0.0,0.0,0.0,0.0,0.0,-10.886658,-128.07623,35.013092,0.0,0.0,0.0,0.0,0.0,0.0,0.0,0.61449647,-0.07304453,-0.7857277,-0.94384766,-0.055114746,-0.33721924,-0.041992188,0.055664062,0.038085938,3.5578194,12.721981,-1.5122482,-16.267,1.0033569,-0.097473145,-0.1762085,-0.057617188,0.05859375,0.06640625,2.7760096,11.626788,-58.50078,-15.17491,-0.40472412,0.06951904,0.90838623,0.001953125,0.0087890625,0.041015625,7.476221,12.659417,-130.3201,-10.016733,0.0,0.0,0.0,0.0,0.0,0.0,0.0,15.716846,-129.88899,9.743725,0.0,0.0,0.0,0.0,0.0,0.0,0.0,3.6132178,44.84159,-1.3428608,
1.6406249755527826,84,-0.103637695,0.80163574,0.52716064,-0.12109375,-0.009765625,0.06933594,0.0,0.0,0.0,0.0,0.0,0.0,0.0,0.0,0.0,0.0,0.0,-0.6136968,0.074726,0.7861588,-0.9803467,0.06774902,-0.0513916,-0.041015625,0.041015625,0.052734375,1.256009,-12.705427,1.5470599,16.275925,0.96746826,-0.09790039,-0.3164673,-0.03125,0.03515625,0.036132812,3.4513924,-16.219185,-55.315594,18.220036,-0.65667725,-0.0073242188,0.7388916,0.0068359375,0.005859375,0.0,9.705148,-19.058838,-127.2551,16.734945,0.0,0.0,0.0,0.0,0.0,0.0,0.0,-10.938271,-128.0395,34.994377,0.0,0.0,0.0,0.0,0.0,0.0,0.0,0.6136968,-0.074726,-0.7861588,-0.9139404,-0.07220459,-0.30297852,-0.080078125,0.018554688,0.017578125,3.7157829,12.705427,-1.5470599,-16.275925,1.0160522,-0.081604004,-0.1350708,-0.01953125,0.040039062,0.06542969,2.7492974,11.608034,-58.53073,-15.190485,-0.42608643,0.08703613,0.89471436,0.0029296875,0.009765625,0.00390625,7.4515877,12.647961,-130.35115,-10.087306,0.0,0.0,0.0,0.0,0.0,0.0,0.0,15.704936,-129.92105,9.672864,0.0,0.0,0.0,0.0,0.0,0.0,0.0,3.7396624,44.829983,-1.3419003,
1.6601562252617443,85,-0.15332031,0.7918701,0.5064697,-0.119140625,0.028320312,0.05078125,0.0,0.0,0.0,0.0,0.0,0.0,0.0,0.0,0.0,0.0,0.0,-0.6144122,0.07569262,0.7854453,-0.9813843,0.059020996,-0.053527832,-0.041015625,0.022460938,0.033203125,1.3501669,-12.72024,1.5670719,16.261154,0.95251465,-0.12573242,-0.31445312,-0.032226562,0.016601562,0.036132812,3.45757,-16.239353,-55.29438,18.214985,-0.6484375,0.0071411133,0.7477417,-0.01171875,0.005859375,0.018554688,9.71693,-19.102436,-127.23127,16.731144,0.0,0.0,0.0,0.0,0.0,0.0,0.0,-10.982576,-128.01422,34.99054,0.0,0.0,0.0,0.0,0.0,0.0,0.0,0.6144122,-0.07569262,-0.7854453,-0.944397,-0.099365234,-0.32867432,-0.09863281,0.038085938,-0.0029296875,3.7734601,12.72024,-1.5670719,-16.261154,1.0196533,-0.0847168,-0.16082764,-0.0390625,0.040039062,0.046875,2.7433815,11.586431,-58.551506,-15.169408,-0.38824463,0.08117676,0.90734863,0.0029296875,0.028320312,0.00390625,7.462324,12.587039,-130.36902,-10.072247,0.0,0.0,0.0,0.0,0.0,0.0,0.0,15.642388,-129.93832,9.689058,0.0,0.0,0.0,0.0,0.0,0.0,0.0,3.815803,44.821587,-1.3345135,
1.679687474970706,86,-0.13220215,0.7822876,0.49591064,-0.099609375,0.028320312,0.068359375,0.0,0.0,0.0,0.0,0.0,0.0,0.0,0.0,0.0,0.0,0.0,-0.6150827,0.07652306,0.7848886,-0.9760742,0.07385254,-0.07116699,-0.022460938,0.041015625,0.0146484375,1.4604534,-12.734118,1.5842646,16.249628,0.9556885,-0.118896484,-0.32940674,-0.03125,0.016601562,0.0546875,3.4553044,-16.244526,-55.278942,18.198673,-0.6680908,-0.020935059,0.7715454,-0.01171875,0.005859375,0.018554688,9.767788,-19.146864,-127.214005,16.703754,0.0,0.0,0.0,0.0,0.0,0.0,0.0,-11.0255375,-127.99782,34.963463,0.0,0.0,0.0,0.0,0.0,0.0,0.0,0.6150827,-0.07652306,-0.7848886,-0.9317627,-0.05645752,-0.33129883,-0.041015625,0.056640625,-0.0234375,3.8848395,12.734118,-1.5842646,-16.249628,1.0193481,-0.093688965,-0.1765747,-0.11621094,0.059570312,0.0859375,2.7512903,11.607397,-58.572754,-15.212339,-0.40667725,0.09741211,0.9192505,0.001953125,0.0087890625,0.041015625,7.5179167,12.567717,-130.39688,-10.1394615,0.0,0.0,0.0,0.0,0.0,0.0,0.0,15.624547,-129.95985,9.62151,0.0,0.0,0.0,0.0,0.0,0.0,0.0,3.8944778,44.817055,-1.3175272,
1.6992187246796677,87,-0.14019775,0.7766113,0.50006104,-0.099609375,0.028320312,0.08691406,0.0,0.0,0.0,0.0,0.0,0.0,0.0,0.0,0.0,0.0,0.0,-0.61580753,0.07682998,0.7842663,-0.9985962,0.071777344,-0.04534912,-0.041015625,0.041015625,0.034179688,1.5567057,-12.7491255,1.5906187,16.236742,0.97772217,-0.12963867,-0.3217163,-0.048828125,0.03515625,0.07324219,3.421023,-16.2387,-55.27631,18.162704,-0.6503296,0.013061523,0.75268555,0.025390625,0.022460938,-0.018554688,9.748222,-19.161072,-127.213165,16.675137,0.0,0.0,0.0,0.0,0.0,0.0,0.0,-11.044081,-127.99712,34.93593,0.0,0.0,0.0,0.0,0.0,0.0,0.0,0.61580753,-0.07682998,-0.7842663,-0.9536743,-0.04046631,-0.3302002,0.015625,0.11328125,0.016601562,3.8371654,12.7491255,-1.5906187,-16.236742,1.0020142,-0.091430664,-0.13867188,-0.05859375,0.11425781,0.06542969,2.8592384,11.503502,-58.571766,-15.222761,-0.39019775,0.097229004,0.90441895,0.0029296875,0.028320312,0.041015625,7.5460544,12.4883175,-130.3894,-10.13263,0.0,0.0,0.0,0.0,0.0,0.0,0.0,15.551842,-129.9524,9.627429,0.0,0.0,0.0,0.0,0.0,0.0,0.0,3.9522555,44.812054,-1.2866552,
1.7187499743886294,88,-0.13641357,0.7793579,0.4810791,-0.09863281,0.06640625,0.08691406,0.0,0.0,0.0,0.0,0.0,0.0,0.0,0.0,0.0,0.0,0.0,-0.6172147,0.0768553,0.7831212,-0.9906006,0.06958008,-0.03741455,-0.022460938,0.041015625,0.034179688,1.659064,-12.778257,1.5911431,16.213037,0.9595947,-0.12902832,-0.28961182,-0.049804688,0.0546875,0.03515625,3.4148939,-16.24007,-55.27333,18.156734,-0.63861084,-0.005065918,0.7606201,-0.01171875,-0.047851562,0.01953125,9.785667,-19.15597,-127.21087,16.695948,0.0,0.0,0.0,0.0,0.0,0.0,0.0,-11.049542,-127.992134,34.963318,0.0,0.0,0.0,0.0,0.0,0.0,0.0,0.6172147,-0.0768553,-0.7831212,-0.9243164,-0.026062012,-0.34094238,-0.0029296875,0.07421875,0.016601562,3.7412016,12.778257,-1.5911431,-16.213037,1.0296631,-0.08782959,-0.15307617,0.0390625,0.0390625,0.045898438,2.9651754,11.376752,-58.57251,-15.23845,-0.39837646,0.093444824,0.8985596,-0.015625,0.029296875,-0.015625,7.5810547,12.338188,-130.39392,-10.157652,0.0,0.0,0.0,0.0,0.0,0.0,0.0,15.398094,-129.95717,9.603277,0.0,0.0,0.0,0.0,0.0,0.0,0.0,4.000438,44.807705,-1.244482,
1.7382812240975911,89,-0.115722656,0.7989502,0.5244751,-0.099609375,0.046875,0.05078125,0.0,0.0,0.0,0.0,0.0,0.0,0.0,0.0,0.0,0.0,0.0,-0.61747426,0.0780684,0.78293025,-0.98223877,0.090026855,-0.042053223,-0.060546875,0.022460938,0.0146484375,1.8378146,-12.783632,1.6162579,16.209084,0.9647217,-0.12524414,-0.30859375,-0.013671875,0.016601562,0.017578125,3.4034078,-16.2086,-55.25169,18.176434,-0.6494751,0.0051879883,0.7477417,0.0068359375,0.005859375,0.0,9.680462,-19.091866,-127.19034,16.758547,0.0,0.0,0.0,0.0,0.0,0.0,0.0,-10.972319,-127.9703,35.01941,0.0,0.0,0.0,0.0,0.0,0.0,0.0,0.61747426,-0.0780684,-0.78293025,-0.9466553,-0.04095459,-0.35479736,-0.11816406,0.09765625,0.0390625,3.7968428,12.783632,-1.6162579,-16.209084,1.0,-0.097351074,-0.13464355,-0.078125,0.115234375,0.046875,3.0157766,11.307158,-58.59621,-15.227944,-0.40966797,0.11932373,0.93499756,0.0029296875,0.047851562,0.022460938,7.52217,12.337962,-130.42162,-10.184902,0.0,0.0,0.0,0.0,0.0,0.0,0.0,15.391941,-129.97792,9.576683,0.0,0.0,0.0,0.0,0.0,0.0,0.0,4.107313,44.803215,-1.228149,
1.7578124738065528,90,-0.16564941,0.8000488,0.4899292,-0.059570312,0.064453125,0.049804688,0.0,0.0,0.0,0.0,0.0,0.0,0.0,0.0,0.0,0.0,0.0,-0.6172129,0.07865256,0.7829609,-0.9935913,0.08508301,-0.028198242,-0.022460938,0.022460938,0.0146484375,1.8852289,-12.778221,1.6283519,16.209717,0.9647827,-0.123291016,-0.3065796,-0.049804688,0.03515625,0.0546875,3.4287405,-16.168945,-55.239838,18.20678,-0.6608887,-0.015197754,0.7557373,0.025390625,0.022460938,-0.018554688,9.659236,-19.051086,-127.17994,16.790926,0.0,0.0,0.0,0.0,0.0,0.0,0.0,-10.928757,-127.95573,35.05086,0.0,0.0,0.0,0.0,0.0,0.0,0.0,0.6172129,-0.07865256,-0.7829609,-0.92474365,-0.053833008,-0.32543945,-0.11816406,0.01953125,-0.001953125,3.7920954,12.778221,-1.6283519,-16.209717,0.98431396,-0.09210205,-0.122558594,-0.13574219,0.041992188,0.06738281,2.9929712,11.290194,-58.603916,-15.14237,-0.39019775,0.09918213,0.90930176,-0.016601562,0.028320312,0.041015625,7.550344,12.413584,-130.42609,-10.118508,0.0,0.0,0.0,0.0,0.0,0.0,0.0,15.477245,-129.97998,9.641898,0.0,0.0,0.0,0.0,0.0,0.0,0.0,4.118551,44.79734,-1.253451,
1.7773437235155145,91,-0.14788818,0.7929077,0.53222656,-0.060546875,0.02734375,0.06738281,0.0,0.0,0.0,0.0,0.0,0.0,0.0,0.0,0.0,0.0,0.0,-0.6164146,0.07950253,0.78354126,-0.96588135,0.093811035,-0.05291748,-0.041015625,0.0029296875,0.052734375,1.9251878,-12.761694,1.6459486,16.221733,0.95526123,-0.13665771,-0.30358887,-0.051757812,0.017578125,-0.0029296875,3.4156964,-16.137608,-55.220463,18.243948,-0.6687622,-0.009887695,0.7388916,0.0068359375,0.0234375,0.0,9.655897,-19.02179,-127.1656,16.874552,0.0,0.0,0.0,0.0,0.0,0.0,0.0,-10.905506,-127.948105,35.135307,0.0,0.0,0.0,0.0,0.0,0.0,0.0,0.6164146,-0.07950253,-0.78354126,-0.9421387,-0.0803833,-0.30596924,-0.13769531,0.0,-0.001953125,3.8736837,12.761694,-1.6459486,-16.221733,1.0275269,-0.1416626,-0.13885498,-0.038085938,0.040039062,0.06640625,2.9870787,11.3260765,-58.62184,-15.111443,-0.3862915,0.07507324,0.9211426,-0.015625,0.047851562,-0.015625,7.6126223,12.393141,-130.44366,-9.940027,0.0,0.0,0.0,0.0,0.0,0.0,0.0,15.439201,-129.99388,9.821947,0.0,0.0,0.0,0.0,0.0,0.0,0.0,4.141981,44.79557,-1.286701,
1.7968749732244762,92,-0.10559082,0.763855,0.5189209,-0.119140625,0.047851562,0.06933594,0.0,0.0,0.0,0.0,0.0,0.0,0.0,0.0,0.0,0.0,0.0,-0.6151234,0.08143146,0.7843964,-0.9771118,0.0814209,-0.056152344,-0.060546875,0.041015625,0.034179688,2.0692358,-12.7349615,1.6858839,16.239437,0.93322754,-0.12890625,-0.30133057,-0.0126953125,0.03515625,0.036132812,3.4126573,-16.11906,-55.181988,18.2669,-0.65283203,-0.016296387,0.7349243,-0.01171875,0.0234375,-0.01953125,9.626288,-18.984953,-127.127884,16.910725,0.0,0.0,0.0,0.0,0.0,0.0,0.0,-10.865372,-127.913055,35.170883,0.0,0.0,0.0,0.0,0.0,0.0,0.0,0.6151234,-0.08143146,-0.7843964,-0.9378662,-0.06036377,-0.32739258,-0.11816406,0.01953125,0.018554688,4.058206,12.7349615,-1.6858839,-16.239437,1.0060425,-0.07550049,-0.14379883,0.038085938,0.057617188,0.02734375,2.9799268,11.32785,-58.66245,-15.101447,-0.39233398,0.0892334,0.9113159,-0.016601562,0.029296875,0.022460938,7.5507083,12.454276,-130.47438,-9.927395,0.0,0.0,0.0,0.0,0.0,0.0,0.0,15.507004,-130.02838,9.8337555,0.0,0.0,0.0,0.0,0.0,0.0,0.0,4.265843,44.784824,-1.3040271,
1.816406222933438,93,-0.13702393,0.79052734,0.51397705,-0.07910156,0.045898438,0.049804688,0.0,0.0,0.0,0.0,0.0,0.0,0.0,0.0,0.0,0.0,0.0,-0.61449707,0.08285271,0.784742,-0.9862671,0.07861328,-0.05718994,-0.09765625,0.059570312,0.052734375,2.2161136,-12.721995,1.715308,16.246593,0.96203613,-0.113464355,-0.2935791,0.00390625,0.016601562,-0.020507812,3.4235404,-16.103989,-55.15013,18.277954,-0.6578369,-0.011352539,0.7616577,-0.01171875,0.060546875,0.017578125,9.579079,-18.990034,-127.08731,16.911287,0.0,0.0,0.0,0.0,0.0,0.0,0.0,-10.8640585,-127.87397,35.16845,0.0,0.0,0.0,0.0,0.0,0.0,0.0,0.61449707,-0.08285271,-0.784742,-0.92071533,-0.054748535,-0.33129883,-0.041992188,0.056640625,-0.0029296875,4.210963,12.721995,-1.715308,-16.246593,1.0073853,-0.055541992,-0.13214111,-0.15332031,-0.032226562,0.10546875,2.9633923,11.325387,-58.69533,-15.100775,-0.40985107,0.07354736,0.9163208,-0.015625,0.047851562,0.00390625,7.4756703,12.494016,-130.50955,-9.968431,0.0,0.0,0.0,0.0,0.0,0.0,0.0,15.544182,-130.06874,9.79336,0.0,0.0,0.0,0.0,0.0,0.0,0.0,4.3793674,44.774166,-1.297946,
1.8359374726423996,94,-0.1274414,0.7815552,0.55249023,-0.060546875,0.026367188,0.049804688,0.0,0.0,0.0,0.0,0.0,0.0,0.0,0.0,0.0,0.0,0.0,-0.61369085,0.08324367,0.78527266,-0.979126,0.07476807,-0.064208984,-0.09765625,0.0029296875,0.0146484375,2.21629,-12.705303,1.723402,16.257578,0.97265625,-0.13146973,-0.3057251,-0.0126953125,0.03515625,0.036132812,3.4433844,-16.103142,-55.140396,18.291767,-0.6668091,-0.0071411133,0.75671387,-0.0126953125,0.059570312,-0.01953125,9.543469,-18.997887,-127.08467,16.905552,0.0,0.0,0.0,0.0,0.0,0.0,0.0,-10.868613,-127.874,35.162113,0.0,0.0,0.0,0.0,0.0,0.0,0.0,0.61369085,-0.08324367,-0.78527266,-0.94000244,-0.07110596,-0.3265381,-0.060546875,-0.001953125,-0.0029296875,4.2754426,12.705303,-1.723402,-16.257578,1.0231323,-0.10571289,-0.18048096,-0.11621094,0.041015625,0.06640625,2.9050162,11.353113,-58.701935,-15.1074705,-0.4210205,0.097717285,0.91833496,0.0029296875,0.047851562,-0.015625,7.63476,12.455856,-130.52345,-9.963102,0.0,0.0,0.0,0.0,0.0,0.0,0.0,15.513714,-130.0811,9.797245,0.0,0.0,0.0,0.0,0.0,0.0,0.0,4.3938017,44.77026,-1.3121616,
1.8554687223513613,95,-0.14025879,0.78948975,0.5001221,-0.059570312,0.045898438,0.068359375,0.0,0.0,0.0,0.0,0.0,0.0,0.0,0.0,0.0,0.0,0.0,-0.6135659,0.08345718,0.7853868,-0.99243164,0.07476807,-0.05230713,-0.1171875,0.059570312,0.052734375,2.2465503,-12.702717,1.7278225,16.259941,0.9537964,-0.11694336,-0.31048584,0.005859375,0.016601562,0.017578125,3.4630585,-16.099672,-55.141003,18.315699,-0.6738281,-0.008850098,0.75372314,0.0068359375,0.059570312,-0.01953125,9.558638,-19.027073,-127.0829,16.928951,0.0,0.0,0.0,0.0,0.0,0.0,0.0,-10.898193,-127.873764,35.184013,0.0,0.0,0.0,0.0,0.0,0.0,0.0,0.6135659,-0.08345718,-0.7853868,-0.91845703,-0.03869629,-0.34985352,-0.099609375,-0.020507812,-0.0029296875,4.2612643,12.702717,-1.7278225,-16.259941,1.0214844,-0.109680176,-0.15673828,0.01953125,0.020507812,0.046875,2.9252288,11.312004,-58.706326,-15.106405,-0.4109497,0.08532715,0.94189453,0.0029296875,0.028320312,-0.015625,7.649655,12.370751,-130.51791,-9.929344,0.0,0.0,0.0,0.0,0.0,0.0,0.0,15.430767,-130.07585,9.832008,0.0,0.0,0.0,0.0,0.0,0.0,0.0,4.4136715,44.769783,-1.3092674,
1.874999972060323,96,-0.14086914,0.77178955,0.52490234,-0.07910156,0.045898438,0.049804688,0.0,0.0,0.0,0.0,0.0,0.0,0.0,0.0,0.0,0.0,0.0,-0.6137027,0.08384198,0.7852517,-0.9894409,0.07171631,-0.049316406,-0.060546875,-0.03515625,0.033203125,2.3231316,-12.705549,1.7357888,16.257145,0.94122314,-0.13012695,-0.32537842,-0.013671875,0.016601562,-0.001953125,3.446056,-16.099077,-55.130894,18.309803,-0.6382446,0.0146484375,0.7536011,-0.049804688,0.04296875,-9.765625E-4,9.554997,-19.079115,-127.07205,16.936373,0.0,0.0,0.0,0.0,0.0,0.0,0.0,-10.939232,-127.86204,35.1866,0.0,0.0,0.0,0.0,0.0,0.0,0.0,0.6137027,-0.08384198,-0.7852517,-0.8788452,-0.078552246,-0.3511963,-0.080078125,0.057617188,-0.0234375,4.284183,12.705549,-1.7357888,-16.257145,1.0274048,-0.08880615,-0.17279053,0.01953125,0.020507812,0.06542969,2.8899503,11.272691,-58.714306,-15.0924,-0.42913818,0.090148926,0.8907471,-0.016601562,0.029296875,0.022460938,7.6052713,12.295416,-130.53815,-9.972054,0.0,0.0,0.0,0.0,0.0,0.0,0.0,15.365352,-130.10107,9.786215,0.0,0.0,0.0,0.0,0.0,0.0,0.0,4.468455,44.76543,-1.2873826,
1.8945312217692847,97,-0.1359253,0.7845459,0.5218506,-0.07910156,0.06542969,0.068359375,0.0,0.0,0.0,0.0,0.0,0.0,0.0,0.0,0.0,0.0,0.0,-0.6133477,0.08492854,0.78540754,-0.97821045,0.078430176,-0.053222656,-0.07910156,0.021484375,0.033203125,2.4197793,-12.6982,1.7582842,16.260372,0.9536743,-0.11584473,-0.3423462,-0.0126953125,0.036132812,0.017578125,3.4336476,-16.094048,-55.109013,18.290564,-0.6860962,-0.01928711,0.75476074,-0.01171875,0.024414062,0.018554688,9.5807,-19.14257,-127.03964,16.900387,0.0,0.0,0.0,0.0,0.0,0.0,0.0,-10.98481,-127.83188,35.143806,0.0,0.0,0.0,0.0,0.0,0.0,0.0,0.6133477,-0.08492854,-0.78540754,-0.92663574,-0.048095703,-0.3597412,-0.041992188,-0.001953125,-0.0029296875,4.3814607,12.6982,-1.7582842,-16.260372,1.0229492,-0.09375,-0.19836426,-0.038085938,0.021484375,0.06640625,2.8491566,11.256048,-58.735313,-15.124158,-0.41485596,0.09454346,0.9232178,-0.016601562,0.009765625,0.00390625,7.658091,12.217674,-130.55873,-10.065514,0.0,0.0,0.0,0.0,0.0,0.0,0.0,15.280539,-130.12334,9.695229,0.0,0.0,0.0,0.0,0.0,0.0,0.0,4.5498114,44.75709,-1.2866414,
1.9140624714782464,98,-0.12670898,0.7545166,0.5194092,-0.059570312,0.064453125,0.049804688,0.0,0.0,0.0,0.0,0.0,0.0,0.0,0.0,0.0,0.0,0.0,-0.6133517,0.08530718,0.7853808,-0.9801636,0.067993164,-0.06829834,-0.060546875,0.021484375,0.033203125,2.4342954,-12.698282,1.7661233,16.259817,0.9581299,-0.105285645,-0.32543945,-0.0126953125,0.036132812,0.017578125,3.454511,-16.092505,-55.10301,18.283232,-0.6605835,-3.6621094E-4,0.7457886,0.0068359375,0.0234375,0.0,9.58751,-19.187649,-127.038956,16.8548,0.0,0.0,0.0,0.0,0.0,0.0,0.0,-11.025522,-127.836266,35.096436,0.0,0.0,0.0,0.0,0.0,0.0,0.0,0.6133517,-0.08530718,-0.7853808,-0.89678955,-0.0690918,-0.32159424,-0.15625,-0.018554688,-0.001953125,4.3237276,12.698282,-1.7661233,-16.259817,1.0064697,-0.08154297,-0.17541504,-0.038085938,-0.034179688,0.047851562,2.8157768,11.181781,-58.7407,-15.110352,-0.4066162,0.109375,0.9251709,-0.016601562,0.009765625,0.041015625,7.5990763,12.109741,-130.5707,-10.140802,0.0,0.0,0.0,0.0,0.0,0.0,0.0,15.1882105,-130.13986,9.618105,0.0,0.0,0.0,0.0,0.0,0.0,0.0,4.5627527,44.75606,-1.2980218,
1.933593721187208,99,-0.1317749,0.7765503,0.5256958,-0.060546875,0.02734375,0.06738281,0.0,0.0,0.0,0.0,0.0,0.0,0.0,0.0,0.0,0.0,0.0,-0.6130648,0.08539002,0.7855549,-0.97387695,0.08746338,-0.07293701,-0.060546875,0.059570312,0.034179688,2.434376,-12.692344,1.7678379,16.263422,0.94573975,-0.11462402,-0.32037354,0.0068359375,0.03515625,0.037109375,3.4725437,-16.101934,-55.100124,18.27956,-0.6738281,-0.0107421875,0.74383545,0.0068359375,0.0048828125,-0.018554688,9.632434,-19.256968,-127.03058,16.816397,0.0,0.0,0.0,0.0,0.0,0.0,0.0,-11.091942,-127.83211,35.055935,0.0,0.0,0.0,0.0,0.0,0.0,0.0,0.6130648,-0.08539002,-0.7855549,-0.9350586,-0.074279785,-0.36193848,-0.080078125,0.057617188,0.017578125,4.2723727,12.692344,-1.7678379,-16.263422,1.0027466,-0.06951904,-0.16455078,-0.09667969,0.022460938,0.047851562,2.8037941,11.110844,-58.73893,-15.098299,-0.40679932,0.07342529,0.9212036,0.0029296875,0.009765625,-0.015625,7.573855,11.987485,-130.57513,-10.156187,0.0,0.0,0.0,0.0,0.0,0.0,0.0,15.078775,-130.14842,9.598846,0.0,0.0,0.0,0.0,0.0,0.0,0.0,4.5751486,44.753456,-1.2941624,
1.9531249708961698,100,-0.15368652,0.75335693,0.5410156,-0.09863281,0.06640625,0.06933594,0.0,0.0,0.0,0.0,0.0,0.0,0.0,0.0,0.0,0.0,0.0,-0.6127866,0.086554535,0.78560567,-0.9852295,0.07867432,-0.062194824,-0.060546875,0.059570312,0.034179688,2.4789927,-12.686581,1.7919471,16.264473,0.9537964,-0.1149292,-0.3303833,-0.01171875,0.03515625,0.055664062,3.4654887,-16.1423,-55.070244,18.269203,-0.66882324,-0.009033203,0.7557373,-0.01171875,0.005859375,0.0,9.664872,-19.334759,-126.99378,16.800667,0.0,0.0,0.0,0.0,0.0,0.0,0.0,-11.174013,-127.7934,35.041542,0.0,0.0,0.0,0.0,0.0,0.0,0.0,0.6127866,-0.086554535,-0.78560567,-0.9498291,-0.054016113,-0.3381958,-0.022460938,0.036132812,-0.00390625,4.3678946,12.686581,-1.7919471,-16.264473,1.031311,-0.109802246,-0.16485596,-0.07714844,0.00390625,0.06640625,2.809583,11.102066,-58.763767,-15.122662,-0.4169922,0.07080078,0.9055176,-0.016601562,0.009765625,0.00390625,7.558034,11.924778,-130.60155,-10.155899,0.0,0.0,0.0,0.0,0.0,0.0,0.0,15.032245,-130.17508,9.5963745,0.0,0.0,0.0,0.0,0.0,0.0,0.0,4.649339,44.744167,-1.3031445,
1.9726562206051315,101,-0.13165283,0.78656006,0.54071045,-0.07910156,0.06542969,0.068359375,0.0,0.0,0.0,0.0,0.0,0.0,0.0,0.0,0.0,0.0,0.0,-0.6123698,0.08808572,0.785758,-0.9741211,0.063964844,-0.06536865,-0.060546875,0.041015625,0.0146484375,2.5816433,-12.677951,1.8236476,16.267628,0.9487915,-0.11279297,-0.31640625,0.025390625,0.03515625,0.037109375,3.4817781,-16.16436,-55.038937,18.26838,-0.6581421,-0.03289795,0.7409668,0.0068359375,0.078125,-9.765625E-4,9.711344,-19.393476,-126.96094,16.77357,0.0,0.0,0.0,0.0,0.0,0.0,0.0,-11.235713,-127.770134,35.01568,0.0,0.0,0.0,0.0,0.0,0.0,0.0,0.6123698,-0.08808572,-0.785758,-0.92803955,-0.076049805,-0.33343506,-0.099609375,-9.765625E-4,-0.0029296875,4.5077605,12.677951,-1.8236476,-16.267628,1.0155029,-0.101623535,-0.16064453,0.0,0.0390625,0.06542969,2.8037243,11.093909,-58.796764,-15.154431,-0.4005127,0.08343506,0.90838623,0.0029296875,0.009765625,0.00390625,7.5473027,11.877632,-130.62718,-10.200459,0.0,0.0,0.0,0.0,0.0,0.0,0.0,14.986517,-130.20418,9.552986,0.0,0.0,0.0,0.0,0.0,0.0,0.0,4.75555,44.73276,-1.3084974,
1.9921874703140932,102,-0.13287354,0.76953125,0.5177002,-0.061523438,0.0087890625,0.10449219,0.0,0.0,0.0,0.0,0.0,0.0,0.0,0.0,0.0,0.0,0.0,-0.61253434,0.08859506,0.78567225,-0.98760986,0.04736328,-0.047790527,-0.059570312,0.060546875,-0.00390625,2.6012063,-12.68136,1.8341925,16.265854,0.9406128,-0.11743164,-0.30334473,-0.032226562,-0.0029296875,0.036132812,3.423426,-16.163136,-55.03144,18.188396,-0.67071533,-0.005004883,0.7487793,-0.01171875,0.005859375,0.018554688,9.677943,-19.397606,-126.9542,16.668793,0.0,0.0,0.0,0.0,0.0,0.0,0.0,-11.234495,-127.76771,34.908386,0.0,0.0,0.0,0.0,0.0,0.0,0.0,0.61253434,-0.08859506,-0.78567225,-0.9210205,-0.07733154,-0.32855225,-0.061523438,-0.001953125,0.017578125,4.517353,12.68136,-1.8341925,-16.265854,1.0073853,-0.09350586,-0.17633057,0.0390625,0.020507812,0.06542969,2.8094435,11.077743,-58.80685,-15.166323,-0.38824463,0.08111572,0.9142456,-0.016601562,0.029296875,0.00390625,7.5624204,11.851644,-130.64375,-10.232346,0.0,0.0,0.0,0.0,0.0,0.0,0.0,14.943155,-130.22466,9.523737,0.0,0.0,0.0,0.0,0.0,0.0,0.0,4.775966,44.733772,-1.3208408,
2.011718720023055,103,-0.1517334,0.7861328,0.5471802,-0.09863281,0.06640625,0.08691406,0.0,0.0,0.0,0.0,0.0,0.0,0.0,0.0,0.0,0.0,0.0,-0.6124332,0.08874595,0.78567505,-0.9812622,0.0803833,-0.049194336,-0.041015625,0.041015625,0.0146484375,2.6723964,-12.679267,1.8373164,16.265911,0.94537354,-0.12536621,-0.32537842,-0.0126953125,0.03515625,0.036132812,3.443214,-16.13854,-55.029358,18.1977,-0.64868164,-0.0075683594,0.7428589,0.0068359375,-0.0126953125,0.0,9.695458,-19.403093,-126.950035,16.662285,0.0,0.0,0.0,0.0,0.0,0.0,0.0,-11.245302,-127.76444,34.903694,0.0,0.0,0.0,0.0,0.0,0.0,0.0,0.6124332,-0.08874595,-0.78567505,-0.9038696,-0.07324219,-0.34716797,-0.099609375,-9.765625E-4,0.017578125,4.5394564,12.679267,-1.8373164,-16.265911,1.0275269,-0.09576416,-0.16088867,-0.07714844,0.041015625,0.06640625,2.7697268,11.056993,-58.81253,-15.152795,-0.409729,0.10144043,0.92614746,-0.016601562,0.009765625,0.041015625,7.476431,11.824873,-130.65192,-10.28373,0.0,0.0,0.0,0.0,0.0,0.0,0.0,14.922135,-130.23863,9.470949,0.0,0.0,0.0,0.0,0.0,0.0,0.0,4.8114367,44.728428,-1.3017895,
2.0312499697320168,104,-0.14135742,0.73620605,0.5504761,-0.060546875,0.02734375,0.0859375,0.0,0.0,0.0,0.0,0.0,0.0,0.0,0.0,0.0,0.0,0.0,-0.6126529,0.08902634,0.78544545,-0.97631836,0.06085205,-0.051513672,-0.07910156,0.021484375,0.033203125,2.773964,-12.683813,1.8431213,16.261156,0.9614868,-0.13201904,-0.29864502,-0.03125,0.03515625,0.036132812,3.4809344,-16.147287,-55.025997,18.195526,-0.64678955,-0.01361084,0.7468262,0.0068359375,-0.0126953125,-0.018554688,9.63174,-19.370613,-126.943634,16.617952,0.0,0.0,0.0,0.0,0.0,0.0,0.0,-11.219184,-127.761765,34.861656,0.0,0.0,0.0,0.0,0.0,0.0,0.0,0.6126529,-0.08902634,-0.78544545,-0.91400146,-0.07879639,-0.35211182,-0.099609375,-0.020507812,0.017578125,4.594868,12.683813,-1.8431213,-16.261156,0.9996948,-0.080444336,-0.16436768,-0.07714844,0.041015625,0.06640625,2.7588925,11.024997,-58.812992,-15.149522,-0.40161133,0.08331299,0.9221802,-0.016601562,-0.0087890625,0.00390625,7.5333796,11.724079,-130.65518,-10.280083,0.0,0.0,0.0,0.0,0.0,0.0,0.0,14.829251,-130.24799,9.474192,0.0,0.0,0.0,0.0,0.0,0.0,0.0,4.888832,44.720417,-1.2555144,
2.0507812194409785,105,-0.10974121,0.7619629,0.50805664,-0.060546875,0.02734375,0.0859375,0.0,0.0,0.0,0.0,0.0,0.0,0.0,0.0,0.0,0.0,0.0,-0.61308736,0.08917602,0.78515625,-0.98321533,0.09301758,-0.04699707,-0.060546875,0.041015625,0.034179688,2.8247306,-12.692811,1.8462204,16.255169,0.9545288,-0.12677002,-0.30950928,-0.03125,0.03515625,0.0546875,3.4913807,-16.150023,-55.015995,18.219572,-0.6546631,-0.005493164,0.7546997,-0.01171875,-0.01171875,0.0,9.606049,-19.344795,-126.936966,16.668562,0.0,0.0,0.0,0.0,0.0,0.0,0.0,-11.200036,-127.75583,34.916023,0.0,0.0,0.0,0.0,0.0,0.0,0.0,0.61308736,-0.08917602,-0.78515625,-0.921875,-0.066589355,-0.36773682,-0.080078125,-0.040039062,-0.0029296875,4.559004,12.692811,-1.8462204,-16.255169,1.0390625,-0.101989746,-0.18481445,0.0,0.020507812,0.046875,2.7829816,10.959541,-58.813404,-15.16939,-0.39227295,0.08929443,0.9024658,-0.036132812,-0.0087890625,0.022460938,7.563795,11.553091,-130.65302,-10.282885,0.0,0.0,0.0,0.0,0.0,0.0,0.0,14.667945,-130.24342,9.470203,0.0,0.0,0.0,0.0,0.0,0.0,0.0,4.919034,44.719963,-1.2381628,
2.07031246914994,106,-0.14172363,0.7758789,0.5358887,-0.060546875,0.02734375,0.06738281,0.0,0.0,0.0,0.0,0.0,0.0,0.0,0.0,0.0,0.0,0.0,-0.6130316,0.08873503,0.78525174,-0.99053955,0.06591797,-0.048461914,-0.060546875,0.021484375,0.052734375,2.877664,-12.691654,1.83709,16.257147,0.9598999,-0.11419678,-0.32147217,-0.013671875,0.016601562,0.017578125,3.509559,-16.11119,-55.03082,18.237995,-0.666687,-0.0060424805,0.7369385,0.0068359375,0.005859375,0.0,9.553763,-19.310501,-126.95668,16.683537,0.0,0.0,0.0,0.0,0.0,0.0,0.0,-11.162447,-127.77822,34.9304,0.0,0.0,0.0,0.0,0.0,0.0,0.0,0.6130316,-0.08873503,-0.78525174,-0.92614746,-0.08758545,-0.34429932,-0.0029296875,0.07421875,0.016601562,4.537471,12.691654,-1.83709,-16.257147,0.9914551,-0.066345215,-0.18902588,-0.038085938,0.021484375,0.046875,2.7884626,10.929625,-58.80847,-15.206177,-0.4015503,0.101257324,0.9310303,0.0029296875,0.009765625,-0.015625,7.5480046,11.539799,-130.65198,-10.40047,0.0,0.0,0.0,0.0,0.0,0.0,0.0,14.638257,-130.23453,9.354327,0.0,0.0,0.0,0.0,0.0,0.0,0.0,4.9248447,44.720203,-1.2087367,
2.089843718858902,107,-0.14489746,0.7799072,0.52905273,-0.08105469,0.0087890625,0.10449219,0.0,0.0,0.0,0.0,0.0,0.0,0.0,0.0,0.0,0.0,0.0,-0.6133896,0.088324726,0.7849883,-1.0096436,0.08081055,-0.053222656,-0.060546875,0.0029296875,0.033203125,2.8990805,-12.699067,1.8285959,16.25169,0.95147705,-0.12664795,-0.32043457,-0.049804688,0.03515625,0.0546875,3.5127375,-16.116499,-55.036964,18.236437,-0.6604614,0.007507324,0.7457886,-0.01171875,-0.0126953125,-0.018554688,9.563737,-19.34172,-126.95863,16.682295,0.0,0.0,0.0,0.0,0.0,0.0,0.0,-11.201803,-127.78004,34.93261,0.0,0.0,0.0,0.0,0.0,0.0,0.0,0.6133896,-0.088324726,-0.7849883,-0.9310303,-0.07232666,-0.32354736,-0.00390625,0.03515625,0.016601562,4.597595,12.699067,-1.8285959,-16.25169,1.001648,-0.066467285,-0.17242432,-0.07714844,0.041015625,0.08496094,2.730078,10.987299,-58.803307,-15.220185,-0.40655518,0.091674805,0.89263916,0.021484375,0.0087890625,0.0029296875,7.511284,11.553594,-130.65704,-10.442163,0.0,0.0,0.0,0.0,0.0,0.0,0.0,14.650967,-130.23845,9.31295,0.0,0.0,0.0,0.0,0.0,0.0,0.0,4.9342723,44.71896,-1.1760159,
2.1093749685678636,108,-0.14855957,0.75323486,0.5458374,-0.060546875,0.02734375,0.06738281,0.0,0.0,0.0,0.0,0.0,0.0,0.0,0.0,0.0,0.0,0.0,-0.6130608,0.0882679,0.7853219,-0.979126,0.0881958,-0.05206299,-0.022460938,0.0029296875,0.033203125,2.9504826,-12.692258,1.8274192,16.258598,0.9567871,-0.119018555,-0.30950928,-0.0126953125,0.015625,0.055664062,3.496144,-16.07758,-55.045338,18.230162,-0.6779175,-0.014526367,0.7340088,-0.01171875,0.005859375,-0.018554688,9.52972,-19.32758,-126.96431,16.678314,0.0,0.0,0.0,0.0,0.0,0.0,0.0,-11.186595,-127.78812,34.927444,0.0,0.0,0.0,0.0,0.0,0.0,0.0,0.6130608,-0.0882679,-0.7853219,-0.93792725,-0.063964844,-0.34020996,-0.041992188,0.055664062,0.038085938,4.638612,12.692258,-1.8274192,-16.258598,1.0078125,-0.06958008,-0.16070557,-0.07714844,0.059570312,0.046875,2.7069647,11.002635,-58.8002,-15.245955,-0.43115234,0.09906006,0.9016113,-0.03515625,0.0107421875,0.00390625,7.513791,11.529574,-130.65091,-10.4738035,0.0,0.0,0.0,0.0,0.0,0.0,0.0,14.629368,-130.23622,9.280322,0.0,0.0,0.0,0.0,0.0,0.0,0.0,4.949282,44.72015,-1.1627632,
