TOTAL_TIME,0m16s
TOTAL_FRAMES,830
SELECTED_FRAMES,830
NO_OF_JOINTS,12
FREQUENCY,51.2
DESCRIPTION,Capture 55
TIME_STAMP,Nov 1, 2010

Time,Frame,Pelvis_accelX_Pelvis,Pelvis_accelY_Pelvis,Pelvis_accelZ_Pelvis,Pelvis_gyroX_Pelvis,Pelvis_gyroY_Pelvis,Pelvis_gyroZ_Pelvis,Pelvis_Joint angle_Pelvis,Pelvis_Relative pos X_Pelvis,Pelvis_Relative pos Y_Pelvis,Pelvis_Relative pos Z_Pelvis,RightPelvis_accelX_RightPelvis,RightPelvis_accelY_RightPelvis,RightPelvis_accelZ_RightPelvis,RightPelvis_gyroX_RightPelvis,RightPelvis_gyroY_RightPelvis,RightPelvis_gyroZ_RightPelvis,RightPelvis_Joint angle_RightPelvis,RightPelvis_Relative pos X_RightPelvis,RightPelvis_Relative pos Y_RightPelvis,RightPelvis_Relative pos Z_RightPelvis,RightUpLeg_accelX_RightUpLeg,RightUpLeg_accelY_RightUpLeg,RightUpLeg_accelZ_RightUpLeg,RightUpLeg_gyroX_RightUpLeg,RightUpLeg_gyroY_RightUpLeg,RightUpLeg_gyroZ_RightUpLeg,RightUpLeg_Joint angle_RightUpLeg,RightUpLeg_Relative pos X_RightUpLeg,RightUpLeg_Relative pos Y_RightUpLeg,RightUpLeg_Relative pos Z_RightUpLeg,RightLeg_accelX_RightLeg,RightLeg_accelY_RightLeg,RightLeg_accelZ_RightLeg,RightLeg_gyroX_RightLeg,RightLeg_gyroY_RightLeg,RightLeg_gyroZ_RightLeg,RightLeg_Joint angle_RightLeg,RightLeg_Relative pos X_RightLeg,RightLeg_Relative pos Y_RightLeg,RightLeg_Relative pos Z_RightLeg,RightFoot_accelX_RightFoot,RightFoot_accelY_RightFoot,RightFoot_accelZ_RightFoot,RightFoot_gyroX_RightFoot,RightFoot_gyroY_RightFoot,RightFoot_gyroZ_RightFoot,RightFoot_Joint angle_RightFoot,RightFoot_Relative pos X_RightFoot,RightFoot_Relative pos Y_RightFoot,RightFoot_Relative pos Z_RightFoot,RightFootEnd_accelX_RightFootEnd,RightFootEnd_accelY_RightFootEnd,RightFootEnd_accelZ_RightFootEnd,RightFootEnd_gyroX_RightFootEnd,RightFootEnd_gyroY_RightFootEnd,RightFootEnd_gyroZ_RightFootEnd,RightFootEnd_Joint angle_RightFootEnd,RightFootEnd_Relative pos X_RightFootEnd,RightFootEnd_Relative pos Y_RightFootEnd,RightFootEnd_Relative pos Z_RightFootEnd,LeftPelvis_accelX_LeftPelvis,LeftPelvis_accelY_LeftPelvis,LeftPelvis_accelZ_LeftPelvis,LeftPelvis_gyroX_LeftPelvis,LeftPelvis_gyroY_LeftPelvis,LeftPelvis_gyroZ_LeftPelvis,LeftPelvis_Joint angle_LeftPelvis,LeftPelvis_Relative pos X_LeftPelvis,LeftPelvis_Relative pos Y_LeftPelvis,LeftPelvis_Relative pos Z_LeftPelvis,LeftUpLeg_accelX_LeftUpLeg,LeftUpLeg_accelY_LeftUpLeg,LeftUpLeg_accelZ_LeftUpLeg,LeftUpLeg_gyroX_LeftUpLeg,LeftUpLeg_gyroY_LeftUpLeg,LeftUpLeg_gyroZ_LeftUpLeg,LeftUpLeg_Joint angle_LeftUpLeg,LeftUpLeg_Relative pos X_LeftUpLeg,LeftUpLeg_Relative pos Y_LeftUpLeg,LeftUpLeg_Relative pos Z_LeftUpLeg,LeftLeg_accelX_LeftLeg,LeftLeg_accelY_LeftLeg,LeftLeg_accelZ_LeftLeg,LeftLeg_gyroX_LeftLeg,LeftLeg_gyroY_LeftLeg,LeftLeg_gyroZ_LeftLeg,LeftLeg_Joint angle_LeftLeg,LeftLeg_Relative pos X_LeftLeg,LeftLeg_Relative pos Y_LeftLeg,LeftLeg_Relative pos Z_LeftLeg,LeftFoot_accelX_LeftFoot,LeftFoot_accelY_LeftFoot,LeftFoot_accelZ_LeftFoot,LeftFoot_gyroX_LeftFoot,LeftFoot_gyroY_LeftFoot,LeftFoot_gyroZ_LeftFoot,LeftFoot_Joint angle_LeftFoot,LeftFoot_Relative pos X_LeftFoot,LeftFoot_Relative pos Y_LeftFoot,LeftFoot_Relative pos Z_LeftFoot,LeftFootEnd_accelX_LeftFootEnd,LeftFootEnd_accelY_LeftFootEnd,LeftFootEnd_accelZ_LeftFootEnd,LeftFootEnd_gyroX_LeftFootEnd,LeftFootEnd_gyroY_LeftFootEnd,LeftFootEnd_gyroZ_LeftFootEnd,LeftFootEnd_Joint angle_LeftFootEnd,LeftFootEnd_Relative pos X_LeftFootEnd,LeftFootEnd_Relative pos Y_LeftFootEnd,LeftFootEnd_Relative pos Z_LeftFootEnd,Spine_accelX_Spine,Spine_accelY_Spine,Spine_accelZ_Spine,Spine_gyroX_Spine,Spine_gyroY_Spine,Spine_gyroZ_Spine,Spine_Joint angle_Spine,Spine_Relative pos X_Spine,Spine_Relative pos Y_Spine,Spine_Relative pos Z_Spine,
0.0,0,0.03338623,0.78253174,0.2765503,0.83203125,-0.3125,0.37402344,0.0,0.0,0.0,0.0,0.0,0.0,0.0,0.0,0.0,0.0,0.0,-0.56245685,-0.031022243,0.8264525,-0.7375488,-0.33270264,0.24090576,-2.397461,0.60253906,0.15527344,28.937668,-11.644601,-0.64225644,17.110128,0.69610596,-0.021057129,-0.33862305,2.540039,3.7519531,-0.0234375,24.317293,4.1147203,-54.570614,26.781727,-1.5982666,0.5487671,0.31530762,-1.1572266,-3.8886719,1.1689453,52.44857,-2.3504648,-121.56407,52.17361,0.0,0.0,0.0,0.0,0.0,0.0,0.0,12.301036,-133.57909,58.435158,0.0,0.0,0.0,0.0,0.0,0.0,0.0,0.56245685,0.031022243,-0.8264525,-1.0109253,0.2579956,-0.28570557,0.90234375,1.4150391,-0.31835938,15.716579,11.644601,0.64225644,-17.110128,1.0214233,-0.35321045,-0.16992188,0.18359375,-1.0751953,-0.13085938,35.21199,5.78012,-55.417316,-8.602603,-0.5112915,0.056884766,0.8743286,-0.09472656,0.8691406,-0.032226562,37.280426,-31.027817,-106.05995,26.979717,0.0,0.0,0.0,0.0,0.0,0.0,0.0,-11.723709,-108.89801,31.360662,0.0,0.0,0.0,0.0,0.0,0.0,0.0,5.701742,44.29965,5.5432806,
0.0195312497089617,1,0.03338623,0.78253174,0.2765503,0.83203125,-0.3125,0.37402344,0.0,0.0,0.0,0.0,0.0,0.0,0.0,0.0,0.0,0.0,0.0,-0.56245685,-0.031022243,0.8264525,-0.7375488,-0.33270264,0.24090576,-2.397461,0.60253906,0.15527344,28.937668,-11.644601,-0.64225644,17.110128,0.69610596,-0.021057129,-0.33862305,2.540039,3.7519531,-0.0234375,24.317293,4.1147203,-54.570614,26.781727,-1.5982666,0.5487671,0.31530762,-1.1572266,-3.8886719,1.1689453,52.44857,-2.3504648,-121.56407,52.17361,0.0,0.0,0.0,0.0,0.0,0.0,0.0,12.301036,-133.57909,58.435158,0.0,0.0,0.0,0.0,0.0,0.0,0.0,0.56245685,0.031022243,-0.8264525,-1.0109253,0.2579956,-0.28570557,0.90234375,1.4150391,-0.31835938,15.716579,11.644601,0.64225644,-17.110128,1.0214233,-0.35321045,-0.16992188,0.18359375,-1.0751953,-0.13085938,35.21199,5.78012,-55.417316,-8.602603,-0.5112915,0.056884766,0.8743286,-0.09472656,0.8691406,-0.032226562,37.280426,-31.027817,-106.05995,26.979717,0.0,0.0,0.0,0.0,0.0,0.0,0.0,-11.723709,-108.89801,31.360662,0.0,0.0,0.0,0.0,0.0,0.0,0.0,5.701742,44.29965,5.5432806,
0.0390624994179234,2,0.03338623,0.78253174,0.2765503,0.83203125,-0.3125,0.37402344,0.0,0.0,0.0,0.0,0.0,0.0,0.0,0.0,0.0,0.0,0.0,-0.56245685,-0.031022243,0.8264525,-0.7375488,-0.33270264,0.24090576,-2.397461,0.60253906,0.15527344,28.937668,-11.644601,-0.64225644,17.110128,0.69610596,-0.021057129,-0.33862305,2.540039,3.7519531,-0.0234375,24.317293,4.1147203,-54.570614,26.781727,-1.5982666,0.5487671,0.31530762,-1.1572266,-3.8886719,1.1689453,52.44857,-2.3504648,-121.56407,52.17361,0.0,0.0,0.0,0.0,0.0,0.0,0.0,12.301036,-133.57909,58.435158,0.0,0.0,0.0,0.0,0.0,0.0,0.0,0.56245685,0.031022243,-0.8264525,-1.0109253,0.2579956,-0.28570557,0.90234375,1.4150391,-0.31835938,15.716579,11.644601,0.64225644,-17.110128,1.0214233,-0.35321045,-0.16992188,0.18359375,-1.0751953,-0.13085938,35.21199,5.78012,-55.417316,-8.602603,-0.5112915,0.056884766,0.8743286,-0.09472656,0.8691406,-0.032226562,37.280426,-31.027817,-106.05995,26.979717,0.0,0.0,0.0,0.0,0.0,0.0,0.0,-11.723709,-108.89801,31.360662,0.0,0.0,0.0,0.0,0.0,0.0,0.0,5.701742,44.29965,5.5432806,
0.0585937491268851,3,-0.15319824,0.8162842,0.59625244,-0.27734375,0.013671875,0.09082031,0.0,0.0,0.0,0.0,0.0,0.0,0.0,0.0,0.0,0.0,0.0,-0.5316508,0.11368509,0.83942896,-1.0126343,-0.053222656,0.05407715,-0.00390625,1.1757812,0.6748047,14.845891,-11.006818,2.3536339,17.378782,0.99676514,-0.04876709,-0.14312744,0.15917969,0.0703125,0.059570312,1.5120671,-4.3496404,-54.25696,17.687677,-0.56073,-0.024475098,0.8120117,-0.05078125,0.115234375,-0.040039062,9.228436,6.25831,-125.48802,17.43372,0.0,0.0,0.0,0.0,0.0,0.0,0.0,6.2507143,-125.251755,37.42945,0.0,0.0,0.0,0.0,0.0,0.0,0.0,0.5316508,-0.11368509,-0.83942896,-1.0109253,0.2579956,-0.28570557,0.90234375,1.4150391,-0.31835938,6.244787,11.006818,-2.3536339,-17.378782,0.94348145,-0.25201416,0.020507812,0.17578125,0.48242188,0.7548828,12.042723,5.142337,-58.413208,-8.871257,-0.36773682,0.09460449,0.9279785,-0.049804688,0.61328125,1.1152344,15.8806,9.763893,-127.07341,12.360143,0.0,0.0,0.0,0.0,0.0,0.0,0.0,16.158127,-126.173164,31.289703,0.0,0.0,0.0,0.0,0.0,0.0,0.0,6.2240644,44.523506,-2.0878844,
0.0781249988358468,4,-0.07098389,0.78601074,0.54504395,-0.28710938,-0.2919922,0.0703125,0.0,0.0,0.0,0.0,0.0,0.0,0.0,0.0,0.0,0.0,0.0,-0.52920294,0.11257085,0.8410928,-1.036438,-0.120788574,0.041931152,-0.060546875,0.8535156,0.5,14.033642,-10.9561405,2.3305652,17.41323,1.0125122,-0.029846191,-0.13122559,-0.123046875,0.09277344,0.10839844,2.4867182,-5.4683914,-54.408627,17.312622,-0.572876,-0.026123047,0.822876,0.026367188,0.0048828125,0.0,9.169004,5.2785177,-125.62007,17.135756,0.0,0.0,0.0,0.0,0.0,0.0,0.0,5.275716,-125.38331,37.133953,0.0,0.0,0.0,0.0,0.0,0.0,0.0,0.52920294,-0.11257085,-0.8410928,-1.0109253,0.2579956,-0.28570557,0.90234375,1.4150391,-0.31835938,6.6098413,10.9561405,-2.3305652,-17.41323,0.95147705,-0.28845215,-0.21734619,1.7275391,-0.171875,0.4423828,12.080541,5.0916595,-58.39014,-8.905705,-0.42059326,0.13305664,0.8768921,0.025390625,0.49804688,0.9824219,16.277872,8.895093,-126.81706,13.212432,0.0,0.0,0.0,0.0,0.0,0.0,0.0,14.967157,-125.87499,32.246647,0.0,0.0,0.0,0.0,0.0,0.0,0.0,6.483503,44.494717,-1.8757975,
0.09765624854480849,5,0.008544922,0.71813965,0.51153564,-0.07128906,-0.3173828,0.0107421875,0.0,0.0,0.0,0.0,0.0,0.0,0.0,0.0,0.0,0.0,0.0,-0.5251363,0.10807584,0.84416884,-1.0338745,-0.15429688,0.06329346,0.14648438,0.26757812,0.20800781,13.701074,-10.871949,2.2375052,17.476913,0.9951782,-0.03503418,-0.1281128,-0.17871094,0.09277344,0.1640625,2.996762,-5.8663,-54.54533,17.112814,-0.5897217,-0.013793945,0.82580566,0.044921875,0.022460938,0.0,9.428942,4.9735045,-125.73868,17.123003,0.0,0.0,0.0,0.0,0.0,0.0,0.0,4.952379,-125.50243,37.119667,0.0,0.0,0.0,0.0,0.0,0.0,0.0,0.5251363,-0.10807584,-0.84416884,-0.8390503,0.41308594,-0.23553467,1.6992188,0.9013672,0.53027344,29.711388,10.871949,-2.2375052,-17.476913,0.99194336,-0.105529785,-0.3319702,0.92285156,0.5625,-0.06542969,12.817997,12.187343,-51.50064,11.174767,-0.3720703,0.1930542,0.8786621,-0.051757812,0.36816406,0.66308594,16.190653,15.493049,-119.932205,33.34264,0.0,0.0,0.0,0.0,0.0,0.0,0.0,21.361881,-118.89943,52.434612,0.0,0.0,0.0,0.0,0.0,0.0,0.0,6.6146,44.484715,-1.5804385,
0.11718749825377019,6,0.057006836,0.71984863,0.5152588,0.06738281,-0.265625,-0.046875,0.0,0.0,0.0,0.0,0.0,0.0,0.0,0.0,0.0,0.0,0.0,-0.5232317,0.10444488,0.84582734,-1.0426636,-0.10949707,0.07098389,0.39160156,-0.18652344,0.06933594,13.876867,-10.832518,2.1623328,17.511248,1.0183105,-0.082214355,-0.087646484,-0.27246094,0.037109375,0.20019531,2.7915497,-5.6232815,-54.59872,17.152752,-0.54852295,-0.015991211,0.8148804,0.064453125,0.00390625,9.765625E-4,9.726274,5.218194,-125.78725,17.429125,0.0,0.0,0.0,0.0,0.0,0.0,0.0,5.1924467,-125.544815,37.427628,0.0,0.0,0.0,0.0,0.0,0.0,0.0,0.5232317,-0.10444488,-0.84582734,-0.92663574,0.24658203,-0.32318115,0.3623047,1.3896484,0.5878906,29.521023,10.832518,-2.1623328,-17.511248,0.8970947,0.06573486,-0.1751709,-0.08691406,0.63378906,-0.37402344,13.700569,10.686263,-51.415646,11.188141,-0.40252686,0.08758545,0.8985596,-0.12988281,0.12597656,0.19238281,15.724583,14.8422575,-120.02376,32.669624,0.0,0.0,0.0,0.0,0.0,0.0,0.0,20.634747,-118.99787,51.7856,0.0,0.0,0.0,0.0,0.0,0.0,0.0,6.624878,44.490158,-1.3955832,
0.1367187479627319,7,0.0925293,0.73638916,0.45672607,0.171875,-0.07714844,-0.047851562,0.0,0.0,0.0,0.0,0.0,0.0,0.0,0.0,0.0,0.0,0.0,-0.52276,0.10149423,0.8465624,-1.0340576,-0.03302002,0.086242676,0.5605469,-0.35839844,0.10644531,13.930051,-10.822753,2.1012454,17.526466,1.0106812,-0.09844971,-0.109558105,-0.42382812,0.057617188,0.19628906,2.4860883,-5.3808837,-54.644974,17.49451,-0.56988525,-0.032043457,0.809021,0.064453125,0.00390625,9.765625E-4,10.217386,5.375709,-125.84457,17.930756,0.0,0.0,0.0,0.0,0.0,0.0,0.0,5.3440633,-125.60114,37.932175,0.0,0.0,0.0,0.0,0.0,0.0,0.0,0.52276,-0.10149423,-0.8465624,-1.0045776,-0.08746338,-0.24798584,-1.609375,0.14160156,0.13867188,29.099222,10.822753,-2.1012454,-17.526466,0.9701538,0.083496094,-0.28735352,-0.875,0.21972656,-0.18945312,14.837333,9.8796425,-51.48733,10.908995,-0.40594482,0.027648926,0.9035034,-0.171875,-0.119140625,-0.051757812,14.791841,14.607674,-120.47089,31.008974,0.0,0.0,0.0,0.0,0.0,0.0,0.0,20.451782,-119.54289,50.114166,0.0,0.0,0.0,0.0,0.0,0.0,0.0,6.533992,44.5097,-1.3014612,
0.1562499976716936,8,0.074035645,0.8054199,0.45581055,0.13671875,0.05859375,0.0087890625,0.0,0.0,0.0,0.0,0.0,0.0,0.0,0.0,0.0,0.0,0.0,-0.52917427,0.092241906,0.84358525,-0.97906494,0.07196045,0.045288086,0.5986328,-0.4716797,0.047851562,13.687962,-10.955546,1.9096935,17.464832,0.9942627,-0.16809082,-0.19238281,-0.5957031,0.060546875,0.171875,2.078955,-5.278963,-54.809986,17.897623,-0.57592773,-0.028015137,0.8287964,0.064453125,0.00390625,0.038085938,11.09654,5.21447,-126.05357,18.454844,0.0,0.0,0.0,0.0,0.0,0.0,0.0,5.189286,-125.78282,38.45571,0.0,0.0,0.0,0.0,0.0,0.0,0.0,0.52917427,-0.092241906,-0.84358525,-0.9389038,-0.35650635,-0.18023682,-1.9931641,-0.3935547,-0.0625,28.708607,10.955546,-1.9096935,-17.464832,1.0182495,-0.0079956055,-0.28967285,-0.8173828,0.5341797,0.107421875,14.918281,10.255818,-51.677387,10.262978,-0.39709473,-0.020629883,0.9192505,-0.09472656,-0.083984375,0.00390625,13.805605,15.270117,-120.94206,29.314129,0.0,0.0,0.0,0.0,0.0,0.0,0.0,21.157837,-120.12053,48.40899,0.0,0.0,0.0,0.0,0.0,0.0,0.0,6.223806,44.560867,-0.96836907,
0.1757812473806553,9,-0.0033569336,0.8434448,0.48901367,0.021484375,0.13867188,0.048828125,0.0,0.0,0.0,0.0,0.0,0.0,0.0,0.0,0.0,0.0,0.0,-0.5365615,0.08466876,0.83971596,-0.9495239,0.18206787,0.012329102,0.46679688,-0.33789062,0.030273438,13.349584,-11.108484,1.752906,17.384722,0.9782715,-0.23303223,-0.21044922,-0.55859375,-0.03515625,0.19335938,1.8208045,-5.4041557,-54.93884,18.30994,-0.56829834,0.004272461,0.82281494,0.064453125,0.00390625,0.01953125,12.256877,4.6493273,-126.24687,19.040573,0.0,0.0,0.0,0.0,0.0,0.0,0.0,4.6230707,-125.9564,39.040745,0.0,0.0,0.0,0.0,0.0,0.0,0.0,0.5365615,-0.08466876,-0.83971596,-0.888855,-0.4407959,-0.1720581,-0.5761719,0.24804688,-0.016601562,27.632414,11.108484,-1.752906,-17.384722,0.98339844,-0.11114502,-0.17376709,-0.13769531,0.41210938,0.25097656,13.804575,10.473618,-52.18246,9.1094265,-0.38482666,-0.017944336,0.9281006,0.0390625,-0.048828125,0.041015625,13.677768,15.781431,-121.47974,27.958757,0.0,0.0,0.0,0.0,0.0,0.0,0.0,21.714725,-120.73994,47.044685,0.0,0.0,0.0,0.0,0.0,0.0,0.0,5.955605,44.6031,-0.69183105,
0.19531249708961698,10,-0.037231445,0.8400879,0.44610596,0.060546875,0.119140625,0.06542969,0.0,0.0,0.0,0.0,0.0,0.0,0.0,0.0,0.0,0.0,0.0,-0.54465866,0.08036259,0.835045,-0.95532227,0.20562744,0.0037231445,0.0146484375,-0.111328125,0.0703125,12.807633,-11.276123,1.6637548,17.28802,0.9764404,-0.29760742,-0.2166748,-0.18066406,0.037109375,0.107421875,1.7433844,-5.827344,-55.04803,18.593187,-0.56829834,0.004272461,0.82281494,0.064453125,0.00390625,0.01953125,13.236987,3.7233095,-126.41087,19.640705,0.0,0.0,0.0,0.0,0.0,0.0,0.0,3.6970527,-126.1204,39.640877,0.0,0.0,0.0,0.0,0.0,0.0,0.0,0.54465866,-0.08036259,-0.835045,-0.9156494,-0.34246826,-0.17132568,1.0322266,0.8046875,0.046875,25.73296,11.276123,-1.6637548,-17.28802,0.97442627,-0.14105225,-0.22174072,1.3349609,0.09277344,0.12402344,12.053996,10.190998,-52.96295,7.481394,-0.3864746,0.037109375,0.9172363,0.07714844,-0.049804688,0.041015625,13.998475,15.263896,-122.263756,26.373316,0.0,0.0,0.0,0.0,0.0,0.0,0.0,21.241098,-121.56948,45.44774,0.0,0.0,0.0,0.0,0.0,0.0,0.0,5.724694,44.64017,-0.5621204,
0.21484374679857868,11,-0.11383057,0.85113525,0.45617676,0.18359375,0.29003906,0.13769531,0.0,0.0,0.0,0.0,0.0,0.0,0.0,0.0,0.0,0.0,0.0,-0.5543089,0.07559399,0.82899356,-0.9805298,0.10180664,0.00793457,-0.34375,-0.095703125,0.16601562,11.996839,-11.475911,1.56503,17.162737,0.97784424,-0.20947266,-0.21435547,0.328125,0.049804688,0.026367188,1.7761905,-6.38644,-55.181816,18.736874,-0.56829834,0.004272461,0.82281494,0.064453125,0.00390625,0.01953125,13.557681,2.7726512,-126.59375,20.129913,0.0,0.0,0.0,0.0,0.0,0.0,0.0,2.7463944,-126.303276,40.130085,0.0,0.0,0.0,0.0,0.0,0.0,0.0,0.5543089,-0.07559399,-0.82899356,-0.9439087,-0.05810547,-0.2546997,1.2617188,0.8564453,0.08496094,23.873308,11.475911,-1.56503,-17.162737,0.99487305,0.062194824,-0.2906494,1.8359375,0.17773438,0.00390625,10.787114,9.796999,-53.608597,6.0271473,-0.41723633,0.051574707,0.9291382,0.078125,-0.03125,0.059570312,14.571234,14.572292,-123.00031,24.67744,0.0,0.0,0.0,0.0,0.0,0.0,0.0,20.604647,-122.30945,43.73359,0.0,0.0,0.0,0.0,0.0,0.0,0.0,5.3565736,44.681942,-0.49275446,
0.23437499650754037,12,-0.10424805,0.8251953,0.4845581,0.021484375,0.14160156,0.15820312,0.0,0.0,0.0,0.0,0.0,0.0,0.0,0.0,0.0,0.0,0.0,-0.5612946,0.072317645,0.82465935,-1.0123291,-0.022949219,0.048583984,-0.43847656,-0.171875,0.14648438,11.545927,-11.620539,1.4971995,17.073006,0.9884033,-0.12371826,-0.19519043,0.44140625,0.029296875,0.0107421875,1.720446,-6.6460977,-55.258595,18.832165,-0.5653076,0.005065918,0.83862305,0.026367188,0.0234375,0.0,13.395372,2.2928157,-126.69069,20.472351,0.0,0.0,0.0,0.0,0.0,0.0,0.0,2.2590382,-126.36536,40.470016,0.0,0.0,0.0,0.0,0.0,0.0,0.0,0.5612946,-0.072317645,-0.82465935,-0.9550781,0.078063965,-0.33422852,0.1328125,0.734375,0.037109375,22.750387,11.620539,-1.4971995,-17.073006,0.96643066,0.12854004,-0.2312622,0.30566406,0.38671875,0.0390625,10.844968,9.189156,-53.901855,5.234989,-0.42211914,0.073791504,0.9133911,0.040039062,-0.0107421875,0.022460938,14.839266,14.12964,-123.44303,23.24965,0.0,0.0,0.0,0.0,0.0,0.0,0.0,20.226118,-122.78102,42.287388,0.0,0.0,0.0,0.0,0.0,0.0,0.0,5.078735,44.717873,-0.46470714,
0.2539062462165021,13,-0.07348633,0.80371094,0.5144043,-0.11816406,0.06738281,0.10546875,0.0,0.0,0.0,0.0,0.0,0.0,0.0,0.0,0.0,0.0,0.0,-0.56584287,0.06964508,0.8217605,-1.0324707,-0.107666016,0.0680542,-0.3251953,-0.11425781,0.14746094,11.53085,-11.714703,1.441869,17.01299,0.993103,-0.0690918,-0.1651001,0.15917969,0.032226562,0.060546875,1.671989,-6.69217,-55.30859,18.852758,-0.5726929,-0.012451172,0.8475342,0.064453125,0.00390625,-0.017578125,13.211923,2.1811752,-126.75702,20.527912,0.0,0.0,0.0,0.0,0.0,0.0,0.0,2.136915,-126.42611,40.52366,0.0,0.0,0.0,0.0,0.0,0.0,0.0,0.56584287,-0.06964508,-0.8217605,-0.94903564,0.07910156,-0.3008423,-0.7675781,0.23339844,0.026367188,22.417152,11.714703,-1.441869,-17.01299,0.9281616,0.020324707,-0.203125,-0.8935547,0.3310547,-0.0029296875,11.54149,8.776995,-53.97671,4.9294147,-0.39752197,0.061462402,0.8985596,9.765625E-4,-0.047851562,0.022460938,14.174069,14.100185,-123.698654,22.11935,0.0,0.0,0.0,0.0,0.0,0.0,0.0,20.249699,-123.0681,41.14062,0.0,0.0,0.0,0.0,0.0,0.0,0.0,5.0080156,44.72637,-0.34221876,
0.2734374959254638,14,-0.051574707,0.7970581,0.49188232,0.060546875,0.13964844,0.12109375,0.0,0.0,0.0,0.0,0.0,0.0,0.0,0.0,0.0,0.0,0.0,-0.5705225,0.065649405,0.81875485,-1.0045776,-0.057250977,0.054016113,0.0146484375,-0.16796875,0.032226562,11.601996,-11.811584,1.3591462,16.950764,0.97369385,-0.10839844,-0.190979,-0.21777344,0.055664062,0.12597656,1.5226426,-6.609398,-55.373756,18.87739,-0.5842285,0.011779785,0.8069458,0.08300781,0.021484375,0.01953125,13.385625,2.1513233,-126.832634,20.548212,0.0,0.0,0.0,0.0,0.0,0.0,0.0,2.1127682,-126.48714,40.547295,0.0,0.0,0.0,0.0,0.0,0.0,0.0,0.5705225,-0.065649405,-0.81875485,-0.99505615,-0.1281128,-0.27478027,-1.09375,-0.087890625,-0.0107421875,22.175491,11.811584,-1.3591462,-16.950764,0.98327637,-0.09320068,-0.18963623,-0.9111328,0.2578125,0.09277344,11.758439,8.853746,-54.045006,4.591221,-0.3968506,0.01940918,0.9094238,-0.016601562,-0.0087890625,0.00390625,13.220526,14.394087,-123.915794,21.122623,0.0,0.0,0.0,0.0,0.0,0.0,0.0,20.59436,-123.31871,40.128876,0.0,0.0,0.0,0.0,0.0,0.0,0.0,4.890644,44.73683,-0.17920375,
0.2929687456344255,15,-0.045837402,0.78082275,0.46173096,0.17871094,0.13574219,0.06347656,0.0,0.0,0.0,0.0,0.0,0.0,0.0,0.0,0.0,0.0,0.0,-0.57543254,0.060953874,0.8157869,-1.0008545,0.04748535,0.07373047,0.22265625,-0.16699219,-0.0068359375,11.396808,-11.913239,1.2619342,16.889318,0.9857178,-0.18035889,-0.22424316,-0.5,0.078125,0.17480469,1.3638664,-6.620271,-55.460693,18.916946,-0.545105,0.012390137,0.83361816,0.044921875,0.022460938,0.01953125,14.1626425,1.8748574,-126.95318,20.639143,0.0,0.0,0.0,0.0,0.0,0.0,0.0,1.836538,-126.59549,40.635468,0.0,0.0,0.0,0.0,0.0,0.0,0.0,0.57543254,-0.060953874,-0.8157869,-0.9533081,-0.3065796,-0.21130371,-0.90234375,-0.171875,-0.13671875,21.435682,11.913239,-1.2619342,-16.889318,1.0033569,-0.12438965,-0.16418457,-0.23242188,0.19140625,0.1796875,11.047352,9.2222185,-54.279354,3.8476467,-0.38745117,0.03729248,0.9024658,0.0029296875,0.009765625,0.00390625,12.815857,14.701929,-124.21506,20.136974,0.0,0.0,0.0,0.0,0.0,0.0,0.0,20.947548,-123.658516,39.12954,0.0,0.0,0.0,0.0,0.0,0.0,0.0,4.628512,44.769093,-0.08023363,
0.3124999953433872,16,-0.1326294,0.7871094,0.46411133,0.11816406,0.09765625,0.009765625,0.0,0.0,0.0,0.0,0.0,0.0,0.0,0.0,0.0,0.0,0.0,-0.57888126,0.059014693,0.81337667,-0.9694824,0.1484375,0.06347656,0.16601562,-0.11035156,0.032226562,11.033639,-11.984636,1.2217871,16.83942,0.9849243,-0.24908447,-0.19165039,-0.29296875,0.056640625,0.14257812,1.3092549,-6.775606,-55.490578,19.117023,-0.5532837,8.544922E-4,0.8208008,0.026367188,0.0048828125,0.01953125,15.065101,1.3796225,-127.0104,21.077108,0.0,0.0,0.0,0.0,0.0,0.0,0.0,1.3301511,-126.64465,41.071014,0.0,0.0,0.0,0.0,0.0,0.0,0.0,0.57888126,-0.059014693,-0.81337667,-0.9480591,-0.29248047,-0.23083496,-0.21386719,0.041992188,-0.0625,20.234303,11.984636,-1.2217871,-16.83942,1.0073242,-0.08154297,-0.18426514,0.484375,0.05078125,0.19140625,9.943841,9.610729,-54.66401,2.8263664,-0.43170166,0.037841797,0.93218994,0.0029296875,0.028320312,0.022460938,12.818921,14.860282,-124.645874,18.952457,0.0,0.0,0.0,0.0,0.0,0.0,0.0,21.147717,-124.12997,37.932423,0.0,0.0,0.0,0.0,0.0,0.0,0.0,4.378499,44.790077,-0.13356835,
0.3320312450523489,17,-0.16192627,0.78686523,0.4638672,-0.099609375,0.025390625,-0.041015625,0.0,0.0,0.0,0.0,0.0,0.0,0.0,0.0,0.0,0.0,0.0,-0.580076,0.06049074,0.812523,-0.9624634,0.12231445,0.045166016,-0.0234375,9.765625E-4,0.16699219,10.715993,-12.009371,1.2523459,16.821743,0.9836426,-0.2567749,-0.20861816,0.10253906,0.07128906,0.07714844,1.2855748,-7.0500746,-55.472332,19.340143,-0.57470703,-0.019104004,0.81695557,0.0068359375,0.005859375,0.0,15.500872,0.7969613,-127.01669,21.627712,0.0,0.0,0.0,0.0,0.0,0.0,0.0,0.7543822,-126.64444,41.62145,0.0,0.0,0.0,0.0,0.0,0.0,0.0,0.580076,-0.06049074,-0.812523,-0.96850586,-0.16973877,-0.23187256,0.5136719,0.390625,0.051757812,18.816917,12.009371,-1.2523459,-16.821743,0.95025635,0.0010986328,-0.18371582,0.5029297,0.10546875,0.15234375,9.035268,9.586512,-55.117336,1.6674042,-0.3895874,0.033203125,0.91625977,0.041992188,0.06542969,0.022460938,12.947399,14.555754,-125.18808,17.527615,0.0,0.0,0.0,0.0,0.0,0.0,0.0,20.886257,-124.700874,36.49404,0.0,0.0,0.0,0.0,0.0,0.0,0.0,4.3094234,44.800137,-0.25870073,
0.3515624947613106,18,-0.1517334,0.7906494,0.47357178,-0.21972656,-0.047851562,-0.0390625,0.0,0.0,0.0,0.0,0.0,0.0,0.0,0.0,0.0,0.0,0.0,-0.58128023,0.06347804,0.8113762,-0.96881104,0.015563965,0.09313965,-0.23046875,0.09472656,0.22558594,10.577097,-12.034302,1.314192,16.798004,0.9729004,-0.1428833,-0.14324951,0.3671875,0.10644531,0.02734375,1.3799845,-7.3260813,-55.42541,19.561752,-0.5696411,-0.016296387,0.81689453,0.0068359375,0.0048828125,-0.018554688,15.395869,0.49356365,-126.96582,22.197287,0.0,0.0,0.0,0.0,0.0,0.0,0.0,0.45904055,-126.59434,42.190678,0.0,0.0,0.0,0.0,0.0,0.0,0.0,0.58128023,-0.06347804,-0.8113762,-0.99450684,-0.08605957,-0.27349854,0.6464844,0.2890625,0.17285156,17.743267,12.034302,-1.314192,-16.798004,0.96850586,0.015808105,-0.17034912,-0.038085938,0.11425781,0.17773438,8.577942,9.533029,-55.479607,0.79351044,-0.41308594,0.03387451,0.8927002,0.0029296875,0.009765625,0.00390625,12.818859,14.401,-125.64762,16.231493,0.0,0.0,0.0,0.0,0.0,0.0,0.0,20.779018,-125.18733,35.183586,0.0,0.0,0.0,0.0,0.0,0.0,0.0,4.3782177,44.7906,-0.36758232,
0.37109374447027227,19,-0.1083374,0.84124756,0.48876953,-0.103515625,-0.087890625,-0.0048828125,0.0,0.0,0.0,0.0,0.0,0.0,0.0,0.0,0.0,0.0,0.0,-0.5824827,0.0646971,0.81043655,-0.9991455,-0.050842285,0.13580322,-0.15527344,9.765625E-4,0.16699219,10.622472,-12.059198,1.3394306,16.77855,0.99328613,-0.06829834,-0.12225342,0.38671875,0.0859375,0.046875,1.504672,-7.4048905,-55.398243,19.724012,-0.57769775,-0.018981934,0.80999756,0.026367188,0.0048828125,-0.018554688,14.927908,0.5787668,-126.912735,22.58491,0.0,0.0,0.0,0.0,0.0,0.0,0.0,0.5468107,-126.542786,42.57852,0.0,0.0,0.0,0.0,0.0,0.0,0.0,0.5824827,-0.0646971,-0.81043655,-0.9974365,-0.00982666,-0.3083496,0.16796875,0.049804688,0.17871094,17.187319,12.059198,-1.3394306,-16.77855,0.9911499,-0.057434082,-0.21179199,-0.46289062,0.06542969,0.203125,8.339671,9.595201,-55.67618,0.28917694,-0.40490723,0.043518066,0.9133301,-0.016601562,0.029296875,0.00390625,12.307895,14.30576,-125.95831,15.255025,0.0,0.0,0.0,0.0,0.0,0.0,0.0,20.723366,-125.515175,34.192646,0.0,0.0,0.0,0.0,0.0,0.0,0.0,4.4298096,44.786037,-0.39144188,
0.39062499417923396,20,-0.072387695,0.82818604,0.45489502,-0.0859375,-0.16503906,0.01171875,0.0,0.0,0.0,0.0,0.0,0.0,0.0,0.0,0.0,0.0,0.0,-0.5830066,0.061608482,0.8102157,-1.0285645,-0.040893555,0.14587402,-0.041015625,0.022460938,0.033203125,10.685351,-12.070046,1.2754866,16.773977,0.99072266,-0.05456543,-0.09326172,-0.068359375,0.0546875,0.072265625,1.5249542,-7.2867775,-55.446632,19.786556,-0.5775757,-0.0043945312,0.84161377,0.026367188,-0.0126953125,0.038085938,14.537463,0.8790188,-126.93098,22.727283,0.0,0.0,0.0,0.0,0.0,0.0,0.0,0.84424543,-126.55442,42.720978,0.0,0.0,0.0,0.0,0.0,0.0,0.0,0.5830066,-0.061608482,-0.8102157,-0.93865967,-0.043640137,-0.3312378,-0.08105469,-0.15722656,0.13964844,16.914211,12.070046,-1.2754866,-16.773977,1.0063477,-0.10559082,-0.23547363,-0.38671875,0.08300781,0.12597656,8.056688,9.674685,-55.7337,-0.09418678,-0.40075684,0.041503906,0.9015503,-0.03515625,0.048828125,0.00390625,11.669033,14.090483,-126.10988,14.500956,0.0,0.0,0.0,0.0,0.0,0.0,0.0,20.542242,-125.683105,33.42783,0.0,0.0,0.0,0.0,0.0,0.0,0.0,4.3384824,44.792683,-0.28417706,
0.41015624388819566,21,-0.08734131,0.81170654,0.46307373,-0.026367188,-0.12792969,0.0107421875,0.0,0.0,0.0,0.0,0.0,0.0,0.0,0.0,0.0,0.0,0.0,-0.58418477,0.05742514,0.8096821,-0.99017334,0.03387451,0.12225342,0.09082031,-0.052734375,-0.0048828125,10.699266,-12.094437,1.1888784,16.76293,0.9758301,-0.14898682,-0.11541748,-0.48339844,0.041015625,0.13769531,1.4854306,-7.1877437,-55.519726,19.83057,-0.5755005,-0.004333496,0.8218384,0.026367188,0.0048828125,0.01953125,14.842346,1.0334725,-126.9962,22.819567,0.0,0.0,0.0,0.0,0.0,0.0,0.0,0.98577565,-126.61198,42.81259,0.0,0.0,0.0,0.0,0.0,0.0,0.0,0.58418477,-0.05742514,-0.8096821,-0.9092407,-0.09802246,-0.33166504,-0.10058594,-0.17675781,0.099609375,16.544094,12.094437,-1.1888784,-16.76293,0.9827881,-0.06335449,-0.23529053,-0.19238281,-0.0126953125,0.14355469,7.516142,9.929874,-55.8141,-0.62529945,-0.42126465,0.06567383,0.9291382,-0.016601562,0.009765625,0.022460938,11.229036,14.007309,-126.28519,13.612677,0.0,0.0,0.0,0.0,0.0,0.0,0.0,20.50422,-125.89306,32.525024,0.0,0.0,0.0,0.0,0.0,0.0,0.0,4.203054,44.80654,-0.14531857,
0.42968749359715736,22,-0.07342529,0.7753906,0.43554688,0.09375,-0.07421875,-0.009765625,0.0,0.0,0.0,0.0,0.0,0.0,0.0,0.0,0.0,0.0,0.0,-0.5863973,0.053647906,0.808447,-0.97558594,0.073791504,0.10900879,0.109375,-0.072265625,0.032226562,10.594367,-12.14024,1.1106778,16.73736,0.97924805,-0.2411499,-0.15563965,-0.44726562,0.0029296875,0.10058594,1.4656698,-7.2168465,-55.589954,19.977564,-0.56829834,0.0024414062,0.80200195,0.026367188,-0.03125,0.01953125,15.519442,0.8535452,-127.08409,23.080399,0.0,0.0,0.0,0.0,0.0,0.0,0.0,0.81608963,-126.68848,43.073257,0.0,0.0,0.0,0.0,0.0,0.0,0.0,0.5863973,-0.053647906,-0.808447,-0.92596436,-0.1449585,-0.3182373,-0.00390625,-0.00390625,0.119140625,16.00752,12.14024,-1.1106778,-16.73736,0.9822998,-0.045410156,-0.27490234,-0.13378906,0.0234375,0.19921875,6.9746265,10.062128,-55.920372,-1.2192173,-0.43878174,0.046081543,0.9213867,-0.016601562,0.028320312,0.041015625,10.712448,13.657513,-126.4951,12.605005,0.0,0.0,0.0,0.0,0.0,0.0,0.0,20.1961,-126.133446,31.504292,0.0,0.0,0.0,0.0,0.0,0.0,0.0,4.0348096,44.826096,-0.048024178,
0.44921874330611905,23,-0.10253906,0.79919434,0.45739746,0.09472656,-0.016601562,-0.0087890625,0.0,0.0,0.0,0.0,0.0,0.0,0.0,0.0,0.0,0.0,0.0,-0.5878294,0.051183447,0.8075294,-0.97229004,0.072265625,0.08215332,0.12792969,-0.07421875,0.12792969,10.404142,-12.169891,1.0596561,16.71836,0.98217773,-0.23809814,-0.21148682,-0.06933594,-0.021484375,0.07324219,1.4340866,-7.2750974,-55.629112,20.176193,-0.5479126,0.024291992,0.83654785,0.044921875,-0.013671875,0.01953125,16.049425,0.56240845,-127.142654,23.475863,0.0,0.0,0.0,0.0,0.0,0.0,0.0,0.53275555,-126.733574,43.46981,0.0,0.0,0.0,0.0,0.0,0.0,0.0,0.5878294,-0.051183447,-0.8075294,-0.90130615,-0.1772461,-0.296875,0.111328125,0.18847656,0.09765625,15.219528,12.169891,-1.0596561,-16.71836,0.9785156,-0.037353516,-0.26696777,-0.076171875,0.059570312,0.16015625,6.423243,10.011795,-56.061554,-1.9176025,-0.43572998,0.034057617,0.918396,0.0029296875,0.028320312,-0.015625,10.283404,13.130608,-126.72687,11.567785,0.0,0.0,0.0,0.0,0.0,0.0,0.0,19.708145,-126.396255,30.452904,0.0,0.0,0.0,0.0,0.0,0.0,0.0,3.8420906,44.841686,-0.04539579,
0.46874999301508075,24,-0.11633301,0.81762695,0.4857788,-0.064453125,-0.08886719,-0.005859375,0.0,0.0,0.0,0.0,0.0,0.0,0.0,0.0,0.0,0.0,0.0,-0.5888195,0.049919114,0.8068348,-0.97210693,0.06500244,0.0501709,0.08984375,-0.017578125,0.16699219,10.219851,-12.190388,1.0334805,16.703981,0.9758301,-0.17510986,-0.20422363,0.17675781,-0.043945312,0.061523438,1.477505,-7.4714413,-55.65997,20.31491,-0.5643921,-0.002746582,0.8277588,0.026367188,0.0048828125,0.0,16.218603,0.16413403,-127.18143,23.747276,0.0,0.0,0.0,0.0,0.0,0.0,0.0,0.14003496,-126.76447,43.740265,0.0,0.0,0.0,0.0,0.0,0.0,0.0,0.5888195,-0.049919114,-0.8068348,-0.9466553,-0.11505127,-0.3258667,0.26464844,0.2421875,0.07519531,14.49771,12.190388,-1.0334805,-16.703981,0.96154785,-0.029174805,-0.2765503,0.11621094,0.07519531,0.1015625,6.027436,9.919021,-56.218613,-2.6064796,-0.3977661,0.038391113,0.9133301,0.0029296875,0.009765625,0.00390625,9.908596,12.682356,-126.9812,10.443024,0.0,0.0,0.0,0.0,0.0,0.0,0.0,19.294046,-126.6821,29.317135,0.0,0.0,0.0,0.0,0.0,0.0,0.0,3.7743328,44.84556,-0.020140529,
0.48828124272404244,25,-0.088256836,0.8685303,0.4874878,-0.08496094,-0.12695312,-0.005859375,0.0,0.0,0.0,0.0,0.0,0.0,0.0,0.0,0.0,0.0,0.0,-0.589013,0.047879964,0.8068329,-0.9879761,0.008300781,0.07702637,0.0146484375,-0.016601562,0.109375,10.119504,-12.194396,0.9912636,16.703943,0.98480225,-0.11291504,-0.15820312,0.08300781,0.0146484375,0.05859375,1.5243125,-7.5851927,-55.701923,20.41557,-0.57940674,0.0045166016,0.83862305,0.026367188,0.0048828125,0.01953125,16.166594,-0.057490826,-127.22771,23.921246,0.0,0.0,0.0,0.0,0.0,0.0,0.0,-0.07368191,-126.801125,43.913673,0.0,0.0,0.0,0.0,0.0,0.0,0.0,0.589013,-0.047879964,-0.8068329,-0.9570923,-0.0715332,-0.33728027,0.24609375,0.33984375,0.055664062,13.827169,12.194396,-0.9912636,-16.703943,0.9857178,-0.057373047,-0.24230957,-0.1171875,0.18945312,0.10253906,5.7819786,9.694776,-56.34368,-3.3035698,-0.4100952,0.029663086,0.9055176,0.0029296875,0.009765625,0.00390625,9.656243,12.342088,-127.17024,9.429047,0.0,0.0,0.0,0.0,0.0,0.0,0.0,18.99281,-126.89643,28.290434,0.0,0.0,0.0,0.0,0.0,0.0,0.0,3.7170646,44.850887,0.051981986,
0.5078124924330042,26,-0.088378906,0.8465576,0.4713745,0.013671875,-0.109375,0.0107421875,0.0,0.0,0.0,0.0,0.0,0.0,0.0,0.0,0.0,0.0,0.0,-0.59026515,0.04578007,0.8060114,-0.9963989,-0.005493164,0.09472656,0.052734375,0.001953125,0.109375,10.006456,-12.220318,0.94778925,16.686935,0.98620605,-0.13354492,-0.16729736,-0.068359375,0.016601562,0.07324219,1.5920074,-7.6496468,-55.747047,20.466045,-0.57250977,-0.0064086914,0.82580566,0.064453125,0.00390625,9.765625E-4,16.23405,-0.18031406,-127.29012,23.955322,0.0,0.0,0.0,0.0,0.0,0.0,0.0,-0.20707263,-126.85411,43.947468,0.0,0.0,0.0,0.0,0.0,0.0,0.0,0.59026515,-0.04578007,-0.8060114,-0.9578247,-0.047729492,-0.26837158,-0.060546875,0.15429688,0.05859375,13.324193,12.220318,-0.94778925,-16.686935,0.9732666,-0.08111572,-0.19940186,-0.23242188,0.13574219,0.14257812,5.740951,9.543977,-56.409084,-3.7903461,-0.40179443,0.041503906,0.90844727,0.001953125,0.009765625,0.022460938,9.330034,12.182825,-127.29843,8.602019,0.0,0.0,0.0,0.0,0.0,0.0,0.0,18.861172,-127.04391,27.453022,0.0,0.0,0.0,0.0,0.0,0.0,0.0,3.6110294,44.85846,0.096575975,
0.5273437421419659,27,-0.09197998,0.81500244,0.49310303,0.09375,-0.053710938,0.02734375,0.0,0.0,0.0,0.0,0.0,0.0,0.0,0.0,0.0,0.0,0.0,-0.5919436,0.043412007,0.80503947,-0.9991455,0.031433105,0.10131836,0.109375,-0.034179688,0.033203125,9.89529,-12.255067,0.8987631,16.666813,0.9925537,-0.16223145,-0.15948486,-0.25683594,0.038085938,0.10546875,1.5419273,-7.6412525,-55.791035,20.462765,-0.5863037,0.0049438477,0.80303955,0.0068359375,0.005859375,0.0,16.537617,-0.2801652,-127.34453,23.970573,0.0,0.0,0.0,0.0,0.0,0.0,0.0,-0.30688426,-126.90495,43.96253,0.0,0.0,0.0,0.0,0.0,0.0,0.0,0.5919436,-0.043412007,-0.80503947,-0.92962646,-0.11645508,-0.28063965,-0.27148438,0.0234375,0.060546875,12.879916,12.255067,-0.8987631,-16.666813,0.9751587,-0.10107422,-0.19732666,0.15332031,0.09277344,-0.0126953125,5.474859,9.598928,-56.469776,-4.2201786,-0.3815918,0.008911133,0.92907715,0.0029296875,0.028320312,0.041015625,9.112832,12.099311,-127.41107,7.9201555,0.0,0.0,0.0,0.0,0.0,0.0,0.0,18.802872,-127.18002,26.762741,0.0,0.0,0.0,0.0,0.0,0.0,0.0,3.4634378,44.8747,0.12677556,
0.5468749918509276,28,-0.07678223,0.8046875,0.49658203,0.09375,-0.053710938,0.02734375,0.0,0.0,0.0,0.0,0.0,0.0,0.0,0.0,0.0,0.0,0.0,-0.592821,0.04111883,0.80445236,-0.9762573,0.0859375,0.0803833,0.09082031,-0.03515625,0.033203125,9.754695,-12.273232,0.85128725,16.65466,0.99005127,-0.17681885,-0.17144775,-0.14453125,-0.020507812,0.07128906,1.5133607,-7.687651,-55.834972,20.517633,-0.57232666,0.0015258789,0.80895996,0.0068359375,-0.0126953125,0.0,16.909456,-0.4702301,-127.391495,24.104193,0.0,0.0,0.0,0.0,0.0,0.0,0.0,-0.4989008,-126.954636,44.096756,0.0,0.0,0.0,0.0,0.0,0.0,0.0,0.592821,-0.04111883,-0.80445236,-0.914978,-0.14916992,-0.31433105,-0.060546875,0.115234375,0.017578125,12.368085,12.273232,-0.85128725,-16.65466,1.0067749,-0.036743164,-0.24182129,0.01953125,0.020507812,0.046875,5.2571373,9.621571,-56.530544,-4.728862,-0.40490723,0.04345703,0.9163208,-0.016601562,0.009765625,0.022460938,8.868202,11.988991,-127.5408,7.012475,0.0,0.0,0.0,0.0,0.0,0.0,0.0,18.723885,-127.33037,25.844086,0.0,0.0,0.0,0.0,0.0,0.0,0.0,3.326847,44.882698,0.15749967,
0.5664062415598893,29,-0.09698486,0.78930664,0.49102783,0.055664062,-0.034179688,0.028320312,0.0,0.0,0.0,0.0,0.0,0.0,0.0,0.0,0.0,0.0,0.0,-0.5927383,0.040338386,0.80458105,-0.9784546,0.07318115,0.09112549,0.034179688,-0.016601562,0.09082031,9.704458,-12.271521,0.8351296,16.657322,0.97125244,-0.1986084,-0.16937256,-0.05078125,-0.059570312,0.0546875,1.509995,-7.7440085,-55.845722,20.648499,-0.5582886,0.003967285,0.8297119,0.0068359375,0.005859375,0.018554688,17.14972,-0.66942215,-127.41734,24.376493,0.0,0.0,0.0,0.0,0.0,0.0,0.0,-0.68882227,-126.972244,44.369274,0.0,0.0,0.0,0.0,0.0,0.0,0.0,0.5927383,-0.040338386,-0.80458105,-0.9451904,-0.15429688,-0.3222046,0.15039062,0.24511719,0.07714844,11.733376,12.271521,-0.8351296,-16.657322,0.99438477,-0.07147217,-0.25421143,-0.13476562,0.041992188,0.12402344,5.027106,9.473605,-56.63846,-5.3383656,-0.38653564,0.03704834,0.927063,-0.016601562,0.009765625,0.00390625,8.5096245,11.567509,-127.72343,5.9800463,0.0,0.0,0.0,0.0,0.0,0.0,0.0,18.335518,-127.534645,24.801208,0.0,0.0,0.0,0.0,0.0,0.0,0.0,3.2779279,44.887295,0.1643992,
0.585937491268851,30,-0.080200195,0.7926636,0.46374512,-0.103515625,-0.087890625,0.03125,0.0,0.0,0.0,0.0,0.0,0.0,0.0,0.0,0.0,0.0,0.0,-0.59254146,0.039173335,0.80480415,-0.9762573,0.082092285,0.078308105,-0.00390625,-0.036132812,0.09082031,9.686715,-12.267446,0.8110095,16.66194,0.9678955,-0.17095947,-0.1842041,-0.05078125,-0.041015625,0.0546875,1.6103405,-7.826845,-55.865837,20.812452,-0.5422363,-0.0013427734,0.8099365,0.0068359375,0.0234375,0.0,17.33598,-0.88105726,-127.44031,24.601852,0.0,0.0,0.0,0.0,0.0,0.0,0.0,-0.90295315,-126.98656,44.594017,0.0,0.0,0.0,0.0,0.0,0.0,0.0,0.59254146,-0.039173335,-0.80480415,-0.9450073,-0.14007568,-0.30340576,0.07324219,0.22851562,0.037109375,11.080577,12.267446,-0.8110095,-16.66194,0.9850464,-0.0154418945,-0.24255371,-0.27148438,0.11816406,0.12402344,4.802976,9.306216,-56.734962,-6.0157385,-0.38848877,0.04119873,0.91430664,0.0029296875,0.028320312,-0.015625,8.154419,11.210948,-127.875145,4.9532804,0.0,0.0,0.0,0.0,0.0,0.0,0.0,18.005732,-127.71443,23.762562,0.0,0.0,0.0,0.0,0.0,0.0,0.0,3.2474194,44.890083,0.20593333,
0.6054687409778127,31,-0.1003418,0.8240967,0.47747803,-0.18164062,-0.0859375,0.0146484375,0.0,0.0,0.0,0.0,0.0,0.0,0.0,0.0,0.0,0.0,0.0,-0.59249353,0.04010255,0.8048014,-0.9927368,0.038757324,0.06561279,0.0146484375,0.001953125,0.09082031,9.77123,-12.266453,0.83024687,16.661884,0.9963989,-0.16625977,-0.18347168,-0.032226562,-0.041015625,0.036132812,1.6788805,-7.9252977,-55.848732,20.915148,-0.55255127,-0.011962891,0.82873535,0.026367188,0.0234375,0.0,17.476559,-1.0946879,-127.43644,24.74408,0.0,0.0,0.0,0.0,0.0,0.0,0.0,-1.12615,-126.970116,44.73555,0.0,0.0,0.0,0.0,0.0,0.0,0.0,0.59249353,-0.04010255,-0.8048014,-0.9331665,-0.08514404,-0.35906982,0.13085938,0.1875,0.015625,10.580966,12.266453,-0.83024687,-16.661884,0.9850464,-0.0154418945,-0.24255371,-0.27148438,0.11816406,0.12402344,4.679856,9.142693,-56.844707,-6.530102,-0.40704346,0.049316406,0.9370117,0.0029296875,0.009765625,0.00390625,8.236354,11.047424,-127.98489,4.438917,0.0,0.0,0.0,0.0,0.0,0.0,0.0,17.872944,-127.842094,23.238916,0.0,0.0,0.0,0.0,0.0,0.0,0.0,3.3471572,44.88294,0.22769493,
0.6249999906867744,32,-0.08544922,0.83154297,0.45922852,-0.0625,-0.03125,0.03125,0.0,0.0,0.0,0.0,0.0,0.0,0.0,0.0,0.0,0.0,0.0,-0.5930837,0.039738227,0.80427915,-0.98065186,0.05657959,0.09680176,-0.022460938,0.020507812,0.11035156,9.826352,-12.27867,0.8227045,16.651072,0.9954834,-0.16021729,-0.20532227,-0.06933594,-0.021484375,0.0546875,1.7845446,-7.9860344,-55.85048,20.996208,-0.57647705,-0.004272461,0.80895996,0.026367188,-0.03125,9.765625E-4,17.580095,-1.2903924,-127.454094,24.788097,0.0,0.0,0.0,0.0,0.0,0.0,0.0,-1.3069023,-126.985634,44.77926,0.0,0.0,0.0,0.0,0.0,0.0,0.0,0.5930837,-0.039738227,-0.80427915,-0.91607666,-0.084472656,-0.31976318,0.07324219,0.20898438,0.07714844,10.138555,12.27867,-0.8227045,-16.651072,1.0228882,-0.101745605,-0.19927979,-0.1171875,0.17089844,0.06542969,4.688178,9.006883,-56.914368,-6.996006,-0.41400146,0.049804688,0.90057373,0.0029296875,0.028320312,0.022460938,7.7060432,10.839722,-128.12032,3.5775967,0.0,0.0,0.0,0.0,0.0,0.0,0.0,17.690216,-127.9953,22.368715,0.0,0.0,0.0,0.0,0.0,0.0,0.0,3.3723752,44.876987,0.26951933,
0.6445312403957361,33,-0.076049805,0.80059814,0.47662354,0.07519531,-0.015625,0.028320312,0.0,0.0,0.0,0.0,0.0,0.0,0.0,0.0,0.0,0.0,0.0,-0.59435034,0.037724227,0.80349094,-0.98376465,0.038330078,0.08453369,-0.022460938,0.021484375,0.09082031,9.724233,-12.304895,0.7810085,16.634754,0.9819946,-0.1381836,-0.18518066,0.0068359375,0.015625,0.055664062,1.8769059,-8.075062,-55.894707,21.05204,-0.57611084,0.016418457,0.81188965,0.0068359375,0.005859375,0.0,17.680428,-1.480248,-127.50271,24.809887,0.0,0.0,0.0,0.0,0.0,0.0,0.0,-1.4860259,-127.03041,44.80375,0.0,0.0,0.0,0.0,0.0,0.0,0.0,0.59435034,-0.037724227,-0.80349094,-0.9686279,-0.10620117,-0.3100586,-0.13769531,0.09765625,0.059570312,9.788941,12.304895,-0.7810085,-16.634754,1.0147705,-0.10266113,-0.20800781,0.17382812,0.111328125,0.043945312,4.6814046,8.9632,-56.932335,-7.3635798,-0.40490723,0.03753662,0.91137695,-0.016601562,-0.0087890625,0.00390625,7.6208415,10.824343,-128.16122,3.0223637,0.0,0.0,0.0,0.0,0.0,0.0,0.0,17.685617,-128.04875,21.809195,0.0,0.0,0.0,0.0,0.0,0.0,0.0,3.273644,44.885826,0.3141395,
0.6640624901046978,34,-0.06072998,0.8022461,0.48919678,0.0146484375,-0.07128906,0.029296875,0.0,0.0,0.0,0.0,0.0,0.0,0.0,0.0,0.0,0.0,0.0,-0.59455425,0.035950404,0.80344033,-0.9866333,0.04724121,0.07672119,-0.00390625,0.059570312,0.052734375,9.583121,-12.309114,0.7442848,16.633707,0.980896,-0.17736816,-0.17834473,-0.048828125,0.03515625,0.07324219,1.890723,-8.12677,-55.930798,21.059874,-0.5824585,7.9345703E-4,0.8237915,0.044921875,-0.013671875,9.765625E-4,17.754963,-1.6169448,-127.54945,24.804499,0.0,0.0,0.0,0.0,0.0,0.0,0.0,-1.6141397,-127.070015,44.798275,0.0,0.0,0.0,0.0,0.0,0.0,0.0,0.59455425,-0.035950404,-0.80344033,-0.96795654,-0.12963867,-0.31219482,-0.1953125,-0.076171875,0.018554688,9.462466,12.309114,-0.7442848,-16.633707,0.99108887,-0.04547119,-0.22271729,0.34765625,0.052734375,-0.033203125,4.503326,9.041653,-56.95131,-7.706135,-0.40795898,0.03967285,0.90252686,0.001953125,-0.009765625,-0.015625,7.618884,10.842733,-128.21756,2.486352,0.0,0.0,0.0,0.0,0.0,0.0,0.0,17.72246,-128.11858,21.265827,0.0,0.0,0.0,0.0,0.0,0.0,0.0,3.1667814,44.89403,0.3346418,
0.6835937398136595,35,-0.10131836,0.7982178,0.4703369,-0.14355469,-0.10546875,0.013671875,0.0,0.0,0.0,0.0,0.0,0.0,0.0,0.0,0.0,0.0,0.0,-0.5944379,0.035205655,0.8035778,-0.9916992,0.05987549,0.083862305,0.034179688,-0.016601562,0.07128906,9.656712,-12.306708,0.7288662,16.63655,0.9807129,-0.18218994,-0.1953125,-0.03125,0.016601562,0.0546875,1.9007368,-8.138037,-55.947712,21.100769,-0.5570679,0.016723633,0.8227539,0.0068359375,0.005859375,0.018554688,17.842922,-1.7091389,-127.567215,24.869076,0.0,0.0,0.0,0.0,0.0,0.0,0.0,-1.7074192,-127.07695,44.862827,0.0,0.0,0.0,0.0,0.0,0.0,0.0,0.5944379,-0.035205655,-0.8035778,-0.9540405,-0.14172363,-0.31030273,-0.15722656,-0.09667969,0.080078125,9.201374,12.306708,-0.7288662,-16.63655,1.0039062,0.006286621,-0.19268799,-0.15332031,-0.013671875,0.12402344,4.2204394,9.273037,-57.007816,-8.064937,-0.41503906,0.06958008,0.9262085,0.0029296875,0.009765625,0.00390625,7.4010153,10.99663,-128.33665,1.7055893,0.0,0.0,0.0,0.0,0.0,0.0,0.0,17.895445,-128.25555,20.47975,0.0,0.0,0.0,0.0,0.0,0.0,0.0,3.1915698,44.89246,0.3941393,
0.7031249895226211,36,-0.061767578,0.80426025,0.4882202,-0.0625,-0.03125,0.0126953125,0.0,0.0,0.0,0.0,0.0,0.0,0.0,0.0,0.0,0.0,0.0,-0.59421885,0.03479846,0.8037189,-0.9844971,0.076171875,0.090148926,0.034179688,-0.016601562,0.07128906,9.744228,-12.302171,0.720436,16.639473,0.9838867,-0.18145752,-0.16741943,-0.049804688,-0.0029296875,0.07324219,1.9184667,-8.139038,-55.952423,21.159813,-0.5765991,-0.008300781,0.8307495,0.0068359375,0.0234375,0.0,17.920465,-1.7692418,-127.58124,24.96823,0.0,0.0,0.0,0.0,0.0,0.0,0.0,-1.7737559,-127.08624,44.960377,0.0,0.0,0.0,0.0,0.0,0.0,0.0,0.59421885,-0.03479846,-0.8037189,-0.91064453,-0.12805176,-0.3013916,0.14941406,0.08984375,0.055664062,8.797902,12.302171,-0.720436,-16.639473,0.98168945,-0.040283203,-0.19000244,-0.3466797,0.0078125,0.1640625,3.919066,9.361639,-57.07475,-8.5392065,-0.4048462,0.043640137,0.9015503,-0.016601562,0.009765625,0.00390625,7.0612483,10.905266,-128.44151,0.9254112,0.0,0.0,0.0,0.0,0.0,0.0,0.0,17.820011,-128.37962,19.692986,0.0,0.0,0.0,0.0,0.0,0.0,0.0,3.2219508,44.88848,0.43857843,
0.7226562392315828,37,-0.08502197,0.8088379,0.48492432,-0.061523438,0.0078125,0.049804688,0.0,0.0,0.0,0.0,0.0,0.0,0.0,0.0,0.0,0.0,0.0,-0.5944977,0.034109533,0.80350757,-0.98657227,0.057006836,0.073913574,0.0146484375,-0.03515625,0.07128906,9.745842,-12.307946,0.7061732,16.635098,0.9879761,-0.1786499,-0.18139648,-0.06933594,0.016601562,0.053710938,1.9343153,-8.145457,-55.96515,21.209259,-0.5741577,0.012329102,0.8208008,0.0078125,-0.030273438,0.0,17.991396,-1.8504472,-127.59826,25.056753,0.0,0.0,0.0,0.0,0.0,0.0,0.0,-1.8428364,-127.09809,45.048847,0.0,0.0,0.0,0.0,0.0,0.0,0.0,0.5944977,-0.034109533,-0.80350757,-0.94348145,-0.1015625,-0.31982422,0.20703125,0.14648438,0.055664062,8.307493,12.307946,-0.7061732,-16.635098,0.98095703,-0.05731201,-0.22937012,-0.23046875,0.005859375,0.16308594,3.6540914,9.339545,-57.127403,-9.032355,-0.39056396,0.044189453,0.9172363,0.022460938,0.028320312,0.00390625,6.775434,10.633948,-128.53232,0.23599339,0.0,0.0,0.0,0.0,0.0,0.0,0.0,17.583681,-128.48497,18.989517,0.0,0.0,0.0,0.0,0.0,0.0,0.0,3.188343,44.889477,0.45339173,
0.7421874889405445,38,-0.07293701,0.82244873,0.48669434,-0.140625,-0.029296875,0.0146484375,0.0,0.0,0.0,0.0,0.0,0.0,0.0,0.0,0.0,0.0,0.0,-0.5945724,0.034321055,0.8034539,-0.98168945,0.055541992,0.099731445,-0.00390625,0.0029296875,0.07128906,9.907167,-12.309491,0.71055233,16.633986,1.0090332,-0.1843872,-0.18463135,-0.03125,-0.022460938,0.07421875,1.9673209,-8.134439,-55.95157,21.284306,-0.5595703,-0.012756348,0.82580566,-0.01171875,0.024414062,0.018554688,18.057705,-1.9211645,-127.583755,25.180424,0.0,0.0,0.0,0.0,0.0,0.0,0.0,-1.9087995,-127.07654,45.173096,0.0,0.0,0.0,0.0,0.0,0.0,0.0,0.5945724,-0.034321055,-0.8034539,-0.93640137,-0.10046387,-0.2883911,-0.00390625,0.015625,0.037109375,8.034655,12.309491,-0.71055233,-16.633986,0.9824219,-0.07928467,-0.2529297,0.01953125,0.057617188,0.06542969,3.3362455,9.404762,-57.181328,-9.37971,-0.39666748,0.049316406,0.9152832,0.001953125,0.009765625,0.022460938,6.5905876,10.432638,-128.61075,-0.29232693,0.0,0.0,0.0,0.0,0.0,0.0,0.0,17.406147,-128.58873,18.453297,0.0,0.0,0.0,0.0,0.0,0.0,0.0,3.2622247,44.884094,0.49680412,
0.7617187386495062,39,-0.087768555,0.8129883,0.5059204,-0.140625,-0.028320312,0.05078125,0.0,0.0,0.0,0.0,0.0,0.0,0.0,0.0,0.0,0.0,0.0,-0.5953531,0.035091445,0.8029226,-0.9949951,0.038330078,0.09448242,0.0146484375,-0.03515625,0.033203125,10.038834,-12.325654,0.72650164,16.622988,0.9700928,-0.1671753,-0.16723633,-0.049804688,0.016601562,0.07324219,1.9590466,-8.130962,-55.93088,21.2863,-0.5745239,-0.0064086914,0.82977295,0.0068359375,0.0048828125,-0.018554688,18.103823,-1.9599771,-127.56801,25.207039,0.0,0.0,0.0,0.0,0.0,0.0,0.0,-1.9475552,-127.057236,45.199524,0.0,0.0,0.0,0.0,0.0,0.0,0.0,0.5953531,-0.035091445,-0.8029226,-0.95440674,-0.095214844,-0.331604,-0.022460938,0.13378906,0.017578125,7.7985787,12.325654,-0.72650164,-16.622988,0.99053955,-0.08538818,-0.23724365,-0.01953125,0.095703125,0.083984375,3.212966,9.431123,-57.233997,-9.653863,-0.39782715,0.034301758,0.9212036,-0.016601562,0.009765625,0.00390625,6.477082,10.354692,-128.678,-0.72258854,0.0,0.0,0.0,0.0,0.0,0.0,0.0,17.345474,-128.67699,18.016693,0.0,0.0,0.0,0.0,0.0,0.0,0.0,3.347321,44.88047,0.5204954,
0.7812499883584679,40,-0.051574707,0.8239746,0.5020752,-0.040039062,0.045898438,0.10449219,0.0,0.0,0.0,0.0,0.0,0.0,0.0,0.0,0.0,0.0,0.0,-0.5962888,0.033673484,0.8021986,-0.99053955,0.08312988,0.088256836,-0.022460938,0.0029296875,0.07128906,10.037364,-12.345028,0.69714546,16.607998,0.9928589,-0.18469238,-0.18548584,-0.087890625,0.036132812,0.052734375,2.0190666,-8.174573,-55.958153,21.33112,-0.56903076,0.021972656,0.8366089,0.0068359375,0.005859375,0.018554688,18.238167,-2.0874453,-127.6066,25.250357,0.0,0.0,0.0,0.0,0.0,0.0,0.0,-2.0698628,-127.08974,45.244423,0.0,0.0,0.0,0.0,0.0,0.0,0.0,0.5962888,-0.033673484,-0.8021986,-0.93322754,-0.08679199,-0.3305664,-0.0029296875,0.11328125,0.037109375,7.557099,12.345028,-0.69714546,-16.607998,1.0027466,-0.087524414,-0.21972656,0.07714844,0.056640625,0.08300781,3.133691,9.439941,-57.235733,-9.933464,-0.41308594,0.05847168,0.93408203,0.0029296875,0.009765625,0.00390625,6.365965,10.279614,-128.70322,-1.1668692,0.0,0.0,0.0,0.0,0.0,0.0,0.0,17.287432,-128.7176,17.56578,0.0,0.0,0.0,0.0,0.0,0.0,0.0,3.3022864,44.879936,0.5707476,
0.8007812380674296,41,-0.06585693,0.8043213,0.484375,0.01953125,0.06347656,0.08496094,0.0,0.0,0.0,0.0,0.0,0.0,0.0,0.0,0.0,0.0,0.0,-0.5977561,0.03189189,0.80123246,-0.9863281,0.08337402,0.070373535,-0.022460938,-0.016601562,0.052734375,10.05999,-12.375405,0.660261,16.587997,0.9815674,-0.19018555,-0.17645264,-0.0126953125,-0.0029296875,0.055664062,2.0130477,-8.214003,-55.992855,21.358547,-0.55236816,-0.0012207031,0.83862305,0.0068359375,0.005859375,0.0,18.304495,-2.1990743,-127.636734,25.344717,0.0,0.0,0.0,0.0,0.0,0.0,0.0,-2.1799705,-127.10881,45.338623,0.0,0.0,0.0,0.0,0.0,0.0,0.0,0.5977561,-0.03189189,-0.80123246,-0.9164429,-0.11230469,-0.3425293,-0.15625,0.040039062,0.018554688,7.3737903,12.375405,-0.660261,-16.587997,1.0046387,-0.057678223,-0.24267578,0.07714844,9.765625E-4,0.02734375,2.948757,9.536663,-57.232925,-10.191399,-0.4088745,0.06555176,0.91534424,0.0029296875,0.009765625,0.00390625,6.2071886,10.233522,-128.73286,-1.6992712,0.0,0.0,0.0,0.0,0.0,0.0,0.0,17.265125,-128.76099,17.023563,0.0,0.0,0.0,0.0,0.0,0.0,0.0,3.2576046,44.884148,0.64377415,
0.8203124877763913,42,-0.064941406,0.81817627,0.48046875,-0.020507812,0.044921875,0.048828125,0.0,0.0,0.0,0.0,0.0,0.0,0.0,0.0,0.0,0.0,0.0,-0.59815234,0.030292604,0.80101776,-0.98657227,0.072265625,0.09307861,-0.07910156,0.001953125,0.07128906,10.097809,-12.383606,0.6271509,16.58355,0.95965576,-0.17852783,-0.16918945,0.024414062,-0.0029296875,0.038085938,2.0407596,-8.266602,-56.02269,21.430187,-0.5696411,-0.018249512,0.8060303,0.0068359375,0.005859375,0.018554688,18.387606,-2.3155942,-127.66966,25.475674,0.0,0.0,0.0,0.0,0.0,0.0,0.0,-2.3061764,-127.13887,45.466286,0.0,0.0,0.0,0.0,0.0,0.0,0.0,0.59815234,-0.030292604,-0.80101776,-0.92071533,-0.12713623,-0.3328247,-0.19433594,0.060546875,-9.765625E-4,7.2374954,12.383606,-0.6271509,-16.58355,0.9953003,-0.028564453,-0.21795654,-0.057617188,0.021484375,0.06640625,2.8542364,9.565584,-57.23066,-10.416852,-0.40795898,0.0446167,0.9055176,0.0029296875,0.009765625,0.00390625,5.9244356,10.154561,-128.78278,-2.3079367,0.0,0.0,0.0,0.0,0.0,0.0,0.0,17.190834,-128.82207,16.413475,0.0,0.0,0.0,0.0,0.0,0.0,0.0,3.235711,44.885284,0.7187805,
0.839843737485353,43,-0.07385254,0.8165283,0.49066162,-0.09863281,0.06640625,0.08691406,0.0,0.0,0.0,0.0,0.0,0.0,0.0,0.0,0.0,0.0,0.0,-0.5980879,0.029540641,0.80101717,-0.99694824,0.05102539,0.093688965,-0.07910156,-0.0546875,0.051757812,10.191536,-12.382276,0.61158293,16.58354,0.9817505,-0.18426514,-0.17443848,0.0625,0.015625,0.01953125,2.066491,-8.259867,-56.030457,21.502613,-0.578125,0.0154418945,0.81585693,0.0068359375,0.005859375,0.018554688,18.435183,-2.3732104,-127.68547,25.612465,0.0,0.0,0.0,0.0,0.0,0.0,0.0,-2.3554957,-127.1496,45.60369,0.0,0.0,0.0,0.0,0.0,0.0,0.0,0.5980879,-0.029540641,-0.80101717,-0.94799805,-0.13897705,-0.3466797,-0.022460938,0.09472656,0.037109375,6.9738955,12.382276,-0.61158293,-16.58354,0.991272,-0.049438477,-0.20983887,-0.26953125,0.0068359375,0.12597656,2.75065,9.513257,-57.249306,-10.737217,-0.4333496,0.072143555,0.89868164,0.0029296875,0.009765625,-0.015625,5.653884,9.924519,-128.82487,-2.8645177,0.0,0.0,0.0,0.0,0.0,0.0,0.0,16.977064,-128.87538,15.8513565,0.0,0.0,0.0,0.0,0.0,0.0,0.0,3.2454495,44.880993,0.7680874,
0.8593749871943147,44,-0.09423828,0.81695557,0.4772339,-0.020507812,0.064453125,0.06738281,0.0,0.0,0.0,0.0,0.0,0.0,0.0,0.0,0.0,0.0,0.0,-0.5987947,0.029697958,0.8004641,-0.9887085,0.0491333,0.081726074,-0.07910156,-0.036132812,0.07128906,10.188313,-12.396906,0.61483985,16.57209,0.99365234,-0.15234375,-0.2033081,0.00390625,-0.021484375,-0.01953125,2.1370747,-8.252863,-56.021652,21.538681,-0.56591797,0.023986816,0.8029785,0.0068359375,0.0234375,0.0,18.40294,-2.4532328,-127.68428,25.630646,0.0,0.0,0.0,0.0,0.0,0.0,0.0,-2.4142966,-127.14092,45.62108,0.0,0.0,0.0,0.0,0.0,0.0,0.0,0.5987947,-0.029697958,-0.8004641,-0.9102783,-0.09863281,-0.3444214,-0.080078125,0.07714844,0.017578125,6.641895,12.396906,-0.61483985,-16.57209,0.9961548,-0.10144043,-0.25402832,-0.057617188,0.040039062,0.103515625,2.504053,9.564985,-57.277122,-11.027772,-0.41314697,0.039611816,0.9222412,-0.016601562,-0.009765625,0.022460938,5.4596252,9.727149,-128.87099,-3.2677002,0.0,0.0,0.0,0.0,0.0,0.0,0.0,16.790878,-128.93326,15.444021,0.0,0.0,0.0,0.0,0.0,0.0,0.0,3.2172287,44.88278,0.7414852,
0.8789062369032764,45,-0.09307861,0.8209839,0.48919678,-0.038085938,0.103515625,0.0859375,0.0,0.0,0.0,0.0,0.0,0.0,0.0,0.0,0.0,0.0,0.0,-0.60060495,0.028661538,0.7992296,-0.97351074,0.047058105,0.077697754,-0.15429688,-0.016601562,0.07128906,10.164517,-12.434385,0.5933827,16.54653,0.9758301,-0.13787842,-0.20111084,-0.051757812,-0.021484375,0.036132812,2.2148767,-8.297314,-56.04244,21.536911,-0.56152344,-0.012573242,0.8079834,0.026367188,-0.013671875,9.765625E-4,18.474516,-2.5857735,-127.71623,25.570465,0.0,0.0,0.0,0.0,0.0,0.0,0.0,-2.5441225,-127.16553,45.560387,0.0,0.0,0.0,0.0,0.0,0.0,0.0,0.60060495,-0.028661538,-0.7992296,-0.9334717,-0.1081543,-0.33758545,-0.13769531,0.01953125,-0.022460938,6.447862,12.434385,-0.5933827,-16.54653,1.0007935,-0.0715332,-0.22766113,0.15527344,0.0,0.044921875,2.33808,9.640679,-57.282192,-11.227917,-0.40478516,0.047668457,0.897583,-0.016601562,0.009765625,0.022460938,5.336122,9.640531,-128.89368,-3.6429892,0.0,0.0,0.0,0.0,0.0,0.0,0.0,16.712162,-128.9693,15.066497,0.0,0.0,0.0,0.0,0.0,0.0,0.0,3.166058,44.88901,0.7694436,
0.8984374866122381,46,-0.06958008,0.8215332,0.5124512,-0.059570312,0.06640625,0.10449219,0.0,0.0,0.0,0.0,0.0,0.0,0.0,0.0,0.0,0.0,0.0,-0.60198665,0.027212385,0.7981938,-0.994751,0.054138184,0.07977295,-0.07910156,0.059570312,0.034179688,10.127685,-12.462989,0.5633808,16.525085,0.98828125,-0.16589355,-0.18835449,-0.049804688,0.03515625,0.0546875,2.2248397,-8.354479,-56.07663,21.506159,-0.5821533,0.015563965,0.81781006,0.0068359375,0.005859375,0.018554688,18.534065,-2.7228842,-127.752335,25.520615,0.0,0.0,0.0,0.0,0.0,0.0,0.0,-2.673935,-127.19969,45.51155,0.0,0.0,0.0,0.0,0.0,0.0,0.0,0.60198665,-0.027212385,-0.7981938,-0.9024658,-0.11730957,-0.34753418,0.015625,0.0546875,0.037109375,6.267915,12.462989,-0.5633808,-16.525085,1.0128174,-0.031799316,-0.24005127,0.07714844,0.038085938,0.02734375,2.1994474,9.7315855,-57.27973,-11.455295,-0.40283203,0.04248047,0.9104004,-0.016601562,0.009765625,0.00390625,5.1656604,9.634599,-128.9143,-4.151519,0.0,0.0,0.0,0.0,0.0,0.0,0.0,16.710491,-128.99814,14.555165,0.0,0.0,0.0,0.0,0.0,0.0,0.0,3.1192362,44.889687,0.82208467,
0.9179687363211998,47,-0.07598877,0.80755615,0.48266602,-0.040039062,0.064453125,0.049804688,0.0,0.0,0.0,0.0,0.0,0.0,0.0,0.0,0.0,0.0,0.0,-0.6025141,0.026240159,0.79790413,-0.9845581,0.059814453,0.07989502,-0.09765625,0.059570312,0.034179688,10.113905,-12.47391,0.5432527,16.51909,0.9682617,-0.15820312,-0.18218994,-0.049804688,0.03515625,0.0546875,2.2196436,-8.385804,-56.09625,21.486813,-0.59039307,0.0049438477,0.82281494,0.026367188,0.0048828125,-0.018554688,18.599833,-2.8232837,-127.77681,25.498383,0.0,0.0,0.0,0.0,0.0,0.0,0.0,-2.7686033,-127.22673,45.48861,0.0,0.0,0.0,0.0,0.0,0.0,0.0,0.6025141,-0.026240159,-0.79790413,-0.92974854,-0.12738037,-0.3554077,-0.080078125,0.09667969,0.038085938,6.0557942,12.47391,-0.5432527,-16.51909,1.0145264,-0.06878662,-0.24176025,-0.038085938,0.021484375,0.06640625,2.1060786,9.760227,-57.284355,-11.7143545,-0.40893555,0.043640137,0.90448,0.0029296875,0.009765625,0.00390625,4.9595413,9.565574,-128.94727,-4.690406,0.0,0.0,0.0,0.0,0.0,0.0,0.0,16.655178,-129.03711,14.011312,0.0,0.0,0.0,0.0,0.0,0.0,0.0,3.0986025,44.89307,0.86345,
0.9374999860301615,48,-0.06390381,0.80426025,0.47833252,0.0390625,0.08203125,0.06640625,0.0,0.0,0.0,0.0,0.0,0.0,0.0,0.0,0.0,0.0,0.0,-0.6040695,0.025046859,0.79670215,-0.99157715,0.07159424,0.08111572,-0.060546875,0.041015625,0.0146484375,10.054592,-12.506111,0.5185477,16.494205,0.99102783,-0.17376709,-0.20336914,0.0068359375,-0.0029296875,0.056640625,2.2258072,-8.463528,-56.123135,21.471327,-0.5479126,0.022399902,0.8187256,0.026367188,0.0048828125,0.0,18.632942,-2.9708877,-127.80908,25.488396,0.0,0.0,0.0,0.0,0.0,0.0,0.0,-2.9123747,-127.25155,45.479416,0.0,0.0,0.0,0.0,0.0,0.0,0.0,0.6040695,-0.025046859,-0.79670215,-0.91937256,-0.10308838,-0.35528564,-0.11816406,0.01953125,0.018554688,5.8653135,12.506111,-0.5185477,-16.494205,1.0145264,-0.06878662,-0.24176025,-0.038085938,0.021484375,0.06640625,2.130195,9.793825,-57.27754,-11.91138,-0.40905762,0.042419434,0.9320679,0.001953125,-0.009765625,0.00390625,4.995869,9.599172,-128.94046,-4.887431,0.0,0.0,0.0,0.0,0.0,0.0,0.0,16.698975,-129.04015,13.8116865,0.0,0.0,0.0,0.0,0.0,0.0,0.0,3.0445106,44.893837,0.8970056,
0.9570312357391232,49,-0.07171631,0.78466797,0.49035645,0.01953125,0.06347656,0.08496094,0.0,0.0,0.0,0.0,0.0,0.0,0.0,0.0,0.0,0.0,0.0,-0.6051479,0.023530852,0.79591435,-0.9939575,0.044128418,0.093566895,-0.041015625,0.041015625,0.034179688,10.077239,-12.528438,0.4871617,16.477894,0.99090576,-0.1796875,-0.1984253,-0.03125,0.016601562,0.0546875,2.2477698,-8.490116,-56.153606,21.482632,-0.5550537,0.014709473,0.82470703,0.0068359375,0.005859375,0.018554688,18.742407,-3.1035776,-127.85242,25.526287,0.0,0.0,0.0,0.0,0.0,0.0,0.0,-3.050761,-127.28221,45.515938,0.0,0.0,0.0,0.0,0.0,0.0,0.0,0.6051479,-0.023530852,-0.79591435,-0.88342285,-0.122924805,-0.3731079,-0.060546875,0.037109375,-0.0029296875,5.713745,12.528438,-0.4871617,-16.477894,0.98864746,-0.084350586,-0.23327637,-0.038085938,0.0029296875,0.06640625,1.870116,9.799045,-57.265396,-12.112286,-0.425354,0.05090332,0.9144287,0.0029296875,0.028320312,0.00390625,4.5696898,9.273106,-128.96666,-5.505871,0.0,0.0,0.0,0.0,0.0,0.0,0.0,16.38387,-129.06879,13.187689,0.0,0.0,0.0,0.0,0.0,0.0,0.0,3.0055985,44.89465,0.95791984,
0.9765624854480849,50,-0.087890625,0.81396484,0.49694824,-0.059570312,0.045898438,0.049804688,0.0,0.0,0.0,0.0,0.0,0.0,0.0,0.0,0.0,0.0,0.0,-0.60487044,0.022589447,0.7961977,-0.9725342,0.06225586,0.099853516,-0.060546875,-0.03515625,0.051757812,10.172101,-12.522693,0.4676715,16.48376,0.96691895,-0.16784668,-0.21008301,0.024414062,0.03515625,0.018554688,2.319084,-8.466623,-56.16298,21.54824,-0.56243896,-0.0037841797,0.8218384,0.0068359375,0.0234375,0.0,18.789474,-3.1597028,-127.863846,25.599173,0.0,0.0,0.0,0.0,0.0,0.0,0.0,-3.1128483,-127.28957,45.59005,0.0,0.0,0.0,0.0,0.0,0.0,0.0,0.60487044,-0.022589447,-0.7961977,-0.90789795,-0.071777344,-0.32556152,-0.041992188,0.07519531,-0.0029296875,5.562606,12.522693,-0.4676715,-16.48376,0.9744873,-0.07720947,-0.25079346,-0.07714844,0.022460938,0.06640625,1.7129221,9.844013,-57.25987,-12.348213,-0.39257812,0.05126953,0.91430664,0.001953125,0.009765625,0.022460938,4.4205794,9.163524,-128.97952,-5.9115276,0.0,0.0,0.0,0.0,0.0,0.0,0.0,16.281776,-129.09203,12.77841,0.0,0.0,0.0,0.0,0.0,0.0,0.0,3.0066018,44.895054,1.0103649,
0.9960937351570466,51,-0.057434082,0.8102417,0.5100708,-0.020507812,0.06347656,0.048828125,0.0,0.0,0.0,0.0,0.0,0.0,0.0,0.0,0.0,0.0,0.0,-0.6035411,0.023079889,0.7971219,-0.9805298,0.062561035,0.0859375,-0.022460938,0.041015625,0.034179688,10.196534,-12.495172,0.47782525,16.502893,0.9866333,-0.15203857,-0.19525146,-0.0126953125,0.016601562,0.036132812,2.3206873,-8.431298,-56.155815,21.546257,-0.55426025,9.1552734E-4,0.81585693,0.0068359375,0.0234375,0.0,18.841106,-3.2048264,-127.86262,25.590054,0.0,0.0,0.0,0.0,0.0,0.0,0.0,-3.165016,-127.28357,45.5842,0.0,0.0,0.0,0.0,0.0,0.0,0.0,0.6035411,-0.023079889,-0.7971219,-0.9232788,-0.097229004,-0.35327148,-0.080078125,-0.040039062,-0.0029296875,5.324947,12.495172,-0.47782525,-16.502893,1.0020752,-0.0736084,-0.2701416,-0.057617188,0.021484375,0.10449219,1.5569571,9.871407,-57.291306,-12.624245,-0.41918945,0.042907715,0.8986206,-0.016601562,0.009765625,-0.015625,4.270263,9.02223,-129.02011,-6.3631473,0.0,0.0,0.0,0.0,0.0,0.0,0.0,16.15189,-129.14212,12.322157,0.0,0.0,0.0,0.0,0.0,0.0,0.0,3.0431838,44.89021,1.0043952,
1.0156249848660084,52,-0.09197998,0.79315186,0.48895264,-0.07910156,0.046875,0.068359375,0.0,0.0,0.0,0.0,0.0,0.0,0.0,0.0,0.0,0.0,0.0,-0.6037307,0.023202997,0.7969977,-0.98461914,0.059692383,0.087890625,-0.060546875,0.021484375,0.033203125,10.176104,-12.4991,0.4803739,16.500324,1.0020752,-0.17816162,-0.19952393,-0.0126953125,0.015625,0.055664062,2.332045,-8.455753,-56.15679,21.545826,-0.5531616,0.005859375,0.80596924,0.0068359375,0.005859375,0.018554688,18.869469,-3.2830787,-127.8696,25.584478,0.0,0.0,0.0,0.0,0.0,0.0,0.0,-3.2363725,-127.28765,45.578636,0.0,0.0,0.0,0.0,0.0,0.0,0.0,0.6037307,-0.023202997,-0.7969977,-0.9204712,-0.109436035,-0.3366089,-0.13769531,-0.01953125,0.018554688,5.125029,12.4991,-0.4803739,-16.500324,1.0142822,-0.061828613,-0.26159668,-0.078125,0.09667969,0.08496094,1.4338137,9.901296,-57.308292,-12.824638,-0.38970947,0.010192871,0.9172363,-0.016601562,0.009765625,-0.015625,4.12806,8.893414,-129.05031,-6.738661,0.0,0.0,0.0,0.0,0.0,0.0,0.0,16.028425,-129.18832,11.945671,0.0,0.0,0.0,0.0,0.0,0.0,0.0,3.0429487,44.891197,0.99813545,
1.03515623457497,53,-0.061584473,0.8192749,0.50427246,-0.080078125,0.028320312,0.08691406,0.0,0.0,0.0,0.0,0.0,0.0,0.0,0.0,0.0,0.0,0.0,-0.6036352,0.022843052,0.7971113,-1.0079346,0.07159424,0.09399414,-0.060546875,0.021484375,0.033203125,10.27529,-12.497118,0.472922,16.502674,0.97888184,-0.17626953,-0.19726562,-0.06933594,0.036132812,0.053710938,2.3925288,-8.460174,-56.15849,21.593075,-0.5803833,0.0036621094,0.8297119,0.0068359375,0.005859375,0.0,18.947224,-3.3513646,-127.87045,25.625027,0.0,0.0,0.0,0.0,0.0,0.0,0.0,-3.316059,-127.282455,45.617462,0.0,0.0,0.0,0.0,0.0,0.0,0.0,0.6036352,-0.022843052,-0.7971113,-0.92578125,-0.1317749,-0.33874512,-0.022460938,0.036132812,0.016601562,5.0039415,12.497118,-0.472922,-16.502674,1.0022583,-0.08758545,-0.2532959,-0.01953125,0.05859375,0.046875,1.3453755,9.935017,-57.32048,-13.034305,-0.425354,0.045898438,0.9104614,0.001953125,0.0087890625,0.041015625,3.9911556,8.8197775,-129.07669,-7.1350517,0.0,0.0,0.0,0.0,0.0,0.0,0.0,15.966149,-129.22797,11.545763,0.0,0.0,0.0,0.0,0.0,0.0,0.0,3.0802836,44.888653,1.046245,
1.0546874842839318,54,-0.086120605,0.817749,0.4800415,-0.07910156,0.045898438,0.049804688,0.0,0.0,0.0,0.0,0.0,0.0,0.0,0.0,0.0,0.0,0.0,-0.60424703,0.022560744,0.7965913,-0.9938965,0.04425049,0.08862305,-0.07910156,0.0029296875,0.033203125,10.313853,-12.509788,0.46707729,16.491909,0.9840698,-0.17059326,-0.19830322,-0.0703125,-0.001953125,0.03515625,2.4031403,-8.470043,-56.166225,21.582428,-0.5739746,0.02319336,0.81781006,-0.01171875,0.005859375,0.018554688,18.972324,-3.421041,-127.89035,25.621866,0.0,0.0,0.0,0.0,0.0,0.0,0.0,-3.377979,-127.29866,45.612793,0.0,0.0,0.0,0.0,0.0,0.0,0.0,0.60424703,-0.022560744,-0.7965913,-0.9157715,-0.13427734,-0.3633423,0.03515625,0.053710938,0.016601562,4.836792,12.509788,-0.46707729,-16.491909,0.9902954,-0.076416016,-0.25805664,0.0390625,-0.016601562,0.046875,1.3104501,9.946925,-57.32632,-13.237758,-0.425354,0.051940918,0.9085083,-0.016601562,-0.0087890625,0.00390625,3.8534608,8.729041,-129.09659,-7.5054617,0.0,0.0,0.0,0.0,0.0,0.0,0.0,15.890766,-129.25278,11.168574,0.0,0.0,0.0,0.0,0.0,0.0,0.0,3.093409,44.884754,1.0752691,
1.0742187339928935,55,-0.07598877,0.8095703,0.4837036,0.01953125,0.06347656,0.08496094,0.0,0.0,0.0,0.0,0.0,0.0,0.0,0.0,0.0,0.0,0.0,-0.6048677,0.020949326,0.79621345,-0.9813843,0.066711426,0.07006836,-0.060546875,0.021484375,0.033203125,10.365513,-12.522637,0.43371603,16.484087,0.9772339,-0.16247559,-0.19421387,0.024414062,0.015625,0.018554688,2.4246278,-8.466549,-56.194565,21.57428,-0.55822754,0.0049438477,0.8227539,0.026367188,0.0048828125,0.01953125,19.001032,-3.468399,-127.913765,25.608006,0.0,0.0,0.0,0.0,0.0,0.0,0.0,-3.4228382,-127.32062,45.59748,0.0,0.0,0.0,0.0,0.0,0.0,0.0,0.6048677,-0.020949326,-0.79621345,-0.92126465,-0.09490967,-0.36993408,0.03515625,0.07324219,-0.00390625,4.671099,12.522637,-0.43371603,-16.484087,0.97753906,-0.0692749,-0.2529297,-0.018554688,0.0029296875,0.046875,1.3196759,9.909033,-57.30232,-13.474829,-0.4069214,0.04748535,0.9163208,0.021484375,-0.0107421875,0.041015625,3.6945386,8.565494,-129.0912,-7.930657,0.0,0.0,0.0,0.0,0.0,0.0,0.0,15.728642,-129.2564,10.742718,0.0,0.0,0.0,0.0,0.0,0.0,0.0,3.0703483,44.886223,1.1514733,
1.0937499837018552,56,-0.043640137,0.7878418,0.47766113,-0.020507812,0.045898438,0.08496094,0.0,0.0,0.0,0.0,0.0,0.0,0.0,0.0,0.0,0.0,0.0,-0.6053066,0.019342542,0.7958517,-1.0062256,0.053710938,0.11462402,-0.041015625,0.040039062,0.072265625,10.355771,-12.531723,0.40045056,16.476597,0.98065186,-0.14990234,-0.19122314,-0.0126953125,0.036132812,0.017578125,2.4397569,-8.524291,-56.232193,21.584751,-0.57244873,-0.0024414062,0.81591797,-0.01171875,0.0234375,-0.01953125,18.997025,-3.5785131,-127.96288,25.617958,0.0,0.0,0.0,0.0,0.0,0.0,0.0,-3.5347726,-127.36355,45.60728,0.0,0.0,0.0,0.0,0.0,0.0,0.0,0.6053066,-0.019342542,-0.7958517,-0.9121094,-0.086120605,-0.3748169,-0.060546875,0.076171875,0.017578125,4.5444155,12.531723,-0.40045056,-16.476597,0.9804077,-0.07727051,-0.25390625,-0.13476562,0.041992188,0.0859375,1.2914976,9.878358,-57.276688,-13.655791,-0.41711426,0.058776855,0.9104614,0.001953125,0.009765625,0.022460938,3.5188076,8.394807,-129.0763,-8.286623,0.0,0.0,0.0,0.0,0.0,0.0,0.0,15.56472,-129.24765,10.384247,0.0,0.0,0.0,0.0,0.0,0.0,0.0,3.0331178,44.88458,1.2160363,
1.1132812334108169,57,-0.08496094,0.8059082,0.49084473,-0.07910156,0.046875,0.08691406,0.0,0.0,0.0,0.0,0.0,0.0,0.0,0.0,0.0,0.0,0.0,-0.60611653,0.018213078,0.7953061,-0.9885864,0.062805176,0.079956055,0.0146484375,0.0029296875,0.052734375,10.380326,-12.54849,0.3770672,16.465302,0.96435547,-0.1531372,-0.19006348,-0.0126953125,0.03515625,0.036132812,2.4649777,-8.534031,-56.252563,21.58963,-0.576355,0.003540039,0.82873535,0.0068359375,0.005859375,0.0,19.017555,-3.644792,-127.987976,25.632877,0.0,0.0,0.0,0.0,0.0,0.0,0.0,-3.6007142,-127.385765,45.624847,0.0,0.0,0.0,0.0,0.0,0.0,0.0,0.60611653,-0.018213078,-0.7953061,-0.91448975,-0.115112305,-0.34942627,-0.09863281,0.07714844,-0.0029296875,4.443516,12.54849,-0.3770672,-16.465302,0.9986572,-0.08148193,-0.23150635,-0.17480469,0.07910156,0.06738281,1.2287601,9.952827,-57.259304,-13.811291,-0.39672852,0.030456543,0.90448,0.0029296875,0.009765625,0.00390625,3.2922368,8.446705,-129.06717,-8.660721,0.0,0.0,0.0,0.0,0.0,0.0,0.0,15.61501,-129.24686,10.010977,0.0,0.0,0.0,0.0,0.0,0.0,0.0,3.0034618,44.886925,1.2610476,
1.1328124831197786,58,-0.07299805,0.79052734,0.47247314,-0.099609375,0.028320312,0.068359375,0.0,0.0,0.0,0.0,0.0,0.0,0.0,0.0,0.0,0.0,0.0,-0.6071239,0.017765056,0.79451925,-0.9816284,0.062438965,0.09588623,-0.060546875,0.041015625,0.034179688,10.459839,-12.569349,0.36779177,16.44901,0.97406006,-0.16625977,-0.19519043,-0.0126953125,0.036132812,0.017578125,2.475437,-8.585536,-56.265938,21.589535,-0.57440186,0.0015258789,0.8208008,-0.01171875,0.024414062,0.037109375,19.021496,-3.734301,-128.00098,25.636314,0.0,0.0,0.0,0.0,0.0,0.0,0.0,-3.681834,-127.397545,45.627254,0.0,0.0,0.0,0.0,0.0,0.0,0.0,0.6071239,-0.017765056,-0.79451925,-0.9370117,-0.1451416,-0.34472656,-0.11816406,0.1171875,-0.001953125,4.2961435,12.569349,-0.36779177,-16.44901,1.0065918,-0.081604004,-0.23461914,-0.038085938,0.05859375,0.08496094,1.4163743,9.8292675,-57.259758,-14.000769,-0.40081787,0.044311523,0.9232178,0.001953125,-0.028320312,0.022460938,3.2311938,8.250409,-129.06903,-8.878412,0.0,0.0,0.0,0.0,0.0,0.0,0.0,15.424049,-129.25687,9.791616,0.0,0.0,0.0,0.0,0.0,0.0,0.0,3.0452905,44.881294,1.3235049,
1.1523437328287403,59,-0.07171631,0.79663086,0.49639893,-0.020507812,0.064453125,0.0859375,0.0,0.0,0.0,0.0,0.0,0.0,0.0,0.0,0.0,0.0,0.0,-0.6081351,0.017138518,0.79383075,-1.0010376,0.048095703,0.09564209,-0.022460938,-0.053710938,0.033203125,10.543387,-12.590282,0.3548205,16.434757,0.98150635,-0.15484619,-0.18927002,-0.03125,0.03515625,0.036132812,2.5490632,-8.545669,-56.266754,21.621433,-0.5640869,0.015991211,0.8138428,-0.01171875,0.024414062,0.0,19.004608,-3.726294,-128.0074,25.670708,0.0,0.0,0.0,0.0,0.0,0.0,0.0,-3.661598,-127.40268,45.659946,0.0,0.0,0.0,0.0,0.0,0.0,0.0,0.6081351,-0.017138518,-0.79383075,-0.92474365,-0.13043213,-0.35546875,-0.080078125,-9.765625E-4,0.017578125,4.1742,12.590282,-0.3548205,-16.434757,0.99884033,-0.06854248,-0.22467041,0.07714844,0.09375,0.044921875,1.42807,9.8836565,-57.252018,-14.1500025,-0.38537598,0.042175293,0.90838623,0.0029296875,0.028320312,0.00390625,3.1501405,8.286694,-129.0736,-9.153324,0.0,0.0,0.0,0.0,0.0,0.0,0.0,15.464156,-129.27039,9.513618,0.0,0.0,0.0,0.0,0.0,0.0,0.0,3.0281243,44.88421,1.3507413,
1.171874982537702,60,-0.0635376,0.8024292,0.50616455,-0.040039062,0.045898438,0.0859375,0.0,0.0,0.0,0.0,0.0,0.0,0.0,0.0,0.0,0.0,0.0,-0.6084118,0.01601335,0.7935705,-0.96832275,0.06530762,0.088012695,-0.07910156,0.0029296875,0.033203125,10.59288,-12.59601,0.33152595,16.42937,0.9686279,-0.1807251,-0.19720459,-0.0126953125,0.016601562,0.036132812,2.6048908,-8.551153,-56.286064,21.663586,-0.576416,6.1035156E-4,0.8178711,0.0068359375,-0.0126953125,0.018554688,19.019789,-3.7886176,-128.02788,25.719805,0.0,0.0,0.0,0.0,0.0,0.0,0.0,-3.717022,-127.42026,45.709045,0.0,0.0,0.0,0.0,0.0,0.0,0.0,0.6084118,-0.01601335,-0.7935705,-0.951416,-0.09686279,-0.34735107,-0.041992188,0.036132812,0.017578125,4.0956254,12.59601,-0.33152595,-16.42937,0.99450684,-0.049560547,-0.25830078,0.01953125,0.076171875,0.064453125,1.4282068,9.934537,-57.238613,-14.290219,-0.4295044,0.057800293,0.9301758,-0.016601562,-0.0087890625,0.00390625,3.1051993,8.370597,-129.07326,-9.454514,0.0,0.0,0.0,0.0,0.0,0.0,0.0,15.557566,-129.28293,9.209972,0.0,0.0,0.0,0.0,0.0,0.0,0.0,3.0045004,44.881783,1.3978163,
1.1914062322466636,61,-0.07543945,0.7988281,0.5184326,-0.099609375,0.028320312,0.08691406,0.0,0.0,0.0,0.0,0.0,0.0,0.0,0.0,0.0,0.0,0.0,-0.6085309,0.015571079,0.7935159,-0.994812,0.06738281,0.10095215,-0.041015625,0.0029296875,0.052734375,10.706971,-12.598476,0.32236964,16.42824,1.0033569,-0.17346191,-0.16656494,-0.0126953125,0.016601562,0.036132812,2.6224153,-8.541426,-56.29212,21.671642,-0.58203125,0.023376465,0.8296509,-0.01171875,0.024414062,0.018554688,19.032934,-3.8038616,-128.02948,25.732294,0.0,0.0,0.0,0.0,0.0,0.0,0.0,-3.7315814,-127.41422,45.719933,0.0,0.0,0.0,0.0,0.0,0.0,0.0,0.6085309,-0.015571079,-0.7935159,-0.923645,-0.12121582,-0.33081055,0.015625,0.11328125,0.016601562,3.9668431,12.598476,-0.32236964,-16.42824,1.0050049,-0.053649902,-0.2199707,-0.13574219,0.041992188,0.06738281,1.4724634,9.882183,-57.22829,-14.503575,-0.39672852,0.033325195,0.91430664,0.001953125,0.009765625,0.022460938,2.9405801,8.261314,-129.06862,-9.874718,0.0,0.0,0.0,0.0,0.0,0.0,0.0,15.459201,-129.28134,8.785805,0.0,0.0,0.0,0.0,0.0,0.0,0.0,3.0523772,44.877563,1.4601767,
1.2109374819556253,62,-0.06976318,0.7786255,0.48425293,-0.059570312,0.06542969,0.0859375,0.0,0.0,0.0,0.0,0.0,0.0,0.0,0.0,0.0,0.0,0.0,-0.60966766,0.014631326,0.7926649,-0.9906616,0.07421875,0.096069336,-0.07910156,0.041015625,0.0146484375,10.836397,-12.62201,0.30291378,16.41062,0.96533203,-0.15319824,-0.19110107,-0.049804688,0.03515625,0.0546875,2.684163,-8.553028,-56.308083,21.719164,-0.5643921,0.0010986328,0.8395996,-0.01171875,0.005859375,0.0,19.057487,-3.8308773,-128.05302,25.79102,0.0,0.0,0.0,0.0,0.0,0.0,0.0,-3.7554517,-127.4314,45.779156,0.0,0.0,0.0,0.0,0.0,0.0,0.0,0.60966766,-0.014631326,-0.7926649,-0.9515991,-0.11138916,-0.31304932,-0.022460938,0.055664062,-0.00390625,3.904599,12.62201,-0.30291378,-16.41062,0.9864502,-0.09234619,-0.24206543,-0.09667969,0.041015625,0.0859375,1.4577711,9.98204,-57.219063,-14.673343,-0.41516113,0.023010254,0.8838501,-0.016601562,-0.0087890625,0.00390625,2.8305457,8.263294,-129.06876,-10.153757,0.0,0.0,0.0,0.0,0.0,0.0,0.0,15.476994,-129.29283,8.499245,0.0,0.0,0.0,0.0,0.0,0.0,0.0,3.068602,44.874218,1.5318681,
1.230468731664587,63,-0.052612305,0.80804443,0.4920044,-0.059570312,0.06542969,0.0859375,0.0,0.0,0.0,0.0,0.0,0.0,0.0,0.0,0.0,0.0,0.0,-0.6110615,0.012980334,0.79156685,-0.9918823,0.058532715,0.103759766,-0.07910156,0.021484375,0.033203125,10.888986,-12.650867,0.26873317,16.387888,0.9970703,-0.17797852,-0.19146729,-0.0126953125,0.03515625,0.036132812,2.6965318,-8.588994,-56.338448,21.738947,-0.5545654,-0.0138549805,0.81591797,0.0068359375,0.005859375,0.018554688,19.058962,-3.8891149,-128.08163,25.853598,0.0,0.0,0.0,0.0,0.0,0.0,0.0,-3.8238976,-127.45503,45.842613,0.0,0.0,0.0,0.0,0.0,0.0,0.0,0.6110615,-0.012980334,-0.79156685,-0.9046631,-0.13104248,-0.3456421,-0.080078125,0.018554688,0.017578125,3.869587,12.650867,-0.26873317,-16.387888,0.9984131,-0.06854248,-0.2543335,-0.07714844,0.022460938,0.10449219,1.4310814,10.045608,-57.197502,-14.775622,-0.41412354,0.037719727,0.9104614,9.765625E-4,-0.047851562,0.00390625,2.7341619,8.232276,-129.05217,-10.366745,0.0,0.0,0.0,0.0,0.0,0.0,0.0,15.454053,-129.28012,8.284458,0.0,0.0,0.0,0.0,0.0,0.0,0.0,3.0317733,44.872295,1.6045929,
1.2499999813735487,64,-0.06549072,0.7836304,0.5050659,-0.040039062,0.064453125,0.06738281,0.0,0.0,0.0,0.0,0.0,0.0,0.0,0.0,0.0,0.0,0.0,-0.61165416,0.012168712,0.7912476,-0.9828491,0.05731201,0.11273193,-0.022460938,-0.03515625,0.033203125,10.9469185,-12.663138,0.25193003,16.381279,0.98321533,-0.16363525,-0.20227051,0.024414062,0.015625,0.018554688,2.7896557,-8.558012,-56.345608,21.783722,-0.58691406,0.028564453,0.8098755,0.0068359375,-0.0126953125,0.018554688,19.081572,-3.9197593,-128.09296,25.888268,0.0,0.0,0.0,0.0,0.0,0.0,0.0,-3.8538973,-127.46143,45.87922,0.0,0.0,0.0,0.0,0.0,0.0,0.0,0.61165416,-0.012168712,-0.7912476,-0.9317627,-0.12689209,-0.33477783,0.015625,0.0546875,0.057617188,3.791269,12.663138,-0.25193003,-16.381279,0.99102783,-0.04547119,-0.22668457,-0.11621094,0.059570312,0.10449219,1.4008147,10.137885,-57.18296,-14.8949795,-0.40893555,0.046691895,0.89959717,0.0029296875,0.028320312,0.00390625,2.6361134,8.27438,-129.03876,-10.608783,0.0,0.0,0.0,0.0,0.0,0.0,0.0,15.503883,-129.2748,8.03831,0.0,0.0,0.0,0.0,0.0,0.0,0.0,2.999342,44.878105,1.6283796,
1.2695312310825104,65,-0.085876465,0.7810669,0.4876709,0.01953125,0.08300781,0.08496094,0.0,0.0,0.0,0.0,0.0,0.0,0.0,0.0,0.0,0.0,0.0,-0.61156726,0.012219385,0.791309,-0.9855957,0.06744385,0.08996582,-0.00390625,-0.015625,0.033203125,11.001795,-12.66134,0.25297916,16.38255,0.989624,-0.15216064,-0.19830322,0.0048828125,0.036132812,-9.765625E-4,2.8619757,-8.5214205,-56.33884,21.830383,-0.5732422,0.009277344,0.8336792,0.0068359375,0.005859375,0.018554688,19.106482,-3.9170418,-128.0925,25.927917,0.0,0.0,0.0,0.0,0.0,0.0,0.0,-3.8606093,-127.45876,45.91841,0.0,0.0,0.0,0.0,0.0,0.0,0.0,0.61156726,-0.012219385,-0.791309,-0.92248535,-0.11102295,-0.30914307,-0.022460938,0.016601562,0.037109375,3.661853,12.66134,-0.25297916,-16.38255,0.95526123,-0.08087158,-0.20697021,-0.07714844,0.059570312,0.103515625,1.4781672,10.213984,-57.195282,-15.06027,-0.42230225,0.049804688,0.91833496,0.0029296875,0.009765625,0.00390625,2.5800507,8.274434,-129.05829,-10.808293,0.0,0.0,0.0,0.0,0.0,0.0,0.0,15.503695,-129.2966,7.8392344,0.0,0.0,0.0,0.0,0.0,0.0,0.0,2.9998274,44.878002,1.6254265,
1.2890624807914721,66,-0.093322754,0.81292725,0.46826172,-0.020507812,0.064453125,0.0859375,0.0,0.0,0.0,0.0,0.0,0.0,0.0,0.0,0.0,0.0,0.0,-0.6119373,0.0120587945,0.7909852,-0.98986816,0.045959473,0.097595215,-0.09765625,0.0029296875,0.052734375,10.965157,-12.668997,0.24965447,16.375847,1.0004883,-0.16040039,-0.21734619,-0.032226562,0.016601562,0.036132812,2.910873,-8.515184,-56.34065,21.834242,-0.57733154,0.0017089844,0.802063,0.0068359375,-0.0126953125,0.018554688,19.08156,-3.9409842,-128.09166,25.899511,0.0,0.0,0.0,0.0,0.0,0.0,0.0,-3.8785748,-127.45461,45.890244,0.0,0.0,0.0,0.0,0.0,0.0,0.0,0.6119373,-0.0120587945,-0.7909852,-0.95825195,-0.0847168,-0.35705566,-0.060546875,0.056640625,0.05859375,3.4928384,12.668997,-0.24965447,-16.375847,0.9868164,-0.08734131,-0.22137451,0.038085938,0.076171875,0.064453125,1.5349312,10.156291,-57.18909,-15.1637745,-0.40899658,0.049560547,0.9182739,-0.016601562,0.009765625,0.00390625,2.5486026,8.138116,-129.0473,-10.978239,0.0,0.0,0.0,0.0,0.0,0.0,0.0,15.380827,-129.29327,7.663061,0.0,0.0,0.0,0.0,0.0,0.0,0.0,2.959941,44.879925,1.6057191,
1.3085937305004338,67,-0.076171875,0.80548096,0.46875,-0.119140625,0.047851562,0.10546875,0.0,0.0,0.0,0.0,0.0,0.0,0.0,0.0,0.0,0.0,0.0,-0.6133412,0.010786559,0.78986806,-0.9836426,0.059631348,0.09088135,-0.041015625,0.041992188,-0.00390625,10.997034,-12.698064,0.22331524,16.352716,0.965271,-0.19134521,-0.20220947,-0.08886719,0.037109375,0.0146484375,2.93585,-8.532518,-56.369164,21.799278,-0.57128906,0.0044555664,0.8109131,0.0068359375,0.005859375,0.018554688,19.25627,-4.0334897,-128.12042,25.857988,0.0,0.0,0.0,0.0,0.0,0.0,0.0,-3.9780045,-127.47971,45.84681,0.0,0.0,0.0,0.0,0.0,0.0,0.0,0.6133412,-0.010786559,-0.78986806,-0.9447632,-0.12658691,-0.37701416,0.034179688,-0.043945312,0.07714844,3.4394019,12.698064,-0.22331524,-16.352716,0.9873657,-0.041381836,-0.20684814,0.07714844,0.07519531,0.064453125,1.5541894,10.188355,-57.16353,-15.264759,-0.4295044,0.039001465,0.91052246,0.0029296875,0.009765625,0.00390625,2.4945767,8.123427,-129.02328,-11.196396,0.0,0.0,0.0,0.0,0.0,0.0,0.0,15.374489,-129.27809,7.4417057,0.0,0.0,0.0,0.0,0.0,0.0,0.0,2.935831,44.877586,1.66685,
1.3281249802093955,68,-0.071899414,0.7855835,0.47937012,-0.099609375,0.047851562,0.08691406,0.0,0.0,0.0,0.0,0.0,0.0,0.0,0.0,0.0,0.0,0.0,-0.61427265,0.010854133,0.78920096,-0.98443604,0.09448242,0.10040283,-0.09765625,0.041015625,0.034179688,11.106011,-12.717348,0.2247143,16.338907,0.97631836,-0.15948486,-0.19421387,-0.049804688,0.03515625,0.0546875,3.0183718,-8.589268,-56.360424,21.861753,-0.5570679,0.01574707,0.82177734,0.0068359375,-0.0126953125,-0.018554688,19.283981,-4.115938,-128.11833,25.891277,0.0,0.0,0.0,0.0,0.0,0.0,0.0,-4.0555983,-127.47443,45.87902,0.0,0.0,0.0,0.0,0.0,0.0,0.0,0.61427265,-0.010854133,-0.78920096,-0.9221802,-0.09124756,-0.35906982,-0.08105469,-0.11816406,0.05859375,3.5017958,12.717348,-0.2247143,-16.338907,1.0031738,-0.029663086,-0.2220459,-0.057617188,-0.015625,0.0859375,1.4491541,10.277865,-57.167065,-15.289095,-0.38623047,0.061340332,0.88964844,0.0029296875,0.009765625,0.00390625,2.3725662,8.137971,-129.03944,-11.3656025,0.0,0.0,0.0,0.0,0.0,0.0,0.0,15.399666,-129.29173,7.2682915,0.0,0.0,0.0,0.0,0.0,0.0,0.0,2.9865186,44.874786,1.7073721,
1.3476562299183572,69,-0.049621582,0.81188965,0.49298096,0.0390625,0.06347656,0.083984375,0.0,0.0,0.0,0.0,0.0,0.0,0.0,0.0,0.0,0.0,0.0,-0.61489147,0.009604264,0.7887696,-0.99780273,0.066589355,0.09295654,-0.07910156,0.041015625,0.052734375,11.142333,-12.730159,0.19883798,16.329975,0.97631836,-0.15948486,-0.19421387,-0.049804688,0.03515625,0.0546875,3.048317,-8.614133,-56.38434,21.890491,-0.5661011,0.016967773,0.8296509,0.0068359375,0.0234375,-0.018554688,19.262182,-4.1408033,-128.14224,25.920015,0.0,0.0,0.0,0.0,0.0,0.0,0.0,-4.07326,-127.49339,45.90705,0.0,0.0,0.0,0.0,0.0,0.0,0.0,0.61489147,-0.009604264,-0.7887696,-0.8902588,-0.103637695,-0.315979,-0.15722656,-0.11621094,0.10058594,3.5743458,12.730159,-0.19883798,-16.329975,0.99786377,-0.087524414,-0.27886963,-0.115234375,-0.0146484375,0.12402344,1.4111143,10.445719,-57.15303,-15.317199,-0.40081787,0.04437256,0.9163208,0.0029296875,0.028320312,0.00390625,2.267622,8.1333065,-129.02393,-11.451729,0.0,0.0,0.0,0.0,0.0,0.0,0.0,15.402912,-129.28583,7.1787205,0.0,0.0,0.0,0.0,0.0,0.0,0.0,2.9566774,44.876015,1.7584789,
1.367187479627319,70,-0.06982422,0.80145264,0.4864502,0.05859375,0.061523438,0.046875,0.0,0.0,0.0,0.0,0.0,0.0,0.0,0.0,0.0,0.0,0.0,-0.6161962,0.009527019,0.78767604,-1.000061,0.04699707,0.1015625,-0.022460938,0.0029296875,0.052734375,11.094127,-12.757172,0.19723879,16.307335,0.99438477,-0.16412354,-0.19439697,0.025390625,0.015625,0.037109375,3.0626683,-8.628206,-56.38724,21.876717,-0.56036377,0.0020141602,0.83465576,-0.01171875,0.005859375,0.0,19.293018,-4.2286887,-128.15431,25.94065,0.0,0.0,0.0,0.0,0.0,0.0,0.0,-4.1723447,-127.49623,45.930424,0.0,0.0,0.0,0.0,0.0,0.0,0.0,0.6161962,-0.009527019,-0.78767604,-0.9016113,-0.12719727,-0.38494873,0.07324219,0.16992188,0.09765625,3.3591125,12.757172,-0.19723879,-16.307335,1.012085,-0.0657959,-0.2713623,-0.15527344,0.09765625,0.06640625,1.4965868,10.319102,-57.14106,-15.405933,-0.418396,0.043395996,0.95477295,0.0029296875,0.028320312,0.022460938,2.1502218,7.86926,-129.01077,-11.575584,0.0,0.0,0.0,0.0,0.0,0.0,0.0,15.141838,-129.27711,7.054476,0.0,0.0,0.0,0.0,0.0,0.0,0.0,2.9105587,44.87729,1.7341247,
1.3867187293362806,71,-0.10107422,0.81225586,0.49334717,0.0,0.06347656,0.06640625,0.0,0.0,0.0,0.0,0.0,0.0,0.0,0.0,0.0,0.0,0.0,-0.6168332,0.009666562,0.787232,-0.9929199,0.045043945,0.097595215,-0.00390625,0.0029296875,0.033203125,11.051201,-12.770359,0.20012781,16.298143,0.96417236,-0.15997314,-0.19012451,-0.0126953125,-0.022460938,0.055664062,3.0854669,-8.621035,-56.38152,21.865963,-0.5532837,0.0028076172,0.8267212,0.0068359375,0.0234375,-0.018554688,19.28454,-4.246298,-128.14986,25.921032,0.0,0.0,0.0,0.0,0.0,0.0,0.0,-4.195543,-127.4895,45.90968,0.0,0.0,0.0,0.0,0.0,0.0,0.0,0.6168332,-0.009666562,-0.787232,-0.91082764,-0.13922119,-0.366333,-0.0029296875,0.15234375,0.037109375,3.0670118,12.770359,-0.20012781,-16.298143,0.9862671,-0.06939697,-0.26690674,-0.05859375,0.095703125,0.06542969,1.6294283,10.11655,-57.144043,-15.57239,-0.4222412,0.042053223,0.8897705,0.001953125,-0.009765625,0.00390625,2.1276207,7.666155,-129.01566,-11.822514,0.0,0.0,0.0,0.0,0.0,0.0,0.0,14.963017,-129.2965,6.798416,0.0,0.0,0.0,0.0,0.0,0.0,0.0,2.878118,44.882538,1.7040198,
1.4062499790452423,72,-0.087768555,0.80303955,0.50579834,-0.040039062,0.044921875,0.048828125,0.0,0.0,0.0,0.0,0.0,0.0,0.0,0.0,0.0,0.0,0.0,-0.6163415,0.010418963,0.7876003,-0.9888916,0.054504395,0.109680176,-0.022460938,0.0029296875,0.033203125,11.056883,-12.760177,0.21570481,16.305767,0.984375,-0.16082764,-0.19128418,-0.05078125,0.016601562,0.03515625,3.131066,-8.567213,-56.36066,21.884369,-0.58117676,0.019348145,0.84155273,-0.01171875,0.005859375,0.0,19.287312,-4.2128496,-128.12605,25.92805,0.0,0.0,0.0,0.0,0.0,0.0,0.0,-4.1731596,-127.46415,45.91616,0.0,0.0,0.0,0.0,0.0,0.0,0.0,0.6163415,-0.010418963,-0.7876003,-0.93048096,-0.10845947,-0.36901855,-0.15625,0.020507812,-0.001953125,2.915308,12.760177,-0.21570481,-16.305767,0.99432373,-0.0635376,-0.26116943,-9.765625E-4,0.13183594,0.045898438,1.6402017,10.045844,-57.158848,-15.667555,-0.40490723,0.03753662,0.9104004,0.001953125,0.009765625,0.022460938,2.049468,7.6131086,-129.03644,-12.030651,0.0,0.0,0.0,0.0,0.0,0.0,0.0,14.912127,-129.31947,6.5882854,0.0,0.0,0.0,0.0,0.0,0.0,0.0,2.8825657,44.883575,1.6620162,
1.425781228754204,73,-0.095581055,0.76953125,0.5147095,-0.041015625,0.026367188,0.06738281,0.0,0.0,0.0,0.0,0.0,0.0,0.0,0.0,0.0,0.0,0.0,-0.61561954,0.011416947,0.78818965,-0.9906006,0.06854248,0.08502197,0.034179688,0.022460938,0.033203125,11.069377,-12.745231,0.23636618,16.317966,0.9794922,-0.1506958,-0.21710205,-0.05078125,0.036132812,0.03515625,3.2186277,-8.521526,-56.33265,21.928576,-0.5614624,-0.0067749023,0.8307495,-0.01171875,-0.01171875,0.037109375,19.30394,-4.202704,-128.10344,25.928093,0.0,0.0,0.0,0.0,0.0,0.0,0.0,-4.1685834,-127.445816,45.91698,0.0,0.0,0.0,0.0,0.0,0.0,0.0,0.61561954,-0.011416947,-0.78818965,-0.90844727,-0.115478516,-0.33764648,-0.060546875,0.076171875,-0.0234375,2.8081892,12.745231,-0.23636618,-16.317966,0.989563,-0.07940674,-0.23925781,-0.040039062,0.1328125,0.045898438,1.6571757,10.064978,-57.17452,-15.747614,-0.41394043,0.08251953,0.93011475,-0.016601562,0.009765625,0.022460938,2.0453577,7.746014,-129.06046,-12.189493,0.0,0.0,0.0,0.0,0.0,0.0,0.0,15.049721,-129.3509,6.4268093,0.0,0.0,0.0,0.0,0.0,0.0,0.0,2.89602,44.885914,1.6117774,
1.4453124784631657,74,-0.07965088,0.79888916,0.50457764,-0.0234375,-0.03125,0.047851562,0.0,0.0,0.0,0.0,0.0,0.0,0.0,0.0,0.0,0.0,0.0,-0.61587906,0.011620325,0.78796583,-0.9844971,0.08190918,0.096191406,-0.022460938,-0.03515625,0.033203125,11.044286,-12.750605,0.24057676,16.313337,0.9859619,-0.17755127,-0.18341064,-0.06933594,0.016601562,0.053710938,3.2233686,-8.554245,-56.32949,21.946724,-0.5782471,0.006652832,0.8099365,0.0068359375,-0.0126953125,-0.018554688,19.319937,-4.246449,-128.10367,25.955076,0.0,0.0,0.0,0.0,0.0,0.0,0.0,-4.207473,-127.44285,45.942886,0.0,0.0,0.0,0.0,0.0,0.0,0.0,0.61587906,-0.011620325,-0.78796583,-0.9376221,-0.115478516,-0.35534668,0.07324219,0.15039062,0.015625,2.606093,12.750605,-0.24057676,-16.313337,0.9941406,-0.088378906,-0.19976807,-0.07910156,0.16992188,0.045898438,1.8426005,9.935261,-57.176903,-15.884022,-0.40698242,0.035583496,0.9104004,0.001953125,-0.009765625,0.00390625,2.056332,7.80849,-129.0647,-12.374507,0.0,0.0,0.0,0.0,0.0,0.0,0.0,15.114952,-129.35086,6.241679,0.0,0.0,0.0,0.0,0.0,0.0,0.0,2.8884487,44.886337,1.5956794,
1.4648437281721274,75,-0.06085205,0.78826904,0.47711182,-0.059570312,0.064453125,0.049804688,0.0,0.0,0.0,0.0,0.0,0.0,0.0,0.0,0.0,0.0,0.0,-0.6159562,0.011470005,0.78780043,-1.0,0.059570312,0.10876465,-0.060546875,0.021484375,0.033203125,11.065178,-12.752202,0.23746462,16.30991,0.9838257,-0.18139648,-0.18041992,-0.0126953125,-0.022460938,0.055664062,3.269262,-8.5476055,-56.328064,21.98756,-0.5772095,0.011413574,0.8257446,0.0068359375,0.0234375,0.0,19.37733,-4.26526,-128.1029,26.005688,0.0,0.0,0.0,0.0,0.0,0.0,0.0,-4.2345195,-127.443596,45.992714,0.0,0.0,0.0,0.0,0.0,0.0,0.0,0.6159562,-0.011470005,-0.78780043,-0.9373169,-0.16809082,-0.3242798,-0.080078125,0.038085938,-0.0029296875,2.4214773,12.752202,-0.23746462,-16.30991,0.99017334,-0.08135986,-0.20172119,-0.0390625,0.05859375,0.06542969,1.9585471,9.903229,-57.170654,-16.053204,-0.4019165,0.034362793,0.9222412,-0.016601562,0.009765625,-0.015625,2.0310504,7.7995687,-129.06534,-12.630293,0.0,0.0,0.0,0.0,0.0,0.0,0.0,15.117371,-129.35379,5.98213,0.0,0.0,0.0,0.0,0.0,0.0,0.0,2.8729644,44.883617,1.5927954,
1.484374977881089,76,-0.08380127,0.8287964,0.50494385,-0.061523438,-0.01171875,0.06738281,0.0,0.0,0.0,0.0,0.0,0.0,0.0,0.0,0.0,0.0,0.0,-0.6157994,0.011285485,0.78797597,-0.9807739,0.051635742,0.10168457,0.015625,0.041992188,0.0146484375,11.061761,-12.748959,0.23364452,16.313543,0.963562,-0.17755127,-0.20812988,0.0048828125,0.036132812,-9.765625E-4,3.2726138,-8.533939,-56.33029,21.973366,-0.56103516,0.013977051,0.80792236,0.0068359375,0.005859375,0.018554688,19.358877,-4.303712,-128.10547,25.999329,0.0,0.0,0.0,0.0,0.0,0.0,0.0,-4.260319,-127.44584,45.98568,0.0,0.0,0.0,0.0,0.0,0.0,0.0,0.6157994,-0.011285485,-0.78797597,-0.93847656,-0.10418701,-0.3355713,-0.15625,-0.038085938,-0.001953125,2.4226894,12.748959,-0.23364452,-16.313543,1.0250244,-0.043945312,-0.21746826,-0.09667969,0.041015625,0.029296875,1.8573049,9.982634,-57.17013,-16.091564,-0.41516113,0.041625977,0.9193115,0.0029296875,0.009765625,0.00390625,1.9513391,7.8719234,-129.07172,-12.805094,0.0,0.0,0.0,0.0,0.0,0.0,0.0,15.19967,-129.3607,5.803295,0.0,0.0,0.0,0.0,0.0,0.0,0.0,2.8686085,44.88547,1.598949,
1.5039062275900508,77,-0.09692383,0.7952881,0.49902344,-0.040039062,0.044921875,0.048828125,0.0,0.0,0.0,0.0,0.0,0.0,0.0,0.0,0.0,0.0,0.0,-0.6149916,0.011979233,0.7886647,-0.9937744,0.07421875,0.10107422,-0.060546875,0.021484375,0.033203125,11.049437,-12.732233,0.24800725,16.327803,0.97650146,-0.15063477,-0.19915771,-0.03125,0.09277344,0.015625,3.2894406,-8.52786,-56.31902,21.991646,-0.56829834,0.004333496,0.8109131,0.0068359375,0.005859375,0.0,19.31308,-4.2953672,-128.09285,25.988895,0.0,0.0,0.0,0.0,0.0,0.0,0.0,-4.2539105,-127.43593,45.97589,0.0,0.0,0.0,0.0,0.0,0.0,0.0,0.6149916,-0.011979233,-0.7886647,-0.9034424,-0.11505127,-0.35827637,0.03515625,0.07324219,0.037109375,2.348104,12.732233,-0.24800725,-16.327803,0.9970703,-0.06549072,-0.21380615,-0.19335938,0.060546875,0.0859375,1.8292757,9.997419,-57.192917,-16.173447,-0.4387207,0.050048828,0.9223633,0.001953125,-0.028320312,0.00390625,1.8483269,7.8488207,-129.09842,-12.981544,0.0,0.0,0.0,0.0,0.0,0.0,0.0,15.179155,-129.38884,5.6250906,0.0,0.0,0.0,0.0,0.0,0.0,0.0,2.8886178,44.887615,1.5707014,
1.5234374772990125,78,-0.07550049,0.8048096,0.5154419,-0.021484375,0.025390625,0.048828125,0.0,0.0,0.0,0.0,0.0,0.0,0.0,0.0,0.0,0.0,0.0,-0.6142867,0.012084828,0.7890781,-1.0010376,0.054748535,0.10467529,-0.060546875,0.021484375,0.052734375,11.067224,-12.717638,0.2501934,16.33636,0.9692383,-0.15820312,-0.19311523,-0.068359375,0.0546875,0.053710938,3.3221908,-8.494968,-56.313694,22.001104,-0.5522461,9.1552734E-4,0.81188965,-0.01171875,-0.01171875,0.0,19.300428,-4.284257,-128.0936,25.977728,0.0,0.0,0.0,0.0,0.0,0.0,0.0,-4.2420864,-127.4356,45.965023,0.0,0.0,0.0,0.0,0.0,0.0,0.0,0.6142867,-0.012084828,-0.7890781,-0.92163086,-0.047973633,-0.32635498,0.091796875,0.0126953125,0.015625,2.2933693,12.717638,-0.2501934,-16.33636,0.9633789,-0.08093262,-0.19525146,-0.038085938,0.040039062,0.06640625,1.8795108,10.074068,-57.195385,-16.284786,-0.42944336,0.053955078,0.91638184,0.001953125,-0.009765625,-0.015625,1.8252058,7.9333267,-129.10472,-13.125123,0.0,0.0,0.0,0.0,0.0,0.0,0.0,15.277252,-129.3971,5.4768896,0.0,0.0,0.0,0.0,0.0,0.0,0.0,2.8958032,44.882507,1.566963,
1.5429687270079742,79,-0.07952881,0.77404785,0.510376,-0.061523438,0.0078125,0.049804688,0.0,0.0,0.0,0.0,0.0,0.0,0.0,0.0,0.0,0.0,0.0,-0.6143677,0.012264766,0.78908265,-0.9784546,0.058776855,0.0769043,-0.060546875,0.0029296875,0.0146484375,11.068914,-12.7193165,0.25391874,16.336458,0.9864502,-0.15686035,-0.2142334,-0.06933594,0.036132812,0.053710938,3.331959,-8.477897,-56.312363,21.97986,-0.5564575,-0.005004883,0.8297119,-0.01171875,-0.01171875,0.018554688,19.327347,-4.3072,-128.09244,25.950638,0.0,0.0,0.0,0.0,0.0,0.0,0.0,-4.270901,-127.44076,45.939423,0.0,0.0,0.0,0.0,0.0,0.0,0.0,0.6143677,-0.012264766,-0.78908265,-0.9243164,-0.0960083,-0.32177734,-0.13769531,0.0,0.0390625,2.2781277,12.7193165,-0.25391874,-16.336458,1.0008545,-0.053588867,-0.23175049,0.0390625,0.0390625,0.045898438,1.8605685,10.1621895,-57.206867,-16.348566,-0.39886475,0.029296875,0.9232178,-0.016601562,0.009765625,0.00390625,1.7603642,7.9468975,-129.1122,-13.250937,0.0,0.0,0.0,0.0,0.0,0.0,0.0,15.287364,-129.40465,5.3523397,0.0,0.0,0.0,0.0,0.0,0.0,0.0,2.9034753,44.88466,1.5629561,
1.5624999767169359,80,-0.07897949,0.82159424,0.487854,-0.060546875,0.02734375,0.10449219,0.0,0.0,0.0,0.0,0.0,0.0,0.0,0.0,0.0,0.0,0.0,-0.615105,0.011691466,0.7884692,-0.98168945,0.06713867,0.10595703,-0.041015625,0.041015625,0.052734375,11.052697,-12.734578,0.24204959,16.323757,0.9762573,-0.16448975,-0.17327881,-0.03125,0.03515625,0.036132812,3.3467917,-8.51833,-56.320713,21.994015,-0.5737915,-0.022155762,0.8317871,0.0068359375,0.0048828125,-0.018554688,19.390522,-4.367294,-128.10397,25.970392,0.0,0.0,0.0,0.0,0.0,0.0,0.0,-4.3399463,-127.45489,45.958084,0.0,0.0,0.0,0.0,0.0,0.0,0.0,0.615105,-0.011691466,-0.7884692,-0.9524536,-0.10058594,-0.3522339,-0.041992188,0.036132812,0.017578125,2.242365,12.734578,-0.24204959,-16.323757,1.0026855,-0.052612305,-0.24267578,0.01953125,0.057617188,0.045898438,1.8197293,10.169545,-57.18822,-16.365974,-0.41809082,0.057861328,0.90057373,-0.016601562,0.029296875,0.00390625,1.7092623,7.9538155,-129.10083,-13.359678,0.0,0.0,0.0,0.0,0.0,0.0,0.0,15.300272,-129.39842,5.2416954,0.0,0.0,0.0,0.0,0.0,0.0,0.0,2.8725278,44.884514,1.575382,
1.5820312264258976,81,-0.074279785,0.8253174,0.46289062,-0.020507812,0.045898438,0.08496094,0.0,0.0,0.0,0.0,0.0,0.0,0.0,0.0,0.0,0.0,0.0,-0.61695385,0.010589089,0.78701574,-0.9796753,0.06225586,0.10583496,-0.041015625,0.041015625,0.034179688,11.07976,-12.772858,0.21922705,16.293667,0.9953613,-0.16821289,-0.17248535,-0.0126953125,0.03515625,0.036132812,3.3890536,-8.543594,-56.34058,21.997658,-0.5762329,0.008483887,0.81884766,0.0068359375,0.0048828125,-0.018554688,19.371689,-4.425224,-128.12958,25.984585,0.0,0.0,0.0,0.0,0.0,0.0,0.0,-4.3971624,-127.479416,45.97258,0.0,0.0,0.0,0.0,0.0,0.0,0.0,0.61695385,-0.010589089,-0.78701574,-0.90600586,-0.08087158,-0.35510254,-0.0029296875,0.07421875,-0.00390625,2.1673567,12.772858,-0.21922705,-16.293667,0.98272705,-0.07928467,-0.2341919,-0.0390625,0.05859375,0.06542969,1.8301315,10.173186,-57.166744,-16.420263,-0.4151001,0.045837402,0.89959717,0.021484375,0.0087890625,0.0029296875,1.6513791,7.934674,-129.07947,-13.5119,0.0,0.0,0.0,0.0,0.0,0.0,0.0,15.286495,-129.38145,5.0866413,0.0,0.0,0.0,0.0,0.0,0.0,0.0,2.8283525,44.885155,1.6132714,
1.6015624761348592,82,-0.07159424,0.81658936,0.5095215,-0.040039062,0.064453125,0.049804688,0.0,0.0,0.0,0.0,0.0,0.0,0.0,0.0,0.0,0.0,0.0,-0.6178424,0.009720273,0.7863685,-0.9816284,0.0690918,0.10394287,-0.041015625,0.0029296875,0.052734375,11.116644,-12.791253,0.20123982,16.280268,0.96899414,-0.16906738,-0.17022705,0.0068359375,0.03515625,0.055664062,3.4000123,-8.556029,-56.3585,21.976055,-0.55804443,0.01776123,0.8217163,0.0068359375,0.005859375,0.0,19.323963,-4.4638147,-128.14198,25.955751,0.0,0.0,0.0,0.0,0.0,0.0,0.0,-4.4302764,-127.49109,45.943153,0.0,0.0,0.0,0.0,0.0,0.0,0.0,0.6178424,-0.009720273,-0.7863685,-0.9265137,-0.11230469,-0.33270264,-0.13769531,-0.01953125,-0.001953125,2.1421058,12.791253,-0.20123982,-16.280268,0.9827881,-0.08325195,-0.22723389,-0.07714844,0.022460938,0.047851562,1.8625661,10.231165,-57.153717,-16.514194,-0.40185547,0.039489746,0.9094238,-0.016601562,0.009765625,0.00390625,1.5902855,7.9386935,-129.0744,-13.6796,0.0,0.0,0.0,0.0,0.0,0.0,0.0,15.290325,-129.37486,4.9182606,0.0,0.0,0.0,0.0,0.0,0.0,0.0,2.822033,44.885143,1.6624207,
1.621093725843821,83,-0.045410156,0.78601074,0.4985962,-0.020507812,0.045898438,0.08496094,0.0,0.0,0.0,0.0,0.0,0.0,0.0,0.0,0.0,0.0,0.0,-0.6185068,0.008866716,0.7858754,-0.99468994,0.07055664,0.08605957,-0.09765625,0.021484375,0.034179688,11.121868,-12.805007,0.18356852,16.27006,0.98065186,-0.14990234,-0.18725586,-0.033203125,0.017578125,-0.001953125,3.3612099,-8.594909,-56.381126,21.94495,-0.57354736,-0.008361816,0.8218384,-0.01171875,-0.01171875,0.0,19.285988,-4.5133796,-128.17003,25.942303,0.0,0.0,0.0,0.0,0.0,0.0,0.0,-4.4829025,-127.52196,45.92903,0.0,0.0,0.0,0.0,0.0,0.0,0.0,0.6185068,-0.008866716,-0.7858754,-0.92755127,-0.11633301,-0.3287964,-0.13769531,0.0,0.018554688,2.157582,12.805007,-0.18356852,-16.27006,1.0064087,-0.06866455,-0.24951172,-0.07714844,0.059570312,0.06640625,1.8211269,10.239084,-57.132748,-16.540335,-0.40081787,0.042419434,0.91430664,0.001953125,-0.009765625,-0.015625,1.5064917,7.882962,-129.04745,-13.795298,0.0,0.0,0.0,0.0,0.0,0.0,0.0,15.238751,-129.35207,4.800148,0.0,0.0,0.0,0.0,0.0,0.0,0.0,2.8165464,44.884365,1.7102913,
1.6406249755527826,84,-0.07672119,0.7937622,0.49847412,0.017578125,0.025390625,0.06640625,0.0,0.0,0.0,0.0,0.0,0.0,0.0,0.0,0.0,0.0,0.0,-0.6181082,0.009137861,0.7861399,-0.9869385,0.056274414,0.11767578,-0.00390625,0.0029296875,0.0146484375,11.136836,-12.796756,0.18918207,16.275534,0.99523926,-0.1720581,-0.1864624,-0.049804688,0.03515625,0.0546875,3.3767264,-8.577282,-56.37454,21.952213,-0.5773926,0.0026245117,0.82281494,0.0068359375,0.0234375,0.0,19.245943,-4.503866,-128.1581,25.941036,0.0,0.0,0.0,0.0,0.0,0.0,0.0,-4.462468,-127.513916,45.9272,0.0,0.0,0.0,0.0,0.0,0.0,0.0,0.6181082,-0.009137861,-0.7861399,-0.9317627,-0.12860107,-0.34362793,0.0546875,0.16992188,0.016601562,2.0244875,12.796756,-0.18918207,-16.275534,0.9946289,-0.07745361,-0.23736572,-0.038085938,0.05859375,0.103515625,1.8624609,10.146884,-57.136143,-16.652588,-0.39660645,0.046447754,0.90148926,0.001953125,-0.009765625,0.022460938,1.4459096,7.7216167,-129.05565,-13.995266,0.0,0.0,0.0,0.0,0.0,0.0,0.0,15.085907,-129.36337,4.598591,0.0,0.0,0.0,0.0,0.0,0.0,0.0,2.8305893,44.882103,1.7038748,
1.6601562252617443,85,-0.074645996,0.77783203,0.4953003,-0.040039062,0.045898438,0.0859375,0.0,0.0,0.0,0.0,0.0,0.0,0.0,0.0,0.0,0.0,0.0,-0.61786395,0.009159059,0.78636265,-0.9949341,0.06628418,0.10986328,-0.060546875,0.0029296875,0.033203125,11.200994,-12.791698,0.18962097,16.280144,0.9831543,-0.16760254,-0.1942749,-0.032226562,0.016601562,0.036132812,3.426284,-8.531991,-56.36585,21.990551,-0.5864258,-0.001953125,0.802063,-0.01171875,0.005859375,0.018554688,19.23161,-4.461874,-128.1555,25.9828,0.0,0.0,0.0,0.0,0.0,0.0,0.0,-4.4291906,-127.50803,45.9688,0.0,0.0,0.0,0.0,0.0,0.0,0.0,0.61786395,-0.009159059,-0.78636265,-0.9300537,-0.07647705,-0.3550415,-0.041992188,0.016601562,0.038085938,1.932392,12.791698,-0.18962097,-16.280144,0.9673462,-0.05706787,-0.20733643,-0.05859375,0.11425781,0.046875,1.9424932,10.132393,-57.134987,-16.767044,-0.3965454,0.06530762,0.9133301,-0.03515625,0.0107421875,0.00390625,1.412639,7.71008,-129.06067,-14.148843,0.0,0.0,0.0,0.0,0.0,0.0,0.0,15.069516,-129.36671,4.4460154,0.0,0.0,0.0,0.0,0.0,0.0,0.0,2.8389003,44.88252,1.7078283,
1.679687474970706,86,-0.06463623,0.80236816,0.49627686,-0.059570312,0.064453125,0.049804688,0.0,0.0,0.0,0.0,0.0,0.0,0.0,0.0,0.0,0.0,0.0,-0.6186805,0.008566027,0.785775,-0.9949341,0.05090332,0.09765625,-0.07910156,0.059570312,0.034179688,11.225282,-12.808605,0.17734322,16.267979,0.98132324,-0.1616211,-0.19525146,-0.05078125,0.036132812,0.03515625,3.4414506,-8.541872,-56.378277,21.968906,-0.5562744,0.00390625,0.8267212,-0.01171875,0.005859375,0.0,19.165228,-4.5004144,-128.16823,25.949455,0.0,0.0,0.0,0.0,0.0,0.0,0.0,-4.4568763,-127.520805,45.936527,0.0,0.0,0.0,0.0,0.0,0.0,0.0,0.6186805,-0.008566027,-0.785775,-0.91259766,-0.12359619,-0.3239746,-0.17578125,0.041015625,-0.001953125,1.9526427,12.808605,-0.17734322,-16.267979,0.99554443,-0.04547119,-0.1921997,0.0,0.020507812,0.046875,1.9491315,10.13356,-57.11639,-16.762386,-0.41308594,0.04663086,0.9133911,-0.016601562,0.009765625,0.00390625,1.4743229,7.742557,-129.0433,-14.152856,0.0,0.0,0.0,0.0,0.0,0.0,0.0,15.103594,-129.35986,4.441985,0.0,0.0,0.0,0.0,0.0,0.0,0.0,2.833762,44.88324,1.7418755,
1.6992187246796677,87,-0.08404541,0.80181885,0.48284912,0.0,0.064453125,0.08496094,0.0,0.0,0.0,0.0,0.0,0.0,0.0,0.0,0.0,0.0,0.0,-0.61912036,0.007926904,0.7854132,-0.97753906,0.08929443,0.11529541,-0.041015625,0.041015625,0.0146484375,11.259808,-12.81771,0.1641115,16.260489,0.97991943,-0.1743164,-0.2062378,-0.049804688,0.03515625,0.0546875,3.5098379,-8.527109,-56.388695,21.988136,-0.5522461,0.0028076172,0.8267212,0.0068359375,0.005859375,0.0,19.166174,-4.484833,-128.17432,25.919317,0.0,0.0,0.0,0.0,0.0,0.0,0.0,-4.45001,-127.5236,45.906223,0.0,0.0,0.0,0.0,0.0,0.0,0.0,0.61912036,-0.007926904,-0.7854132,-0.9399414,-0.13775635,-0.3633423,-0.041992188,0.036132812,0.017578125,1.8537189,12.81771,-0.1641115,-16.260489,0.9963989,-0.07751465,-0.2512207,-0.0390625,0.05859375,0.06542969,1.994196,10.108754,-57.10281,-16.859749,-0.39056396,0.02935791,0.897583,0.0029296875,0.009765625,0.00390625,1.4155451,7.67297,-129.03212,-14.324705,0.0,0.0,0.0,0.0,0.0,0.0,0.0,15.032363,-129.34918,4.2703075,0.0,0.0,0.0,0.0,0.0,0.0,0.0,2.8108964,44.883087,1.7627654,
1.7187499743886294,88,-0.07171631,0.8065796,0.49945068,-0.040039062,0.045898438,0.0859375,0.0,0.0,0.0,0.0,0.0,0.0,0.0,0.0,0.0,0.0,0.0,-0.6191726,0.007659004,0.78541946,-0.98760986,0.07513428,0.098083496,-0.060546875,0.0029296875,0.052734375,11.326512,-12.81879,0.15856518,16.260618,0.98620605,-0.128479,-0.20812988,-0.06933594,0.036132812,0.053710938,3.5583148,-8.519245,-56.38902,22.038786,-0.55352783,-0.011047363,0.83862305,-0.01171875,-0.01171875,0.018554688,19.194624,-4.491618,-128.18053,25.9792,0.0,0.0,0.0,0.0,0.0,0.0,0.0,-4.4652085,-127.52447,45.96522,0.0,0.0,0.0,0.0,0.0,0.0,0.0,0.6191726,-0.007659004,-0.78541946,-0.9063721,-0.1071167,-0.36120605,-0.022460938,0.07519531,-0.0029296875,1.8188688,12.81879,-0.15856518,-16.260618,0.9746094,-0.08117676,-0.24090576,0.0,0.057617188,0.06542969,2.00935,10.160822,-57.098072,-16.957642,-0.40081787,0.04144287,0.91430664,-0.016601562,0.009765625,0.022460938,1.343192,7.6598206,-129.02026,-14.508631,0.0,0.0,0.0,0.0,0.0,0.0,0.0,15.025257,-129.33868,4.083359,0.0,0.0,0.0,0.0,0.0,0.0,0.0,2.8170686,44.88348,1.7831092,
1.7382812240975911,89,-0.05340576,0.8121338,0.5109863,-0.060546875,0.02734375,0.06738281,0.0,0.0,0.0,0.0,0.0,0.0,0.0,0.0,0.0,0.0,0.0,-0.61924136,0.00804976,0.7852917,-0.98376465,0.050720215,0.09869385,-0.041015625,0.022460938,0.0146484375,11.337601,-12.820216,0.16665503,16.25797,0.97821045,-0.16247559,-0.20916748,-0.0126953125,0.03515625,0.036132812,3.586595,-8.522603,-56.378605,22.042248,-0.5731201,0.019165039,0.8306885,-0.01171875,0.005859375,-0.018554688,19.212004,-4.5383363,-128.17764,25.974543,0.0,0.0,0.0,0.0,0.0,0.0,0.0,-4.5061035,-127.517975,45.962624,0.0,0.0,0.0,0.0,0.0,0.0,0.0,0.61924136,-0.00804976,-0.7852917,-0.9083252,-0.10491943,-0.36999512,-0.041992188,0.055664062,0.017578125,1.7735441,12.820216,-0.16665503,-16.25797,1.0057373,-0.055664062,-0.23577881,-0.07714844,0.022460938,0.06640625,1.9779365,10.17675,-57.105846,-17.019688,-0.43151855,0.042053223,0.90753174,0.001953125,-0.009765625,0.022460938,1.274568,7.6383486,-129.0357,-14.686102,0.0,0.0,0.0,0.0,0.0,0.0,0.0,15.00543,-129.35362,3.9057121,0.0,0.0,0.0,0.0,0.0,0.0,0.0,2.8340864,44.880272,1.7747649,
1.7578124738065528,90,-0.07751465,0.81085205,0.52056885,-0.021484375,0.025390625,0.048828125,0.0,0.0,0.0,0.0,0.0,0.0,0.0,0.0,0.0,0.0,0.0,-0.61895686,0.009028834,0.7854638,-0.9977417,0.06567383,0.08795166,-0.041015625,0.041015625,0.034179688,11.299982,-12.814326,0.18692489,16.261536,0.9690552,-0.16711426,-0.17425537,-0.0126953125,0.036132812,0.017578125,3.5359592,-8.541356,-56.368874,22.00267,-0.5715332,-0.007446289,0.8277588,-0.01171875,0.024414062,0.0,19.176043,-4.5620613,-128.16377,25.93698,0.0,0.0,0.0,0.0,0.0,0.0,0.0,-4.528864,-127.50369,45.928185,0.0,0.0,0.0,0.0,0.0,0.0,0.0,0.61895686,-0.009028834,-0.7854638,-0.8874512,-0.120910645,-0.3731079,-0.022460938,0.09472656,0.017578125,1.6682394,12.814326,-0.18692489,-16.261536,1.0064087,-0.08862305,-0.24249268,-0.21191406,0.024414062,0.08691406,2.0383606,10.098677,-57.12309,-17.100508,-0.4397583,0.050109863,0.918396,-0.016601562,0.009765625,0.00390625,1.1396946,7.4698877,-129.0438,-14.789846,0.0,0.0,0.0,0.0,0.0,0.0,0.0,14.8438835,-129.36156,3.7994366,0.0,0.0,0.0,0.0,0.0,0.0,0.0,2.873468,44.877327,1.7484734,
1.7773437235155145,91,-0.09350586,0.7844238,0.5227661,-0.041015625,0.026367188,0.048828125,0.0,0.0,0.0,0.0,0.0,0.0,0.0,0.0,0.0,0.0,0.0,-0.61911845,0.009588335,0.7854494,-0.982605,0.07684326,0.107055664,-0.022460938,0.0029296875,0.052734375,11.266171,-12.817672,0.19850826,16.261236,0.9821167,-0.1675415,-0.20227051,-0.049804688,0.03515625,0.0546875,3.5247009,-8.5315075,-56.355526,21.988235,-0.5574951,-0.0107421875,0.8109741,-0.01171875,0.024414062,0.0,19.206835,-4.553815,-128.15234,25.932556,0.0,0.0,0.0,0.0,0.0,0.0,0.0,-4.5335894,-127.48807,45.92324,0.0,0.0,0.0,0.0,0.0,0.0,0.0,0.61911845,-0.009588335,-0.7854494,-0.9256592,-0.12414551,-0.3701172,-0.022460938,0.07519531,0.016601562,1.5894239,12.817672,-0.19850826,-16.261236,0.9747925,-0.09613037,-0.22302246,-0.038085938,0.040039062,0.06640625,2.1041262,10.12125,-57.134724,-17.164198,-0.40905762,0.04345703,0.92614746,0.001953125,-0.009765625,0.022460938,1.1329786,7.439355,-129.05649,-14.845882,0.0,0.0,0.0,0.0,0.0,0.0,0.0,14.820805,-129.38461,3.7396698,0.0,0.0,0.0,0.0,0.0,0.0,0.0,2.8706124,44.883045,1.7148086,
1.7968749732244762,92,-0.089904785,0.809021,0.4989624,-0.059570312,0.046875,0.0859375,0.0,0.0,0.0,0.0,0.0,0.0,0.0,0.0,0.0,0.0,0.0,-0.6197575,0.009961247,0.7848943,-0.9990845,0.06036377,0.116760254,-0.022460938,0.0029296875,0.033203125,11.2835,-12.830901,0.20622867,16.249746,0.99786377,-0.18383789,-0.20147705,-0.06933594,0.055664062,0.034179688,3.5755506,-8.535599,-56.340176,22.022726,-0.5563965,-0.0029907227,0.82476807,0.0068359375,0.0048828125,-0.018554688,19.208693,-4.5767603,-128.13846,25.97048,0.0,0.0,0.0,0.0,0.0,0.0,0.0,-4.5542593,-127.47862,45.958797,0.0,0.0,0.0,0.0,0.0,0.0,0.0,0.6197575,-0.009961247,-0.7848943,-0.923584,-0.12017822,-0.37506104,-0.13769531,0.05859375,0.018554688,1.5377336,12.830901,-0.20622867,-16.249746,0.97717285,-0.052246094,-0.21942139,0.018554688,0.057617188,0.02734375,2.109978,10.16453,-57.14161,-17.21057,-0.40686035,0.04272461,0.89367676,0.0029296875,0.009765625,-0.015625,1.1143447,7.480115,-129.06964,-14.955406,0.0,0.0,0.0,0.0,0.0,0.0,0.0,14.865985,-129.40019,3.628889,0.0,0.0,0.0,0.0,0.0,0.0,0.0,2.866541,44.882465,1.6938267,
1.816406222933438,93,-0.084228516,0.8166504,0.47198486,-0.040039062,0.045898438,0.10449219,0.0,0.0,0.0,0.0,0.0,0.0,0.0,0.0,0.0,0.0,0.0,-0.62071466,0.009528231,0.78410774,-0.98773193,0.05859375,0.09680176,-0.00390625,0.022460938,0.033203125,11.293584,-12.850719,0.19726397,16.233461,0.9911499,-0.16986084,-0.20733643,-0.068359375,0.07421875,0.053710938,3.5809133,-8.530628,-56.352818,22.00333,-0.5645752,-0.014526367,0.81689453,-0.01171875,0.005859375,-0.018554688,19.230417,-4.5941525,-128.15285,25.971468,0.0,0.0,0.0,0.0,0.0,0.0,0.0,-4.5754266,-127.49692,45.958817,0.0,0.0,0.0,0.0,0.0,0.0,0.0,0.62071466,-0.009528231,-0.78410774,-0.8954468,-0.11834717,-0.35144043,-0.080078125,0.057617188,-0.0029296875,1.5011563,12.850719,-0.19726397,-16.233461,1.0071411,-0.037719727,-0.22015381,-0.05859375,0.11425781,0.046875,2.117478,10.176144,-57.130585,-17.232557,-0.39276123,0.017211914,0.9192505,0.0029296875,0.009765625,0.00390625,1.1025165,7.576318,-129.06406,-15.021219,0.0,0.0,0.0,0.0,0.0,0.0,0.0,14.953977,-129.39702,3.5648727,0.0,0.0,0.0,0.0,0.0,0.0,0.0,2.8467832,44.881935,1.7081769,
1.8359374726423996,94,-0.060546875,0.7844238,0.49798584,-0.041015625,0.02734375,0.0859375,0.0,0.0,0.0,0.0,0.0,0.0,0.0,0.0,0.0,0.0,0.0,-0.6221277,0.0081698485,0.7830095,-0.9908447,0.07293701,0.1159668,-0.00390625,0.022460938,0.033203125,11.325138,-12.8799715,0.16914119,16.210724,0.9837036,-0.18328857,-0.19537354,-0.0126953125,0.0546875,0.036132812,3.617633,-8.5589905,-56.37453,22.023483,-0.5623779,-7.9345703E-4,0.81884766,-0.01171875,0.005859375,0.018554688,19.309393,-4.6615067,-128.16849,26.01682,0.0,0.0,0.0,0.0,0.0,0.0,0.0,-4.6584005,-127.51216,46.003986,0.0,0.0,0.0,0.0,0.0,0.0,0.0,0.6221277,-0.0081698485,-0.7830095,-0.9246216,-0.12005615,-0.3789673,0.015625,0.03515625,0.037109375,1.4621942,12.8799715,-0.16914119,-16.210724,1.0046997,-0.07159424,-0.23071289,-0.07714844,0.022460938,0.06640625,2.1644652,10.214068,-57.10084,-17.27797,-0.43859863,0.0592041,0.9036255,0.0029296875,0.009765625,0.00390625,1.1357386,7.6905766,-129.03465,-15.099709,0.0,0.0,0.0,0.0,0.0,0.0,0.0,15.083948,-129.36455,3.4807014,0.0,0.0,0.0,0.0,0.0,0.0,0.0,2.7987301,44.883385,1.7553769,
1.8554687223513613,95,-0.0446167,0.7838745,0.48162842,-0.041015625,0.026367188,0.06738281,0.0,0.0,0.0,0.0,0.0,0.0,0.0,0.0,0.0,0.0,0.0,-0.62272507,0.0072056176,0.78252316,-0.98895264,0.05633545,0.115722656,-0.060546875,0.021484375,0.072265625,11.408691,-12.892339,0.14917864,16.200657,0.97595215,-0.17327881,-0.17633057,0.025390625,0.03515625,0.037109375,3.6759953,-8.552516,-56.385273,22.091198,-0.5695801,-0.009521484,0.83569336,-0.01171875,0.005859375,-0.018554688,19.288717,-4.655421,-128.18073,26.112026,0.0,0.0,0.0,0.0,0.0,0.0,0.0,-4.6523147,-127.5244,46.09919,0.0,0.0,0.0,0.0,0.0,0.0,0.0,0.62272507,-0.0072056176,-0.78252316,-0.90148926,-0.11993408,-0.36224365,-0.080078125,-9.765625E-4,-0.0029296875,1.450234,12.892339,-0.14917864,-16.200657,1.00531,-0.09259033,-0.24639893,-0.09667969,0.059570312,0.06640625,2.2207894,10.261397,-57.08387,-17.335001,-0.43359375,0.042114258,0.9085083,0.021484375,-0.009765625,0.0029296875,1.1134664,7.675683,-129.00931,-15.161217,0.0,0.0,0.0,0.0,0.0,0.0,0.0,15.080101,-129.33595,3.415203,0.0,0.0,0.0,0.0,0.0,0.0,0.0,2.7740169,44.882645,1.7942502,
1.874999972060323,96,-0.07165527,0.798645,0.5023804,-0.022460938,-0.0126953125,0.048828125,0.0,0.0,0.0,0.0,0.0,0.0,0.0,0.0,0.0,0.0,0.0,-0.6226708,0.00699626,0.78265893,-1.0050659,0.06829834,0.11584473,-0.041015625,0.021484375,0.052734375,11.485746,-12.891216,0.14484431,16.203466,0.9918823,-0.18273926,-0.18249512,-0.0126953125,0.0546875,0.036132812,3.6759953,-8.517811,-56.381466,22.121529,-0.58251953,-0.003112793,0.81988525,0.0068359375,0.005859375,0.0,19.238825,-4.5675526,-128.16925,26.171227,0.0,0.0,0.0,0.0,0.0,0.0,0.0,-4.566545,-127.515335,46.160847,0.0,0.0,0.0,0.0,0.0,0.0,0.0,0.6226708,-0.00699626,-0.78265893,-0.8944092,-0.113708496,-0.34161377,-0.080078125,-9.765625E-4,0.017578125,1.4793582,12.891216,-0.14484431,-16.203466,0.99432373,-0.04046631,-0.20996094,-0.07714844,0.059570312,0.06640625,2.196598,10.278843,-57.080685,-17.358297,-0.3977661,0.027526855,0.897583,0.0029296875,0.028320312,0.00390625,1.0871456,7.6621447,-129.00961,-15.237171,0.0,0.0,0.0,0.0,0.0,0.0,0.0,15.073284,-129.33461,3.3360252,0.0,0.0,0.0,0.0,0.0,0.0,0.0,2.7880735,44.884064,1.8169236,
1.8945312217692847,97,-0.0836792,0.79003906,0.5026245,-0.020507812,0.044921875,0.06738281,0.0,0.0,0.0,0.0,0.0,0.0,0.0,0.0,0.0,0.0,0.0,-0.62251526,0.0075996704,0.7826636,-1.0012207,0.040039062,0.11340332,-0.060546875,0.022460938,0.0146484375,11.485044,-12.887994,0.15733679,16.203562,0.96606445,-0.16296387,-0.19610596,-0.06933594,0.036132812,0.053710938,3.735754,-8.494638,-56.366085,22.145924,-0.57440186,-4.272461E-4,0.8148804,-0.01171875,0.005859375,0.018554688,19.181002,-4.5589924,-128.15573,26.16327,0.0,0.0,0.0,0.0,0.0,0.0,0.0,-4.556188,-127.50145,46.151146,0.0,0.0,0.0,0.0,0.0,0.0,0.0,0.62251526,-0.0075996704,-0.7826636,-0.9199219,-0.1472168,-0.35266113,0.0546875,0.15136719,-0.00390625,1.3801264,12.887994,-0.15733679,-16.203562,1.0018921,-0.06756592,-0.22375488,-0.13574219,0.060546875,0.06640625,2.265636,10.261813,-57.091183,-17.43121,-0.4192505,0.027954102,0.8937378,-0.016601562,0.029296875,0.00390625,1.1032262,7.6379766,-129.02017,-15.315771,0.0,0.0,0.0,0.0,0.0,0.0,0.0,15.066425,-129.3526,3.2517052,0.0,0.0,0.0,0.0,0.0,0.0,0.0,2.7878466,44.881485,1.7815988,
1.9140624714782464,98,-0.087768555,0.8070679,0.50787354,-0.060546875,0.02734375,0.0859375,0.0,0.0,0.0,0.0,0.0,0.0,0.0,0.0,0.0,0.0,0.0,-0.62346625,0.007241167,0.7819563,-0.98895264,0.065979004,0.122802734,-0.022460938,0.00390625,-0.0048828125,11.49999,-12.907683,0.14991456,16.18892,0.977417,-0.15661621,-0.19122314,-0.087890625,0.036132812,0.052734375,3.7831514,-8.497997,-56.36877,22.156673,-0.56048584,-0.008728027,0.81292725,0.0068359375,0.005859375,0.0,19.285501,-4.578246,-128.16599,26.160168,0.0,0.0,0.0,0.0,0.0,0.0,0.0,-4.582043,-127.51255,46.147316,0.0,0.0,0.0,0.0,0.0,0.0,0.0,0.62346625,-0.007241167,-0.7819563,-0.93640137,-0.1003418,-0.37487793,0.053710938,0.053710938,0.015625,1.2642395,12.907683,-0.14991456,-16.18892,1.0288086,-0.08886719,-0.20837402,-0.11621094,0.059570312,0.10449219,2.3647988,10.192412,-57.078865,-17.474623,-0.4048462,0.04168701,0.8927002,-0.016601562,0.009765625,0.022460938,1.0762914,7.5447645,-129.00961,-15.31288,0.0,0.0,0.0,0.0,0.0,0.0,0.0,14.979933,-129.34038,3.2513714,0.0,0.0,0.0,0.0,0.0,0.0,0.0,2.7640572,44.884346,1.7881831,
1.933593721187208,99,-0.051330566,0.7921753,0.5107422,-0.041015625,0.026367188,0.06738281,0.0,0.0,0.0,0.0,0.0,0.0,0.0,0.0,0.0,0.0,0.0,-0.6242155,0.006339333,0.7813974,-0.9725952,0.06976318,0.11395264,-0.022460938,0.022460938,0.033203125,11.57893,-12.923196,0.13124381,16.177347,0.9892578,-0.16687012,-0.19732666,-0.049804688,0.03515625,0.0546875,3.819365,-8.494463,-56.384827,22.178707,-0.56048584,-0.008728027,0.81292725,0.0068359375,0.005859375,0.0,19.31623,-4.603173,-128.17776,26.203733,0.0,0.0,0.0,0.0,0.0,0.0,0.0,-4.6103325,-127.529205,46.190926,0.0,0.0,0.0,0.0,0.0,0.0,0.0,0.6242155,-0.006339333,-0.7813974,-0.8956909,-0.13464355,-0.32507324,-0.13769531,-0.09765625,0.038085938,1.3171526,12.923196,-0.13124381,-16.177347,0.96325684,-0.07098389,-0.20916748,0.0,0.057617188,0.046875,2.3867133,10.2703495,-57.061497,-17.504196,-0.40509033,0.019470215,0.92126465,0.0029296875,0.009765625,-0.015625,1.0966438,7.620576,-128.98691,-15.361783,0.0,0.0,0.0,0.0,0.0,0.0,0.0,15.0578375,-129.32365,3.2015734,0.0,0.0,0.0,0.0,0.0,0.0,0.0,2.7578397,44.883778,1.8389533,
1.9531249708961698,100,-0.06549072,0.78759766,0.5070801,0.017578125,0.025390625,0.06640625,0.0,0.0,0.0,0.0,0.0,0.0,0.0,0.0,0.0,0.0,0.0,-0.6243235,0.005928359,0.78130496,-0.9859619,0.068725586,0.13183594,-0.022460938,0.041015625,0.034179688,11.617693,-12.92543,0.12273537,16.175434,0.9873047,-0.15979004,-0.22619629,-0.0126953125,0.03515625,0.036132812,3.8653338,-8.489578,-56.387196,22.195856,-0.58044434,-0.0031738281,0.81689453,0.0068359375,-0.0126953125,0.0,19.31624,-4.646617,-128.18349,26.214792,0.0,0.0,0.0,0.0,0.0,0.0,0.0,-4.652995,-127.53769,46.200645,0.0,0.0,0.0,0.0,0.0,0.0,0.0,0.6243235,-0.005928359,-0.78130496,-0.9016113,-0.12548828,-0.3328247,-0.15625,-0.038085938,-0.001953125,1.4119462,12.92543,-0.12273537,-16.175434,0.97906494,-0.056274414,-0.22143555,0.0390625,0.0390625,0.06542969,2.3142686,10.376196,-57.057896,-17.494322,-0.39666748,0.0335083,0.8936157,0.001953125,-0.009765625,0.00390625,1.080284,7.7344556,-128.98656,-15.428044,0.0,0.0,0.0,0.0,0.0,0.0,0.0,15.164997,-129.32495,3.1385336,0.0,0.0,0.0,0.0,0.0,0.0,0.0,2.7558763,44.882633,1.8616009,
1.9726562206051315,101,-0.0848999,0.78100586,0.48669434,-0.041992188,0.0068359375,0.048828125,0.0,0.0,0.0,0.0,0.0,0.0,0.0,0.0,0.0,0.0,0.0,-0.6246631,0.0061540827,0.7810998,-0.98669434,0.056762695,0.08782959,-0.060546875,0.041015625,0.052734375,11.568292,-12.932461,0.12740856,16.171188,0.96099854,-0.16278076,-0.20202637,-0.0126953125,0.03515625,0.036132812,3.8605685,-8.5121155,-56.387108,22.180515,-0.5742798,0.007385254,0.82873535,-0.01171875,0.005859375,-0.018554688,19.297813,-4.678405,-128.19058,26.184795,0.0,0.0,0.0,0.0,0.0,0.0,0.0,-4.680228,-127.543625,46.170296,0.0,0.0,0.0,0.0,0.0,0.0,0.0,0.6246631,-0.0061540827,-0.7810998,-0.9217529,-0.13226318,-0.36236572,-0.0029296875,0.07421875,0.016601562,1.376577,12.932461,-0.12740856,-16.171188,0.9904785,-0.041503906,-0.26324463,-0.07714844,0.022460938,0.06640625,2.2979732,10.43153,-57.06168,-17.543716,-0.42944336,0.053894043,0.91833496,-0.016601562,0.009765625,0.00390625,1.0243111,7.7877264,-128.9961,-15.565342,0.0,0.0,0.0,0.0,0.0,0.0,0.0,15.219195,-129.32921,3.000618,0.0,0.0,0.0,0.0,0.0,0.0,0.0,2.7438807,44.886627,1.840693,
1.9921874703140932,102,-0.07409668,0.8064575,0.4716797,-0.041015625,0.026367188,0.06738281,0.0,0.0,0.0,0.0,0.0,0.0,0.0,0.0,0.0,0.0,0.0,-0.6245963,0.006197244,0.7810947,-0.9949341,0.057556152,0.10675049,-0.060546875,0.07910156,0.034179688,11.531842,-12.931081,0.12830219,16.171082,1.0010376,-0.17907715,-0.20843506,-0.049804688,0.03515625,0.0546875,3.8437936,-8.533149,-56.38584,22.169832,-0.5645752,-0.008728027,0.8406372,0.0068359375,0.005859375,0.018554688,19.358175,-4.730715,-128.1873,26.188192,0.0,0.0,0.0,0.0,0.0,0.0,0.0,-4.742874,-127.54427,46.175354,0.0,0.0,0.0,0.0,0.0,0.0,0.0,0.6245963,-0.006197244,-0.7810947,-0.90319824,-0.09661865,-0.3935547,0.07324219,0.091796875,0.015625,1.2806945,12.931081,-0.12830219,-16.171082,0.98669434,-0.06939697,-0.23925781,-0.19238281,0.024414062,0.125,2.337494,10.348532,-57.060738,-17.578289,-0.40802002,0.037475586,0.9202881,-0.016601562,0.009765625,0.00390625,0.93356085,7.638896,-128.99005,-15.595468,0.0,0.0,0.0,0.0,0.0,0.0,0.0,15.067099,-129.32475,2.9724436,0.0,0.0,0.0,0.0,0.0,0.0,0.0,2.736987,44.885334,1.8324882,
2.011718720023055,103,-0.07733154,0.77508545,0.5222168,0.018554688,0.044921875,0.083984375,0.0,0.0,0.0,0.0,0.0,0.0,0.0,0.0,0.0,0.0,0.0,-0.62549436,0.006064265,0.78038836,-0.97265625,0.06677246,0.12084961,-0.07910156,0.021484375,0.033203125,11.57631,-12.949671,0.12554908,16.15646,0.99108887,-0.17584229,-0.17944336,-0.051757812,0.017578125,0.016601562,3.8779273,-8.544014,-56.387657,22.19241,-0.57025146,0.005432129,0.80895996,0.0068359375,0.005859375,0.0,19.360813,-4.764225,-128.18738,26.228132,0.0,0.0,0.0,0.0,0.0,0.0,0.0,-4.7692313,-127.54213,46.218132,0.0,0.0,0.0,0.0,0.0,0.0,0.0,0.62549436,-0.006064265,-0.78038836,-0.899353,-0.10961914,-0.34350586,-0.11816406,0.0,0.017578125,1.2835944,12.949671,-0.12554908,-16.15646,0.97802734,-0.056274414,-0.22729492,-0.038085938,0.0029296875,0.06640625,2.3479373,10.379919,-57.053276,-17.588144,-0.41296387,0.057800293,0.89764404,-0.016601562,0.009765625,0.00390625,0.83860147,7.5957394,-128.98257,-15.624839,0.0,0.0,0.0,0.0,0.0,0.0,0.0,15.020054,-129.3181,2.9440985,0.0,0.0,0.0,0.0,0.0,0.0,0.0,2.73734,44.8852,1.8452286,
2.0312499697320168,104,-0.08984375,0.80908203,0.5029297,-0.001953125,0.0068359375,0.06640625,0.0,0.0,0.0,0.0,0.0,0.0,0.0,0.0,0.0,0.0,0.0,-0.62587255,0.006430774,0.7800334,-0.9835205,0.07611084,0.09411621,-0.060546875,0.040039062,0.072265625,11.549936,-12.957504,0.13313699,16.149109,0.9790039,-0.16937256,-0.20220947,-0.013671875,0.016601562,0.017578125,3.895712,-8.555199,-56.37707,22.208076,-0.58117676,0.01171875,0.79608154,-0.01171875,-0.030273438,0.018554688,19.348932,-4.7958574,-128.18011,26.25726,0.0,0.0,0.0,0.0,0.0,0.0,0.0,-4.7959375,-127.53551,46.244553,0.0,0.0,0.0,0.0,0.0,0.0,0.0,0.62587255,-0.006430774,-0.7800334,-0.9029541,-0.1529541,-0.3713379,-0.080078125,-0.020507812,-0.0029296875,1.2190069,12.957504,-0.13313699,-16.149109,0.9906006,-0.07141113,-0.24328613,0.01953125,0.0390625,0.06542969,2.3872054,10.415297,-57.066902,-17.645676,-0.40490723,0.03363037,0.897583,0.001953125,-0.009765625,0.022460938,0.84510964,7.596162,-128.99214,-15.717158,0.0,0.0,0.0,0.0,0.0,0.0,0.0,15.028175,-129.33574,2.847598,0.0,0.0,0.0,0.0,0.0,0.0,0.0,2.7227097,44.885628,1.8145633,
2.0507812194409785,105,-0.07714844,0.81451416,0.4708252,-0.080078125,0.028320312,0.08691406,0.0,0.0,0.0,0.0,0.0,0.0,0.0,0.0,0.0,0.0,0.0,-0.62650806,0.0061711185,0.77963245,-0.98876953,0.07019043,0.10498047,-0.060546875,0.021484375,0.033203125,11.587996,-12.97066,0.12776126,16.140808,0.9837036,-0.18231201,-0.20733643,-0.049804688,0.0546875,0.03515625,3.9462535,-8.573989,-56.378986,22.225403,-0.5666504,-0.01739502,0.81396484,0.0068359375,0.005859375,0.0,19.427908,-4.8420386,-128.17825,26.244284,0.0,0.0,0.0,0.0,0.0,0.0,0.0,-4.852386,-127.54142,46.2316,0.0,0.0,0.0,0.0,0.0,0.0,0.0,0.62650806,-0.0061711185,-0.77963245,-0.9123535,-0.10736084,-0.3887329,0.015625,0.11328125,0.037109375,1.160284,12.97066,-0.12776126,-16.140808,0.98651123,-0.06738281,-0.25109863,-0.078125,0.09667969,0.06542969,2.4168656,10.364284,-57.056534,-17.685196,-0.4100952,0.029663086,0.9104004,0.0029296875,0.009765625,0.00390625,0.86002815,7.535149,-128.98567,-15.777456,0.0,0.0,0.0,0.0,0.0,0.0,0.0,14.965988,-129.33682,2.788351,0.0,0.0,0.0,0.0,0.0,0.0,0.0,2.726613,44.888298,1.8357806,
2.07031246914994,106,-0.08465576,0.77716064,0.5025635,-0.060546875,0.02734375,0.06738281,0.0,0.0,0.0,0.0,0.0,0.0,0.0,0.0,0.0,0.0,0.0,-0.6256949,0.006722548,0.78023326,-0.9794922,0.07019043,0.094055176,-0.00390625,0.022460938,0.033203125,11.615082,-12.953824,0.1391776,16.153246,0.9850464,-0.17260742,-0.19433594,-0.0126953125,0.015625,0.055664062,3.9708397,-8.574851,-56.365337,22.25791,-0.5720215,0.018249512,0.8098755,0.0068359375,0.005859375,0.018554688,19.495743,-4.8740196,-128.16977,26.271805,0.0,0.0,0.0,0.0,0.0,0.0,0.0,-4.889542,-127.53162,46.259003,0.0,0.0,0.0,0.0,0.0,0.0,0.0,0.6256949,-0.006722548,-0.78023326,-0.89953613,-0.12298584,-0.359375,-0.080078125,-9.765625E-4,0.017578125,1.1132907,12.953824,-0.1391776,-16.153246,0.9815674,-0.08026123,-0.24206543,-0.057617188,0.040039062,0.046875,2.461243,10.294463,-57.061302,-17.749657,-0.40789795,0.058532715,0.9182739,0.001953125,-0.009765625,0.00390625,0.829923,7.4042435,-128.98668,-15.852729,0.0,0.0,0.0,0.0,0.0,0.0,0.0,14.8281765,-129.33798,2.715621,0.0,0.0,0.0,0.0,0.0,0.0,0.0,2.7622209,44.88475,1.8283857,
2.089843718858902,107,-0.06964111,0.8085327,0.50439453,-0.020507812,0.064453125,0.0859375,0.0,0.0,0.0,0.0,0.0,0.0,0.0,0.0,0.0,0.0,0.0,-0.62569916,0.0066480264,0.78015184,-0.9805298,0.07501221,0.098083496,-0.060546875,0.059570312,0.034179688,11.638178,-12.953912,0.13763472,16.151562,0.99591064,-0.18182373,-0.20141602,-0.03125,0.03515625,0.036132812,3.9941964,-8.569353,-56.368782,22.268162,-0.5685425,-0.009521484,0.82281494,0.0068359375,0.005859375,0.018554688,19.448463,-4.8948894,-128.17627,26.283037,0.0,0.0,0.0,0.0,0.0,0.0,0.0,-4.904221,-127.5363,46.26995,0.0,0.0,0.0,0.0,0.0,0.0,0.0,0.62569916,-0.0066480264,-0.78015184,-0.9290161,-0.1473999,-0.37817383,-0.13769531,0.0,-0.022460938,1.1118836,12.953912,-0.13763472,-16.151562,0.9815674,-0.08026123,-0.24206543,-0.057617188,0.040039062,0.046875,2.4818332,10.297019,-57.06196,-17.7697,-0.3925171,0.05029297,0.9113159,0.021484375,-0.009765625,0.0029296875,0.82803464,7.4067993,-128.98734,-15.872771,0.0,0.0,0.0,0.0,0.0,0.0,0.0,14.826847,-129.33946,2.6966066,0.0,0.0,0.0,0.0,0.0,0.0,0.0,2.76617,44.88143,1.8360752,
2.1093749685678636,108,-0.073791504,0.7926636,0.49145508,-0.041015625,0.026367188,0.048828125,0.0,0.0,0.0,0.0,0.0,0.0,0.0,0.0,0.0,0.0,0.0,-0.6253826,0.0072966637,0.7803997,-0.993042,0.051574707,0.113586426,-0.00390625,0.041015625,0.052734375,11.596782,-12.947358,0.1510636,16.156694,0.97125244,-0.19354248,-0.20324707,-0.06933594,0.055664062,0.034179688,3.9726644,-8.56366,-56.355556,22.258972,-0.56640625,-0.0026855469,0.8237915,0.0068359375,0.005859375,0.018554688,19.47798,-4.90291,-128.16498,26.297546,0.0,0.0,0.0,0.0,0.0,0.0,0.0,-4.921739,-127.51896,46.28561,0.0,0.0,0.0,0.0,0.0,0.0,0.0,0.6253826,-0.0072966637,-0.7803997,-0.9208374,-0.14147949,-0.38598633,0.03515625,0.053710938,0.037109375,1.0605406,12.947358,-0.1510636,-16.156694,0.98883057,-0.057434082,-0.23345947,-0.07714844,0.059570312,0.046875,2.4160557,10.282444,-57.070366,-17.806938,-0.4058838,0.043640137,0.9035034,0.0029296875,0.009765625,0.00390625,0.76923114,7.337882,-128.99863,-16.03585,0.0,0.0,0.0,0.0,0.0,0.0,0.0,14.760025,-129.35672,2.532629,0.0,0.0,0.0,0.0,0.0,0.0,0.0,2.7698474,44.88266,1.8000014,
